{"resourceType":"Bundle","id":"tests-865b3218-9d2a-4512-b76e-ed70c25324e6-bundle","type":"transaction","entry":[{"resource":{"resourceType":"MeasureReport","id":"ee550eba-7e26-4f8a-99ad-cc1b74d4f909","meta":{"profile":["http://hl7.org/fhir/us/cqfmeasures/StructureDefinition/test-case-cqfm"]},"contained":[{"resourceType":"Parameters","id":"e98c5f66-0d6f-4156-a514-7aa030ffa80a-parameters","parameter":[{"name":"subject","valueString":"865b3218-9d2a-4512-b76e-ed70c25324e6"}]}],"extension":[{"url":"http://hl7.org/fhir/StructureDefinition/cqf-inputParameters","valueReference":{"reference":"#e98c5f66-0d6f-4156-a514-7aa030ffa80a-parameters"}},{"url":"http://hl7.org/fhir/us/cqfmeasures/StructureDefinition/cqfm-testCaseDescription","valueMarkdown":"Inpatient encounter during MP.Unstageable injury present on Admission = Y, Denex pass"}],"modifierExtension":[{"url":"http://hl7.org/fhir/us/cqfmeasures/StructureDefinition/cqfm-isTestCase","valueBoolean":true}],"status":"complete","type":"individual","measure":"https://madie.cms.gov/Measure/CMS826FHIRHHPI","period":{"start":"2026-01-01","end":"2026-12-31"},"group":[{"id":"Group_1","population":[{"id":"InitialPopulation_1","code":{"coding":[{"system":"http://terminology.hl7.org/CodeSystem/measure-population","code":"initial-population","display":"Initial Population"}]},"count":1},{"id":"Denominator_1","code":{"coding":[{"system":"http://terminology.hl7.org/CodeSystem/measure-population","code":"denominator","display":"Denominator"}]},"count":1},{"id":"DenominatorExclusion_1","code":{"coding":[{"system":"http://terminology.hl7.org/CodeSystem/measure-population","code":"denominator-exclusion","display":"Denominator Exclusion"}]},"count":1},{"id":"Numerator_1","code":{"coding":[{"system":"http://terminology.hl7.org/CodeSystem/measure-population","code":"numerator","display":"Numerator"}]},"count":0}],"measureScore":{"value":0.0}}],"evaluatedResource":[{"reference":"Encounter/2984e680-7ebf-4aa5-a8df-8bdc33314341"},{"reference":"Claim/0a25fe7f-1042-483b-becb-d98a2095141a"},{"reference":"Encounter/329fce82-a7f3-4603-9ede-ea8ee7f3ed2f"},{"reference":"Patient/865b3218-9d2a-4512-b76e-ed70c25324e6"}]},"request":{"method":"PUT","url":"MeasureReport/ee550eba-7e26-4f8a-99ad-cc1b74d4f909"}},{"resource":{"resourceType":"Encounter","id":"2984e680-7ebf-4aa5-a8df-8bdc33314341","meta":{"profile":["http://hl7.org/fhir/us/qicore/StructureDefinition/qicore-encounter"]},"status":"finished","class":{"system":"http://terminology.hl7.org/CodeSystem/v3-ActCode","code":"IMP","display":"inpatient encounter"},"type":[{"coding":[{"system":"http://snomed.info/sct","version":"2022-09","code":"183452005","display":"Emergency hospital admission (procedure)","userSelected":true}]}],"subject":{"reference":"Patient/865b3218-9d2a-4512-b76e-ed70c25324e6"},"period":{"start":"2026-02-01T08:30:00.000+00:00","end":"2026-02-06T08:15:00.000+00:00"}},"request":{"method":"PUT","url":"Encounter/2984e680-7ebf-4aa5-a8df-8bdc33314341"}},{"resource":{"resourceType":"Claim","id":"0a25fe7f-1042-483b-becb-d98a2095141a","meta":{"profile":["http://hl7.org/fhir/us/qicore/StructureDefinition/qicore-claim"]},"status":"active","type":{"coding":[{"system":"http://terminology.hl7.org/CodeSystem/claim-type","code":"professional"}]},"use":"claim","patient":{"reference":"Patient/865b3218-9d2a-4512-b76e-ed70c25324e6"},"created":"2026-05-16","priority":{"coding":[{"system":"http://terminology.hl7.org/CodeSystem/processpriority","code":"normal"}]},"diagnosis":[{"sequence":1,"diagnosisCodeableConcept":{"coding":[{"system":"http://hl7.org/fhir/sid/icd-10-cm","code":"L89.000","display":"Pressure ulcer of unspecified elbow, unstageable"}]},"type":[{"coding":[{"system":"http://terminology.hl7.org/CodeSystem/ex-diagnosistype","code":"principal"}]}],"onAdmission":{"coding":[{"system":"https://www.cms.gov/Medicare/Medicare-Fee-for-Service-Payment/HospitalAcqCond/Coding","code":"Y"}]}}],"item":[{"sequence":1,"diagnosisSequence":[1,5,7],"productOrService":{"coding":[{"system":"http://example.org/fhir/CodeSystem/ex-professionalservice","code":"anesthesia"}]},"servicedDate":"2026-04-11","encounter":[{"reference":"Encounter/2984e680-7ebf-4aa5-a8df-8bdc33314341"}]}]},"request":{"method":"PUT","url":"Claim/0a25fe7f-1042-483b-becb-d98a2095141a"}},{"resource":{"resourceType":"Patient","id":"865b3218-9d2a-4512-b76e-ed70c25324e6","meta":{"profile":["http://hl7.org/fhir/us/qicore/StructureDefinition/qicore-patient"]},"extension":[{"url":"http://hl7.org/fhir/us/core/StructureDefinition/us-core-race","extension":[{"url":"ombCategory","valueCoding":{"system":"urn:oid:2.16.840.1.113883.6.238","code":"2028-9","display":"Asian","userSelected":true}},{"url":"text","valueString":"Asian"}]},{"url":"http://hl7.org/fhir/us/core/StructureDefinition/us-core-ethnicity","extension":[{"url":"ombCategory","valueCoding":{"system":"urn:oid:2.16.840.1.113883.6.238","code":"2186-5","display":"Not Hispanic or Latino","userSelected":true}},{"url":"text","valueString":"Not Hispanic or Latino"}]}],"identifier":[{"type":{"coding":[{"system":"http://terminology.hl7.org/CodeSystem/v2-0203","code":"MR"}]},"system":"https://bonnie-fhir.healthit.gov/","value":"647f51ab5e6d159b6e36ee31"}],"name":[{"family":"NUMERPass","given":["IPEncounterWithNewUnstageableNotPOAIndicator"]}],"gender":"other","birthDate":"2006-02-01"},"request":{"method":"PUT","url":"Patient/865b3218-9d2a-4512-b76e-ed70c25324e6"}},{"resource":{"resourceType":"Encounter","id":"329fce82-a7f3-4603-9ede-ea8ee7f3ed2f","meta":{"profile":["http://hl7.org/fhir/us/qicore/StructureDefinition/qicore-encounter"]},"status":"finished","class":{"system":"http://terminology.hl7.org/CodeSystem/v3-ActCode","code":"EMER","display":"emergency"},"type":[{"coding":[{"system":"http://snomed.info/sct","version":"2022-09","code":"4525004","display":"Emergency department patient visit (procedure)","userSelected":true}]}],"subject":{"reference":"Patient/865b3218-9d2a-4512-b76e-ed70c25324e6"},"period":{"start":"2026-01-31T08:00:00.000+00:00","end":"2026-02-01T08:15:00.000+00:00"}},"request":{"method":"PUT","url":"Encounter/329fce82-a7f3-4603-9ede-ea8ee7f3ed2f"}},{"resource":{"resourceType":"Bundle","id":"tests-DENEX-Pass-UnstageableInjury-with-POA-bundle","type":"transaction","entry":[{"fullUrl":"https://madie.cms.gov/Encounter/2984e680-7ebf-4aa5-a8df-8bdc33314341","resource":{"resourceType":"Encounter","id":"2984e680-7ebf-4aa5-a8df-8bdc33314341","meta":{"profile":["http://hl7.org/fhir/us/qicore/StructureDefinition/qicore-encounter"]},"status":"finished","class":{"system":"http://terminology.hl7.org/CodeSystem/v3-ActCode","code":"IMP","display":"inpatient encounter"},"type":[{"coding":[{"system":"http://snomed.info/sct","version":"2022-09","code":"183452005","display":"Emergency hospital admission (procedure)","userSelected":true}]}],"subject":{"reference":"Patient/865b3218-9d2a-4512-b76e-ed70c25324e6"},"period":{"start":"2026-02-01T08:30:00.000+00:00","end":"2026-02-06T08:15:00.000+00:00"}},"request":{"method":"PUT","url":"Encounter/2984e680-7ebf-4aa5-a8df-8bdc33314341"}},{"fullUrl":"https://madie.cms.gov/Claim/0a25fe7f-1042-483b-becb-d98a2095141a","resource":{"resourceType":"Claim","id":"0a25fe7f-1042-483b-becb-d98a2095141a","meta":{"profile":["http://hl7.org/fhir/us/qicore/StructureDefinition/qicore-claim"]},"status":"active","type":{"coding":[{"system":"http://terminology.hl7.org/CodeSystem/claim-type","code":"professional"}]},"use":"claim","patient":{"reference":"Patient/865b3218-9d2a-4512-b76e-ed70c25324e6"},"created":"2026-05-16","priority":{"coding":[{"system":"http://terminology.hl7.org/CodeSystem/processpriority","code":"normal"}]},"diagnosis":[{"sequence":1,"diagnosisCodeableConcept":{"coding":[{"system":"http://hl7.org/fhir/sid/icd-10-cm","code":"L89.000","display":"Pressure ulcer of unspecified elbow, unstageable"}]},"type":[{"coding":[{"system":"http://terminology.hl7.org/CodeSystem/ex-diagnosistype","code":"principal"}]}],"onAdmission":{"coding":[{"system":"https://www.cms.gov/Medicare/Medicare-Fee-for-Service-Payment/HospitalAcqCond/Coding","code":"Y"}]}}],"item":[{"sequence":1,"diagnosisSequence":[1,5,7],"productOrService":{"coding":[{"system":"http://example.org/fhir/CodeSystem/ex-professionalservice","code":"anesthesia"}]},"servicedDate":"2026-04-11","encounter":[{"reference":"Encounter/2984e680-7ebf-4aa5-a8df-8bdc33314341"}]}]},"request":{"method":"PUT","url":"Claim/0a25fe7f-1042-483b-becb-d98a2095141a"}},{"fullUrl":"https://madie.cms.gov/Encounter/329fce82-a7f3-4603-9ede-ea8ee7f3ed2f","resource":{"resourceType":"Encounter","id":"329fce82-a7f3-4603-9ede-ea8ee7f3ed2f","meta":{"profile":["http://hl7.org/fhir/us/qicore/StructureDefinition/qicore-encounter"]},"status":"finished","class":{"system":"http://terminology.hl7.org/CodeSystem/v3-ActCode","code":"EMER","display":"emergency"},"type":[{"coding":[{"system":"http://snomed.info/sct","version":"2022-09","code":"4525004","display":"Emergency department patient visit (procedure)","userSelected":true}]}],"subject":{"reference":"Patient/865b3218-9d2a-4512-b76e-ed70c25324e6"},"period":{"start":"2026-01-31T08:00:00.000+00:00","end":"2026-02-01T08:15:00.000+00:00"}},"request":{"method":"PUT","url":"Encounter/329fce82-a7f3-4603-9ede-ea8ee7f3ed2f"}},{"fullUrl":"https://madie.cms.gov/Patient/865b3218-9d2a-4512-b76e-ed70c25324e6","resource":{"resourceType":"Patient","id":"865b3218-9d2a-4512-b76e-ed70c25324e6","meta":{"profile":["http://hl7.org/fhir/us/qicore/StructureDefinition/qicore-patient"]},"extension":[{"url":"http://hl7.org/fhir/us/core/StructureDefinition/us-core-race","extension":[{"url":"ombCategory","valueCoding":{"system":"urn:oid:2.16.840.1.113883.6.238","code":"2028-9","display":"Asian","userSelected":true}},{"url":"text","valueString":"Asian"}]},{"url":"http://hl7.org/fhir/us/core/StructureDefinition/us-core-ethnicity","extension":[{"url":"ombCategory","valueCoding":{"system":"urn:oid:2.16.840.1.113883.6.238","code":"2186-5","display":"Not Hispanic or Latino","userSelected":true}},{"url":"text","valueString":"Not Hispanic or Latino"}]}],"identifier":[{"type":{"coding":[{"system":"http://terminology.hl7.org/CodeSystem/v2-0203","code":"MR"}]},"system":"https://bonnie-fhir.healthit.gov/","value":"647f51ab5e6d159b6e36ee31"}],"name":[{"family":"NUMERPass","given":["IPEncounterWithNewUnstageableNotPOAIndicator"]}],"gender":"other","birthDate":"2006-02-01"},"request":{"method":"PUT","url":"Patient/865b3218-9d2a-4512-b76e-ed70c25324e6"}},{"fullUrl":"https://madie.cms.gov/MeasureReport/ee550eba-7e26-4f8a-99ad-cc1b74d4f909","resource":{"resourceType":"MeasureReport","id":"ee550eba-7e26-4f8a-99ad-cc1b74d4f909","meta":{"profile":["http://hl7.org/fhir/us/cqfmeasures/StructureDefinition/test-case-cqfm"]},"contained":[{"resourceType":"Parameters","id":"e98c5f66-0d6f-4156-a514-7aa030ffa80a-parameters","parameter":[{"name":"subject","valueString":"865b3218-9d2a-4512-b76e-ed70c25324e6"}]}],"extension":[{"url":"http://hl7.org/fhir/StructureDefinition/cqf-inputParameters","valueReference":{"reference":"#e98c5f66-0d6f-4156-a514-7aa030ffa80a-parameters"}},{"url":"http://hl7.org/fhir/us/cqfmeasures/StructureDefinition/cqfm-testCaseDescription","valueMarkdown":"Inpatient encounter during MP.Unstageable injury present on Admission = Y, Denex pass"}],"modifierExtension":[{"url":"http://hl7.org/fhir/us/cqfmeasures/StructureDefinition/cqfm-isTestCase","valueBoolean":true}],"status":"complete","type":"individual","measure":"https://madie.cms.gov/Measure/CMS826FHIRHHPI","period":{"start":"2026-01-01","end":"2026-12-31"},"group":[{"id":"Group_1","population":[{"id":"InitialPopulation_1","code":{"coding":[{"system":"http://terminology.hl7.org/CodeSystem/measure-population","code":"initial-population","display":"Initial Population"}]},"count":1},{"id":"Denominator_1","code":{"coding":[{"system":"http://terminology.hl7.org/CodeSystem/measure-population","code":"denominator","display":"Denominator"}]},"count":1},{"id":"DenominatorExclusion_1","code":{"coding":[{"system":"http://terminology.hl7.org/CodeSystem/measure-population","code":"denominator-exclusion","display":"Denominator Exclusion"}]},"count":1},{"id":"Numerator_1","code":{"coding":[{"system":"http://terminology.hl7.org/CodeSystem/measure-population","code":"numerator","display":"Numerator"}]},"count":0}],"measureScore":{"value":0.0}}],"evaluatedResource":[{"reference":"Encounter/2984e680-7ebf-4aa5-a8df-8bdc33314341"},{"reference":"Claim/0a25fe7f-1042-483b-becb-d98a2095141a"},{"reference":"Encounter/329fce82-a7f3-4603-9ede-ea8ee7f3ed2f"},{"reference":"Patient/865b3218-9d2a-4512-b76e-ed70c25324e6"}]},"request":{"method":"PUT","url":"MeasureReport/ee550eba-7e26-4f8a-99ad-cc1b74d4f909"}}]},"request":{"method":"PUT","url":"Bundle/tests-DENEX-Pass-UnstageableInjury-with-POA-bundle"}}]}