{"resourceType":"Bundle","id":"tests-9a297d79-90eb-46f1-9068-1a7c7b6c7147-bundle","type":"transaction","entry":[{"fullUrl":"Organization/c6d7cb1a-f7ce-4cac-84a1-8fadafd6c8c0","resource":{"resourceType":"Organization","id":"c6d7cb1a-f7ce-4cac-84a1-8fadafd6c8c0","meta":{"profile":["http://hl7.org/fhir/us/qicore/StructureDefinition/qicore-organization"]},"identifier":[{"use":"temp","system":"urn:oid:2.16.840.1.113883.4.4","value":"21-3259825"}],"active":true,"type":[{"coding":[{"system":"http://terminology.hl7.org/CodeSystem/organization-type","code":"pay","display":"Payer"}]}],"name":"Blue Cross Blue Shield of Texas","telecom":[{"system":"phone","value":"(+1) 972-766-6900"}],"address":[{"use":"billing","type":"postal","line":["P.O. Box 660044"],"city":"Dallas","state":"TX","postalCode":"75266-0044","country":"USA"}]},"request":{"method":"PUT","url":"Organization/c6d7cb1a-f7ce-4cac-84a1-8fadafd6c8c0"}},{"fullUrl":"Encounter/d0606f7c-5d88-4f40-9aee-47c3a0a66450","resource":{"resourceType":"Encounter","id":"d0606f7c-5d88-4f40-9aee-47c3a0a66450","meta":{"profile":["http://hl7.org/fhir/us/qicore/StructureDefinition/qicore-encounter"]},"status":"finished","class":{"system":"http://terminology.hl7.org/CodeSystem/v3-ActCode","code":"IMP","display":"inpatient encounter","userSelected":true},"type":[{"coding":[{"system":"http://snomed.info/sct","code":"32485007"}]}],"subject":{"reference":"Patient/9a297d79-90eb-46f1-9068-1a7c7b6c7147"},"period":{"start":"2026-10-10T06:15:00Z","end":"2026-10-15T11:30:00.000+00:00"},"length":{"value":5,"unit":"days"},"reasonReference":[{"reference":"Condition/af4cd786-93e8-4470-8411-5a56684c980a"}]},"request":{"method":"PUT","url":"Encounter/d0606f7c-5d88-4f40-9aee-47c3a0a66450"}},{"fullUrl":"Patient/9a297d79-90eb-46f1-9068-1a7c7b6c7147","resource":{"resourceType":"Patient","id":"9a297d79-90eb-46f1-9068-1a7c7b6c7147","meta":{"profile":["http://hl7.org/fhir/us/qicore/StructureDefinition/qicore-patient"]},"text":{"status":"generated","div":"<div xmlns=\"http://www.w3.org/1999/xhtml\"><div class=\"hapiHeaderText\">INR2DaysAftEnc_NoEDNoObsBFEnc2DayAft <b>DENEXCEPFAIL </b></div><table class=\"hapiPropertyTable\"><tbody><tr><td>Identifier</td><td>0d6e76d46323f24c3cf81599b44a17d5195ef83ae5428435662fa61392810175</td></tr><tr><td>Date of birth</td><td><span>26 September 1975</span></td></tr></tbody></table></div>"},"extension":[{"url":"http://hl7.org/fhir/us/core/StructureDefinition/us-core-race","extension":[{"url":"ombCategory","valueCoding":{"system":"urn:oid:2.16.840.1.113883.6.238","code":"2054-5","display":"Black or African American","userSelected":true}},{"url":"text","valueString":"Black or African American"}]},{"url":"http://hl7.org/fhir/us/core/StructureDefinition/us-core-ethnicity","extension":[{"url":"ombCategory","valueCoding":{"system":"urn:oid:2.16.840.1.113883.6.238","code":"2186-5","display":"Not Hispanic or Latino","userSelected":true}},{"url":"text","valueString":"Not Hispanic or Latino"}]}],"identifier":[{"type":{"coding":[{"system":"http://terminology.hl7.org/CodeSystem/v2-0203","code":"MR"}]},"system":"https://bonnie-fhir.healthit.gov/","value":"60f82c2f98086b570510e2a5"}],"active":true,"name":[{"use":"usual","family":"DENEXCEPFail","given":["INR2DaysAftEnc_NoEDNoObsBFEnc2DayAft"]}],"gender":"female","birthDate":"1976-09-26"},"request":{"method":"PUT","url":"Patient/9a297d79-90eb-46f1-9068-1a7c7b6c7147"}},{"fullUrl":"Condition/af4cd786-93e8-4470-8411-5a56684c980a","resource":{"resourceType":"Condition","id":"af4cd786-93e8-4470-8411-5a56684c980a","meta":{"profile":["http://hl7.org/fhir/us/qicore/StructureDefinition/qicore-condition-encounter-diagnosis"]},"clinicalStatus":{"coding":[{"system":"http://terminology.hl7.org/CodeSystem/condition-clinical","code":"active"}]},"verificationStatus":{"coding":[{"system":"http://terminology.hl7.org/CodeSystem/condition-ver-status","code":"confirmed"}]},"category":[{"coding":[{"system":"http://terminology.hl7.org/CodeSystem/condition-category","code":"encounter-diagnosis","display":"Encounter Diagnosis"}]}],"code":{"coding":[{"system":"http://snomed.info/sct","version":"2020-09","code":"111297002","display":"Nonparalytic stroke (disorder)","userSelected":true}]},"subject":{"reference":"Patient/9a297d79-90eb-46f1-9068-1a7c7b6c7147"},"recordedDate":"2026-07-28T08:00:00Z"},"request":{"method":"PUT","url":"Condition/af4cd786-93e8-4470-8411-5a56684c980a"}},{"fullUrl":"Bundle/60f82c2f98086b570510e2a5","resource":{"resourceType":"Bundle","id":"60f82c2f98086b570510e2a5","type":"transaction","entry":[{"fullUrl":"https://madie.cms.gov/Patient/9a297d79-90eb-46f1-9068-1a7c7b6c7147","resource":{"resourceType":"Patient","id":"9a297d79-90eb-46f1-9068-1a7c7b6c7147","meta":{"profile":["http://hl7.org/fhir/us/qicore/StructureDefinition/qicore-patient"]},"text":{"status":"generated","div":"<div xmlns=\"http://www.w3.org/1999/xhtml\"><div class=\"hapiHeaderText\">INR2DaysAftEnc_NoEDNoObsBFEnc2DayAft <b>DENEXCEPFAIL </b></div><table class=\"hapiPropertyTable\"><tbody><tr><td>Identifier</td><td>0d6e76d46323f24c3cf81599b44a17d5195ef83ae5428435662fa61392810175</td></tr><tr><td>Date of birth</td><td><span>26 September 1975</span></td></tr></tbody></table></div>"},"extension":[{"url":"http://hl7.org/fhir/us/core/StructureDefinition/us-core-race","extension":[{"url":"ombCategory","valueCoding":{"system":"urn:oid:2.16.840.1.113883.6.238","code":"2054-5","display":"Black or African American","userSelected":true}},{"url":"text","valueString":"Black or African American"}]},{"url":"http://hl7.org/fhir/us/core/StructureDefinition/us-core-ethnicity","extension":[{"url":"ombCategory","valueCoding":{"system":"urn:oid:2.16.840.1.113883.6.238","code":"2186-5","display":"Not Hispanic or Latino","userSelected":true}},{"url":"text","valueString":"Not Hispanic or Latino"}]}],"identifier":[{"type":{"coding":[{"system":"http://terminology.hl7.org/CodeSystem/v2-0203","code":"MR"}]},"system":"https://bonnie-fhir.healthit.gov/","value":"60f82c2f98086b570510e2a5"}],"active":true,"name":[{"use":"usual","family":"DENEXCEPFail","given":["INR2DaysAftEnc_NoEDNoObsBFEnc2DayAft"]}],"gender":"female","birthDate":"1976-09-26"},"request":{"method":"PUT","url":"Patient/9a297d79-90eb-46f1-9068-1a7c7b6c7147"}},{"fullUrl":"https://madie.cms.gov/Encounter/d0606f7c-5d88-4f40-9aee-47c3a0a66450","resource":{"resourceType":"Encounter","id":"d0606f7c-5d88-4f40-9aee-47c3a0a66450","meta":{"profile":["http://hl7.org/fhir/us/qicore/StructureDefinition/qicore-encounter"]},"status":"finished","class":{"system":"http://terminology.hl7.org/CodeSystem/v3-ActCode","code":"IMP","display":"inpatient encounter","userSelected":true},"type":[{"coding":[{"system":"http://snomed.info/sct","code":"32485007"}]}],"subject":{"reference":"Patient/9a297d79-90eb-46f1-9068-1a7c7b6c7147"},"period":{"start":"2026-10-10T06:15:00Z","end":"2026-10-15T11:30:00.000+00:00"},"length":{"value":5,"unit":"days"},"reasonReference":[{"reference":"Condition/af4cd786-93e8-4470-8411-5a56684c980a"}]},"request":{"method":"PUT","url":"Encounter/d0606f7c-5d88-4f40-9aee-47c3a0a66450"}},{"fullUrl":"https://madie.cms.gov/claim/5ca62962b8484628b8de1ec5","resource":{"resourceType":"Claim","id":"5ca62962b8484628b8de1ec5","meta":{"profile":["http://hl7.org/fhir/us/qicore/StructureDefinition/qicore-claim"]},"status":"active","type":{"coding":[{"system":"http://terminology.hl7.org/CodeSystem/claim-type","code":"institutional"}]},"use":"claim","patient":{"reference":"Patient/d170a0a8-b5ad-4303-b6df-e304dd5f92ad"},"created":"2026-12-01","provider":{"reference":"Practitioner/practitioner-123456"},"priority":{"coding":[{"system":"http://terminology.hl7.org/CodeSystem/processpriority","code":"normal"}]},"diagnosis":[{"sequence":1,"diagnosisCodeableConcept":{"coding":[{"system":"http://hl7.org/fhir/sid/icd-10-cm","code":"I63.00"}]},"type":[{"coding":[{"system":"http://terminology.hl7.org/CodeSystem/ex-diagnosistype","code":"principal"}]}]}],"insurance":[{"sequence":1,"focal":true,"coverage":{"reference":"Coverage/5fa041661c76ba66d9959367"}}],"item":[{"sequence":1,"diagnosisSequence":[1],"productOrService":{"coding":[{"system":"http://terminology.hl7.org/CodeSystem/ex-USCLS","code":"99555"}]},"encounter":[{"reference":"Encounter/d0606f7c-5d88-4f40-9aee-47c3a0a66450"}]}]},"request":{"method":"PUT","url":"Claim/5ca62962b8484628b8de1ec5"}},{"fullUrl":"https://madie.cms.gov/Observation/de1e3531-6110-4acd-8e5f-575edf497545","resource":{"resourceType":"Observation","id":"de1e3531-6110-4acd-8e5f-575edf497545","meta":{"profile":["http://hl7.org/fhir/us/qicore/StructureDefinition/qicore-observation-lab"]},"status":"final","category":[{"coding":[{"system":"http://terminology.hl7.org/CodeSystem/observation-category","code":"laboratory","display":"Laboratory"}]}],"code":{"coding":[{"system":"http://loinc.org","code":"34714-6"}]},"subject":{"reference":"Patient/9a297d79-90eb-46f1-9068-1a7c7b6c7147"},"effectiveDateTime":"2026-10-10T06:14:00Z","issued":"2026-10-12T00:00:00.000+00:00","valueQuantity":{"value":3.6}},"request":{"method":"PUT","url":"Observation/de1e3531-6110-4acd-8e5f-575edf497545"}},{"fullUrl":"https://madie.cms.gov/Coverage/7655f90d-13f7-4718-bf7e-287a421f5b7a","resource":{"resourceType":"Coverage","id":"7655f90d-13f7-4718-bf7e-287a421f5b7a","status":"active","subscriberId":"523435","beneficiary":{"reference":"Patient/9a297d79-90eb-46f1-9068-1a7c7b6c7147"},"relationship":{"coding":[{"system":"http://terminology.hl7.org/CodeSystem/subscriber-relationship","code":"self"}]},"period":{"start":"1976-09-26T08:00:00Z"},"payor":[{"reference":"Organization/c6d7cb1a-f7ce-4cac-84a1-8fadafd6c8c0"}]},"request":{"method":"PUT","url":"Coverage/7655f90d-13f7-4718-bf7e-287a421f5b7a"}},{"fullUrl":"https://madie.cms.gov/Condition/af4cd786-93e8-4470-8411-5a56684c980a","resource":{"resourceType":"Condition","id":"af4cd786-93e8-4470-8411-5a56684c980a","meta":{"profile":["http://hl7.org/fhir/us/qicore/StructureDefinition/qicore-condition-encounter-diagnosis"]},"clinicalStatus":{"coding":[{"system":"http://terminology.hl7.org/CodeSystem/condition-clinical","code":"active"}]},"verificationStatus":{"coding":[{"system":"http://terminology.hl7.org/CodeSystem/condition-ver-status","code":"confirmed"}]},"category":[{"coding":[{"system":"http://terminology.hl7.org/CodeSystem/condition-category","code":"encounter-diagnosis","display":"Encounter Diagnosis"}]}],"code":{"coding":[{"system":"http://snomed.info/sct","version":"2020-09","code":"111297002","display":"Nonparalytic stroke (disorder)","userSelected":true}]},"subject":{"reference":"Patient/9a297d79-90eb-46f1-9068-1a7c7b6c7147"},"recordedDate":"2026-07-28T08:00:00Z"},"request":{"method":"PUT","url":"Condition/af4cd786-93e8-4470-8411-5a56684c980a"}},{"fullUrl":"https://madie.cms.gov/Organization/c6d7cb1a-f7ce-4cac-84a1-8fadafd6c8c0","resource":{"resourceType":"Organization","id":"c6d7cb1a-f7ce-4cac-84a1-8fadafd6c8c0","meta":{"profile":["http://hl7.org/fhir/us/qicore/StructureDefinition/qicore-organization"]},"identifier":[{"use":"temp","system":"urn:oid:2.16.840.1.113883.4.4","value":"21-3259825"}],"active":true,"type":[{"coding":[{"system":"http://terminology.hl7.org/CodeSystem/organization-type","code":"pay","display":"Payer"}]}],"name":"Blue Cross Blue Shield of Texas","telecom":[{"system":"phone","value":"(+1) 972-766-6900"}],"address":[{"use":"billing","type":"postal","line":["P.O. Box 660044"],"city":"Dallas","state":"TX","postalCode":"75266-0044","country":"USA"}]},"request":{"method":"PUT","url":"Organization/c6d7cb1a-f7ce-4cac-84a1-8fadafd6c8c0"}},{"fullUrl":"https://madie.cms.gov/MeasureReport/2ca0e0e5-4c0b-491f-8a17-ca28332ec840","resource":{"resourceType":"MeasureReport","id":"2ca0e0e5-4c0b-491f-8a17-ca28332ec840","meta":{"profile":["http://hl7.org/fhir/us/cqfmeasures/StructureDefinition/test-case-cqfm"]},"contained":[{"resourceType":"Parameters","id":"8711c44b-40b4-4bf7-99b2-431e69c70ef9-parameters","parameter":[{"name":"subject","valueString":"9a297d79-90eb-46f1-9068-1a7c7b6c7147"}]}],"extension":[{"url":"http://hl7.org/fhir/StructureDefinition/cqf-inputParameters","valueReference":{"reference":"#8711c44b-40b4-4bf7-99b2-431e69c70ef9-parameters"}},{"url":"http://hl7.org/fhir/us/cqfmeasures/StructureDefinition/cqfm-testCaseDescription","valueMarkdown":"Patient receives INR of 3.6 two days after IP start at midnight. No ED. No Obs. Testing Day of operator with HospitalizationWithObservation function.\n"}],"modifierExtension":[{"url":"http://hl7.org/fhir/us/cqfmeasures/StructureDefinition/cqfm-isTestCase","valueBoolean":true}],"status":"complete","type":"individual","measure":"https://madie.cms.gov/Measure/CMS72FHIRSTKAntithromboticDay2","period":{"start":"2026-01-01","end":"2026-12-31"},"group":[{"id":"Group_1","population":[{"id":"InitialPopulation_1","code":{"coding":[{"system":"http://terminology.hl7.org/CodeSystem/measure-population","code":"initial-population","display":"Initial Population"}]},"count":1},{"id":"Denominator_1","code":{"coding":[{"system":"http://terminology.hl7.org/CodeSystem/measure-population","code":"denominator","display":"Denominator"}]},"count":1},{"id":"DenominatorExclusion_1","code":{"coding":[{"system":"http://terminology.hl7.org/CodeSystem/measure-population","code":"denominator-exclusion","display":"Denominator Exclusion"}]},"count":0},{"id":"Numerator_1","code":{"coding":[{"system":"http://terminology.hl7.org/CodeSystem/measure-population","code":"numerator","display":"Numerator"}]},"count":0},{"id":"DenominatorException_1","code":{"coding":[{"system":"http://terminology.hl7.org/CodeSystem/measure-population","code":"denominator-exception","display":"Denominator Exception"}]},"count":0}],"measureScore":{"value":0.0}}],"evaluatedResource":[{"reference":"Patient/9a297d79-90eb-46f1-9068-1a7c7b6c7147"},{"reference":"Encounter/d0606f7c-5d88-4f40-9aee-47c3a0a66450"},{"reference":"Claim/5ca62962b8484628b8de1ec5"},{"reference":"Observation/de1e3531-6110-4acd-8e5f-575edf497545"},{"reference":"Coverage/7655f90d-13f7-4718-bf7e-287a421f5b7a"},{"reference":"Condition/af4cd786-93e8-4470-8411-5a56684c980a"},{"reference":"Organization/c6d7cb1a-f7ce-4cac-84a1-8fadafd6c8c0"}]},"request":{"method":"PUT","url":"MeasureReport/2ca0e0e5-4c0b-491f-8a17-ca28332ec840"}}]},"request":{"method":"PUT","url":"Bundle/60f82c2f98086b570510e2a5"}},{"fullUrl":"Coverage/7655f90d-13f7-4718-bf7e-287a421f5b7a","resource":{"resourceType":"Coverage","id":"7655f90d-13f7-4718-bf7e-287a421f5b7a","status":"active","subscriberId":"523435","beneficiary":{"reference":"Patient/9a297d79-90eb-46f1-9068-1a7c7b6c7147"},"relationship":{"coding":[{"system":"http://terminology.hl7.org/CodeSystem/subscriber-relationship","code":"self"}]},"period":{"start":"1976-09-26T08:00:00Z"},"payor":[{"reference":"Organization/c6d7cb1a-f7ce-4cac-84a1-8fadafd6c8c0"}]},"request":{"method":"PUT","url":"Coverage/7655f90d-13f7-4718-bf7e-287a421f5b7a"}},{"fullUrl":"MeasureReport/2ca0e0e5-4c0b-491f-8a17-ca28332ec840","resource":{"resourceType":"MeasureReport","id":"2ca0e0e5-4c0b-491f-8a17-ca28332ec840","meta":{"profile":["http://hl7.org/fhir/us/cqfmeasures/StructureDefinition/test-case-cqfm"]},"contained":[{"resourceType":"Parameters","id":"8711c44b-40b4-4bf7-99b2-431e69c70ef9-parameters","parameter":[{"name":"subject","valueString":"9a297d79-90eb-46f1-9068-1a7c7b6c7147"}]}],"extension":[{"url":"http://hl7.org/fhir/StructureDefinition/cqf-inputParameters","valueReference":{"reference":"#8711c44b-40b4-4bf7-99b2-431e69c70ef9-parameters"}},{"url":"http://hl7.org/fhir/us/cqfmeasures/StructureDefinition/cqfm-testCaseDescription","valueMarkdown":"Patient receives INR of 3.6 two days after IP start at midnight. No ED. No Obs. Testing Day of operator with HospitalizationWithObservation function.\n"}],"modifierExtension":[{"url":"http://hl7.org/fhir/us/cqfmeasures/StructureDefinition/cqfm-isTestCase","valueBoolean":true}],"status":"complete","type":"individual","measure":"https://madie.cms.gov/Measure/CMS72FHIRSTKAntithromboticDay2","period":{"start":"2026-01-01","end":"2026-12-31"},"group":[{"id":"Group_1","population":[{"id":"InitialPopulation_1","code":{"coding":[{"system":"http://terminology.hl7.org/CodeSystem/measure-population","code":"initial-population","display":"Initial Population"}]},"count":1},{"id":"Denominator_1","code":{"coding":[{"system":"http://terminology.hl7.org/CodeSystem/measure-population","code":"denominator","display":"Denominator"}]},"count":1},{"id":"DenominatorExclusion_1","code":{"coding":[{"system":"http://terminology.hl7.org/CodeSystem/measure-population","code":"denominator-exclusion","display":"Denominator Exclusion"}]},"count":0},{"id":"Numerator_1","code":{"coding":[{"system":"http://terminology.hl7.org/CodeSystem/measure-population","code":"numerator","display":"Numerator"}]},"count":0},{"id":"DenominatorException_1","code":{"coding":[{"system":"http://terminology.hl7.org/CodeSystem/measure-population","code":"denominator-exception","display":"Denominator Exception"}]},"count":0}],"measureScore":{"value":0.0}}],"evaluatedResource":[{"reference":"Patient/9a297d79-90eb-46f1-9068-1a7c7b6c7147"},{"reference":"Encounter/d0606f7c-5d88-4f40-9aee-47c3a0a66450"},{"reference":"Claim/5ca62962b8484628b8de1ec5"},{"reference":"Observation/de1e3531-6110-4acd-8e5f-575edf497545"},{"reference":"Coverage/7655f90d-13f7-4718-bf7e-287a421f5b7a"},{"reference":"Condition/af4cd786-93e8-4470-8411-5a56684c980a"},{"reference":"Organization/c6d7cb1a-f7ce-4cac-84a1-8fadafd6c8c0"}]},"request":{"method":"PUT","url":"MeasureReport/2ca0e0e5-4c0b-491f-8a17-ca28332ec840"}},{"fullUrl":"Observation/de1e3531-6110-4acd-8e5f-575edf497545","resource":{"resourceType":"Observation","id":"de1e3531-6110-4acd-8e5f-575edf497545","meta":{"profile":["http://hl7.org/fhir/us/qicore/StructureDefinition/qicore-observation-lab"]},"status":"final","category":[{"coding":[{"system":"http://terminology.hl7.org/CodeSystem/observation-category","code":"laboratory","display":"Laboratory"}]}],"code":{"coding":[{"system":"http://loinc.org","code":"34714-6"}]},"subject":{"reference":"Patient/9a297d79-90eb-46f1-9068-1a7c7b6c7147"},"effectiveDateTime":"2026-10-10T06:14:00Z","issued":"2026-10-12T00:00:00.000+00:00","valueQuantity":{"value":3.6}},"request":{"method":"PUT","url":"Observation/de1e3531-6110-4acd-8e5f-575edf497545"}},{"fullUrl":"Claim/5ca62962b8484628b8de1ec5","resource":{"resourceType":"Claim","id":"5ca62962b8484628b8de1ec5","meta":{"profile":["http://hl7.org/fhir/us/qicore/StructureDefinition/qicore-claim"]},"status":"active","type":{"coding":[{"system":"http://terminology.hl7.org/CodeSystem/claim-type","code":"institutional"}]},"use":"claim","patient":{"reference":"Patient/d170a0a8-b5ad-4303-b6df-e304dd5f92ad"},"created":"2026-12-01","provider":{"reference":"Practitioner/practitioner-123456"},"priority":{"coding":[{"system":"http://terminology.hl7.org/CodeSystem/processpriority","code":"normal"}]},"diagnosis":[{"sequence":1,"diagnosisCodeableConcept":{"coding":[{"system":"http://hl7.org/fhir/sid/icd-10-cm","code":"I63.00"}]},"type":[{"coding":[{"system":"http://terminology.hl7.org/CodeSystem/ex-diagnosistype","code":"principal"}]}]}],"insurance":[{"sequence":1,"focal":true,"coverage":{"reference":"Coverage/5fa041661c76ba66d9959367"}}],"item":[{"sequence":1,"diagnosisSequence":[1],"productOrService":{"coding":[{"system":"http://terminology.hl7.org/CodeSystem/ex-USCLS","code":"99555"}]},"encounter":[{"reference":"Encounter/d0606f7c-5d88-4f40-9aee-47c3a0a66450"}]}]},"request":{"method":"PUT","url":"Claim/5ca62962b8484628b8de1ec5"}}]}