{"resourceType":"Bundle","id":"tests-b3043789-f91a-42f6-848d-6bfd7df331fe-bundle","type":"transaction","entry":[{"fullUrl":"Organization/629f4628-bcdf-4f5b-8d7b-1ee5878dd52d","resource":{"resourceType":"Organization","id":"629f4628-bcdf-4f5b-8d7b-1ee5878dd52d","meta":{"profile":["http://hl7.org/fhir/us/qicore/StructureDefinition/qicore-organization"]},"identifier":[{"use":"temp","system":"urn:oid:2.16.840.1.113883.4.4","value":"21-3259825"}],"active":true,"type":[{"coding":[{"system":"http://terminology.hl7.org/CodeSystem/organization-type","code":"pay","display":"Payer"}]}],"name":"Blue Cross Blue Shield of Texas","telecom":[{"system":"phone","value":"(+1) 972-766-6900"}],"address":[{"use":"billing","type":"postal","line":["P.O. Box 660044"],"city":"Dallas","state":"TX","postalCode":"75266-0044","country":"USA"}]},"request":{"method":"PUT","url":"Organization/629f4628-bcdf-4f5b-8d7b-1ee5878dd52d"}},{"fullUrl":"Procedure/ad68396c-7c76-4e24-a78e-2518a7f19058","resource":{"resourceType":"Procedure","id":"ad68396c-7c76-4e24-a78e-2518a7f19058","meta":{"profile":["http://hl7.org/fhir/us/qicore/StructureDefinition/qicore-procedure"]},"extension":[{"url":"http://hl7.org/fhir/us/qicore/StructureDefinition/qicore-recorded","valueDateTime":"2026-11-19T13:35:00Z"}],"status":"completed","code":{"coding":[{"system":"http://snomed.info/sct","code":"307521008"}]},"subject":{"reference":"Patient/b3043789-f91a-42f6-848d-6bfd7df331fe"},"performedPeriod":{"start":"2026-10-12T11:00:00Z","end":"2026-10-14T11:30:00.000+00:00"}},"request":{"method":"PUT","url":"Procedure/ad68396c-7c76-4e24-a78e-2518a7f19058"}},{"fullUrl":"Condition/f2edd0a6-a674-44fa-b34d-61f734eff117","resource":{"resourceType":"Condition","id":"f2edd0a6-a674-44fa-b34d-61f734eff117","meta":{"profile":["http://hl7.org/fhir/us/qicore/StructureDefinition/qicore-condition-encounter-diagnosis"]},"clinicalStatus":{"coding":[{"system":"http://terminology.hl7.org/CodeSystem/condition-clinical","code":"active"}]},"verificationStatus":{"coding":[{"system":"http://terminology.hl7.org/CodeSystem/condition-ver-status","code":"confirmed"}]},"category":[{"coding":[{"system":"http://terminology.hl7.org/CodeSystem/condition-category","code":"encounter-diagnosis","display":"Encounter Diagnosis"}]}],"code":{"coding":[{"system":"http://snomed.info/sct","version":"2020-09","code":"111297002","display":"Nonparalytic stroke (disorder)","userSelected":true}]},"subject":{"reference":"Patient/b3043789-f91a-42f6-848d-6bfd7df331fe"},"encounter":{"reference":"Encounter/0795c8db-4ed2-4e52-99f0-ddab9cceced0"},"recordedDate":"2026-08-13T08:00:00Z"},"request":{"method":"PUT","url":"Condition/f2edd0a6-a674-44fa-b34d-61f734eff117"}},{"fullUrl":"Encounter/68496ff2-a075-419c-8be6-a39c4f722867","resource":{"resourceType":"Encounter","id":"68496ff2-a075-419c-8be6-a39c4f722867","meta":{"profile":["http://hl7.org/fhir/us/qicore/StructureDefinition/qicore-encounter"]},"status":"finished","class":{"system":"http://terminology.hl7.org/CodeSystem/v3-ActCode","code":"EMER","display":"emergency"},"type":[{"coding":[{"system":"http://snomed.info/sct","code":"4525004"}]}],"subject":{"reference":"Patient/b3043789-f91a-42f6-848d-6bfd7df331fe"},"period":{"start":"2026-10-10T04:00:00Z","end":"2026-10-10T10:30:00.000+00:00"},"length":{"value":0,"unit":"days"}},"request":{"method":"PUT","url":"Encounter/68496ff2-a075-419c-8be6-a39c4f722867"}},{"fullUrl":"Encounter/0795c8db-4ed2-4e52-99f0-ddab9cceced0","resource":{"resourceType":"Encounter","id":"0795c8db-4ed2-4e52-99f0-ddab9cceced0","meta":{"profile":["http://hl7.org/fhir/us/qicore/StructureDefinition/qicore-encounter"]},"status":"finished","class":{"system":"http://terminology.hl7.org/CodeSystem/v3-ActCode","code":"IMP","display":"inpatient encounter"},"type":[{"coding":[{"system":"http://snomed.info/sct","code":"32485007"}]}],"subject":{"reference":"Patient/b3043789-f91a-42f6-848d-6bfd7df331fe"},"period":{"start":"2026-10-11T11:00:00Z","end":"2026-10-14T11:30:00.000+00:00"},"length":{"value":3,"unit":"days"},"reasonReference":[{"reference":"Condition/f2edd0a6-a674-44fa-b34d-61f734eff117"}]},"request":{"method":"PUT","url":"Encounter/0795c8db-4ed2-4e52-99f0-ddab9cceced0"}},{"fullUrl":"Bundle/60f82c2f98086b570510e2c4","resource":{"resourceType":"Bundle","id":"60f82c2f98086b570510e2c4","type":"transaction","entry":[{"fullUrl":"https://madie.cms.gov/Patient/b3043789-f91a-42f6-848d-6bfd7df331fe","resource":{"resourceType":"Patient","id":"b3043789-f91a-42f6-848d-6bfd7df331fe","meta":{"profile":["http://hl7.org/fhir/us/qicore/StructureDefinition/qicore-patient"]},"text":{"status":"generated","div":"<div xmlns=\"http://www.w3.org/1999/xhtml\"><div class=\"hapiHeaderText\">tPADuringInPatientEnc1DayAfterAdmit <b>DENEXPASS-LCG </b></div><table class=\"hapiPropertyTable\"><tbody><tr><td>Identifier</td><td>44863becbb7051abd5e1dad02ddaf594356b765d18873c1d70b102e9efc8cd0b</td></tr><tr><td>Date of birth</td><td><span>26 September 1975</span></td></tr></tbody></table></div>"},"extension":[{"url":"http://hl7.org/fhir/us/core/StructureDefinition/us-core-race","extension":[{"url":"ombCategory","valueCoding":{"system":"urn:oid:2.16.840.1.113883.6.238","code":"2054-5","display":"Black or African American","userSelected":true}},{"url":"text","valueString":"Black or African American"}]},{"url":"http://hl7.org/fhir/us/core/StructureDefinition/us-core-ethnicity","extension":[{"url":"ombCategory","valueCoding":{"system":"urn:oid:2.16.840.1.113883.6.238","code":"2186-5","display":"Not Hispanic or Latino","userSelected":true}},{"url":"text","valueString":"Not Hispanic or Latino"}]}],"identifier":[{"type":{"coding":[{"system":"http://terminology.hl7.org/CodeSystem/v2-0203","code":"MR"}]},"system":"https://bonnie-fhir.healthit.gov/","value":"60f82c2f98086b570510e2c4"}],"active":true,"name":[{"use":"usual","family":"DENEXPass-LCG","given":["tPADuringInPatientEnc1DayAfterAdmit"]}],"gender":"female","birthDate":"1976-09-26"},"request":{"method":"PUT","url":"Patient/b3043789-f91a-42f6-848d-6bfd7df331fe"}},{"fullUrl":"https://madie.cms.gov/Encounter/68496ff2-a075-419c-8be6-a39c4f722867","resource":{"resourceType":"Encounter","id":"68496ff2-a075-419c-8be6-a39c4f722867","meta":{"profile":["http://hl7.org/fhir/us/qicore/StructureDefinition/qicore-encounter"]},"status":"finished","class":{"system":"http://terminology.hl7.org/CodeSystem/v3-ActCode","code":"EMER","display":"emergency"},"type":[{"coding":[{"system":"http://snomed.info/sct","code":"4525004"}]}],"subject":{"reference":"Patient/b3043789-f91a-42f6-848d-6bfd7df331fe"},"period":{"start":"2026-10-10T04:00:00Z","end":"2026-10-10T10:30:00.000+00:00"},"length":{"value":0,"unit":"days"}},"request":{"method":"PUT","url":"Encounter/68496ff2-a075-419c-8be6-a39c4f722867"}},{"fullUrl":"https://madie.cms.gov/Encounter/0795c8db-4ed2-4e52-99f0-ddab9cceced0","resource":{"resourceType":"Encounter","id":"0795c8db-4ed2-4e52-99f0-ddab9cceced0","meta":{"profile":["http://hl7.org/fhir/us/qicore/StructureDefinition/qicore-encounter"]},"status":"finished","class":{"system":"http://terminology.hl7.org/CodeSystem/v3-ActCode","code":"IMP","display":"inpatient encounter"},"type":[{"coding":[{"system":"http://snomed.info/sct","code":"32485007"}]}],"subject":{"reference":"Patient/b3043789-f91a-42f6-848d-6bfd7df331fe"},"period":{"start":"2026-10-11T11:00:00Z","end":"2026-10-14T11:30:00.000+00:00"},"length":{"value":3,"unit":"days"},"reasonReference":[{"reference":"Condition/f2edd0a6-a674-44fa-b34d-61f734eff117"}]},"request":{"method":"PUT","url":"Encounter/0795c8db-4ed2-4e52-99f0-ddab9cceced0"}},{"fullUrl":"https://madie.cms.gov/Procedure/ad68396c-7c76-4e24-a78e-2518a7f19058","resource":{"resourceType":"Procedure","id":"ad68396c-7c76-4e24-a78e-2518a7f19058","meta":{"profile":["http://hl7.org/fhir/us/qicore/StructureDefinition/qicore-procedure"]},"extension":[{"url":"http://hl7.org/fhir/us/qicore/StructureDefinition/qicore-recorded","valueDateTime":"2026-11-19T13:35:00Z"}],"status":"completed","code":{"coding":[{"system":"http://snomed.info/sct","code":"307521008"}]},"subject":{"reference":"Patient/b3043789-f91a-42f6-848d-6bfd7df331fe"},"performedPeriod":{"start":"2026-10-12T11:00:00Z","end":"2026-10-14T11:30:00.000+00:00"}},"request":{"method":"PUT","url":"Procedure/ad68396c-7c76-4e24-a78e-2518a7f19058"}},{"fullUrl":"https://madie.cms.gov/Condition/f2edd0a6-a674-44fa-b34d-61f734eff117","resource":{"resourceType":"Condition","id":"f2edd0a6-a674-44fa-b34d-61f734eff117","meta":{"profile":["http://hl7.org/fhir/us/qicore/StructureDefinition/qicore-condition-encounter-diagnosis"]},"clinicalStatus":{"coding":[{"system":"http://terminology.hl7.org/CodeSystem/condition-clinical","code":"active"}]},"verificationStatus":{"coding":[{"system":"http://terminology.hl7.org/CodeSystem/condition-ver-status","code":"confirmed"}]},"category":[{"coding":[{"system":"http://terminology.hl7.org/CodeSystem/condition-category","code":"encounter-diagnosis","display":"Encounter Diagnosis"}]}],"code":{"coding":[{"system":"http://snomed.info/sct","version":"2020-09","code":"111297002","display":"Nonparalytic stroke (disorder)","userSelected":true}]},"subject":{"reference":"Patient/b3043789-f91a-42f6-848d-6bfd7df331fe"},"encounter":{"reference":"Encounter/0795c8db-4ed2-4e52-99f0-ddab9cceced0"},"recordedDate":"2026-08-13T08:00:00Z"},"request":{"method":"PUT","url":"Condition/f2edd0a6-a674-44fa-b34d-61f734eff117"}},{"fullUrl":"https://madie.cms.gov/claim/5ca62962b8484628b8de1ec5","resource":{"resourceType":"Claim","id":"5ca62962b8484628b8de1ec5","meta":{"profile":["http://hl7.org/fhir/us/qicore/StructureDefinition/qicore-claim"]},"status":"active","type":{"coding":[{"system":"http://terminology.hl7.org/CodeSystem/claim-type","code":"institutional"}]},"use":"claim","patient":{"reference":"Patient/5450abfd-a667-4eb9-9b59-e85feed4865c"},"created":"2026-12-01","provider":{"reference":"Practitioner/26de23be-801f-4630-975c-3bebf55101a7"},"priority":{"coding":[{"system":"http://terminology.hl7.org/CodeSystem/processpriority","code":"normal"}]},"diagnosis":[{"sequence":1,"diagnosisCodeableConcept":{"coding":[{"system":"http://hl7.org/fhir/sid/icd-10-cm","code":"I63.00"}]},"type":[{"coding":[{"system":"http://terminology.hl7.org/CodeSystem/ex-diagnosistype","code":"principal"}]}]}],"insurance":[{"sequence":1,"focal":true,"coverage":{"reference":"Coverage/5fa041661c76ba66d9959367"}}],"item":[{"sequence":1,"diagnosisSequence":[1],"productOrService":{"coding":[{"system":"http://terminology.hl7.org/CodeSystem/ex-USCLS","code":"99555"}]},"encounter":[{"reference":"Encounter/0795c8db-4ed2-4e52-99f0-ddab9cceced0"}]}]},"request":{"method":"PUT","url":"Claim/5ca62962b8484628b8de1ec5"}},{"fullUrl":"https://madie.cms.gov/Coverage/e8bcd4ab-b9cd-4d48-a8b0-2891651c073a","resource":{"resourceType":"Coverage","id":"e8bcd4ab-b9cd-4d48-a8b0-2891651c073a","meta":{"profile":["http://hl7.org/fhir/us/qicore/StructureDefinition/qicore-coverage"]},"status":"active","beneficiary":{"reference":"Patient/b3043789-f91a-42f6-848d-6bfd7df331fe"},"payor":[{"reference":"Organization/629f4628-bcdf-4f5b-8d7b-1ee5878dd52d"}]},"request":{"method":"PUT","url":"Coverage/e8bcd4ab-b9cd-4d48-a8b0-2891651c073a"}},{"fullUrl":"https://madie.cms.gov/Organization/629f4628-bcdf-4f5b-8d7b-1ee5878dd52d","resource":{"resourceType":"Organization","id":"629f4628-bcdf-4f5b-8d7b-1ee5878dd52d","meta":{"profile":["http://hl7.org/fhir/us/qicore/StructureDefinition/qicore-organization"]},"identifier":[{"use":"temp","system":"urn:oid:2.16.840.1.113883.4.4","value":"21-3259825"}],"active":true,"type":[{"coding":[{"system":"http://terminology.hl7.org/CodeSystem/organization-type","code":"pay","display":"Payer"}]}],"name":"Blue Cross Blue Shield of Texas","telecom":[{"system":"phone","value":"(+1) 972-766-6900"}],"address":[{"use":"billing","type":"postal","line":["P.O. Box 660044"],"city":"Dallas","state":"TX","postalCode":"75266-0044","country":"USA"}]},"request":{"method":"PUT","url":"Organization/629f4628-bcdf-4f5b-8d7b-1ee5878dd52d"}},{"fullUrl":"https://madie.cms.gov/Practitioner/26de23be-801f-4630-975c-3bebf55101a7","resource":{"resourceType":"Practitioner","id":"26de23be-801f-4630-975c-3bebf55101a7","identifier":[{"system":"http://hl7.org/fhir/sid/us-npi","value":"123456"}],"name":[{"family":"Evil","prefix":["Dr"]}]},"request":{"method":"PUT","url":"Practitioner/26de23be-801f-4630-975c-3bebf55101a7"}},{"fullUrl":"https://madie.cms.gov/MeasureReport/13552ea9-8c09-4029-b943-07288573b023","resource":{"resourceType":"MeasureReport","id":"13552ea9-8c09-4029-b943-07288573b023","meta":{"profile":["http://hl7.org/fhir/us/cqfmeasures/StructureDefinition/test-case-cqfm"]},"contained":[{"resourceType":"Parameters","id":"7a533d61-59ad-4a3f-a5f5-c9bb0be507f2-parameters","parameter":[{"name":"subject","valueString":"b3043789-f91a-42f6-848d-6bfd7df331fe"}]}],"extension":[{"url":"http://hl7.org/fhir/StructureDefinition/cqf-inputParameters","valueReference":{"reference":"#7a533d61-59ad-4a3f-a5f5-c9bb0be507f2-parameters"}},{"url":"http://hl7.org/fhir/us/cqfmeasures/StructureDefinition/cqfm-testCaseDescription","valueMarkdown":" Patient received tPA  one day after admission to inpatient hospitalization \n"}],"modifierExtension":[{"url":"http://hl7.org/fhir/us/cqfmeasures/StructureDefinition/cqfm-isTestCase","valueBoolean":true}],"status":"complete","type":"individual","measure":"https://madie.cms.gov/Measure/CMS72FHIRSTKAntithromboticDay2","period":{"start":"2026-01-01","end":"2026-12-31"},"group":[{"id":"Group_1","population":[{"id":"InitialPopulation_1","code":{"coding":[{"system":"http://terminology.hl7.org/CodeSystem/measure-population","code":"initial-population","display":"Initial Population"}]},"count":1},{"id":"Denominator_1","code":{"coding":[{"system":"http://terminology.hl7.org/CodeSystem/measure-population","code":"denominator","display":"Denominator"}]},"count":1},{"id":"DenominatorExclusion_1","code":{"coding":[{"system":"http://terminology.hl7.org/CodeSystem/measure-population","code":"denominator-exclusion","display":"Denominator Exclusion"}]},"count":1},{"id":"Numerator_1","code":{"coding":[{"system":"http://terminology.hl7.org/CodeSystem/measure-population","code":"numerator","display":"Numerator"}]},"count":0},{"id":"DenominatorException_1","code":{"coding":[{"system":"http://terminology.hl7.org/CodeSystem/measure-population","code":"denominator-exception","display":"Denominator Exception"}]},"count":0}],"measureScore":{"value":0.0}}],"evaluatedResource":[{"reference":"Patient/b3043789-f91a-42f6-848d-6bfd7df331fe"},{"reference":"Encounter/68496ff2-a075-419c-8be6-a39c4f722867"},{"reference":"Encounter/0795c8db-4ed2-4e52-99f0-ddab9cceced0"},{"reference":"Procedure/ad68396c-7c76-4e24-a78e-2518a7f19058"},{"reference":"Condition/f2edd0a6-a674-44fa-b34d-61f734eff117"},{"reference":"Claim/5ca62962b8484628b8de1ec5"},{"reference":"Coverage/e8bcd4ab-b9cd-4d48-a8b0-2891651c073a"},{"reference":"Organization/629f4628-bcdf-4f5b-8d7b-1ee5878dd52d"},{"reference":"Practitioner/26de23be-801f-4630-975c-3bebf55101a7"}]},"request":{"method":"PUT","url":"MeasureReport/13552ea9-8c09-4029-b943-07288573b023"}}]},"request":{"method":"PUT","url":"Bundle/60f82c2f98086b570510e2c4"}},{"fullUrl":"MeasureReport/13552ea9-8c09-4029-b943-07288573b023","resource":{"resourceType":"MeasureReport","id":"13552ea9-8c09-4029-b943-07288573b023","meta":{"profile":["http://hl7.org/fhir/us/cqfmeasures/StructureDefinition/test-case-cqfm"]},"contained":[{"resourceType":"Parameters","id":"7a533d61-59ad-4a3f-a5f5-c9bb0be507f2-parameters","parameter":[{"name":"subject","valueString":"b3043789-f91a-42f6-848d-6bfd7df331fe"}]}],"extension":[{"url":"http://hl7.org/fhir/StructureDefinition/cqf-inputParameters","valueReference":{"reference":"#7a533d61-59ad-4a3f-a5f5-c9bb0be507f2-parameters"}},{"url":"http://hl7.org/fhir/us/cqfmeasures/StructureDefinition/cqfm-testCaseDescription","valueMarkdown":" Patient received tPA  one day after admission to inpatient hospitalization \n"}],"modifierExtension":[{"url":"http://hl7.org/fhir/us/cqfmeasures/StructureDefinition/cqfm-isTestCase","valueBoolean":true}],"status":"complete","type":"individual","measure":"https://madie.cms.gov/Measure/CMS72FHIRSTKAntithromboticDay2","period":{"start":"2026-01-01","end":"2026-12-31"},"group":[{"id":"Group_1","population":[{"id":"InitialPopulation_1","code":{"coding":[{"system":"http://terminology.hl7.org/CodeSystem/measure-population","code":"initial-population","display":"Initial Population"}]},"count":1},{"id":"Denominator_1","code":{"coding":[{"system":"http://terminology.hl7.org/CodeSystem/measure-population","code":"denominator","display":"Denominator"}]},"count":1},{"id":"DenominatorExclusion_1","code":{"coding":[{"system":"http://terminology.hl7.org/CodeSystem/measure-population","code":"denominator-exclusion","display":"Denominator Exclusion"}]},"count":1},{"id":"Numerator_1","code":{"coding":[{"system":"http://terminology.hl7.org/CodeSystem/measure-population","code":"numerator","display":"Numerator"}]},"count":0},{"id":"DenominatorException_1","code":{"coding":[{"system":"http://terminology.hl7.org/CodeSystem/measure-population","code":"denominator-exception","display":"Denominator Exception"}]},"count":0}],"measureScore":{"value":0.0}}],"evaluatedResource":[{"reference":"Patient/b3043789-f91a-42f6-848d-6bfd7df331fe"},{"reference":"Encounter/68496ff2-a075-419c-8be6-a39c4f722867"},{"reference":"Encounter/0795c8db-4ed2-4e52-99f0-ddab9cceced0"},{"reference":"Procedure/ad68396c-7c76-4e24-a78e-2518a7f19058"},{"reference":"Condition/f2edd0a6-a674-44fa-b34d-61f734eff117"},{"reference":"Claim/5ca62962b8484628b8de1ec5"},{"reference":"Coverage/e8bcd4ab-b9cd-4d48-a8b0-2891651c073a"},{"reference":"Organization/629f4628-bcdf-4f5b-8d7b-1ee5878dd52d"},{"reference":"Practitioner/26de23be-801f-4630-975c-3bebf55101a7"}]},"request":{"method":"PUT","url":"MeasureReport/13552ea9-8c09-4029-b943-07288573b023"}},{"fullUrl":"Coverage/e8bcd4ab-b9cd-4d48-a8b0-2891651c073a","resource":{"resourceType":"Coverage","id":"e8bcd4ab-b9cd-4d48-a8b0-2891651c073a","meta":{"profile":["http://hl7.org/fhir/us/qicore/StructureDefinition/qicore-coverage"]},"status":"active","beneficiary":{"reference":"Patient/b3043789-f91a-42f6-848d-6bfd7df331fe"},"payor":[{"reference":"Organization/629f4628-bcdf-4f5b-8d7b-1ee5878dd52d"}]},"request":{"method":"PUT","url":"Coverage/e8bcd4ab-b9cd-4d48-a8b0-2891651c073a"}},{"fullUrl":"Patient/b3043789-f91a-42f6-848d-6bfd7df331fe","resource":{"resourceType":"Patient","id":"b3043789-f91a-42f6-848d-6bfd7df331fe","meta":{"profile":["http://hl7.org/fhir/us/qicore/StructureDefinition/qicore-patient"]},"text":{"status":"generated","div":"<div xmlns=\"http://www.w3.org/1999/xhtml\"><div class=\"hapiHeaderText\">tPADuringInPatientEnc1DayAfterAdmit <b>DENEXPASS-LCG </b></div><table class=\"hapiPropertyTable\"><tbody><tr><td>Identifier</td><td>44863becbb7051abd5e1dad02ddaf594356b765d18873c1d70b102e9efc8cd0b</td></tr><tr><td>Date of birth</td><td><span>26 September 1975</span></td></tr></tbody></table></div>"},"extension":[{"url":"http://hl7.org/fhir/us/core/StructureDefinition/us-core-race","extension":[{"url":"ombCategory","valueCoding":{"system":"urn:oid:2.16.840.1.113883.6.238","code":"2054-5","display":"Black or African American","userSelected":true}},{"url":"text","valueString":"Black or African American"}]},{"url":"http://hl7.org/fhir/us/core/StructureDefinition/us-core-ethnicity","extension":[{"url":"ombCategory","valueCoding":{"system":"urn:oid:2.16.840.1.113883.6.238","code":"2186-5","display":"Not Hispanic or Latino","userSelected":true}},{"url":"text","valueString":"Not Hispanic or Latino"}]}],"identifier":[{"type":{"coding":[{"system":"http://terminology.hl7.org/CodeSystem/v2-0203","code":"MR"}]},"system":"https://bonnie-fhir.healthit.gov/","value":"60f82c2f98086b570510e2c4"}],"active":true,"name":[{"use":"usual","family":"DENEXPass-LCG","given":["tPADuringInPatientEnc1DayAfterAdmit"]}],"gender":"female","birthDate":"1976-09-26"},"request":{"method":"PUT","url":"Patient/b3043789-f91a-42f6-848d-6bfd7df331fe"}},{"fullUrl":"Practitioner/26de23be-801f-4630-975c-3bebf55101a7","resource":{"resourceType":"Practitioner","id":"26de23be-801f-4630-975c-3bebf55101a7","identifier":[{"system":"http://hl7.org/fhir/sid/us-npi","value":"123456"}],"name":[{"family":"Evil","prefix":["Dr"]}]},"request":{"method":"PUT","url":"Practitioner/26de23be-801f-4630-975c-3bebf55101a7"}},{"fullUrl":"Claim/5ca62962b8484628b8de1ec5","resource":{"resourceType":"Claim","id":"5ca62962b8484628b8de1ec5","meta":{"profile":["http://hl7.org/fhir/us/qicore/StructureDefinition/qicore-claim"]},"status":"active","type":{"coding":[{"system":"http://terminology.hl7.org/CodeSystem/claim-type","code":"institutional"}]},"use":"claim","patient":{"reference":"Patient/5450abfd-a667-4eb9-9b59-e85feed4865c"},"created":"2026-12-01","provider":{"reference":"Practitioner/26de23be-801f-4630-975c-3bebf55101a7"},"priority":{"coding":[{"system":"http://terminology.hl7.org/CodeSystem/processpriority","code":"normal"}]},"diagnosis":[{"sequence":1,"diagnosisCodeableConcept":{"coding":[{"system":"http://hl7.org/fhir/sid/icd-10-cm","code":"I63.00"}]},"type":[{"coding":[{"system":"http://terminology.hl7.org/CodeSystem/ex-diagnosistype","code":"principal"}]}]}],"insurance":[{"sequence":1,"focal":true,"coverage":{"reference":"Coverage/5fa041661c76ba66d9959367"}}],"item":[{"sequence":1,"diagnosisSequence":[1],"productOrService":{"coding":[{"system":"http://terminology.hl7.org/CodeSystem/ex-USCLS","code":"99555"}]},"encounter":[{"reference":"Encounter/0795c8db-4ed2-4e52-99f0-ddab9cceced0"}]}]},"request":{"method":"PUT","url":"Claim/5ca62962b8484628b8de1ec5"}}]}