{"resourceType":"Bundle","id":"tests-c787d9c8-9645-4da6-a607-85dbefdf129e-bundle","type":"transaction","entry":[{"resource":{"resourceType":"Practitioner","id":"bb056a2d-df47-4bbe-a52b-326fbf72915a","identifier":[{"system":"http://hl7.org/fhir/sid/us-npi","value":"123456"}],"name":[{"family":"Evil","prefix":["Dr"]}]},"request":{"method":"PUT","url":"Practitioner/bb056a2d-df47-4bbe-a52b-326fbf72915a"}},{"resource":{"resourceType":"Encounter","id":"33384633-7226-4cca-9bba-b2b05593bb16","meta":{"profile":["http://hl7.org/fhir/us/qicore/StructureDefinition/qicore-encounter"]},"status":"finished","class":{"system":"http://terminology.hl7.org/CodeSystem/v3-ActCode","code":"OBSENC","display":"observation encounter","userSelected":true},"type":[{"coding":[{"system":"http://snomed.info/sct","code":"448851000124103"}]}],"subject":{"reference":"Patient/c787d9c8-9645-4da6-a607-85dbefdf129e"},"period":{"start":"2026-10-11T06:31:00Z","end":"2026-10-11T07:30:00.000+00:00"},"length":{"value":0,"unit":"days"}},"request":{"method":"PUT","url":"Encounter/33384633-7226-4cca-9bba-b2b05593bb16"}},{"resource":{"resourceType":"Observation","id":"f45fd36b-c43d-4445-ae9e-bfe19bfbc0cd","meta":{"profile":["http://hl7.org/fhir/us/qicore/StructureDefinition/qicore-observation-lab"]},"status":"final","category":[{"coding":[{"system":"http://terminology.hl7.org/CodeSystem/observation-category","code":"laboratory","display":"Laboratory"}]}],"code":{"coding":[{"system":"http://loinc.org","code":"34714-6"}]},"subject":{"reference":"Patient/c787d9c8-9645-4da6-a607-85dbefdf129e"},"effectivePeriod":{"start":"2026-10-10T06:14:00Z"},"issued":"2026-10-12T00:00:00.000+00:00","valueQuantity":{"value":3.6}},"request":{"method":"PUT","url":"Observation/f45fd36b-c43d-4445-ae9e-bfe19bfbc0cd"}},{"resource":{"resourceType":"Patient","id":"c787d9c8-9645-4da6-a607-85dbefdf129e","meta":{"profile":["http://hl7.org/fhir/us/qicore/StructureDefinition/qicore-patient"]},"text":{"status":"generated","div":"<div xmlns=\"http://www.w3.org/1999/xhtml\"><div class=\"hapiHeaderText\">INRDayAftEnc_ED&lt;1hrObs&lt;1hrBFEncDayOf <b>DENEXCEPASS </b></div><table class=\"hapiPropertyTable\"><tbody><tr><td>Identifier</td><td>eb0390ddf5cccfdde210d05452662b986f9c97b164102446c8fbef7016593c62</td></tr><tr><td>Date of birth</td><td><span>26 September 1975</span></td></tr></tbody></table></div>"},"extension":[{"url":"http://hl7.org/fhir/us/core/StructureDefinition/us-core-race","extension":[{"url":"ombCategory","valueCoding":{"system":"urn:oid:2.16.840.1.113883.6.238","code":"2054-5","display":"Black or African American","userSelected":true}},{"url":"text","valueString":"Black or African American"}]},{"url":"http://hl7.org/fhir/us/core/StructureDefinition/us-core-ethnicity","extension":[{"url":"ombCategory","valueCoding":{"system":"urn:oid:2.16.840.1.113883.6.238","code":"2186-5","display":"Not Hispanic or Latino","userSelected":true}},{"url":"text","valueString":"Not Hispanic or Latino"}]}],"identifier":[{"type":{"coding":[{"system":"http://terminology.hl7.org/CodeSystem/v2-0203","code":"MR"}]},"system":"https://bonnie-fhir.healthit.gov/","value":"60f82c2f98086b570510e2a8"}],"active":true,"name":[{"use":"usual","family":"DENEXCEPass","given":["INRDayAftEncEDlt1hrObslt1hrBFEncDayOf"]}],"gender":"female","birthDate":"1976-09-26"},"request":{"method":"PUT","url":"Patient/c787d9c8-9645-4da6-a607-85dbefdf129e"}},{"resource":{"resourceType":"Bundle","id":"60f82c2f98086b570510e2a8","type":"transaction","entry":[{"fullUrl":"https://madie.cms.gov/Patient/c787d9c8-9645-4da6-a607-85dbefdf129e","resource":{"resourceType":"Patient","id":"c787d9c8-9645-4da6-a607-85dbefdf129e","meta":{"profile":["http://hl7.org/fhir/us/qicore/StructureDefinition/qicore-patient"]},"text":{"status":"generated","div":"<div xmlns=\"http://www.w3.org/1999/xhtml\"><div class=\"hapiHeaderText\">INRDayAftEnc_ED&lt;1hrObs&lt;1hrBFEncDayOf <b>DENEXCEPASS </b></div><table class=\"hapiPropertyTable\"><tbody><tr><td>Identifier</td><td>eb0390ddf5cccfdde210d05452662b986f9c97b164102446c8fbef7016593c62</td></tr><tr><td>Date of birth</td><td><span>26 September 1975</span></td></tr></tbody></table></div>"},"extension":[{"url":"http://hl7.org/fhir/us/core/StructureDefinition/us-core-race","extension":[{"url":"ombCategory","valueCoding":{"system":"urn:oid:2.16.840.1.113883.6.238","code":"2054-5","display":"Black or African American","userSelected":true}},{"url":"text","valueString":"Black or African American"}]},{"url":"http://hl7.org/fhir/us/core/StructureDefinition/us-core-ethnicity","extension":[{"url":"ombCategory","valueCoding":{"system":"urn:oid:2.16.840.1.113883.6.238","code":"2186-5","display":"Not Hispanic or Latino","userSelected":true}},{"url":"text","valueString":"Not Hispanic or Latino"}]}],"identifier":[{"type":{"coding":[{"system":"http://terminology.hl7.org/CodeSystem/v2-0203","code":"MR"}]},"system":"https://bonnie-fhir.healthit.gov/","value":"60f82c2f98086b570510e2a8"}],"active":true,"name":[{"use":"usual","family":"DENEXCEPass","given":["INRDayAftEncEDlt1hrObslt1hrBFEncDayOf"]}],"gender":"female","birthDate":"1976-09-26"},"request":{"method":"PUT","url":"Patient/c787d9c8-9645-4da6-a607-85dbefdf129e"}},{"fullUrl":"https://madie.cms.gov/Encounter/1a3922dc-c74d-4b1a-a4d7-bc11744df9a9","resource":{"resourceType":"Encounter","id":"1a3922dc-c74d-4b1a-a4d7-bc11744df9a9","meta":{"profile":["http://hl7.org/fhir/us/qicore/StructureDefinition/qicore-encounter"]},"status":"finished","class":{"system":"http://terminology.hl7.org/CodeSystem/v3-ActCode","code":"EMER","display":"emergency","userSelected":true},"type":[{"coding":[{"system":"http://snomed.info/sct","code":"4525004"}]}],"subject":{"reference":"Patient/c787d9c8-9645-4da6-a607-85dbefdf129e"},"period":{"start":"2026-10-11T06:15:00Z","end":"2026-10-11T06:30:00.000+00:00"},"length":{"value":0,"unit":"days"}},"request":{"method":"PUT","url":"Encounter/1a3922dc-c74d-4b1a-a4d7-bc11744df9a9"}},{"fullUrl":"https://madie.cms.gov/Encounter/33384633-7226-4cca-9bba-b2b05593bb16","resource":{"resourceType":"Encounter","id":"33384633-7226-4cca-9bba-b2b05593bb16","meta":{"profile":["http://hl7.org/fhir/us/qicore/StructureDefinition/qicore-encounter"]},"status":"finished","class":{"system":"http://terminology.hl7.org/CodeSystem/v3-ActCode","code":"OBSENC","display":"observation encounter","userSelected":true},"type":[{"coding":[{"system":"http://snomed.info/sct","code":"448851000124103"}]}],"subject":{"reference":"Patient/c787d9c8-9645-4da6-a607-85dbefdf129e"},"period":{"start":"2026-10-11T06:31:00Z","end":"2026-10-11T07:30:00.000+00:00"},"length":{"value":0,"unit":"days"}},"request":{"method":"PUT","url":"Encounter/33384633-7226-4cca-9bba-b2b05593bb16"}},{"fullUrl":"https://madie.cms.gov/Encounter/17636c9d-bda4-45fb-9371-919487a32b8f","resource":{"resourceType":"Encounter","id":"17636c9d-bda4-45fb-9371-919487a32b8f","meta":{"profile":["http://hl7.org/fhir/us/qicore/StructureDefinition/qicore-encounter"]},"status":"finished","class":{"system":"http://terminology.hl7.org/CodeSystem/v3-ActCode","code":"IMP","display":"inpatient encounter","userSelected":true},"type":[{"coding":[{"system":"http://snomed.info/sct","code":"32485007"}]}],"subject":{"reference":"Patient/c787d9c8-9645-4da6-a607-85dbefdf129e"},"period":{"start":"2026-10-11T07:31:00Z","end":"2026-10-15T11:30:00.000+00:00"},"length":{"value":4,"unit":"days"},"reasonReference":[{"reference":"Condition/d9bef8ae-f340-48ed-b23a-97f1f3b76260"}]},"request":{"method":"PUT","url":"Encounter/17636c9d-bda4-45fb-9371-919487a32b8f"}},{"fullUrl":"https://madie.cms.gov/Observation/f45fd36b-c43d-4445-ae9e-bfe19bfbc0cd","resource":{"resourceType":"Observation","id":"f45fd36b-c43d-4445-ae9e-bfe19bfbc0cd","meta":{"profile":["http://hl7.org/fhir/us/qicore/StructureDefinition/qicore-observation-lab"]},"status":"final","category":[{"coding":[{"system":"http://terminology.hl7.org/CodeSystem/observation-category","code":"laboratory","display":"Laboratory"}]}],"code":{"coding":[{"system":"http://loinc.org","code":"34714-6"}]},"subject":{"reference":"Patient/c787d9c8-9645-4da6-a607-85dbefdf129e"},"effectivePeriod":{"start":"2026-10-10T06:14:00Z"},"issued":"2026-10-12T00:00:00.000+00:00","valueQuantity":{"value":3.6}},"request":{"method":"PUT","url":"Observation/f45fd36b-c43d-4445-ae9e-bfe19bfbc0cd"}},{"fullUrl":"https://madie.cms.gov/Coverage/ea522b32-9770-497e-92db-3e1781605774","resource":{"resourceType":"Coverage","id":"ea522b32-9770-497e-92db-3e1781605774","status":"active","beneficiary":{"reference":"Patient/c787d9c8-9645-4da6-a607-85dbefdf129e"},"period":{"start":"1976-09-26T08:00:00Z"},"payor":[{"reference":"Organization/2200df4a-6226-40a4-a2fb-044c02aedff1"}]},"request":{"method":"PUT","url":"Coverage/ea522b32-9770-497e-92db-3e1781605774"}},{"fullUrl":"https://madie.cms.gov/Condition/d9bef8ae-f340-48ed-b23a-97f1f3b76260","resource":{"resourceType":"Condition","id":"d9bef8ae-f340-48ed-b23a-97f1f3b76260","meta":{"profile":["http://hl7.org/fhir/us/qicore/StructureDefinition/qicore-condition-encounter-diagnosis"]},"clinicalStatus":{"coding":[{"system":"http://terminology.hl7.org/CodeSystem/condition-clinical","code":"active"}]},"verificationStatus":{"coding":[{"system":"http://terminology.hl7.org/CodeSystem/condition-ver-status","code":"confirmed"}]},"category":[{"coding":[{"system":"http://terminology.hl7.org/CodeSystem/condition-category","code":"encounter-diagnosis","display":"Encounter Diagnosis"}]}],"code":{"coding":[{"system":"http://snomed.info/sct","version":"2020-09","code":"111297002","display":"Nonparalytic stroke (disorder)","userSelected":true}]},"subject":{"reference":"Patient/c787d9c8-9645-4da6-a607-85dbefdf129e"},"encounter":{"reference":"Encounter/17636c9d-bda4-45fb-9371-919487a32b8f"},"recordedDate":"2026-08-06T08:00:00Z"},"request":{"method":"PUT","url":"Condition/d9bef8ae-f340-48ed-b23a-97f1f3b76260"}},{"fullUrl":"https://madie.cms.gov/claim/5ca62962b8484628b8de1ec5","resource":{"resourceType":"Claim","id":"5ca62962b8484628b8de1ec5","meta":{"profile":["http://hl7.org/fhir/us/qicore/StructureDefinition/qicore-claim"]},"status":"active","type":{"coding":[{"system":"http://terminology.hl7.org/CodeSystem/claim-type","code":"institutional"}]},"use":"claim","patient":{"reference":"Patient/5450abfd-a667-4eb9-9b59-e85feed4865c"},"created":"2026-12-01","provider":{"reference":"Practitioner/bb056a2d-df47-4bbe-a52b-326fbf72915a"},"priority":{"coding":[{"system":"http://terminology.hl7.org/CodeSystem/processpriority","code":"normal"}]},"diagnosis":[{"sequence":1,"diagnosisCodeableConcept":{"coding":[{"system":"http://hl7.org/fhir/sid/icd-10-cm","code":"I63.00"}]},"type":[{"coding":[{"system":"http://terminology.hl7.org/CodeSystem/ex-diagnosistype","code":"principal"}]}]}],"insurance":[{"sequence":1,"focal":true,"coverage":{"reference":"Coverage/5fa041661c76ba66d9959367"}}],"item":[{"sequence":1,"diagnosisSequence":[1],"productOrService":{"coding":[{"system":"http://terminology.hl7.org/CodeSystem/ex-USCLS","code":"99555"}]},"encounter":[{"reference":"Encounter/17636c9d-bda4-45fb-9371-919487a32b8f"}]}]},"request":{"method":"PUT","url":"Claim/5ca62962b8484628b8de1ec5"}},{"fullUrl":"https://madie.cms.gov/Organization/2200df4a-6226-40a4-a2fb-044c02aedff1","resource":{"resourceType":"Organization","id":"2200df4a-6226-40a4-a2fb-044c02aedff1","meta":{"profile":["http://hl7.org/fhir/us/qicore/StructureDefinition/qicore-organization"]},"identifier":[{"use":"temp","system":"urn:oid:2.16.840.1.113883.4.4","value":"21-3259825"}],"active":true,"type":[{"coding":[{"system":"http://terminology.hl7.org/CodeSystem/organization-type","code":"pay","display":"Payer"}]}],"name":"Blue Cross Blue Shield of Texas","telecom":[{"system":"phone","value":"(+1) 972-766-6900"}],"address":[{"use":"billing","type":"postal","line":["P.O. Box 660044"],"city":"Dallas","state":"TX","postalCode":"75266-0044","country":"USA"}]},"request":{"method":"PUT","url":"Organization/2200df4a-6226-40a4-a2fb-044c02aedff1"}},{"fullUrl":"https://madie.cms.gov/Practitioner/bb056a2d-df47-4bbe-a52b-326fbf72915a","resource":{"resourceType":"Practitioner","id":"bb056a2d-df47-4bbe-a52b-326fbf72915a","identifier":[{"system":"http://hl7.org/fhir/sid/us-npi","value":"123456"}],"name":[{"family":"Evil","prefix":["Dr"]}]},"request":{"method":"PUT","url":"Practitioner/bb056a2d-df47-4bbe-a52b-326fbf72915a"}},{"fullUrl":"https://madie.cms.gov/MeasureReport/37327faf-7ec2-41d2-8c4d-d3479d156eba","resource":{"resourceType":"MeasureReport","id":"37327faf-7ec2-41d2-8c4d-d3479d156eba","meta":{"profile":["http://hl7.org/fhir/us/cqfmeasures/StructureDefinition/test-case-cqfm"]},"contained":[{"resourceType":"Parameters","id":"4a554e9f-f7a8-4354-b02c-ebf392e3e74a-parameters","parameter":[{"name":"subject","valueString":"c787d9c8-9645-4da6-a607-85dbefdf129e"}]}],"extension":[{"url":"http://hl7.org/fhir/StructureDefinition/cqf-inputParameters","valueReference":{"reference":"#4a554e9f-f7a8-4354-b02c-ebf392e3e74a-parameters"}}],"modifierExtension":[{"url":"http://hl7.org/fhir/us/cqfmeasures/StructureDefinition/cqfm-isTestCase","valueBoolean":true}],"status":"complete","type":"individual","measure":"https://madie.cms.gov/Measure/CMS72FHIRSTKAntithromboticDay2","period":{"start":"2026-01-01","end":"2026-12-31"},"group":[{"id":"Group_1","population":[{"id":"InitialPopulation_1","code":{"coding":[{"system":"http://terminology.hl7.org/CodeSystem/measure-population","code":"initial-population","display":"Initial Population"}]},"count":1},{"id":"Denominator_1","code":{"coding":[{"system":"http://terminology.hl7.org/CodeSystem/measure-population","code":"denominator","display":"Denominator"}]},"count":1},{"id":"DenominatorExclusion_1","code":{"coding":[{"system":"http://terminology.hl7.org/CodeSystem/measure-population","code":"denominator-exclusion","display":"Denominator Exclusion"}]},"count":0},{"id":"Numerator_1","code":{"coding":[{"system":"http://terminology.hl7.org/CodeSystem/measure-population","code":"numerator","display":"Numerator"}]},"count":0},{"id":"DenominatorException_1","code":{"coding":[{"system":"http://terminology.hl7.org/CodeSystem/measure-population","code":"denominator-exception","display":"Denominator Exception"}]},"count":1}],"measureScore":{"value":0.0}}],"evaluatedResource":[{"reference":"Patient/c787d9c8-9645-4da6-a607-85dbefdf129e"},{"reference":"Encounter/1a3922dc-c74d-4b1a-a4d7-bc11744df9a9"},{"reference":"Encounter/33384633-7226-4cca-9bba-b2b05593bb16"},{"reference":"Encounter/17636c9d-bda4-45fb-9371-919487a32b8f"},{"reference":"Observation/f45fd36b-c43d-4445-ae9e-bfe19bfbc0cd"},{"reference":"Coverage/ea522b32-9770-497e-92db-3e1781605774"},{"reference":"Condition/d9bef8ae-f340-48ed-b23a-97f1f3b76260"},{"reference":"Claim/5ca62962b8484628b8de1ec5"},{"reference":"Organization/2200df4a-6226-40a4-a2fb-044c02aedff1"},{"reference":"Practitioner/bb056a2d-df47-4bbe-a52b-326fbf72915a"}]},"request":{"method":"PUT","url":"MeasureReport/37327faf-7ec2-41d2-8c4d-d3479d156eba"}}]},"request":{"method":"PUT","url":"Bundle/60f82c2f98086b570510e2a8"}},{"resource":{"resourceType":"Encounter","id":"17636c9d-bda4-45fb-9371-919487a32b8f","meta":{"profile":["http://hl7.org/fhir/us/qicore/StructureDefinition/qicore-encounter"]},"status":"finished","class":{"system":"http://terminology.hl7.org/CodeSystem/v3-ActCode","code":"IMP","display":"inpatient encounter","userSelected":true},"type":[{"coding":[{"system":"http://snomed.info/sct","code":"32485007"}]}],"subject":{"reference":"Patient/c787d9c8-9645-4da6-a607-85dbefdf129e"},"period":{"start":"2026-10-11T07:31:00Z","end":"2026-10-15T11:30:00.000+00:00"},"length":{"value":4,"unit":"days"},"reasonReference":[{"reference":"Condition/d9bef8ae-f340-48ed-b23a-97f1f3b76260"}]},"request":{"method":"PUT","url":"Encounter/17636c9d-bda4-45fb-9371-919487a32b8f"}},{"resource":{"resourceType":"Coverage","id":"ea522b32-9770-497e-92db-3e1781605774","status":"active","beneficiary":{"reference":"Patient/c787d9c8-9645-4da6-a607-85dbefdf129e"},"period":{"start":"1976-09-26T08:00:00Z"},"payor":[{"reference":"Organization/2200df4a-6226-40a4-a2fb-044c02aedff1"}]},"request":{"method":"PUT","url":"Coverage/ea522b32-9770-497e-92db-3e1781605774"}},{"resource":{"resourceType":"Organization","id":"2200df4a-6226-40a4-a2fb-044c02aedff1","meta":{"profile":["http://hl7.org/fhir/us/qicore/StructureDefinition/qicore-organization"]},"identifier":[{"use":"temp","system":"urn:oid:2.16.840.1.113883.4.4","value":"21-3259825"}],"active":true,"type":[{"coding":[{"system":"http://terminology.hl7.org/CodeSystem/organization-type","code":"pay","display":"Payer"}]}],"name":"Blue Cross Blue Shield of Texas","telecom":[{"system":"phone","value":"(+1) 972-766-6900"}],"address":[{"use":"billing","type":"postal","line":["P.O. Box 660044"],"city":"Dallas","state":"TX","postalCode":"75266-0044","country":"USA"}]},"request":{"method":"PUT","url":"Organization/2200df4a-6226-40a4-a2fb-044c02aedff1"}},{"resource":{"resourceType":"Encounter","id":"1a3922dc-c74d-4b1a-a4d7-bc11744df9a9","meta":{"profile":["http://hl7.org/fhir/us/qicore/StructureDefinition/qicore-encounter"]},"status":"finished","class":{"system":"http://terminology.hl7.org/CodeSystem/v3-ActCode","code":"EMER","display":"emergency","userSelected":true},"type":[{"coding":[{"system":"http://snomed.info/sct","code":"4525004"}]}],"subject":{"reference":"Patient/c787d9c8-9645-4da6-a607-85dbefdf129e"},"period":{"start":"2026-10-11T06:15:00Z","end":"2026-10-11T06:30:00.000+00:00"},"length":{"value":0,"unit":"days"}},"request":{"method":"PUT","url":"Encounter/1a3922dc-c74d-4b1a-a4d7-bc11744df9a9"}},{"resource":{"resourceType":"MeasureReport","id":"37327faf-7ec2-41d2-8c4d-d3479d156eba","meta":{"profile":["http://hl7.org/fhir/us/cqfmeasures/StructureDefinition/test-case-cqfm"]},"contained":[{"resourceType":"Parameters","id":"4a554e9f-f7a8-4354-b02c-ebf392e3e74a-parameters","parameter":[{"name":"subject","valueString":"c787d9c8-9645-4da6-a607-85dbefdf129e"}]}],"extension":[{"url":"http://hl7.org/fhir/StructureDefinition/cqf-inputParameters","valueReference":{"reference":"#4a554e9f-f7a8-4354-b02c-ebf392e3e74a-parameters"}}],"modifierExtension":[{"url":"http://hl7.org/fhir/us/cqfmeasures/StructureDefinition/cqfm-isTestCase","valueBoolean":true}],"status":"complete","type":"individual","measure":"https://madie.cms.gov/Measure/CMS72FHIRSTKAntithromboticDay2","period":{"start":"2026-01-01","end":"2026-12-31"},"group":[{"id":"Group_1","population":[{"id":"InitialPopulation_1","code":{"coding":[{"system":"http://terminology.hl7.org/CodeSystem/measure-population","code":"initial-population","display":"Initial Population"}]},"count":1},{"id":"Denominator_1","code":{"coding":[{"system":"http://terminology.hl7.org/CodeSystem/measure-population","code":"denominator","display":"Denominator"}]},"count":1},{"id":"DenominatorExclusion_1","code":{"coding":[{"system":"http://terminology.hl7.org/CodeSystem/measure-population","code":"denominator-exclusion","display":"Denominator Exclusion"}]},"count":0},{"id":"Numerator_1","code":{"coding":[{"system":"http://terminology.hl7.org/CodeSystem/measure-population","code":"numerator","display":"Numerator"}]},"count":0},{"id":"DenominatorException_1","code":{"coding":[{"system":"http://terminology.hl7.org/CodeSystem/measure-population","code":"denominator-exception","display":"Denominator Exception"}]},"count":1}],"measureScore":{"value":0.0}}],"evaluatedResource":[{"reference":"Patient/c787d9c8-9645-4da6-a607-85dbefdf129e"},{"reference":"Encounter/1a3922dc-c74d-4b1a-a4d7-bc11744df9a9"},{"reference":"Encounter/33384633-7226-4cca-9bba-b2b05593bb16"},{"reference":"Encounter/17636c9d-bda4-45fb-9371-919487a32b8f"},{"reference":"Observation/f45fd36b-c43d-4445-ae9e-bfe19bfbc0cd"},{"reference":"Coverage/ea522b32-9770-497e-92db-3e1781605774"},{"reference":"Condition/d9bef8ae-f340-48ed-b23a-97f1f3b76260"},{"reference":"Claim/5ca62962b8484628b8de1ec5"},{"reference":"Organization/2200df4a-6226-40a4-a2fb-044c02aedff1"},{"reference":"Practitioner/bb056a2d-df47-4bbe-a52b-326fbf72915a"}]},"request":{"method":"PUT","url":"MeasureReport/37327faf-7ec2-41d2-8c4d-d3479d156eba"}},{"resource":{"resourceType":"Condition","id":"d9bef8ae-f340-48ed-b23a-97f1f3b76260","meta":{"profile":["http://hl7.org/fhir/us/qicore/StructureDefinition/qicore-condition-encounter-diagnosis"]},"clinicalStatus":{"coding":[{"system":"http://terminology.hl7.org/CodeSystem/condition-clinical","code":"active"}]},"verificationStatus":{"coding":[{"system":"http://terminology.hl7.org/CodeSystem/condition-ver-status","code":"confirmed"}]},"category":[{"coding":[{"system":"http://terminology.hl7.org/CodeSystem/condition-category","code":"encounter-diagnosis","display":"Encounter Diagnosis"}]}],"code":{"coding":[{"system":"http://snomed.info/sct","version":"2020-09","code":"111297002","display":"Nonparalytic stroke (disorder)","userSelected":true}]},"subject":{"reference":"Patient/c787d9c8-9645-4da6-a607-85dbefdf129e"},"encounter":{"reference":"Encounter/17636c9d-bda4-45fb-9371-919487a32b8f"},"recordedDate":"2026-08-06T08:00:00Z"},"request":{"method":"PUT","url":"Condition/d9bef8ae-f340-48ed-b23a-97f1f3b76260"}},{"resource":{"resourceType":"Claim","id":"5ca62962b8484628b8de1ec5","meta":{"profile":["http://hl7.org/fhir/us/qicore/StructureDefinition/qicore-claim"]},"status":"active","type":{"coding":[{"system":"http://terminology.hl7.org/CodeSystem/claim-type","code":"institutional"}]},"use":"claim","patient":{"reference":"Patient/5450abfd-a667-4eb9-9b59-e85feed4865c"},"created":"2026-12-01","provider":{"reference":"Practitioner/bb056a2d-df47-4bbe-a52b-326fbf72915a"},"priority":{"coding":[{"system":"http://terminology.hl7.org/CodeSystem/processpriority","code":"normal"}]},"diagnosis":[{"sequence":1,"diagnosisCodeableConcept":{"coding":[{"system":"http://hl7.org/fhir/sid/icd-10-cm","code":"I63.00"}]},"type":[{"coding":[{"system":"http://terminology.hl7.org/CodeSystem/ex-diagnosistype","code":"principal"}]}]}],"insurance":[{"sequence":1,"focal":true,"coverage":{"reference":"Coverage/5fa041661c76ba66d9959367"}}],"item":[{"sequence":1,"diagnosisSequence":[1],"productOrService":{"coding":[{"system":"http://terminology.hl7.org/CodeSystem/ex-USCLS","code":"99555"}]},"encounter":[{"reference":"Encounter/17636c9d-bda4-45fb-9371-919487a32b8f"}]}]},"request":{"method":"PUT","url":"Claim/5ca62962b8484628b8de1ec5"}}]}