{"resourceType":"Bundle","id":"tests-624c0305-d8a4-41eb-bbc9-30aea2c53304-bundle","type":"transaction","entry":[{"fullUrl":"Bundle/60f82c2e98086b570510e285","resource":{"resourceType":"Bundle","id":"60f82c2e98086b570510e285","type":"transaction","entry":[{"fullUrl":"https://madie.cms.gov/Patient/624c0305-d8a4-41eb-bbc9-30aea2c53304","resource":{"resourceType":"Patient","id":"624c0305-d8a4-41eb-bbc9-30aea2c53304","meta":{"profile":["http://hl7.org/fhir/us/qicore/StructureDefinition/qicore-patient"]},"text":{"status":"generated","div":"<div xmlns=\"http://www.w3.org/1999/xhtml\"><div class=\"hapiHeaderText\">Med1TPAStart_EQEncIPEnd <b>DENEXPASS </b></div><table class=\"hapiPropertyTable\"><tbody><tr><td>Identifier</td><td>b7c8fe1527ff5967acb0869e0406ab63</td></tr><tr><td>Date of birth</td><td><span>26 September 1975</span></td></tr></tbody></table></div>"},"extension":[{"url":"http://hl7.org/fhir/us/core/StructureDefinition/us-core-race","extension":[{"url":"ombCategory","valueCoding":{"system":"urn:oid:2.16.840.1.113883.6.238","code":"2054-5","display":"Black or African American","userSelected":true}},{"url":"text","valueString":"Black or African American"}]},{"url":"http://hl7.org/fhir/us/core/StructureDefinition/us-core-ethnicity","extension":[{"url":"ombCategory","valueCoding":{"system":"urn:oid:2.16.840.1.113883.6.238","code":"2186-5","display":"Not Hispanic or Latino","userSelected":true}},{"url":"text","valueString":"Not Hispanic or Latino"}]}],"identifier":[{"type":{"coding":[{"system":"http://terminology.hl7.org/CodeSystem/v2-0203","code":"MR"}]},"system":"https://bonnie-fhir.healthit.gov/","value":"60f82c2e98086b570510e285"}],"active":true,"name":[{"use":"usual","family":"DENEXPass","given":["Med1TPAStartEQEncIPEnd"]}],"gender":"female","birthDate":"1976-09-26"},"request":{"method":"PUT","url":"Patient/624c0305-d8a4-41eb-bbc9-30aea2c53304"}},{"fullUrl":"https://madie.cms.gov/Encounter/76ca766e-878d-4854-8a47-37e24aad2f95","resource":{"resourceType":"Encounter","id":"76ca766e-878d-4854-8a47-37e24aad2f95","meta":{"profile":["http://hl7.org/fhir/us/qicore/StructureDefinition/qicore-encounter"]},"status":"finished","class":{"system":"http://terminology.hl7.org/CodeSystem/v3-ActCode","code":"EMER","display":"emergency"},"type":[{"coding":[{"system":"http://snomed.info/sct","code":"4525004"}]}],"subject":{"reference":"Patient/624c0305-d8a4-41eb-bbc9-30aea2c53304"},"period":{"start":"2026-10-10T06:00:00Z","end":"2026-10-10T08:30:00.000+00:00"},"length":{"value":0,"unit":"days"}},"request":{"method":"PUT","url":"Encounter/76ca766e-878d-4854-8a47-37e24aad2f95"}},{"fullUrl":"https://madie.cms.gov/Encounter/2eba7910-0db6-41d9-93f7-95ac78e6f89c","resource":{"resourceType":"Encounter","id":"2eba7910-0db6-41d9-93f7-95ac78e6f89c","meta":{"profile":["http://hl7.org/fhir/us/qicore/StructureDefinition/qicore-encounter"]},"status":"finished","class":{"system":"http://terminology.hl7.org/CodeSystem/v3-ActCode","code":"IMP","display":"inpatient encounter"},"type":[{"coding":[{"system":"http://snomed.info/sct","code":"32485007"}]}],"subject":{"reference":"Patient/624c0305-d8a4-41eb-bbc9-30aea2c53304"},"period":{"start":"2026-10-10T09:00:00Z","end":"2026-10-12T09:00:00.000+00:00"},"length":{"value":2,"unit":"days"},"reasonReference":[{"reference":"Condition/b85b880d-f387-41c4-9a84-641d246d6388"}]},"request":{"method":"PUT","url":"Encounter/2eba7910-0db6-41d9-93f7-95ac78e6f89c"}},{"fullUrl":"https://madie.cms.gov/MedicationAdministration/e2a219f0-305c-4ef4-b0d1-368883fcf386","resource":{"resourceType":"MedicationAdministration","id":"e2a219f0-305c-4ef4-b0d1-368883fcf386","meta":{"profile":["http://hl7.org/fhir/us/qicore/StructureDefinition/qicore-medicationadministration"]},"extension":[{"url":"http://hl7.org/fhir/us/qicore/StructureDefinition/qicore-recorded","valueDateTime":"2026-10-11T09:00:00Z"}],"status":"completed","medicationCodeableConcept":{"coding":[{"system":"http://www.nlm.nih.gov/research/umls/rxnorm","code":"1804799"}]},"subject":{"reference":"Patient/624c0305-d8a4-41eb-bbc9-30aea2c53304"},"effectivePeriod":{"start":"2026-10-11T09:00:00Z","end":"2026-10-12T09:00:00.000+00:00"}},"request":{"method":"PUT","url":"MedicationAdministration/e2a219f0-305c-4ef4-b0d1-368883fcf386"}},{"fullUrl":"https://madie.cms.gov/Coverage/45abe953-2adc-4c88-a3ab-3353ff94eb72","resource":{"resourceType":"Coverage","id":"45abe953-2adc-4c88-a3ab-3353ff94eb72","status":"active","beneficiary":{"reference":"Patient/624c0305-d8a4-41eb-bbc9-30aea2c53304"},"period":{"start":"1976-09-26T08:00:00Z"},"payor":[{"reference":"Organization/9c791320-65bb-4da5-90e3-ce80cb6849a2"}]},"request":{"method":"PUT","url":"Coverage/45abe953-2adc-4c88-a3ab-3353ff94eb72"}},{"fullUrl":"https://madie.cms.gov/Condition/b85b880d-f387-41c4-9a84-641d246d6388","resource":{"resourceType":"Condition","id":"b85b880d-f387-41c4-9a84-641d246d6388","meta":{"profile":["http://hl7.org/fhir/us/qicore/StructureDefinition/qicore-condition-encounter-diagnosis"]},"clinicalStatus":{"coding":[{"system":"http://terminology.hl7.org/CodeSystem/condition-clinical","code":"active"}]},"verificationStatus":{"coding":[{"system":"http://terminology.hl7.org/CodeSystem/condition-ver-status","code":"confirmed"}]},"category":[{"coding":[{"system":"http://terminology.hl7.org/CodeSystem/condition-category","code":"encounter-diagnosis","display":"Encounter Diagnosis"}]}],"code":{"coding":[{"system":"http://snomed.info/sct","version":"2020-09","code":"111297002","display":"Nonparalytic stroke (disorder)","userSelected":true}]},"subject":{"reference":"Patient/624c0305-d8a4-41eb-bbc9-30aea2c53304"},"encounter":{"reference":"Encounter/2eba7910-0db6-41d9-93f7-95ac78e6f89c"},"recordedDate":"2026-08-13T08:00:00Z"},"request":{"method":"PUT","url":"Condition/b85b880d-f387-41c4-9a84-641d246d6388"}},{"fullUrl":"https://madie.cms.gov/claim/5ca62962b8484628b8de1ec5","resource":{"resourceType":"Claim","id":"5ca62962b8484628b8de1ec5","meta":{"profile":["http://hl7.org/fhir/us/qicore/StructureDefinition/qicore-claim"]},"status":"active","type":{"coding":[{"system":"http://terminology.hl7.org/CodeSystem/claim-type","code":"institutional"}]},"use":"claim","patient":{"reference":"Patient/624c0305-d8a4-41eb-bbc9-30aea2c53304"},"created":"2026-12-01","provider":{"reference":"Practitioner/practitioner-123456"},"priority":{"coding":[{"system":"http://terminology.hl7.org/CodeSystem/processpriority","code":"normal"}]},"diagnosis":[{"sequence":1,"diagnosisCodeableConcept":{"coding":[{"system":"http://hl7.org/fhir/sid/icd-10-cm","code":"I63.00"}]},"type":[{"coding":[{"system":"http://terminology.hl7.org/CodeSystem/ex-diagnosistype","code":"principal"}]}]}],"insurance":[{"sequence":1,"focal":true,"coverage":{"reference":"Coverage/5fa041661c76ba66d9959367"}}],"item":[{"sequence":1,"diagnosisSequence":[1],"productOrService":{"coding":[{"system":"http://terminology.hl7.org/CodeSystem/ex-USCLS","code":"99555"}]},"encounter":[{"reference":"Encounter/2eba7910-0db6-41d9-93f7-95ac78e6f89c"}]}]},"request":{"method":"PUT","url":"Claim/5ca62962b8484628b8de1ec5"}},{"fullUrl":"https://madie.cms.gov/Organization/9c791320-65bb-4da5-90e3-ce80cb6849a2","resource":{"resourceType":"Organization","id":"9c791320-65bb-4da5-90e3-ce80cb6849a2","meta":{"profile":["http://hl7.org/fhir/us/qicore/StructureDefinition/qicore-organization"]},"identifier":[{"use":"temp","system":"urn:oid:2.16.840.1.113883.4.4","value":"21-3259825"}],"active":true,"type":[{"coding":[{"system":"http://terminology.hl7.org/CodeSystem/organization-type","code":"pay","display":"Payer"}]}],"name":"Blue Cross Blue Shield of Texas","telecom":[{"system":"phone","value":"(+1) 972-766-6900"}],"address":[{"use":"billing","type":"postal","line":["P.O. Box 660044"],"city":"Dallas","state":"TX","postalCode":"75266-0044","country":"USA"}]},"request":{"method":"PUT","url":"Organization/9c791320-65bb-4da5-90e3-ce80cb6849a2"}},{"fullUrl":"https://madie.cms.gov/MeasureReport/0ac33861-70f4-4b44-a0d1-a44e3861dc26","resource":{"resourceType":"MeasureReport","id":"0ac33861-70f4-4b44-a0d1-a44e3861dc26","meta":{"profile":["http://hl7.org/fhir/us/cqfmeasures/StructureDefinition/test-case-cqfm"]},"contained":[{"resourceType":"Parameters","id":"3ea1acfd-9d4a-445b-8277-a464f413d920-parameters","parameter":[{"name":"subject","valueString":"624c0305-d8a4-41eb-bbc9-30aea2c53304"}]}],"extension":[{"url":"http://hl7.org/fhir/StructureDefinition/cqf-inputParameters","valueReference":{"reference":"#3ea1acfd-9d4a-445b-8277-a464f413d920-parameters"}},{"url":"http://hl7.org/fhir/us/cqfmeasures/StructureDefinition/cqfm-testCaseDescription","valueMarkdown":"Patient has ED visit <=1hour before IP encounter AND receives TPA=EncIP End tm,  global.\"Hospitalization\" =(Ed+IP)\n"}],"modifierExtension":[{"url":"http://hl7.org/fhir/us/cqfmeasures/StructureDefinition/cqfm-isTestCase","valueBoolean":true}],"status":"complete","type":"individual","measure":"https://madie.cms.gov/Measure/CMS72FHIRSTKAntithromboticDay2","period":{"start":"2026-01-01","end":"2026-12-31"},"group":[{"id":"Group_1","population":[{"id":"InitialPopulation_1","code":{"coding":[{"system":"http://terminology.hl7.org/CodeSystem/measure-population","code":"initial-population","display":"Initial Population"}]},"count":1},{"id":"Denominator_1","code":{"coding":[{"system":"http://terminology.hl7.org/CodeSystem/measure-population","code":"denominator","display":"Denominator"}]},"count":1},{"id":"DenominatorExclusion_1","code":{"coding":[{"system":"http://terminology.hl7.org/CodeSystem/measure-population","code":"denominator-exclusion","display":"Denominator Exclusion"}]},"count":1},{"id":"Numerator_1","code":{"coding":[{"system":"http://terminology.hl7.org/CodeSystem/measure-population","code":"numerator","display":"Numerator"}]},"count":0},{"id":"DenominatorException_1","code":{"coding":[{"system":"http://terminology.hl7.org/CodeSystem/measure-population","code":"denominator-exception","display":"Denominator Exception"}]},"count":0}],"measureScore":{"value":0.0}}],"evaluatedResource":[{"reference":"Patient/624c0305-d8a4-41eb-bbc9-30aea2c53304"},{"reference":"Encounter/76ca766e-878d-4854-8a47-37e24aad2f95"},{"reference":"Encounter/2eba7910-0db6-41d9-93f7-95ac78e6f89c"},{"reference":"MedicationAdministration/e2a219f0-305c-4ef4-b0d1-368883fcf386"},{"reference":"Coverage/45abe953-2adc-4c88-a3ab-3353ff94eb72"},{"reference":"Condition/b85b880d-f387-41c4-9a84-641d246d6388"},{"reference":"Claim/5ca62962b8484628b8de1ec5"},{"reference":"Organization/9c791320-65bb-4da5-90e3-ce80cb6849a2"}]},"request":{"method":"PUT","url":"MeasureReport/0ac33861-70f4-4b44-a0d1-a44e3861dc26"}}]},"request":{"method":"PUT","url":"Bundle/60f82c2e98086b570510e285"}},{"fullUrl":"Condition/b85b880d-f387-41c4-9a84-641d246d6388","resource":{"resourceType":"Condition","id":"b85b880d-f387-41c4-9a84-641d246d6388","meta":{"profile":["http://hl7.org/fhir/us/qicore/StructureDefinition/qicore-condition-encounter-diagnosis"]},"clinicalStatus":{"coding":[{"system":"http://terminology.hl7.org/CodeSystem/condition-clinical","code":"active"}]},"verificationStatus":{"coding":[{"system":"http://terminology.hl7.org/CodeSystem/condition-ver-status","code":"confirmed"}]},"category":[{"coding":[{"system":"http://terminology.hl7.org/CodeSystem/condition-category","code":"encounter-diagnosis","display":"Encounter Diagnosis"}]}],"code":{"coding":[{"system":"http://snomed.info/sct","version":"2020-09","code":"111297002","display":"Nonparalytic stroke (disorder)","userSelected":true}]},"subject":{"reference":"Patient/624c0305-d8a4-41eb-bbc9-30aea2c53304"},"encounter":{"reference":"Encounter/2eba7910-0db6-41d9-93f7-95ac78e6f89c"},"recordedDate":"2026-08-13T08:00:00Z"},"request":{"method":"PUT","url":"Condition/b85b880d-f387-41c4-9a84-641d246d6388"}},{"fullUrl":"MedicationAdministration/e2a219f0-305c-4ef4-b0d1-368883fcf386","resource":{"resourceType":"MedicationAdministration","id":"e2a219f0-305c-4ef4-b0d1-368883fcf386","meta":{"profile":["http://hl7.org/fhir/us/qicore/StructureDefinition/qicore-medicationadministration"]},"extension":[{"url":"http://hl7.org/fhir/us/qicore/StructureDefinition/qicore-recorded","valueDateTime":"2026-10-11T09:00:00Z"}],"status":"completed","medicationCodeableConcept":{"coding":[{"system":"http://www.nlm.nih.gov/research/umls/rxnorm","code":"1804799"}]},"subject":{"reference":"Patient/624c0305-d8a4-41eb-bbc9-30aea2c53304"},"effectivePeriod":{"start":"2026-10-11T09:00:00Z","end":"2026-10-12T09:00:00.000+00:00"}},"request":{"method":"PUT","url":"MedicationAdministration/e2a219f0-305c-4ef4-b0d1-368883fcf386"}},{"fullUrl":"Encounter/76ca766e-878d-4854-8a47-37e24aad2f95","resource":{"resourceType":"Encounter","id":"76ca766e-878d-4854-8a47-37e24aad2f95","meta":{"profile":["http://hl7.org/fhir/us/qicore/StructureDefinition/qicore-encounter"]},"status":"finished","class":{"system":"http://terminology.hl7.org/CodeSystem/v3-ActCode","code":"EMER","display":"emergency"},"type":[{"coding":[{"system":"http://snomed.info/sct","code":"4525004"}]}],"subject":{"reference":"Patient/624c0305-d8a4-41eb-bbc9-30aea2c53304"},"period":{"start":"2026-10-10T06:00:00Z","end":"2026-10-10T08:30:00.000+00:00"},"length":{"value":0,"unit":"days"}},"request":{"method":"PUT","url":"Encounter/76ca766e-878d-4854-8a47-37e24aad2f95"}},{"fullUrl":"Organization/9c791320-65bb-4da5-90e3-ce80cb6849a2","resource":{"resourceType":"Organization","id":"9c791320-65bb-4da5-90e3-ce80cb6849a2","meta":{"profile":["http://hl7.org/fhir/us/qicore/StructureDefinition/qicore-organization"]},"identifier":[{"use":"temp","system":"urn:oid:2.16.840.1.113883.4.4","value":"21-3259825"}],"active":true,"type":[{"coding":[{"system":"http://terminology.hl7.org/CodeSystem/organization-type","code":"pay","display":"Payer"}]}],"name":"Blue Cross Blue Shield of Texas","telecom":[{"system":"phone","value":"(+1) 972-766-6900"}],"address":[{"use":"billing","type":"postal","line":["P.O. Box 660044"],"city":"Dallas","state":"TX","postalCode":"75266-0044","country":"USA"}]},"request":{"method":"PUT","url":"Organization/9c791320-65bb-4da5-90e3-ce80cb6849a2"}},{"fullUrl":"Encounter/2eba7910-0db6-41d9-93f7-95ac78e6f89c","resource":{"resourceType":"Encounter","id":"2eba7910-0db6-41d9-93f7-95ac78e6f89c","meta":{"profile":["http://hl7.org/fhir/us/qicore/StructureDefinition/qicore-encounter"]},"status":"finished","class":{"system":"http://terminology.hl7.org/CodeSystem/v3-ActCode","code":"IMP","display":"inpatient encounter"},"type":[{"coding":[{"system":"http://snomed.info/sct","code":"32485007"}]}],"subject":{"reference":"Patient/624c0305-d8a4-41eb-bbc9-30aea2c53304"},"period":{"start":"2026-10-10T09:00:00Z","end":"2026-10-12T09:00:00.000+00:00"},"length":{"value":2,"unit":"days"},"reasonReference":[{"reference":"Condition/b85b880d-f387-41c4-9a84-641d246d6388"}]},"request":{"method":"PUT","url":"Encounter/2eba7910-0db6-41d9-93f7-95ac78e6f89c"}},{"fullUrl":"Coverage/45abe953-2adc-4c88-a3ab-3353ff94eb72","resource":{"resourceType":"Coverage","id":"45abe953-2adc-4c88-a3ab-3353ff94eb72","status":"active","beneficiary":{"reference":"Patient/624c0305-d8a4-41eb-bbc9-30aea2c53304"},"period":{"start":"1976-09-26T08:00:00Z"},"payor":[{"reference":"Organization/9c791320-65bb-4da5-90e3-ce80cb6849a2"}]},"request":{"method":"PUT","url":"Coverage/45abe953-2adc-4c88-a3ab-3353ff94eb72"}},{"fullUrl":"Patient/624c0305-d8a4-41eb-bbc9-30aea2c53304","resource":{"resourceType":"Patient","id":"624c0305-d8a4-41eb-bbc9-30aea2c53304","meta":{"profile":["http://hl7.org/fhir/us/qicore/StructureDefinition/qicore-patient"]},"text":{"status":"generated","div":"<div xmlns=\"http://www.w3.org/1999/xhtml\"><div class=\"hapiHeaderText\">Med1TPAStart_EQEncIPEnd <b>DENEXPASS </b></div><table class=\"hapiPropertyTable\"><tbody><tr><td>Identifier</td><td>b7c8fe1527ff5967acb0869e0406ab63</td></tr><tr><td>Date of birth</td><td><span>26 September 1975</span></td></tr></tbody></table></div>"},"extension":[{"url":"http://hl7.org/fhir/us/core/StructureDefinition/us-core-race","extension":[{"url":"ombCategory","valueCoding":{"system":"urn:oid:2.16.840.1.113883.6.238","code":"2054-5","display":"Black or African American","userSelected":true}},{"url":"text","valueString":"Black or African American"}]},{"url":"http://hl7.org/fhir/us/core/StructureDefinition/us-core-ethnicity","extension":[{"url":"ombCategory","valueCoding":{"system":"urn:oid:2.16.840.1.113883.6.238","code":"2186-5","display":"Not Hispanic or Latino","userSelected":true}},{"url":"text","valueString":"Not Hispanic or Latino"}]}],"identifier":[{"type":{"coding":[{"system":"http://terminology.hl7.org/CodeSystem/v2-0203","code":"MR"}]},"system":"https://bonnie-fhir.healthit.gov/","value":"60f82c2e98086b570510e285"}],"active":true,"name":[{"use":"usual","family":"DENEXPass","given":["Med1TPAStartEQEncIPEnd"]}],"gender":"female","birthDate":"1976-09-26"},"request":{"method":"PUT","url":"Patient/624c0305-d8a4-41eb-bbc9-30aea2c53304"}},{"fullUrl":"MeasureReport/0ac33861-70f4-4b44-a0d1-a44e3861dc26","resource":{"resourceType":"MeasureReport","id":"0ac33861-70f4-4b44-a0d1-a44e3861dc26","meta":{"profile":["http://hl7.org/fhir/us/cqfmeasures/StructureDefinition/test-case-cqfm"]},"contained":[{"resourceType":"Parameters","id":"3ea1acfd-9d4a-445b-8277-a464f413d920-parameters","parameter":[{"name":"subject","valueString":"624c0305-d8a4-41eb-bbc9-30aea2c53304"}]}],"extension":[{"url":"http://hl7.org/fhir/StructureDefinition/cqf-inputParameters","valueReference":{"reference":"#3ea1acfd-9d4a-445b-8277-a464f413d920-parameters"}},{"url":"http://hl7.org/fhir/us/cqfmeasures/StructureDefinition/cqfm-testCaseDescription","valueMarkdown":"Patient has ED visit <=1hour before IP encounter AND receives TPA=EncIP End tm,  global.\"Hospitalization\" =(Ed+IP)\n"}],"modifierExtension":[{"url":"http://hl7.org/fhir/us/cqfmeasures/StructureDefinition/cqfm-isTestCase","valueBoolean":true}],"status":"complete","type":"individual","measure":"https://madie.cms.gov/Measure/CMS72FHIRSTKAntithromboticDay2","period":{"start":"2026-01-01","end":"2026-12-31"},"group":[{"id":"Group_1","population":[{"id":"InitialPopulation_1","code":{"coding":[{"system":"http://terminology.hl7.org/CodeSystem/measure-population","code":"initial-population","display":"Initial Population"}]},"count":1},{"id":"Denominator_1","code":{"coding":[{"system":"http://terminology.hl7.org/CodeSystem/measure-population","code":"denominator","display":"Denominator"}]},"count":1},{"id":"DenominatorExclusion_1","code":{"coding":[{"system":"http://terminology.hl7.org/CodeSystem/measure-population","code":"denominator-exclusion","display":"Denominator Exclusion"}]},"count":1},{"id":"Numerator_1","code":{"coding":[{"system":"http://terminology.hl7.org/CodeSystem/measure-population","code":"numerator","display":"Numerator"}]},"count":0},{"id":"DenominatorException_1","code":{"coding":[{"system":"http://terminology.hl7.org/CodeSystem/measure-population","code":"denominator-exception","display":"Denominator Exception"}]},"count":0}],"measureScore":{"value":0.0}}],"evaluatedResource":[{"reference":"Patient/624c0305-d8a4-41eb-bbc9-30aea2c53304"},{"reference":"Encounter/76ca766e-878d-4854-8a47-37e24aad2f95"},{"reference":"Encounter/2eba7910-0db6-41d9-93f7-95ac78e6f89c"},{"reference":"MedicationAdministration/e2a219f0-305c-4ef4-b0d1-368883fcf386"},{"reference":"Coverage/45abe953-2adc-4c88-a3ab-3353ff94eb72"},{"reference":"Condition/b85b880d-f387-41c4-9a84-641d246d6388"},{"reference":"Claim/5ca62962b8484628b8de1ec5"},{"reference":"Organization/9c791320-65bb-4da5-90e3-ce80cb6849a2"}]},"request":{"method":"PUT","url":"MeasureReport/0ac33861-70f4-4b44-a0d1-a44e3861dc26"}},{"fullUrl":"Claim/5ca62962b8484628b8de1ec5","resource":{"resourceType":"Claim","id":"5ca62962b8484628b8de1ec5","meta":{"profile":["http://hl7.org/fhir/us/qicore/StructureDefinition/qicore-claim"]},"status":"active","type":{"coding":[{"system":"http://terminology.hl7.org/CodeSystem/claim-type","code":"institutional"}]},"use":"claim","patient":{"reference":"Patient/624c0305-d8a4-41eb-bbc9-30aea2c53304"},"created":"2026-12-01","provider":{"reference":"Practitioner/practitioner-123456"},"priority":{"coding":[{"system":"http://terminology.hl7.org/CodeSystem/processpriority","code":"normal"}]},"diagnosis":[{"sequence":1,"diagnosisCodeableConcept":{"coding":[{"system":"http://hl7.org/fhir/sid/icd-10-cm","code":"I63.00"}]},"type":[{"coding":[{"system":"http://terminology.hl7.org/CodeSystem/ex-diagnosistype","code":"principal"}]}]}],"insurance":[{"sequence":1,"focal":true,"coverage":{"reference":"Coverage/5fa041661c76ba66d9959367"}}],"item":[{"sequence":1,"diagnosisSequence":[1],"productOrService":{"coding":[{"system":"http://terminology.hl7.org/CodeSystem/ex-USCLS","code":"99555"}]},"encounter":[{"reference":"Encounter/2eba7910-0db6-41d9-93f7-95ac78e6f89c"}]}]},"request":{"method":"PUT","url":"Claim/5ca62962b8484628b8de1ec5"}}]}