{"resourceType":"Bundle","id":"tests-5a329008-fcc1-4168-ab9c-89cb5dd6ff32-bundle","type":"transaction","entry":[{"fullUrl":"Encounter/c0e1555d-b01a-44b1-9592-46305992e574","resource":{"resourceType":"Encounter","id":"c0e1555d-b01a-44b1-9592-46305992e574","meta":{"profile":["http://hl7.org/fhir/us/qicore/StructureDefinition/qicore-encounter"]},"status":"finished","class":{"system":"http://terminology.hl7.org/CodeSystem/v3-ActCode","code":"IMP","display":"inpatient encounter"},"type":[{"coding":[{"system":"http://snomed.info/sct","code":"183452005"}]}],"subject":{"reference":"Patient/5a329008-fcc1-4168-ab9c-89cb5dd6ff32"},"period":{"start":"2026-06-02T00:00:00Z","end":"2026-06-15T11:15:00.000+00:00"},"reasonReference":[{"reference":"Condition/aeaf04f9-ddeb-4d06-81d2-ba674f8c05ba"}]},"request":{"method":"PUT","url":"Encounter/c0e1555d-b01a-44b1-9592-46305992e574"}},{"fullUrl":"MeasureReport/ca73503a-7635-4bdc-bf41-c835131eef36","resource":{"resourceType":"MeasureReport","id":"ca73503a-7635-4bdc-bf41-c835131eef36","meta":{"profile":["http://hl7.org/fhir/us/cqfmeasures/StructureDefinition/test-case-cqfm"]},"contained":[{"resourceType":"Parameters","id":"e5395b71-144d-46d5-8dea-2f6e42cf4383-parameters","parameter":[{"name":"subject","valueString":"5a329008-fcc1-4168-ab9c-89cb5dd6ff32"}]}],"extension":[{"url":"http://hl7.org/fhir/StructureDefinition/cqf-inputParameters","valueReference":{"reference":"#e5395b71-144d-46d5-8dea-2f6e42cf4383-parameters"}},{"url":"http://hl7.org/fhir/us/cqfmeasures/StructureDefinition/cqfm-testCaseDescription","valueMarkdown":"Testing multiple encounters, one with ED to Inpatient with antithrombotic, and one with Ed to Obs to Inpatient with tPA. \n"}],"modifierExtension":[{"url":"http://hl7.org/fhir/us/cqfmeasures/StructureDefinition/cqfm-isTestCase","valueBoolean":true}],"status":"complete","type":"individual","measure":"https://madie.cms.gov/Measure/CMS72FHIRSTKAntithromboticDay2","period":{"start":"2026-01-01","end":"2026-12-31"},"group":[{"id":"Group_1","population":[{"id":"InitialPopulation_1","code":{"coding":[{"system":"http://terminology.hl7.org/CodeSystem/measure-population","code":"initial-population","display":"Initial Population"}]},"count":2},{"id":"Denominator_1","code":{"coding":[{"system":"http://terminology.hl7.org/CodeSystem/measure-population","code":"denominator","display":"Denominator"}]},"count":2},{"id":"DenominatorExclusion_1","code":{"coding":[{"system":"http://terminology.hl7.org/CodeSystem/measure-population","code":"denominator-exclusion","display":"Denominator Exclusion"}]},"count":1},{"id":"Numerator_1","code":{"coding":[{"system":"http://terminology.hl7.org/CodeSystem/measure-population","code":"numerator","display":"Numerator"}]},"count":1},{"id":"DenominatorException_1","code":{"coding":[{"system":"http://terminology.hl7.org/CodeSystem/measure-population","code":"denominator-exception","display":"Denominator Exception"}]},"count":0}],"measureScore":{"value":0.0}}],"evaluatedResource":[{"reference":"Patient/5a329008-fcc1-4168-ab9c-89cb5dd6ff32"},{"reference":"Encounter/4d515135-c60b-4366-86df-683ed679e4f6"},{"reference":"Encounter/63fcd987-d536-4941-ab95-9a08e23c089d"},{"reference":"Claim/5ca62962b8484628b8de1ec5"},{"reference":"Encounter/ecea1d26-8f16-4734-9783-6f49fa861e60"},{"reference":"Encounter/d2ae7ea6-6848-4597-a6d9-909fba96b9b6"},{"reference":"Encounter/c0e1555d-b01a-44b1-9592-46305992e574"},{"reference":"Claim/5ca62962b8484628b8de1ec5"},{"reference":"Observation/2ae0869c-09c1-4621-a050-07063cbae575"},{"reference":"MedicationAdministration/1a728db2-c2ca-4d94-aa8d-883cb5f2944c"},{"reference":"MedicationAdministration/0dc80621-86a2-40ed-9e59-c0bf2ae52e2d"},{"reference":"MedicationAdministration/23991024-22c3-46eb-bf4f-088407b4a762"},{"reference":"MedicationRequest/3bee28b8-cc8d-48e6-8eb1-d3f8895c0d81"},{"reference":"MedicationRequest/4d83ea2e-770b-4fd4-bfb3-1ee1d615a460"},{"reference":"Condition/f4b2f31e-3ec1-409b-9a73-4eef98489859"},{"reference":"Condition/aeaf04f9-ddeb-4d06-81d2-ba674f8c05ba"},{"reference":"Coverage/badb8ba1-6fe1-46ec-83c0-67ff21e0a950"},{"reference":"Organization/f28399bc-2b1b-43c2-87cb-c2f97e6a4976"},{"reference":"Practitioner/5fc9aded-4610-4e87-98a0-7983ac9b1d4b"}]},"request":{"method":"PUT","url":"MeasureReport/ca73503a-7635-4bdc-bf41-c835131eef36"}},{"fullUrl":"Coverage/badb8ba1-6fe1-46ec-83c0-67ff21e0a950","resource":{"resourceType":"Coverage","id":"badb8ba1-6fe1-46ec-83c0-67ff21e0a950","meta":{"profile":["http://hl7.org/fhir/us/qicore/StructureDefinition/qicore-coverage"]},"status":"active","subscriberId":"523435","beneficiary":{"reference":"Patient/5a329008-fcc1-4168-ab9c-89cb5dd6ff32"},"relationship":{"coding":[{"system":"http://terminology.hl7.org/CodeSystem/subscriber-relationship","code":"self"}]},"payor":[{"reference":"Organization/f28399bc-2b1b-43c2-87cb-c2f97e6a4976"}]},"request":{"method":"PUT","url":"Coverage/badb8ba1-6fe1-46ec-83c0-67ff21e0a950"}},{"fullUrl":"Condition/f4b2f31e-3ec1-409b-9a73-4eef98489859","resource":{"resourceType":"Condition","id":"f4b2f31e-3ec1-409b-9a73-4eef98489859","meta":{"profile":["http://hl7.org/fhir/us/qicore/StructureDefinition/qicore-condition-problems-health-concerns"]},"clinicalStatus":{"coding":[{"system":"http://terminology.hl7.org/CodeSystem/condition-clinical","code":"active"}]},"verificationStatus":{"coding":[{"system":"http://terminology.hl7.org/CodeSystem/condition-ver-status","code":"confirmed"}]},"category":[{"coding":[{"system":"http://terminology.hl7.org/CodeSystem/condition-category","code":"encounter-diagnosis","display":"Encounter Diagnosis"}]}],"code":{"coding":[{"system":"http://snomed.info/sct","version":"2020-09","code":"111297002","display":"Nonparalytic stroke (disorder)","userSelected":true}]},"subject":{"reference":"Patient/5a329008-fcc1-4168-ab9c-89cb5dd6ff32"},"recordedDate":"2026-08-16T08:00:00Z"},"request":{"method":"PUT","url":"Condition/f4b2f31e-3ec1-409b-9a73-4eef98489859"}},{"fullUrl":"Encounter/d2ae7ea6-6848-4597-a6d9-909fba96b9b6","resource":{"resourceType":"Encounter","id":"d2ae7ea6-6848-4597-a6d9-909fba96b9b6","meta":{"profile":["http://hl7.org/fhir/us/qicore/StructureDefinition/qicore-encounter"]},"status":"finished","class":{"system":"http://terminology.hl7.org/CodeSystem/v3-ActCode","code":"OBSENC","display":"observation encounter"},"type":[{"coding":[{"system":"http://snomed.info/sct","code":"448851000124103"}]}],"subject":{"reference":"Patient/5a329008-fcc1-4168-ab9c-89cb5dd6ff32"},"period":{"start":"2026-06-01T09:00:00Z","end":"2026-06-01T23:15:00.000+00:00"}},"request":{"method":"PUT","url":"Encounter/d2ae7ea6-6848-4597-a6d9-909fba96b9b6"}},{"fullUrl":"MedicationRequest/3bee28b8-cc8d-48e6-8eb1-d3f8895c0d81","resource":{"resourceType":"MedicationRequest","id":"3bee28b8-cc8d-48e6-8eb1-d3f8895c0d81","meta":{"profile":["http://hl7.org/fhir/us/qicore/StructureDefinition/qicore-medicationrequest"]},"status":"completed","intent":"order","medicationCodeableConcept":{"coding":[{"system":"http://www.nlm.nih.gov/research/umls/rxnorm","code":"1037045"}]},"subject":{"reference":"Patient/5a329008-fcc1-4168-ab9c-89cb5dd6ff32"},"authoredOn":"2026-04-02T08:00:00Z","requester":{"reference":"Practitioner/example"},"dosageInstruction":[{"timing":{"repeat":{"boundsPeriod":{"start":"2026-04-02T23:00:00Z","end":"2026-04-10T10:15:00.000+00:00"}}}}]},"request":{"method":"PUT","url":"MedicationRequest/3bee28b8-cc8d-48e6-8eb1-d3f8895c0d81"}},{"fullUrl":"Practitioner/5fc9aded-4610-4e87-98a0-7983ac9b1d4b","resource":{"resourceType":"Practitioner","id":"5fc9aded-4610-4e87-98a0-7983ac9b1d4b","meta":{"profile":["http://hl7.org/fhir/us/qicore/StructureDefinition/qicore-practitioner"]},"identifier":[{"system":"http://hl7.org/fhir/sid/us-npi","value":"9999999896"}],"name":[{"family":"Evil","prefix":["Dr"]}]},"request":{"method":"PUT","url":"Practitioner/5fc9aded-4610-4e87-98a0-7983ac9b1d4b"}},{"fullUrl":"Observation/2ae0869c-09c1-4621-a050-07063cbae575","resource":{"resourceType":"Observation","id":"2ae0869c-09c1-4621-a050-07063cbae575","meta":{"profile":["http://hl7.org/fhir/us/qicore/StructureDefinition/qicore-observation-lab"]},"status":"final","category":[{"coding":[{"system":"http://terminology.hl7.org/CodeSystem/observation-category","code":"laboratory","display":"Laboratory"}]}],"code":{"coding":[{"system":"http://loinc.org","code":"34714-6"}]},"subject":{"reference":"Patient/5a329008-fcc1-4168-ab9c-89cb5dd6ff32"},"effectivePeriod":{"start":"2026-04-02T08:00:00Z","end":"2026-04-02T22:15:00.000+00:00"},"issued":"2026-04-02T08:00:00Z","valueInteger":2},"request":{"method":"PUT","url":"Observation/2ae0869c-09c1-4621-a050-07063cbae575"}},{"fullUrl":"Encounter/4d515135-c60b-4366-86df-683ed679e4f6","resource":{"resourceType":"Encounter","id":"4d515135-c60b-4366-86df-683ed679e4f6","meta":{"profile":["http://hl7.org/fhir/us/qicore/StructureDefinition/qicore-encounter"]},"status":"finished","class":{"system":"http://terminology.hl7.org/CodeSystem/v3-ActCode","code":"EMER","display":"emergency"},"type":[{"coding":[{"system":"http://snomed.info/sct","code":"4525004"}]}],"subject":{"reference":"Patient/5a329008-fcc1-4168-ab9c-89cb5dd6ff32"},"period":{"start":"2026-04-02T08:00:00Z","end":"2026-04-02T22:15:00.000+00:00"}},"request":{"method":"PUT","url":"Encounter/4d515135-c60b-4366-86df-683ed679e4f6"}},{"fullUrl":"Condition/aeaf04f9-ddeb-4d06-81d2-ba674f8c05ba","resource":{"resourceType":"Condition","id":"aeaf04f9-ddeb-4d06-81d2-ba674f8c05ba","meta":{"profile":["http://hl7.org/fhir/us/qicore/StructureDefinition/qicore-condition-problems-health-concerns"]},"clinicalStatus":{"coding":[{"system":"http://terminology.hl7.org/CodeSystem/condition-clinical","code":"active"}]},"verificationStatus":{"coding":[{"system":"http://terminology.hl7.org/CodeSystem/condition-ver-status","code":"confirmed"}]},"category":[{"coding":[{"system":"http://terminology.hl7.org/CodeSystem/condition-category","code":"encounter-diagnosis","display":"Encounter Diagnosis"}]}],"code":{"coding":[{"system":"http://snomed.info/sct","version":"2020-09","code":"111297002","display":"Nonparalytic stroke (disorder)","userSelected":true}]},"subject":{"reference":"Patient/5a329008-fcc1-4168-ab9c-89cb5dd6ff32"},"recordedDate":"2026-08-16T08:00:00Z"},"request":{"method":"PUT","url":"Condition/aeaf04f9-ddeb-4d06-81d2-ba674f8c05ba"}},{"fullUrl":"MedicationAdministration/1a728db2-c2ca-4d94-aa8d-883cb5f2944c","resource":{"resourceType":"MedicationAdministration","id":"1a728db2-c2ca-4d94-aa8d-883cb5f2944c","meta":{"profile":["http://hl7.org/fhir/us/qicore/StructureDefinition/qicore-medicationadministration"]},"extension":[{"url":"http://hl7.org/fhir/us/qicore/StructureDefinition/qicore-recorded","valueDateTime":"2026-04-02T23:00:00Z"}],"status":"completed","medicationCodeableConcept":{"coding":[{"system":"http://www.nlm.nih.gov/research/umls/rxnorm","code":"1037045"}]},"subject":{"reference":"Patient/5a329008-fcc1-4168-ab9c-89cb5dd6ff32"},"effectivePeriod":{"start":"2026-04-02T23:00:00Z","end":"2026-04-10T10:15:00.000+00:00"}},"request":{"method":"PUT","url":"MedicationAdministration/1a728db2-c2ca-4d94-aa8d-883cb5f2944c"}},{"fullUrl":"Encounter/ecea1d26-8f16-4734-9783-6f49fa861e60","resource":{"resourceType":"Encounter","id":"ecea1d26-8f16-4734-9783-6f49fa861e60","meta":{"profile":["http://hl7.org/fhir/us/qicore/StructureDefinition/qicore-encounter"]},"status":"finished","class":{"system":"http://terminology.hl7.org/CodeSystem/v3-ActCode","code":"EMER","display":"emergency"},"type":[{"coding":[{"system":"http://snomed.info/sct","code":"4525004"}]}],"subject":{"reference":"Patient/5a329008-fcc1-4168-ab9c-89cb5dd6ff32"},"period":{"start":"2026-06-01T04:00:00Z","end":"2026-06-01T08:15:00.000+00:00"}},"request":{"method":"PUT","url":"Encounter/ecea1d26-8f16-4734-9783-6f49fa861e60"}},{"fullUrl":"Organization/f28399bc-2b1b-43c2-87cb-c2f97e6a4976","resource":{"resourceType":"Organization","id":"f28399bc-2b1b-43c2-87cb-c2f97e6a4976","meta":{"profile":["http://hl7.org/fhir/us/qicore/StructureDefinition/qicore-organization"]},"identifier":[{"use":"temp","system":"urn:oid:2.16.840.1.113883.4.4","value":"21-3259825"}],"active":true,"type":[{"coding":[{"system":"http://terminology.hl7.org/CodeSystem/organization-type","code":"pay","display":"Payer"}]}],"name":"Blue Cross Blue Shield of Texas","telecom":[{"system":"phone","value":"(+1) 972-766-6900"}],"address":[{"use":"billing","type":"postal","line":["P.O. Box 660044"],"city":"Dallas","state":"TX","postalCode":"75266-0044","country":"USA"}]},"request":{"method":"PUT","url":"Organization/f28399bc-2b1b-43c2-87cb-c2f97e6a4976"}},{"fullUrl":"Encounter/63fcd987-d536-4941-ab95-9a08e23c089d","resource":{"resourceType":"Encounter","id":"63fcd987-d536-4941-ab95-9a08e23c089d","meta":{"profile":["http://hl7.org/fhir/us/qicore/StructureDefinition/qicore-encounter"]},"status":"finished","class":{"system":"http://terminology.hl7.org/CodeSystem/v3-ActCode","code":"IMP","display":"inpatient encounter"},"type":[{"coding":[{"system":"http://snomed.info/sct","code":"183452005"}]}],"subject":{"reference":"Patient/5a329008-fcc1-4168-ab9c-89cb5dd6ff32"},"period":{"start":"2026-04-02T23:00:00Z","end":"2026-04-10T10:15:00.000+00:00"},"reasonReference":[{"reference":"Condition/f4b2f31e-3ec1-409b-9a73-4eef98489859"}]},"request":{"method":"PUT","url":"Encounter/63fcd987-d536-4941-ab95-9a08e23c089d"}},{"fullUrl":"MedicationRequest/4d83ea2e-770b-4fd4-bfb3-1ee1d615a460","resource":{"resourceType":"MedicationRequest","id":"4d83ea2e-770b-4fd4-bfb3-1ee1d615a460","meta":{"profile":["http://hl7.org/fhir/us/qicore/StructureDefinition/qicore-medicationrequest"]},"status":"completed","intent":"order","medicationCodeableConcept":{"coding":[{"system":"http://www.nlm.nih.gov/research/umls/rxnorm","code":"1037045"}]},"subject":{"reference":"Patient/5a329008-fcc1-4168-ab9c-89cb5dd6ff32"},"authoredOn":"2026-06-02T09:00:00Z","requester":{"reference":"Practitioner/example"},"dosageInstruction":[{"timing":{"repeat":{"boundsPeriod":{"start":"2026-06-02T00:15:00Z","end":"2026-06-15T11:15:00.000+00:00"}}}}]},"request":{"method":"PUT","url":"MedicationRequest/4d83ea2e-770b-4fd4-bfb3-1ee1d615a460"}},{"fullUrl":"Bundle/60f82c2f98086b570510e2cd","resource":{"resourceType":"Bundle","id":"60f82c2f98086b570510e2cd","type":"transaction","entry":[{"fullUrl":"https://madie.cms.gov/Patient/5a329008-fcc1-4168-ab9c-89cb5dd6ff32","resource":{"resourceType":"Patient","id":"5a329008-fcc1-4168-ab9c-89cb5dd6ff32","meta":{"profile":["http://hl7.org/fhir/us/qicore/StructureDefinition/qicore-patient"]},"text":{"status":"generated","div":"<div xmlns=\"http://www.w3.org/1999/xhtml\"><div class=\"hapiHeaderText\">LCG2Enc1WithAntithrombic1WithtPA <b>NUMER&amp;DENECEPPASS </b></div><table class=\"hapiPropertyTable\"><tbody><tr><td>Date of birth</td><td><span>06 April 1980</span></td></tr></tbody></table></div>"},"extension":[{"url":"http://hl7.org/fhir/us/core/StructureDefinition/us-core-race","extension":[{"url":"ombCategory","valueCoding":{"system":"urn:oid:2.16.840.1.113883.6.238","code":"2106-3","display":"White","userSelected":true}},{"url":"text","valueString":"White"}]},{"url":"http://hl7.org/fhir/us/core/StructureDefinition/us-core-ethnicity","extension":[{"url":"ombCategory","valueCoding":{"system":"urn:oid:2.16.840.1.113883.6.238","code":"2186-5","display":"Not Hispanic or Latino","userSelected":true}},{"url":"text","valueString":"Not Hispanic or Latino"}]}],"identifier":[{"type":{"coding":[{"system":"http://terminology.hl7.org/CodeSystem/v2-0203","code":"MR"}]},"system":"https://bonnie-fhir.healthit.gov/","value":"60f82c2f98086b570510e2cd"}],"active":true,"name":[{"use":"usual","family":"NUMER&DENECEPPass","given":["LCG2Enc1WithAntithrombic1WithtPA"]}],"gender":"male","birthDate":"1981-04-06"},"request":{"method":"PUT","url":"Patient/5a329008-fcc1-4168-ab9c-89cb5dd6ff32"}},{"fullUrl":"https://madie.cms.gov/Encounter/4d515135-c60b-4366-86df-683ed679e4f6","resource":{"resourceType":"Encounter","id":"4d515135-c60b-4366-86df-683ed679e4f6","meta":{"profile":["http://hl7.org/fhir/us/qicore/StructureDefinition/qicore-encounter"]},"status":"finished","class":{"system":"http://terminology.hl7.org/CodeSystem/v3-ActCode","code":"EMER","display":"emergency"},"type":[{"coding":[{"system":"http://snomed.info/sct","code":"4525004"}]}],"subject":{"reference":"Patient/5a329008-fcc1-4168-ab9c-89cb5dd6ff32"},"period":{"start":"2026-04-02T08:00:00Z","end":"2026-04-02T22:15:00.000+00:00"}},"request":{"method":"PUT","url":"Encounter/4d515135-c60b-4366-86df-683ed679e4f6"}},{"fullUrl":"https://madie.cms.gov/Encounter/63fcd987-d536-4941-ab95-9a08e23c089d","resource":{"resourceType":"Encounter","id":"63fcd987-d536-4941-ab95-9a08e23c089d","meta":{"profile":["http://hl7.org/fhir/us/qicore/StructureDefinition/qicore-encounter"]},"status":"finished","class":{"system":"http://terminology.hl7.org/CodeSystem/v3-ActCode","code":"IMP","display":"inpatient encounter"},"type":[{"coding":[{"system":"http://snomed.info/sct","code":"183452005"}]}],"subject":{"reference":"Patient/5a329008-fcc1-4168-ab9c-89cb5dd6ff32"},"period":{"start":"2026-04-02T23:00:00Z","end":"2026-04-10T10:15:00.000+00:00"},"reasonReference":[{"reference":"Condition/f4b2f31e-3ec1-409b-9a73-4eef98489859"}]},"request":{"method":"PUT","url":"Encounter/63fcd987-d536-4941-ab95-9a08e23c089d"}},{"fullUrl":"https://madie.cms.gov/claim/5ca62962b8484628b8de1ec5","resource":{"resourceType":"Claim","id":"5ca62962b8484628b8de1ec5","meta":{"profile":["http://hl7.org/fhir/us/qicore/StructureDefinition/qicore-claim"]},"status":"active","type":{"coding":[{"system":"http://terminology.hl7.org/CodeSystem/claim-type","code":"institutional"}]},"use":"claim","patient":{"reference":"Patient/d170a0a8-b5ad-4303-b6df-e304dd5f92ad"},"created":"2026-12-01","provider":{"reference":"Practitioner/5fc9aded-4610-4e87-98a0-7983ac9b1d4b"},"priority":{"coding":[{"system":"http://terminology.hl7.org/CodeSystem/processpriority","code":"normal"}]},"diagnosis":[{"sequence":1,"diagnosisCodeableConcept":{"coding":[{"system":"http://hl7.org/fhir/sid/icd-10-cm","code":"I63.00"}]},"type":[{"coding":[{"system":"http://terminology.hl7.org/CodeSystem/ex-diagnosistype","code":"principal"}]}]}],"insurance":[{"sequence":1,"focal":true,"coverage":{"reference":"Coverage/5fa041661c76ba66d9959367"}}],"item":[{"sequence":1,"diagnosisSequence":[1],"productOrService":{"coding":[{"system":"http://terminology.hl7.org/CodeSystem/ex-USCLS","code":"99555"}]},"encounter":[{"reference":"Encounter/63fcd987-d536-4941-ab95-9a08e23c089d"}]}]},"request":{"method":"PUT","url":"Claim/5ca62962b8484628b8de1ec5"}},{"fullUrl":"https://madie.cms.gov/Encounter/ecea1d26-8f16-4734-9783-6f49fa861e60","resource":{"resourceType":"Encounter","id":"ecea1d26-8f16-4734-9783-6f49fa861e60","meta":{"profile":["http://hl7.org/fhir/us/qicore/StructureDefinition/qicore-encounter"]},"status":"finished","class":{"system":"http://terminology.hl7.org/CodeSystem/v3-ActCode","code":"EMER","display":"emergency"},"type":[{"coding":[{"system":"http://snomed.info/sct","code":"4525004"}]}],"subject":{"reference":"Patient/5a329008-fcc1-4168-ab9c-89cb5dd6ff32"},"period":{"start":"2026-06-01T04:00:00Z","end":"2026-06-01T08:15:00.000+00:00"}},"request":{"method":"PUT","url":"Encounter/ecea1d26-8f16-4734-9783-6f49fa861e60"}},{"fullUrl":"https://madie.cms.gov/Encounter/d2ae7ea6-6848-4597-a6d9-909fba96b9b6","resource":{"resourceType":"Encounter","id":"d2ae7ea6-6848-4597-a6d9-909fba96b9b6","meta":{"profile":["http://hl7.org/fhir/us/qicore/StructureDefinition/qicore-encounter"]},"status":"finished","class":{"system":"http://terminology.hl7.org/CodeSystem/v3-ActCode","code":"OBSENC","display":"observation encounter"},"type":[{"coding":[{"system":"http://snomed.info/sct","code":"448851000124103"}]}],"subject":{"reference":"Patient/5a329008-fcc1-4168-ab9c-89cb5dd6ff32"},"period":{"start":"2026-06-01T09:00:00Z","end":"2026-06-01T23:15:00.000+00:00"}},"request":{"method":"PUT","url":"Encounter/d2ae7ea6-6848-4597-a6d9-909fba96b9b6"}},{"fullUrl":"https://madie.cms.gov/Encounter/c0e1555d-b01a-44b1-9592-46305992e574","resource":{"resourceType":"Encounter","id":"c0e1555d-b01a-44b1-9592-46305992e574","meta":{"profile":["http://hl7.org/fhir/us/qicore/StructureDefinition/qicore-encounter"]},"status":"finished","class":{"system":"http://terminology.hl7.org/CodeSystem/v3-ActCode","code":"IMP","display":"inpatient encounter"},"type":[{"coding":[{"system":"http://snomed.info/sct","code":"183452005"}]}],"subject":{"reference":"Patient/5a329008-fcc1-4168-ab9c-89cb5dd6ff32"},"period":{"start":"2026-06-02T00:00:00Z","end":"2026-06-15T11:15:00.000+00:00"},"reasonReference":[{"reference":"Condition/aeaf04f9-ddeb-4d06-81d2-ba674f8c05ba"}]},"request":{"method":"PUT","url":"Encounter/c0e1555d-b01a-44b1-9592-46305992e574"}},{"fullUrl":"https://madie.cms.gov/claim/5ca62962b8484628b8de1ec5","resource":{"resourceType":"Claim","id":"5ca62962b8484628b8de1ec5","meta":{"profile":["http://hl7.org/fhir/us/qicore/StructureDefinition/qicore-claim"]},"status":"active","type":{"coding":[{"system":"http://terminology.hl7.org/CodeSystem/claim-type","code":"institutional"}]},"use":"claim","patient":{"reference":"Patient/d170a0a8-b5ad-4303-b6df-e304dd5f92ad"},"created":"2026-12-01","provider":{"reference":"Practitioner/5fc9aded-4610-4e87-98a0-7983ac9b1d4b"},"priority":{"coding":[{"system":"http://terminology.hl7.org/CodeSystem/processpriority","code":"normal"}]},"diagnosis":[{"sequence":1,"diagnosisCodeableConcept":{"coding":[{"system":"http://hl7.org/fhir/sid/icd-10-cm","code":"I63.00"}]},"type":[{"coding":[{"system":"http://terminology.hl7.org/CodeSystem/ex-diagnosistype","code":"principal"}]}]}],"insurance":[{"sequence":1,"focal":true,"coverage":{"reference":"Coverage/5fa041661c76ba66d9959367"}}],"item":[{"sequence":1,"diagnosisSequence":[1],"productOrService":{"coding":[{"system":"http://terminology.hl7.org/CodeSystem/ex-USCLS","code":"99555"}]},"encounter":[{"reference":"Encounter/c0e1555d-b01a-44b1-9592-46305992e574"}]}]},"request":{"method":"PUT","url":"Claim/5ca62962b8484628b8de1ec5"}},{"fullUrl":"https://madie.cms.gov/Observation/2ae0869c-09c1-4621-a050-07063cbae575","resource":{"resourceType":"Observation","id":"2ae0869c-09c1-4621-a050-07063cbae575","meta":{"profile":["http://hl7.org/fhir/us/qicore/StructureDefinition/qicore-observation-lab"]},"status":"final","category":[{"coding":[{"system":"http://terminology.hl7.org/CodeSystem/observation-category","code":"laboratory","display":"Laboratory"}]}],"code":{"coding":[{"system":"http://loinc.org","code":"34714-6"}]},"subject":{"reference":"Patient/5a329008-fcc1-4168-ab9c-89cb5dd6ff32"},"effectivePeriod":{"start":"2026-04-02T08:00:00Z","end":"2026-04-02T22:15:00.000+00:00"},"issued":"2026-04-02T08:00:00Z","valueInteger":2},"request":{"method":"PUT","url":"Observation/2ae0869c-09c1-4621-a050-07063cbae575"}},{"fullUrl":"https://madie.cms.gov/MedicationAdministration/1a728db2-c2ca-4d94-aa8d-883cb5f2944c","resource":{"resourceType":"MedicationAdministration","id":"1a728db2-c2ca-4d94-aa8d-883cb5f2944c","meta":{"profile":["http://hl7.org/fhir/us/qicore/StructureDefinition/qicore-medicationadministration"]},"extension":[{"url":"http://hl7.org/fhir/us/qicore/StructureDefinition/qicore-recorded","valueDateTime":"2026-04-02T23:00:00Z"}],"status":"completed","medicationCodeableConcept":{"coding":[{"system":"http://www.nlm.nih.gov/research/umls/rxnorm","code":"1037045"}]},"subject":{"reference":"Patient/5a329008-fcc1-4168-ab9c-89cb5dd6ff32"},"effectivePeriod":{"start":"2026-04-02T23:00:00Z","end":"2026-04-10T10:15:00.000+00:00"}},"request":{"method":"PUT","url":"MedicationAdministration/1a728db2-c2ca-4d94-aa8d-883cb5f2944c"}},{"fullUrl":"https://madie.cms.gov/MedicationAdministration/0dc80621-86a2-40ed-9e59-c0bf2ae52e2d","resource":{"resourceType":"MedicationAdministration","id":"0dc80621-86a2-40ed-9e59-c0bf2ae52e2d","meta":{"profile":["http://hl7.org/fhir/us/qicore/StructureDefinition/qicore-medicationadministration"]},"extension":[{"url":"http://hl7.org/fhir/us/qicore/StructureDefinition/qicore-recorded","valueDateTime":"2026-06-01T09:00:00Z"}],"status":"completed","medicationCodeableConcept":{"coding":[{"system":"http://www.nlm.nih.gov/research/umls/rxnorm","code":"1804799"}]},"subject":{"reference":"Patient/5a329008-fcc1-4168-ab9c-89cb5dd6ff32"},"effectivePeriod":{"start":"2026-06-01T09:00:00Z","end":"2026-06-01T23:15:00.000+00:00"},"reasonCode":[{"coding":[{"system":"http://www.nlm.nih.gov/research/umls/rxnorm","code":"1804799","display":"alteplase 100 MG Injection"}]}]},"request":{"method":"PUT","url":"MedicationAdministration/0dc80621-86a2-40ed-9e59-c0bf2ae52e2d"}},{"fullUrl":"https://madie.cms.gov/MedicationAdministration/23991024-22c3-46eb-bf4f-088407b4a762","resource":{"resourceType":"MedicationAdministration","id":"23991024-22c3-46eb-bf4f-088407b4a762","meta":{"profile":["http://hl7.org/fhir/us/qicore/StructureDefinition/qicore-medicationadministration"]},"extension":[{"url":"http://hl7.org/fhir/us/qicore/StructureDefinition/qicore-recorded","valueDateTime":"2026-06-02T00:15:00Z"}],"status":"completed","medicationCodeableConcept":{"coding":[{"system":"http://www.nlm.nih.gov/research/umls/rxnorm","code":"1037045"}]},"subject":{"reference":"Patient/5a329008-fcc1-4168-ab9c-89cb5dd6ff32"},"effectivePeriod":{"start":"2026-06-02T00:15:00Z","end":"2026-06-15T11:15:00.000+00:00"}},"request":{"method":"PUT","url":"MedicationAdministration/23991024-22c3-46eb-bf4f-088407b4a762"}},{"fullUrl":"https://madie.cms.gov/MedicationRequest/3bee28b8-cc8d-48e6-8eb1-d3f8895c0d81","resource":{"resourceType":"MedicationRequest","id":"3bee28b8-cc8d-48e6-8eb1-d3f8895c0d81","meta":{"profile":["http://hl7.org/fhir/us/qicore/StructureDefinition/qicore-medicationrequest"]},"status":"completed","intent":"order","medicationCodeableConcept":{"coding":[{"system":"http://www.nlm.nih.gov/research/umls/rxnorm","code":"1037045"}]},"subject":{"reference":"Patient/5a329008-fcc1-4168-ab9c-89cb5dd6ff32"},"authoredOn":"2026-04-02T08:00:00Z","requester":{"reference":"Practitioner/example"},"dosageInstruction":[{"timing":{"repeat":{"boundsPeriod":{"start":"2026-04-02T23:00:00Z","end":"2026-04-10T10:15:00.000+00:00"}}}}]},"request":{"method":"PUT","url":"MedicationRequest/3bee28b8-cc8d-48e6-8eb1-d3f8895c0d81"}},{"fullUrl":"https://madie.cms.gov/MedicationRequest/4d83ea2e-770b-4fd4-bfb3-1ee1d615a460","resource":{"resourceType":"MedicationRequest","id":"4d83ea2e-770b-4fd4-bfb3-1ee1d615a460","meta":{"profile":["http://hl7.org/fhir/us/qicore/StructureDefinition/qicore-medicationrequest"]},"status":"completed","intent":"order","medicationCodeableConcept":{"coding":[{"system":"http://www.nlm.nih.gov/research/umls/rxnorm","code":"1037045"}]},"subject":{"reference":"Patient/5a329008-fcc1-4168-ab9c-89cb5dd6ff32"},"authoredOn":"2026-06-02T09:00:00Z","requester":{"reference":"Practitioner/example"},"dosageInstruction":[{"timing":{"repeat":{"boundsPeriod":{"start":"2026-06-02T00:15:00Z","end":"2026-06-15T11:15:00.000+00:00"}}}}]},"request":{"method":"PUT","url":"MedicationRequest/4d83ea2e-770b-4fd4-bfb3-1ee1d615a460"}},{"fullUrl":"https://madie.cms.gov/Condition/f4b2f31e-3ec1-409b-9a73-4eef98489859","resource":{"resourceType":"Condition","id":"f4b2f31e-3ec1-409b-9a73-4eef98489859","meta":{"profile":["http://hl7.org/fhir/us/qicore/StructureDefinition/qicore-condition-problems-health-concerns"]},"clinicalStatus":{"coding":[{"system":"http://terminology.hl7.org/CodeSystem/condition-clinical","code":"active"}]},"verificationStatus":{"coding":[{"system":"http://terminology.hl7.org/CodeSystem/condition-ver-status","code":"confirmed"}]},"category":[{"coding":[{"system":"http://terminology.hl7.org/CodeSystem/condition-category","code":"encounter-diagnosis","display":"Encounter Diagnosis"}]}],"code":{"coding":[{"system":"http://snomed.info/sct","version":"2020-09","code":"111297002","display":"Nonparalytic stroke (disorder)","userSelected":true}]},"subject":{"reference":"Patient/5a329008-fcc1-4168-ab9c-89cb5dd6ff32"},"recordedDate":"2026-08-16T08:00:00Z"},"request":{"method":"PUT","url":"Condition/f4b2f31e-3ec1-409b-9a73-4eef98489859"}},{"fullUrl":"https://madie.cms.gov/Condition/aeaf04f9-ddeb-4d06-81d2-ba674f8c05ba","resource":{"resourceType":"Condition","id":"aeaf04f9-ddeb-4d06-81d2-ba674f8c05ba","meta":{"profile":["http://hl7.org/fhir/us/qicore/StructureDefinition/qicore-condition-problems-health-concerns"]},"clinicalStatus":{"coding":[{"system":"http://terminology.hl7.org/CodeSystem/condition-clinical","code":"active"}]},"verificationStatus":{"coding":[{"system":"http://terminology.hl7.org/CodeSystem/condition-ver-status","code":"confirmed"}]},"category":[{"coding":[{"system":"http://terminology.hl7.org/CodeSystem/condition-category","code":"encounter-diagnosis","display":"Encounter Diagnosis"}]}],"code":{"coding":[{"system":"http://snomed.info/sct","version":"2020-09","code":"111297002","display":"Nonparalytic stroke (disorder)","userSelected":true}]},"subject":{"reference":"Patient/5a329008-fcc1-4168-ab9c-89cb5dd6ff32"},"recordedDate":"2026-08-16T08:00:00Z"},"request":{"method":"PUT","url":"Condition/aeaf04f9-ddeb-4d06-81d2-ba674f8c05ba"}},{"fullUrl":"https://madie.cms.gov/Coverage/badb8ba1-6fe1-46ec-83c0-67ff21e0a950","resource":{"resourceType":"Coverage","id":"badb8ba1-6fe1-46ec-83c0-67ff21e0a950","meta":{"profile":["http://hl7.org/fhir/us/qicore/StructureDefinition/qicore-coverage"]},"status":"active","subscriberId":"523435","beneficiary":{"reference":"Patient/5a329008-fcc1-4168-ab9c-89cb5dd6ff32"},"relationship":{"coding":[{"system":"http://terminology.hl7.org/CodeSystem/subscriber-relationship","code":"self"}]},"payor":[{"reference":"Organization/f28399bc-2b1b-43c2-87cb-c2f97e6a4976"}]},"request":{"method":"PUT","url":"Coverage/badb8ba1-6fe1-46ec-83c0-67ff21e0a950"}},{"fullUrl":"https://madie.cms.gov/Organization/f28399bc-2b1b-43c2-87cb-c2f97e6a4976","resource":{"resourceType":"Organization","id":"f28399bc-2b1b-43c2-87cb-c2f97e6a4976","meta":{"profile":["http://hl7.org/fhir/us/qicore/StructureDefinition/qicore-organization"]},"identifier":[{"use":"temp","system":"urn:oid:2.16.840.1.113883.4.4","value":"21-3259825"}],"active":true,"type":[{"coding":[{"system":"http://terminology.hl7.org/CodeSystem/organization-type","code":"pay","display":"Payer"}]}],"name":"Blue Cross Blue Shield of Texas","telecom":[{"system":"phone","value":"(+1) 972-766-6900"}],"address":[{"use":"billing","type":"postal","line":["P.O. Box 660044"],"city":"Dallas","state":"TX","postalCode":"75266-0044","country":"USA"}]},"request":{"method":"PUT","url":"Organization/f28399bc-2b1b-43c2-87cb-c2f97e6a4976"}},{"fullUrl":"https://madie.cms.gov/Practitioner/5fc9aded-4610-4e87-98a0-7983ac9b1d4b","resource":{"resourceType":"Practitioner","id":"5fc9aded-4610-4e87-98a0-7983ac9b1d4b","meta":{"profile":["http://hl7.org/fhir/us/qicore/StructureDefinition/qicore-practitioner"]},"identifier":[{"system":"http://hl7.org/fhir/sid/us-npi","value":"9999999896"}],"name":[{"family":"Evil","prefix":["Dr"]}]},"request":{"method":"PUT","url":"Practitioner/5fc9aded-4610-4e87-98a0-7983ac9b1d4b"}},{"fullUrl":"https://madie.cms.gov/MeasureReport/ca73503a-7635-4bdc-bf41-c835131eef36","resource":{"resourceType":"MeasureReport","id":"ca73503a-7635-4bdc-bf41-c835131eef36","meta":{"profile":["http://hl7.org/fhir/us/cqfmeasures/StructureDefinition/test-case-cqfm"]},"contained":[{"resourceType":"Parameters","id":"e5395b71-144d-46d5-8dea-2f6e42cf4383-parameters","parameter":[{"name":"subject","valueString":"5a329008-fcc1-4168-ab9c-89cb5dd6ff32"}]}],"extension":[{"url":"http://hl7.org/fhir/StructureDefinition/cqf-inputParameters","valueReference":{"reference":"#e5395b71-144d-46d5-8dea-2f6e42cf4383-parameters"}},{"url":"http://hl7.org/fhir/us/cqfmeasures/StructureDefinition/cqfm-testCaseDescription","valueMarkdown":"Testing multiple encounters, one with ED to Inpatient with antithrombotic, and one with Ed to Obs to Inpatient with tPA. \n"}],"modifierExtension":[{"url":"http://hl7.org/fhir/us/cqfmeasures/StructureDefinition/cqfm-isTestCase","valueBoolean":true}],"status":"complete","type":"individual","measure":"https://madie.cms.gov/Measure/CMS72FHIRSTKAntithromboticDay2","period":{"start":"2026-01-01","end":"2026-12-31"},"group":[{"id":"Group_1","population":[{"id":"InitialPopulation_1","code":{"coding":[{"system":"http://terminology.hl7.org/CodeSystem/measure-population","code":"initial-population","display":"Initial Population"}]},"count":2},{"id":"Denominator_1","code":{"coding":[{"system":"http://terminology.hl7.org/CodeSystem/measure-population","code":"denominator","display":"Denominator"}]},"count":2},{"id":"DenominatorExclusion_1","code":{"coding":[{"system":"http://terminology.hl7.org/CodeSystem/measure-population","code":"denominator-exclusion","display":"Denominator Exclusion"}]},"count":1},{"id":"Numerator_1","code":{"coding":[{"system":"http://terminology.hl7.org/CodeSystem/measure-population","code":"numerator","display":"Numerator"}]},"count":1},{"id":"DenominatorException_1","code":{"coding":[{"system":"http://terminology.hl7.org/CodeSystem/measure-population","code":"denominator-exception","display":"Denominator Exception"}]},"count":0}],"measureScore":{"value":0.0}}],"evaluatedResource":[{"reference":"Patient/5a329008-fcc1-4168-ab9c-89cb5dd6ff32"},{"reference":"Encounter/4d515135-c60b-4366-86df-683ed679e4f6"},{"reference":"Encounter/63fcd987-d536-4941-ab95-9a08e23c089d"},{"reference":"Claim/5ca62962b8484628b8de1ec5"},{"reference":"Encounter/ecea1d26-8f16-4734-9783-6f49fa861e60"},{"reference":"Encounter/d2ae7ea6-6848-4597-a6d9-909fba96b9b6"},{"reference":"Encounter/c0e1555d-b01a-44b1-9592-46305992e574"},{"reference":"Claim/5ca62962b8484628b8de1ec5"},{"reference":"Observation/2ae0869c-09c1-4621-a050-07063cbae575"},{"reference":"MedicationAdministration/1a728db2-c2ca-4d94-aa8d-883cb5f2944c"},{"reference":"MedicationAdministration/0dc80621-86a2-40ed-9e59-c0bf2ae52e2d"},{"reference":"MedicationAdministration/23991024-22c3-46eb-bf4f-088407b4a762"},{"reference":"MedicationRequest/3bee28b8-cc8d-48e6-8eb1-d3f8895c0d81"},{"reference":"MedicationRequest/4d83ea2e-770b-4fd4-bfb3-1ee1d615a460"},{"reference":"Condition/f4b2f31e-3ec1-409b-9a73-4eef98489859"},{"reference":"Condition/aeaf04f9-ddeb-4d06-81d2-ba674f8c05ba"},{"reference":"Coverage/badb8ba1-6fe1-46ec-83c0-67ff21e0a950"},{"reference":"Organization/f28399bc-2b1b-43c2-87cb-c2f97e6a4976"},{"reference":"Practitioner/5fc9aded-4610-4e87-98a0-7983ac9b1d4b"}]},"request":{"method":"PUT","url":"MeasureReport/ca73503a-7635-4bdc-bf41-c835131eef36"}}]},"request":{"method":"PUT","url":"Bundle/60f82c2f98086b570510e2cd"}},{"fullUrl":"Patient/5a329008-fcc1-4168-ab9c-89cb5dd6ff32","resource":{"resourceType":"Patient","id":"5a329008-fcc1-4168-ab9c-89cb5dd6ff32","meta":{"profile":["http://hl7.org/fhir/us/qicore/StructureDefinition/qicore-patient"]},"text":{"status":"generated","div":"<div xmlns=\"http://www.w3.org/1999/xhtml\"><div class=\"hapiHeaderText\">LCG2Enc1WithAntithrombic1WithtPA <b>NUMER&amp;DENECEPPASS </b></div><table class=\"hapiPropertyTable\"><tbody><tr><td>Date of birth</td><td><span>06 April 1980</span></td></tr></tbody></table></div>"},"extension":[{"url":"http://hl7.org/fhir/us/core/StructureDefinition/us-core-race","extension":[{"url":"ombCategory","valueCoding":{"system":"urn:oid:2.16.840.1.113883.6.238","code":"2106-3","display":"White","userSelected":true}},{"url":"text","valueString":"White"}]},{"url":"http://hl7.org/fhir/us/core/StructureDefinition/us-core-ethnicity","extension":[{"url":"ombCategory","valueCoding":{"system":"urn:oid:2.16.840.1.113883.6.238","code":"2186-5","display":"Not Hispanic or Latino","userSelected":true}},{"url":"text","valueString":"Not Hispanic or Latino"}]}],"identifier":[{"type":{"coding":[{"system":"http://terminology.hl7.org/CodeSystem/v2-0203","code":"MR"}]},"system":"https://bonnie-fhir.healthit.gov/","value":"60f82c2f98086b570510e2cd"}],"active":true,"name":[{"use":"usual","family":"NUMER&DENECEPPass","given":["LCG2Enc1WithAntithrombic1WithtPA"]}],"gender":"male","birthDate":"1981-04-06"},"request":{"method":"PUT","url":"Patient/5a329008-fcc1-4168-ab9c-89cb5dd6ff32"}},{"fullUrl":"MedicationAdministration/23991024-22c3-46eb-bf4f-088407b4a762","resource":{"resourceType":"MedicationAdministration","id":"23991024-22c3-46eb-bf4f-088407b4a762","meta":{"profile":["http://hl7.org/fhir/us/qicore/StructureDefinition/qicore-medicationadministration"]},"extension":[{"url":"http://hl7.org/fhir/us/qicore/StructureDefinition/qicore-recorded","valueDateTime":"2026-06-02T00:15:00Z"}],"status":"completed","medicationCodeableConcept":{"coding":[{"system":"http://www.nlm.nih.gov/research/umls/rxnorm","code":"1037045"}]},"subject":{"reference":"Patient/5a329008-fcc1-4168-ab9c-89cb5dd6ff32"},"effectivePeriod":{"start":"2026-06-02T00:15:00Z","end":"2026-06-15T11:15:00.000+00:00"}},"request":{"method":"PUT","url":"MedicationAdministration/23991024-22c3-46eb-bf4f-088407b4a762"}},{"fullUrl":"MedicationAdministration/0dc80621-86a2-40ed-9e59-c0bf2ae52e2d","resource":{"resourceType":"MedicationAdministration","id":"0dc80621-86a2-40ed-9e59-c0bf2ae52e2d","meta":{"profile":["http://hl7.org/fhir/us/qicore/StructureDefinition/qicore-medicationadministration"]},"extension":[{"url":"http://hl7.org/fhir/us/qicore/StructureDefinition/qicore-recorded","valueDateTime":"2026-06-01T09:00:00Z"}],"status":"completed","medicationCodeableConcept":{"coding":[{"system":"http://www.nlm.nih.gov/research/umls/rxnorm","code":"1804799"}]},"subject":{"reference":"Patient/5a329008-fcc1-4168-ab9c-89cb5dd6ff32"},"effectivePeriod":{"start":"2026-06-01T09:00:00Z","end":"2026-06-01T23:15:00.000+00:00"},"reasonCode":[{"coding":[{"system":"http://www.nlm.nih.gov/research/umls/rxnorm","code":"1804799","display":"alteplase 100 MG Injection"}]}]},"request":{"method":"PUT","url":"MedicationAdministration/0dc80621-86a2-40ed-9e59-c0bf2ae52e2d"}},{"fullUrl":"Claim/5ca62962b8484628b8de1ec5","resource":{"resourceType":"Claim","id":"5ca62962b8484628b8de1ec5","meta":{"profile":["http://hl7.org/fhir/us/qicore/StructureDefinition/qicore-claim"]},"status":"active","type":{"coding":[{"system":"http://terminology.hl7.org/CodeSystem/claim-type","code":"institutional"}]},"use":"claim","patient":{"reference":"Patient/d170a0a8-b5ad-4303-b6df-e304dd5f92ad"},"created":"2026-12-01","provider":{"reference":"Practitioner/5fc9aded-4610-4e87-98a0-7983ac9b1d4b"},"priority":{"coding":[{"system":"http://terminology.hl7.org/CodeSystem/processpriority","code":"normal"}]},"diagnosis":[{"sequence":1,"diagnosisCodeableConcept":{"coding":[{"system":"http://hl7.org/fhir/sid/icd-10-cm","code":"I63.00"}]},"type":[{"coding":[{"system":"http://terminology.hl7.org/CodeSystem/ex-diagnosistype","code":"principal"}]}]}],"insurance":[{"sequence":1,"focal":true,"coverage":{"reference":"Coverage/5fa041661c76ba66d9959367"}}],"item":[{"sequence":1,"diagnosisSequence":[1],"productOrService":{"coding":[{"system":"http://terminology.hl7.org/CodeSystem/ex-USCLS","code":"99555"}]},"encounter":[{"reference":"Encounter/c0e1555d-b01a-44b1-9592-46305992e574"}]}]},"request":{"method":"PUT","url":"Claim/5ca62962b8484628b8de1ec5"}}]}