{"resourceType":"Bundle","id":"tests-ab28178c-eadb-41a3-861e-ee22c8f12d16-bundle","type":"transaction","entry":[{"fullUrl":"Encounter/035c874f-75a1-46cc-8c4c-e9b3c019ca02","resource":{"resourceType":"Encounter","id":"035c874f-75a1-46cc-8c4c-e9b3c019ca02","meta":{"profile":["http://hl7.org/fhir/us/qicore/StructureDefinition/qicore-encounter"]},"status":"finished","class":{"system":"http://terminology.hl7.org/CodeSystem/v3-ActCode","code":"OBSENC","display":"observation encounter","userSelected":true},"type":[{"coding":[{"system":"http://snomed.info/sct","code":"448851000124103"}]}],"subject":{"reference":"Patient/ab28178c-eadb-41a3-861e-ee22c8f12d16"},"period":{"start":"2026-10-10T09:16:00Z","end":"2026-10-10T22:59:00.000+00:00"},"length":{"value":0,"unit":"days"}},"request":{"method":"PUT","url":"Encounter/035c874f-75a1-46cc-8c4c-e9b3c019ca02"}},{"fullUrl":"Encounter/f406091a-63df-47ef-944b-c7ad7a339385","resource":{"resourceType":"Encounter","id":"f406091a-63df-47ef-944b-c7ad7a339385","meta":{"profile":["http://hl7.org/fhir/us/qicore/StructureDefinition/qicore-encounter"]},"status":"finished","class":{"system":"http://terminology.hl7.org/CodeSystem/v3-ActCode","code":"EMER","display":"emergency","userSelected":true},"type":[{"coding":[{"system":"http://snomed.info/sct","code":"4525004"}]}],"subject":{"reference":"Patient/ab28178c-eadb-41a3-861e-ee22c8f12d16"},"period":{"start":"2026-10-10T09:00:00Z","end":"2026-10-10T09:15:00.000+00:00"},"length":{"value":0,"unit":"days"}},"request":{"method":"PUT","url":"Encounter/f406091a-63df-47ef-944b-c7ad7a339385"}},{"fullUrl":"Organization/9c3cdb46-e5ed-43aa-aa9d-986728992fbc","resource":{"resourceType":"Organization","id":"9c3cdb46-e5ed-43aa-aa9d-986728992fbc","meta":{"profile":["http://hl7.org/fhir/us/qicore/StructureDefinition/qicore-organization"]},"identifier":[{"use":"temp","system":"urn:oid:2.16.840.1.113883.4.4","value":"21-3259825"}],"active":true,"type":[{"coding":[{"system":"http://terminology.hl7.org/CodeSystem/organization-type","code":"pay","display":"Payer"}]}],"name":"Blue Cross Blue Shield of Texas","telecom":[{"system":"phone","value":"(+1) 972-766-6900"}],"address":[{"use":"billing","type":"postal","line":["P.O. Box 660044"],"city":"Dallas","state":"TX","postalCode":"75266-0044","country":"USA"}]},"request":{"method":"PUT","url":"Organization/9c3cdb46-e5ed-43aa-aa9d-986728992fbc"}},{"fullUrl":"Patient/ab28178c-eadb-41a3-861e-ee22c8f12d16","resource":{"resourceType":"Patient","id":"ab28178c-eadb-41a3-861e-ee22c8f12d16","meta":{"profile":["http://hl7.org/fhir/us/qicore/StructureDefinition/qicore-patient"]},"text":{"status":"generated","div":"<div xmlns=\"http://www.w3.org/1999/xhtml\"><div class=\"hapiHeaderText\">PharmContraDayOfObs_ED&lt;1hrObs&gt;1hrDayOfBFEncDayAft <b>DENEXCEPFAIL </b></div><table class=\"hapiPropertyTable\"><tbody><tr><td>Identifier</td><td>4cbac458cf08bb3745514cbd98fe57985e238b54828068b187ed271a02fb3bed</td></tr><tr><td>Date of birth</td><td><span>26 September 1975</span></td></tr></tbody></table></div>"},"extension":[{"url":"http://hl7.org/fhir/us/core/StructureDefinition/us-core-race","extension":[{"url":"ombCategory","valueCoding":{"system":"urn:oid:2.16.840.1.113883.6.238","code":"2054-5","display":"Black or African American","userSelected":true}},{"url":"text","valueString":"Black or African American"}]},{"url":"http://hl7.org/fhir/us/core/StructureDefinition/us-core-ethnicity","extension":[{"url":"ombCategory","valueCoding":{"system":"urn:oid:2.16.840.1.113883.6.238","code":"2186-5","display":"Not Hispanic or Latino","userSelected":true}},{"url":"text","valueString":"Not Hispanic or Latino"}]}],"identifier":[{"type":{"coding":[{"system":"http://terminology.hl7.org/CodeSystem/v2-0203","code":"MR"}]},"system":"https://bonnie-fhir.healthit.gov/","value":"60f82c2f98086b570510e2b8"}],"active":true,"name":[{"use":"usual","family":"DENEXCEPFail","given":["PharmContraDayOfObs_ED<1hrObs>1hrDayOfBFEncDayAft"]}],"gender":"female","birthDate":"1976-09-26"},"request":{"method":"PUT","url":"Patient/ab28178c-eadb-41a3-861e-ee22c8f12d16"}},{"fullUrl":"Encounter/99483a8f-6888-42ce-a18c-69a213a32f6c","resource":{"resourceType":"Encounter","id":"99483a8f-6888-42ce-a18c-69a213a32f6c","meta":{"profile":["http://hl7.org/fhir/us/qicore/StructureDefinition/qicore-encounter"]},"status":"finished","class":{"system":"http://terminology.hl7.org/CodeSystem/v3-ActCode","code":"IMP","display":"inpatient encounter","userSelected":true},"type":[{"coding":[{"system":"http://snomed.info/sct","code":"32485007"}]}],"subject":{"reference":"Patient/ab28178c-eadb-41a3-861e-ee22c8f12d16"},"period":{"start":"2026-10-11T00:00:00Z","end":"2026-10-15T11:15:00.000+00:00"},"length":{"value":4,"unit":"days"},"reasonReference":[{"reference":"Condition/696f4142-efa8-4058-a76e-35f87092c534"}]},"request":{"method":"PUT","url":"Encounter/99483a8f-6888-42ce-a18c-69a213a32f6c"}},{"fullUrl":"MedicationAdministration/77b8dc1d-112a-4880-babd-9c694a2610ac","resource":{"resourceType":"MedicationAdministration","id":"77b8dc1d-112a-4880-babd-9c694a2610ac","meta":{"profile":["http://hl7.org/fhir/us/qicore/StructureDefinition/qicore-medicationadministrationnotdone"]},"status":"completed","medicationCodeableConcept":{"coding":[{"system":"http://www.nlm.nih.gov/research/umls/rxnorm","code":"1116635"}]},"subject":{"reference":"Patient/ab28178c-eadb-41a3-861e-ee22c8f12d16"},"effectivePeriod":{"start":"2026-10-10T22:59:00Z"}},"request":{"method":"PUT","url":"MedicationAdministration/77b8dc1d-112a-4880-babd-9c694a2610ac"}},{"fullUrl":"Condition/696f4142-efa8-4058-a76e-35f87092c534","resource":{"resourceType":"Condition","id":"696f4142-efa8-4058-a76e-35f87092c534","meta":{"profile":["http://hl7.org/fhir/us/qicore/StructureDefinition/qicore-condition-encounter-diagnosis"]},"clinicalStatus":{"coding":[{"system":"http://terminology.hl7.org/CodeSystem/condition-clinical","code":"active"}]},"verificationStatus":{"coding":[{"system":"http://terminology.hl7.org/CodeSystem/condition-ver-status","code":"confirmed"}]},"category":[{"coding":[{"system":"http://terminology.hl7.org/CodeSystem/condition-category","code":"encounter-diagnosis","display":"Encounter Diagnosis"}]}],"code":{"coding":[{"system":"http://snomed.info/sct","version":"2020-09","code":"111297002","display":"Nonparalytic stroke (disorder)","userSelected":true}]},"subject":{"reference":"Patient/ab28178c-eadb-41a3-861e-ee22c8f12d16"},"recordedDate":"2026-08-03T08:00:00Z"},"request":{"method":"PUT","url":"Condition/696f4142-efa8-4058-a76e-35f87092c534"}},{"fullUrl":"Bundle/60f82c2f98086b570510e2b8","resource":{"resourceType":"Bundle","id":"60f82c2f98086b570510e2b8","type":"transaction","entry":[{"fullUrl":"https://madie.cms.gov/Patient/ab28178c-eadb-41a3-861e-ee22c8f12d16","resource":{"resourceType":"Patient","id":"ab28178c-eadb-41a3-861e-ee22c8f12d16","meta":{"profile":["http://hl7.org/fhir/us/qicore/StructureDefinition/qicore-patient"]},"text":{"status":"generated","div":"<div xmlns=\"http://www.w3.org/1999/xhtml\"><div class=\"hapiHeaderText\">PharmContraDayOfObs_ED&lt;1hrObs&gt;1hrDayOfBFEncDayAft <b>DENEXCEPFAIL </b></div><table class=\"hapiPropertyTable\"><tbody><tr><td>Identifier</td><td>4cbac458cf08bb3745514cbd98fe57985e238b54828068b187ed271a02fb3bed</td></tr><tr><td>Date of birth</td><td><span>26 September 1975</span></td></tr></tbody></table></div>"},"extension":[{"url":"http://hl7.org/fhir/us/core/StructureDefinition/us-core-race","extension":[{"url":"ombCategory","valueCoding":{"system":"urn:oid:2.16.840.1.113883.6.238","code":"2054-5","display":"Black or African American","userSelected":true}},{"url":"text","valueString":"Black or African American"}]},{"url":"http://hl7.org/fhir/us/core/StructureDefinition/us-core-ethnicity","extension":[{"url":"ombCategory","valueCoding":{"system":"urn:oid:2.16.840.1.113883.6.238","code":"2186-5","display":"Not Hispanic or Latino","userSelected":true}},{"url":"text","valueString":"Not Hispanic or Latino"}]}],"identifier":[{"type":{"coding":[{"system":"http://terminology.hl7.org/CodeSystem/v2-0203","code":"MR"}]},"system":"https://bonnie-fhir.healthit.gov/","value":"60f82c2f98086b570510e2b8"}],"active":true,"name":[{"use":"usual","family":"DENEXCEPFail","given":["PharmContraDayOfObs_ED<1hrObs>1hrDayOfBFEncDayAft"]}],"gender":"female","birthDate":"1976-09-26"},"request":{"method":"PUT","url":"Patient/ab28178c-eadb-41a3-861e-ee22c8f12d16"}},{"fullUrl":"https://madie.cms.gov/Encounter/f406091a-63df-47ef-944b-c7ad7a339385","resource":{"resourceType":"Encounter","id":"f406091a-63df-47ef-944b-c7ad7a339385","meta":{"profile":["http://hl7.org/fhir/us/qicore/StructureDefinition/qicore-encounter"]},"status":"finished","class":{"system":"http://terminology.hl7.org/CodeSystem/v3-ActCode","code":"EMER","display":"emergency","userSelected":true},"type":[{"coding":[{"system":"http://snomed.info/sct","code":"4525004"}]}],"subject":{"reference":"Patient/ab28178c-eadb-41a3-861e-ee22c8f12d16"},"period":{"start":"2026-10-10T09:00:00Z","end":"2026-10-10T09:15:00.000+00:00"},"length":{"value":0,"unit":"days"}},"request":{"method":"PUT","url":"Encounter/f406091a-63df-47ef-944b-c7ad7a339385"}},{"fullUrl":"https://madie.cms.gov/Encounter/035c874f-75a1-46cc-8c4c-e9b3c019ca02","resource":{"resourceType":"Encounter","id":"035c874f-75a1-46cc-8c4c-e9b3c019ca02","meta":{"profile":["http://hl7.org/fhir/us/qicore/StructureDefinition/qicore-encounter"]},"status":"finished","class":{"system":"http://terminology.hl7.org/CodeSystem/v3-ActCode","code":"OBSENC","display":"observation encounter","userSelected":true},"type":[{"coding":[{"system":"http://snomed.info/sct","code":"448851000124103"}]}],"subject":{"reference":"Patient/ab28178c-eadb-41a3-861e-ee22c8f12d16"},"period":{"start":"2026-10-10T09:16:00Z","end":"2026-10-10T22:59:00.000+00:00"},"length":{"value":0,"unit":"days"}},"request":{"method":"PUT","url":"Encounter/035c874f-75a1-46cc-8c4c-e9b3c019ca02"}},{"fullUrl":"https://madie.cms.gov/Encounter/99483a8f-6888-42ce-a18c-69a213a32f6c","resource":{"resourceType":"Encounter","id":"99483a8f-6888-42ce-a18c-69a213a32f6c","meta":{"profile":["http://hl7.org/fhir/us/qicore/StructureDefinition/qicore-encounter"]},"status":"finished","class":{"system":"http://terminology.hl7.org/CodeSystem/v3-ActCode","code":"IMP","display":"inpatient encounter","userSelected":true},"type":[{"coding":[{"system":"http://snomed.info/sct","code":"32485007"}]}],"subject":{"reference":"Patient/ab28178c-eadb-41a3-861e-ee22c8f12d16"},"period":{"start":"2026-10-11T00:00:00Z","end":"2026-10-15T11:15:00.000+00:00"},"length":{"value":4,"unit":"days"},"reasonReference":[{"reference":"Condition/696f4142-efa8-4058-a76e-35f87092c534"}]},"request":{"method":"PUT","url":"Encounter/99483a8f-6888-42ce-a18c-69a213a32f6c"}},{"fullUrl":"https://madie.cms.gov/claim/5ca62962b8484628b8de1ec5","resource":{"resourceType":"Claim","id":"5ca62962b8484628b8de1ec5","meta":{"profile":["http://hl7.org/fhir/us/qicore/StructureDefinition/qicore-claim"]},"status":"active","type":{"coding":[{"system":"http://terminology.hl7.org/CodeSystem/claim-type","code":"institutional"}]},"use":"claim","patient":{"reference":"Patient/d170a0a8-b5ad-4303-b6df-e304dd5f92ad"},"created":"2026-12-01","provider":{"reference":"Practitioner/practitioner-123456"},"priority":{"coding":[{"system":"http://terminology.hl7.org/CodeSystem/processpriority","code":"normal"}]},"diagnosis":[{"sequence":1,"diagnosisCodeableConcept":{"coding":[{"system":"http://hl7.org/fhir/sid/icd-10-cm","code":"I63.00"}]},"type":[{"coding":[{"system":"http://terminology.hl7.org/CodeSystem/ex-diagnosistype","code":"principal"}]}]}],"insurance":[{"sequence":1,"focal":true,"coverage":{"reference":"Coverage/5fa041661c76ba66d9959367"}}],"item":[{"sequence":1,"diagnosisSequence":[1],"productOrService":{"coding":[{"system":"http://terminology.hl7.org/CodeSystem/ex-USCLS","code":"99555"}]},"encounter":[{"reference":"Encounter/99483a8f-6888-42ce-a18c-69a213a32f6c"}]}]},"request":{"method":"PUT","url":"Claim/5ca62962b8484628b8de1ec5"}},{"fullUrl":"https://madie.cms.gov/MedicationAdministration/77b8dc1d-112a-4880-babd-9c694a2610ac","resource":{"resourceType":"MedicationAdministration","id":"77b8dc1d-112a-4880-babd-9c694a2610ac","meta":{"profile":["http://hl7.org/fhir/us/qicore/StructureDefinition/qicore-medicationadministrationnotdone"]},"status":"completed","medicationCodeableConcept":{"coding":[{"system":"http://www.nlm.nih.gov/research/umls/rxnorm","code":"1116635"}]},"subject":{"reference":"Patient/ab28178c-eadb-41a3-861e-ee22c8f12d16"},"effectivePeriod":{"start":"2026-10-10T22:59:00Z"}},"request":{"method":"PUT","url":"MedicationAdministration/77b8dc1d-112a-4880-babd-9c694a2610ac"}},{"fullUrl":"https://madie.cms.gov/Coverage/de02640e-0809-460a-b1fe-8adfdfaa2088","resource":{"resourceType":"Coverage","id":"de02640e-0809-460a-b1fe-8adfdfaa2088","status":"active","subscriberId":"523435","beneficiary":{"reference":"Patient/ab28178c-eadb-41a3-861e-ee22c8f12d16"},"relationship":{"coding":[{"system":"http://terminology.hl7.org/CodeSystem/subscriber-relationship","code":"self"}]},"period":{"start":"1976-09-26T08:00:00Z"},"payor":[{"reference":"Organization/9c3cdb46-e5ed-43aa-aa9d-986728992fbc"}]},"request":{"method":"PUT","url":"Coverage/de02640e-0809-460a-b1fe-8adfdfaa2088"}},{"fullUrl":"https://madie.cms.gov/Condition/696f4142-efa8-4058-a76e-35f87092c534","resource":{"resourceType":"Condition","id":"696f4142-efa8-4058-a76e-35f87092c534","meta":{"profile":["http://hl7.org/fhir/us/qicore/StructureDefinition/qicore-condition-encounter-diagnosis"]},"clinicalStatus":{"coding":[{"system":"http://terminology.hl7.org/CodeSystem/condition-clinical","code":"active"}]},"verificationStatus":{"coding":[{"system":"http://terminology.hl7.org/CodeSystem/condition-ver-status","code":"confirmed"}]},"category":[{"coding":[{"system":"http://terminology.hl7.org/CodeSystem/condition-category","code":"encounter-diagnosis","display":"Encounter Diagnosis"}]}],"code":{"coding":[{"system":"http://snomed.info/sct","version":"2020-09","code":"111297002","display":"Nonparalytic stroke (disorder)","userSelected":true}]},"subject":{"reference":"Patient/ab28178c-eadb-41a3-861e-ee22c8f12d16"},"recordedDate":"2026-08-03T08:00:00Z"},"request":{"method":"PUT","url":"Condition/696f4142-efa8-4058-a76e-35f87092c534"}},{"fullUrl":"https://madie.cms.gov/Organization/9c3cdb46-e5ed-43aa-aa9d-986728992fbc","resource":{"resourceType":"Organization","id":"9c3cdb46-e5ed-43aa-aa9d-986728992fbc","meta":{"profile":["http://hl7.org/fhir/us/qicore/StructureDefinition/qicore-organization"]},"identifier":[{"use":"temp","system":"urn:oid:2.16.840.1.113883.4.4","value":"21-3259825"}],"active":true,"type":[{"coding":[{"system":"http://terminology.hl7.org/CodeSystem/organization-type","code":"pay","display":"Payer"}]}],"name":"Blue Cross Blue Shield of Texas","telecom":[{"system":"phone","value":"(+1) 972-766-6900"}],"address":[{"use":"billing","type":"postal","line":["P.O. Box 660044"],"city":"Dallas","state":"TX","postalCode":"75266-0044","country":"USA"}]},"request":{"method":"PUT","url":"Organization/9c3cdb46-e5ed-43aa-aa9d-986728992fbc"}},{"fullUrl":"https://madie.cms.gov/MeasureReport/7b7fc672-6478-4913-a65c-ea03f3141543","resource":{"resourceType":"MeasureReport","id":"7b7fc672-6478-4913-a65c-ea03f3141543","meta":{"profile":["http://hl7.org/fhir/us/cqfmeasures/StructureDefinition/test-case-cqfm"]},"contained":[{"resourceType":"Parameters","id":"5bf2f478-280d-483d-b4b5-6ea939bac7d4-parameters","parameter":[{"name":"subject","valueString":"ab28178c-eadb-41a3-861e-ee22c8f12d16"}]}],"extension":[{"url":"http://hl7.org/fhir/StructureDefinition/cqf-inputParameters","valueReference":{"reference":"#5bf2f478-280d-483d-b4b5-6ea939bac7d4-parameters"}},{"url":"http://hl7.org/fhir/us/cqfmeasures/StructureDefinition/cqfm-testCaseDescription","valueMarkdown":"Patient receives Ticagrelor day of Obs. ED ends 1 min before Obs.Obs ends 61 min before IP start at midnight. Testing Day of operator with HospitalizationWithObservation function.\n"}],"modifierExtension":[{"url":"http://hl7.org/fhir/us/cqfmeasures/StructureDefinition/cqfm-isTestCase","valueBoolean":true}],"status":"complete","type":"individual","measure":"https://madie.cms.gov/Measure/CMS72FHIRSTKAntithromboticDay2","period":{"start":"2026-01-01","end":"2026-12-31"},"group":[{"id":"Group_1","population":[{"id":"InitialPopulation_1","code":{"coding":[{"system":"http://terminology.hl7.org/CodeSystem/measure-population","code":"initial-population","display":"Initial Population"}]},"count":1},{"id":"Denominator_1","code":{"coding":[{"system":"http://terminology.hl7.org/CodeSystem/measure-population","code":"denominator","display":"Denominator"}]},"count":1},{"id":"DenominatorExclusion_1","code":{"coding":[{"system":"http://terminology.hl7.org/CodeSystem/measure-population","code":"denominator-exclusion","display":"Denominator Exclusion"}]},"count":0},{"id":"Numerator_1","code":{"coding":[{"system":"http://terminology.hl7.org/CodeSystem/measure-population","code":"numerator","display":"Numerator"}]},"count":0},{"id":"DenominatorException_1","code":{"coding":[{"system":"http://terminology.hl7.org/CodeSystem/measure-population","code":"denominator-exception","display":"Denominator Exception"}]},"count":0}],"measureScore":{"value":0.0}}],"evaluatedResource":[{"reference":"Patient/ab28178c-eadb-41a3-861e-ee22c8f12d16"},{"reference":"Encounter/f406091a-63df-47ef-944b-c7ad7a339385"},{"reference":"Encounter/035c874f-75a1-46cc-8c4c-e9b3c019ca02"},{"reference":"Encounter/99483a8f-6888-42ce-a18c-69a213a32f6c"},{"reference":"Claim/5ca62962b8484628b8de1ec5"},{"reference":"MedicationAdministration/77b8dc1d-112a-4880-babd-9c694a2610ac"},{"reference":"Coverage/de02640e-0809-460a-b1fe-8adfdfaa2088"},{"reference":"Condition/696f4142-efa8-4058-a76e-35f87092c534"},{"reference":"Organization/9c3cdb46-e5ed-43aa-aa9d-986728992fbc"}]},"request":{"method":"PUT","url":"MeasureReport/7b7fc672-6478-4913-a65c-ea03f3141543"}}]},"request":{"method":"PUT","url":"Bundle/60f82c2f98086b570510e2b8"}},{"fullUrl":"Coverage/de02640e-0809-460a-b1fe-8adfdfaa2088","resource":{"resourceType":"Coverage","id":"de02640e-0809-460a-b1fe-8adfdfaa2088","status":"active","subscriberId":"523435","beneficiary":{"reference":"Patient/ab28178c-eadb-41a3-861e-ee22c8f12d16"},"relationship":{"coding":[{"system":"http://terminology.hl7.org/CodeSystem/subscriber-relationship","code":"self"}]},"period":{"start":"1976-09-26T08:00:00Z"},"payor":[{"reference":"Organization/9c3cdb46-e5ed-43aa-aa9d-986728992fbc"}]},"request":{"method":"PUT","url":"Coverage/de02640e-0809-460a-b1fe-8adfdfaa2088"}},{"fullUrl":"MeasureReport/7b7fc672-6478-4913-a65c-ea03f3141543","resource":{"resourceType":"MeasureReport","id":"7b7fc672-6478-4913-a65c-ea03f3141543","meta":{"profile":["http://hl7.org/fhir/us/cqfmeasures/StructureDefinition/test-case-cqfm"]},"contained":[{"resourceType":"Parameters","id":"5bf2f478-280d-483d-b4b5-6ea939bac7d4-parameters","parameter":[{"name":"subject","valueString":"ab28178c-eadb-41a3-861e-ee22c8f12d16"}]}],"extension":[{"url":"http://hl7.org/fhir/StructureDefinition/cqf-inputParameters","valueReference":{"reference":"#5bf2f478-280d-483d-b4b5-6ea939bac7d4-parameters"}},{"url":"http://hl7.org/fhir/us/cqfmeasures/StructureDefinition/cqfm-testCaseDescription","valueMarkdown":"Patient receives Ticagrelor day of Obs. ED ends 1 min before Obs.Obs ends 61 min before IP start at midnight. Testing Day of operator with HospitalizationWithObservation function.\n"}],"modifierExtension":[{"url":"http://hl7.org/fhir/us/cqfmeasures/StructureDefinition/cqfm-isTestCase","valueBoolean":true}],"status":"complete","type":"individual","measure":"https://madie.cms.gov/Measure/CMS72FHIRSTKAntithromboticDay2","period":{"start":"2026-01-01","end":"2026-12-31"},"group":[{"id":"Group_1","population":[{"id":"InitialPopulation_1","code":{"coding":[{"system":"http://terminology.hl7.org/CodeSystem/measure-population","code":"initial-population","display":"Initial Population"}]},"count":1},{"id":"Denominator_1","code":{"coding":[{"system":"http://terminology.hl7.org/CodeSystem/measure-population","code":"denominator","display":"Denominator"}]},"count":1},{"id":"DenominatorExclusion_1","code":{"coding":[{"system":"http://terminology.hl7.org/CodeSystem/measure-population","code":"denominator-exclusion","display":"Denominator Exclusion"}]},"count":0},{"id":"Numerator_1","code":{"coding":[{"system":"http://terminology.hl7.org/CodeSystem/measure-population","code":"numerator","display":"Numerator"}]},"count":0},{"id":"DenominatorException_1","code":{"coding":[{"system":"http://terminology.hl7.org/CodeSystem/measure-population","code":"denominator-exception","display":"Denominator Exception"}]},"count":0}],"measureScore":{"value":0.0}}],"evaluatedResource":[{"reference":"Patient/ab28178c-eadb-41a3-861e-ee22c8f12d16"},{"reference":"Encounter/f406091a-63df-47ef-944b-c7ad7a339385"},{"reference":"Encounter/035c874f-75a1-46cc-8c4c-e9b3c019ca02"},{"reference":"Encounter/99483a8f-6888-42ce-a18c-69a213a32f6c"},{"reference":"Claim/5ca62962b8484628b8de1ec5"},{"reference":"MedicationAdministration/77b8dc1d-112a-4880-babd-9c694a2610ac"},{"reference":"Coverage/de02640e-0809-460a-b1fe-8adfdfaa2088"},{"reference":"Condition/696f4142-efa8-4058-a76e-35f87092c534"},{"reference":"Organization/9c3cdb46-e5ed-43aa-aa9d-986728992fbc"}]},"request":{"method":"PUT","url":"MeasureReport/7b7fc672-6478-4913-a65c-ea03f3141543"}},{"fullUrl":"Claim/5ca62962b8484628b8de1ec5","resource":{"resourceType":"Claim","id":"5ca62962b8484628b8de1ec5","meta":{"profile":["http://hl7.org/fhir/us/qicore/StructureDefinition/qicore-claim"]},"status":"active","type":{"coding":[{"system":"http://terminology.hl7.org/CodeSystem/claim-type","code":"institutional"}]},"use":"claim","patient":{"reference":"Patient/d170a0a8-b5ad-4303-b6df-e304dd5f92ad"},"created":"2026-12-01","provider":{"reference":"Practitioner/practitioner-123456"},"priority":{"coding":[{"system":"http://terminology.hl7.org/CodeSystem/processpriority","code":"normal"}]},"diagnosis":[{"sequence":1,"diagnosisCodeableConcept":{"coding":[{"system":"http://hl7.org/fhir/sid/icd-10-cm","code":"I63.00"}]},"type":[{"coding":[{"system":"http://terminology.hl7.org/CodeSystem/ex-diagnosistype","code":"principal"}]}]}],"insurance":[{"sequence":1,"focal":true,"coverage":{"reference":"Coverage/5fa041661c76ba66d9959367"}}],"item":[{"sequence":1,"diagnosisSequence":[1],"productOrService":{"coding":[{"system":"http://terminology.hl7.org/CodeSystem/ex-USCLS","code":"99555"}]},"encounter":[{"reference":"Encounter/99483a8f-6888-42ce-a18c-69a213a32f6c"}]}]},"request":{"method":"PUT","url":"Claim/5ca62962b8484628b8de1ec5"}}]}