{"resourceType":"Bundle","id":"tests-64a75df8-8bed-49ea-9c90-ee3569d233df-bundle","type":"transaction","entry":[{"fullUrl":"Condition/edb491f8-5a24-409c-8475-3a963ac62081","resource":{"resourceType":"Condition","id":"edb491f8-5a24-409c-8475-3a963ac62081","meta":{"profile":["http://hl7.org/fhir/us/qicore/StructureDefinition/qicore-condition-problems-health-concerns"]},"clinicalStatus":{"coding":[{"system":"http://terminology.hl7.org/CodeSystem/condition-clinical","code":"active"}]},"verificationStatus":{"coding":[{"system":"http://terminology.hl7.org/CodeSystem/condition-ver-status","code":"confirmed"}]},"category":[{"coding":[{"system":"http://terminology.hl7.org/CodeSystem/condition-category","code":"encounter-diagnosis","display":"Encounter Diagnosis"}]}],"code":{"coding":[{"system":"http://snomed.info/sct","version":"2020-09","code":"111297002","display":"Nonparalytic stroke (disorder)","userSelected":true}]},"subject":{"reference":"Patient/64a75df8-8bed-49ea-9c90-ee3569d233df"},"recordedDate":"2026-08-16T08:00:00Z"},"request":{"method":"PUT","url":"Condition/edb491f8-5a24-409c-8475-3a963ac62081"}},{"fullUrl":"Encounter/eaecc56b-4d2f-42dc-9008-d00cec0b844f","resource":{"resourceType":"Encounter","id":"eaecc56b-4d2f-42dc-9008-d00cec0b844f","meta":{"profile":["http://hl7.org/fhir/us/qicore/StructureDefinition/qicore-encounter"]},"status":"finished","class":{"system":"http://terminology.hl7.org/CodeSystem/v3-ActCode","code":"IMP","display":"inpatient encounter"},"type":[{"coding":[{"system":"http://snomed.info/sct","code":"32485007"}]}],"subject":{"reference":"Patient/64a75df8-8bed-49ea-9c90-ee3569d233df"},"period":{"start":"2026-10-10T09:00:00Z","end":"2026-10-12T11:15:00.000+00:00"},"length":{"value":2,"unit":"days"},"reasonReference":[{"reference":"Condition/edb491f8-5a24-409c-8475-3a963ac62081"}]},"request":{"method":"PUT","url":"Encounter/eaecc56b-4d2f-42dc-9008-d00cec0b844f"}},{"fullUrl":"Bundle/60f82c2d98086b570510e246","resource":{"resourceType":"Bundle","id":"60f82c2d98086b570510e246","type":"transaction","entry":[{"fullUrl":"https://madie.cms.gov/Patient/64a75df8-8bed-49ea-9c90-ee3569d233df","resource":{"resourceType":"Patient","id":"64a75df8-8bed-49ea-9c90-ee3569d233df","meta":{"profile":["http://hl7.org/fhir/us/qicore/StructureDefinition/qicore-patient"]},"text":{"status":"generated","div":"<div xmlns=\"http://www.w3.org/1999/xhtml\"><div class=\"hapiHeaderText\">NUMPass_MedAntithromboticStart_eq0dayDuringEd <b>NUMERPASS </b></div><table class=\"hapiPropertyTable\"><tbody><tr><td>Identifier</td><td>c83f9793e1392fa468cc0a3c0c4bf7d9</td></tr><tr><td>Date of birth</td><td><span>26 September 1975</span></td></tr></tbody></table></div>"},"extension":[{"url":"http://hl7.org/fhir/us/core/StructureDefinition/us-core-race","extension":[{"url":"ombCategory","valueCoding":{"system":"urn:oid:2.16.840.1.113883.6.238","code":"2054-5","display":"Black or African American","userSelected":true}},{"url":"text","valueString":"Black or African American"}]},{"url":"http://hl7.org/fhir/us/core/StructureDefinition/us-core-ethnicity","extension":[{"url":"ombCategory","valueCoding":{"system":"urn:oid:2.16.840.1.113883.6.238","code":"2186-5","display":"Not Hispanic or Latino","userSelected":true}},{"url":"text","valueString":"Not Hispanic or Latino"}]}],"identifier":[{"type":{"coding":[{"system":"http://terminology.hl7.org/CodeSystem/v2-0203","code":"MR"}]},"system":"https://bonnie-fhir.healthit.gov/","value":"60f82c2d98086b570510e246"}],"active":true,"name":[{"use":"usual","family":"NUMERPass","given":["NUMPass_MedAntithromboticStart_eq0dayDuringEd"]}],"gender":"female","birthDate":"1976-09-26"},"request":{"method":"PUT","url":"Patient/64a75df8-8bed-49ea-9c90-ee3569d233df"}},{"fullUrl":"https://madie.cms.gov/Encounter/4da6020b-3ff2-4190-8e19-af7df3a240af","resource":{"resourceType":"Encounter","id":"4da6020b-3ff2-4190-8e19-af7df3a240af","meta":{"profile":["http://hl7.org/fhir/us/qicore/StructureDefinition/qicore-encounter"]},"status":"finished","class":{"system":"http://terminology.hl7.org/CodeSystem/v3-ActCode","code":"EMER","display":"emergency"},"type":[{"coding":[{"system":"http://snomed.info/sct","code":"4525004"}]}],"subject":{"reference":"Patient/64a75df8-8bed-49ea-9c90-ee3569d233df"},"period":{"start":"2026-10-10T08:00:00Z","end":"2026-10-10T08:15:00.000+00:00"},"length":{"value":0,"unit":"days"}},"request":{"method":"PUT","url":"Encounter/4da6020b-3ff2-4190-8e19-af7df3a240af"}},{"fullUrl":"https://madie.cms.gov/claim/5ca62962b8484628b8de1ec5","resource":{"resourceType":"Claim","id":"5ca62962b8484628b8de1ec5","meta":{"profile":["http://hl7.org/fhir/us/qicore/StructureDefinition/qicore-claim"]},"status":"active","type":{"coding":[{"system":"http://terminology.hl7.org/CodeSystem/claim-type","code":"institutional"}]},"use":"claim","patient":{"reference":"Patient/d170a0a8-b5ad-4303-b6df-e304dd5f92ad"},"created":"2026-12-01","provider":{"reference":"Practitioner/20376946-5006-4a27-8b87-bcebfb9065f4"},"priority":{"coding":[{"system":"http://terminology.hl7.org/CodeSystem/processpriority","code":"normal"}]},"diagnosis":[{"sequence":1,"diagnosisCodeableConcept":{"coding":[{"system":"http://hl7.org/fhir/sid/icd-10-cm","code":"I63.00"}]},"type":[{"coding":[{"system":"http://terminology.hl7.org/CodeSystem/ex-diagnosistype","code":"principal"}]}]}],"insurance":[{"sequence":1,"focal":true,"coverage":{"reference":"Coverage/5fa041661c76ba66d9959367"}}],"item":[{"sequence":1,"diagnosisSequence":[1],"productOrService":{"coding":[{"system":"http://terminology.hl7.org/CodeSystem/ex-USCLS","code":"99555"}]},"encounter":[{"reference":"Encounter/eaecc56b-4d2f-42dc-9008-d00cec0b844f"}]}]},"request":{"method":"PUT","url":"Claim/5ca62962b8484628b8de1ec5"}},{"fullUrl":"https://madie.cms.gov/Encounter/eaecc56b-4d2f-42dc-9008-d00cec0b844f","resource":{"resourceType":"Encounter","id":"eaecc56b-4d2f-42dc-9008-d00cec0b844f","meta":{"profile":["http://hl7.org/fhir/us/qicore/StructureDefinition/qicore-encounter"]},"status":"finished","class":{"system":"http://terminology.hl7.org/CodeSystem/v3-ActCode","code":"IMP","display":"inpatient encounter"},"type":[{"coding":[{"system":"http://snomed.info/sct","code":"32485007"}]}],"subject":{"reference":"Patient/64a75df8-8bed-49ea-9c90-ee3569d233df"},"period":{"start":"2026-10-10T09:00:00Z","end":"2026-10-12T11:15:00.000+00:00"},"length":{"value":2,"unit":"days"},"reasonReference":[{"reference":"Condition/edb491f8-5a24-409c-8475-3a963ac62081"}]},"request":{"method":"PUT","url":"Encounter/eaecc56b-4d2f-42dc-9008-d00cec0b844f"}},{"fullUrl":"https://madie.cms.gov/MedicationAdministration/f8ca3c72-4b14-408f-ad73-c34d6df3b51d","resource":{"resourceType":"MedicationAdministration","id":"f8ca3c72-4b14-408f-ad73-c34d6df3b51d","meta":{"profile":["http://hl7.org/fhir/us/qicore/StructureDefinition/qicore-medicationadministration"]},"status":"completed","medicationCodeableConcept":{"coding":[{"system":"http://www.nlm.nih.gov/research/umls/rxnorm","code":"1037045"}]},"subject":{"reference":"Patient/64a75df8-8bed-49ea-9c90-ee3569d233df"},"effectivePeriod":{"start":"2026-10-10T08:01:00Z","end":"2026-10-10T08:45:00.000+00:00"}},"request":{"method":"PUT","url":"MedicationAdministration/f8ca3c72-4b14-408f-ad73-c34d6df3b51d"}},{"fullUrl":"https://madie.cms.gov/Coverage/c4fdfdda-c583-4f6b-9cbc-500f2b9d10f4","resource":{"resourceType":"Coverage","id":"c4fdfdda-c583-4f6b-9cbc-500f2b9d10f4","status":"active","subscriberId":"523435","beneficiary":{"reference":"Patient/64a75df8-8bed-49ea-9c90-ee3569d233df"},"relationship":{"coding":[{"system":"http://terminology.hl7.org/CodeSystem/subscriber-relationship","code":"self"}]},"period":{"start":"1976-09-26T08:00:00Z"},"payor":[{"reference":"Organization/87e2cfe8-fc1a-41f8-b7c6-41d5d686d0a3"}]},"request":{"method":"PUT","url":"Coverage/c4fdfdda-c583-4f6b-9cbc-500f2b9d10f4"}},{"fullUrl":"https://madie.cms.gov/Condition/edb491f8-5a24-409c-8475-3a963ac62081","resource":{"resourceType":"Condition","id":"edb491f8-5a24-409c-8475-3a963ac62081","meta":{"profile":["http://hl7.org/fhir/us/qicore/StructureDefinition/qicore-condition-problems-health-concerns"]},"clinicalStatus":{"coding":[{"system":"http://terminology.hl7.org/CodeSystem/condition-clinical","code":"active"}]},"verificationStatus":{"coding":[{"system":"http://terminology.hl7.org/CodeSystem/condition-ver-status","code":"confirmed"}]},"category":[{"coding":[{"system":"http://terminology.hl7.org/CodeSystem/condition-category","code":"encounter-diagnosis","display":"Encounter Diagnosis"}]}],"code":{"coding":[{"system":"http://snomed.info/sct","version":"2020-09","code":"111297002","display":"Nonparalytic stroke (disorder)","userSelected":true}]},"subject":{"reference":"Patient/64a75df8-8bed-49ea-9c90-ee3569d233df"},"recordedDate":"2026-08-16T08:00:00Z"},"request":{"method":"PUT","url":"Condition/edb491f8-5a24-409c-8475-3a963ac62081"}},{"fullUrl":"https://madie.cms.gov/Organization/87e2cfe8-fc1a-41f8-b7c6-41d5d686d0a3","resource":{"resourceType":"Organization","id":"87e2cfe8-fc1a-41f8-b7c6-41d5d686d0a3","meta":{"profile":["http://hl7.org/fhir/us/qicore/StructureDefinition/qicore-organization"]},"identifier":[{"use":"temp","system":"urn:oid:2.16.840.1.113883.4.4","value":"21-3259825"}],"active":true,"type":[{"coding":[{"system":"http://terminology.hl7.org/CodeSystem/organization-type","code":"pay","display":"Payer"}]}],"name":"Blue Cross Blue Shield of Texas","telecom":[{"system":"phone","value":"(+1) 972-766-6900"}],"address":[{"use":"billing","type":"postal","line":["P.O. Box 660044"],"city":"Dallas","state":"TX","postalCode":"75266-0044","country":"USA"}]},"request":{"method":"PUT","url":"Organization/87e2cfe8-fc1a-41f8-b7c6-41d5d686d0a3"}},{"fullUrl":"https://madie.cms.gov/Practitioner/20376946-5006-4a27-8b87-bcebfb9065f4","resource":{"resourceType":"Practitioner","id":"20376946-5006-4a27-8b87-bcebfb9065f4","meta":{"profile":["http://hl7.org/fhir/us/qicore/StructureDefinition/qicore-practitioner"]},"identifier":[{"system":"http://hl7.org/fhir/sid/us-npi","value":"9999999896"}],"name":[{"family":"Evil","prefix":["Dr"]}]},"request":{"method":"PUT","url":"Practitioner/20376946-5006-4a27-8b87-bcebfb9065f4"}},{"fullUrl":"https://madie.cms.gov/MeasureReport/7dab50c7-1185-4c33-8376-e60e07af5f66","resource":{"resourceType":"MeasureReport","id":"7dab50c7-1185-4c33-8376-e60e07af5f66","meta":{"profile":["http://hl7.org/fhir/us/cqfmeasures/StructureDefinition/test-case-cqfm"]},"contained":[{"resourceType":"Parameters","id":"0eb181fb-39ea-4c25-811d-946557a343ca-parameters","parameter":[{"name":"subject","valueString":"64a75df8-8bed-49ea-9c90-ee3569d233df"}]}],"extension":[{"url":"http://hl7.org/fhir/StructureDefinition/cqf-inputParameters","valueReference":{"reference":"#0eb181fb-39ea-4c25-811d-946557a343ca-parameters"}},{"url":"http://hl7.org/fhir/us/cqfmeasures/StructureDefinition/cqfm-testCaseDescription","valueMarkdown":"\"Patient receives antithrombotic in the ED.MedAntithromboticStart EQ 0day DuringEd\nglobal.\"\"Hospitalization\"\" =(Ed+IP)\"\n"}],"modifierExtension":[{"url":"http://hl7.org/fhir/us/cqfmeasures/StructureDefinition/cqfm-isTestCase","valueBoolean":true}],"status":"complete","type":"individual","measure":"https://madie.cms.gov/Measure/CMS72FHIRSTKAntithromboticDay2","period":{"start":"2026-01-01","end":"2026-12-31"},"group":[{"id":"Group_1","population":[{"id":"InitialPopulation_1","code":{"coding":[{"system":"http://terminology.hl7.org/CodeSystem/measure-population","code":"initial-population","display":"Initial Population"}]},"count":1},{"id":"Denominator_1","code":{"coding":[{"system":"http://terminology.hl7.org/CodeSystem/measure-population","code":"denominator","display":"Denominator"}]},"count":1},{"id":"DenominatorExclusion_1","code":{"coding":[{"system":"http://terminology.hl7.org/CodeSystem/measure-population","code":"denominator-exclusion","display":"Denominator Exclusion"}]},"count":0},{"id":"Numerator_1","code":{"coding":[{"system":"http://terminology.hl7.org/CodeSystem/measure-population","code":"numerator","display":"Numerator"}]},"count":1},{"id":"DenominatorException_1","code":{"coding":[{"system":"http://terminology.hl7.org/CodeSystem/measure-population","code":"denominator-exception","display":"Denominator Exception"}]},"count":0}],"measureScore":{"value":0.0}}],"evaluatedResource":[{"reference":"Patient/64a75df8-8bed-49ea-9c90-ee3569d233df"},{"reference":"Encounter/4da6020b-3ff2-4190-8e19-af7df3a240af"},{"reference":"Claim/5ca62962b8484628b8de1ec5"},{"reference":"Encounter/eaecc56b-4d2f-42dc-9008-d00cec0b844f"},{"reference":"MedicationAdministration/f8ca3c72-4b14-408f-ad73-c34d6df3b51d"},{"reference":"Coverage/c4fdfdda-c583-4f6b-9cbc-500f2b9d10f4"},{"reference":"Condition/edb491f8-5a24-409c-8475-3a963ac62081"},{"reference":"Organization/87e2cfe8-fc1a-41f8-b7c6-41d5d686d0a3"},{"reference":"Practitioner/20376946-5006-4a27-8b87-bcebfb9065f4"}]},"request":{"method":"PUT","url":"MeasureReport/7dab50c7-1185-4c33-8376-e60e07af5f66"}}]},"request":{"method":"PUT","url":"Bundle/60f82c2d98086b570510e246"}},{"fullUrl":"Practitioner/20376946-5006-4a27-8b87-bcebfb9065f4","resource":{"resourceType":"Practitioner","id":"20376946-5006-4a27-8b87-bcebfb9065f4","meta":{"profile":["http://hl7.org/fhir/us/qicore/StructureDefinition/qicore-practitioner"]},"identifier":[{"system":"http://hl7.org/fhir/sid/us-npi","value":"9999999896"}],"name":[{"family":"Evil","prefix":["Dr"]}]},"request":{"method":"PUT","url":"Practitioner/20376946-5006-4a27-8b87-bcebfb9065f4"}},{"fullUrl":"Encounter/4da6020b-3ff2-4190-8e19-af7df3a240af","resource":{"resourceType":"Encounter","id":"4da6020b-3ff2-4190-8e19-af7df3a240af","meta":{"profile":["http://hl7.org/fhir/us/qicore/StructureDefinition/qicore-encounter"]},"status":"finished","class":{"system":"http://terminology.hl7.org/CodeSystem/v3-ActCode","code":"EMER","display":"emergency"},"type":[{"coding":[{"system":"http://snomed.info/sct","code":"4525004"}]}],"subject":{"reference":"Patient/64a75df8-8bed-49ea-9c90-ee3569d233df"},"period":{"start":"2026-10-10T08:00:00Z","end":"2026-10-10T08:15:00.000+00:00"},"length":{"value":0,"unit":"days"}},"request":{"method":"PUT","url":"Encounter/4da6020b-3ff2-4190-8e19-af7df3a240af"}},{"fullUrl":"Patient/64a75df8-8bed-49ea-9c90-ee3569d233df","resource":{"resourceType":"Patient","id":"64a75df8-8bed-49ea-9c90-ee3569d233df","meta":{"profile":["http://hl7.org/fhir/us/qicore/StructureDefinition/qicore-patient"]},"text":{"status":"generated","div":"<div xmlns=\"http://www.w3.org/1999/xhtml\"><div class=\"hapiHeaderText\">NUMPass_MedAntithromboticStart_eq0dayDuringEd <b>NUMERPASS </b></div><table class=\"hapiPropertyTable\"><tbody><tr><td>Identifier</td><td>c83f9793e1392fa468cc0a3c0c4bf7d9</td></tr><tr><td>Date of birth</td><td><span>26 September 1975</span></td></tr></tbody></table></div>"},"extension":[{"url":"http://hl7.org/fhir/us/core/StructureDefinition/us-core-race","extension":[{"url":"ombCategory","valueCoding":{"system":"urn:oid:2.16.840.1.113883.6.238","code":"2054-5","display":"Black or African American","userSelected":true}},{"url":"text","valueString":"Black or African American"}]},{"url":"http://hl7.org/fhir/us/core/StructureDefinition/us-core-ethnicity","extension":[{"url":"ombCategory","valueCoding":{"system":"urn:oid:2.16.840.1.113883.6.238","code":"2186-5","display":"Not Hispanic or Latino","userSelected":true}},{"url":"text","valueString":"Not Hispanic or Latino"}]}],"identifier":[{"type":{"coding":[{"system":"http://terminology.hl7.org/CodeSystem/v2-0203","code":"MR"}]},"system":"https://bonnie-fhir.healthit.gov/","value":"60f82c2d98086b570510e246"}],"active":true,"name":[{"use":"usual","family":"NUMERPass","given":["NUMPass_MedAntithromboticStart_eq0dayDuringEd"]}],"gender":"female","birthDate":"1976-09-26"},"request":{"method":"PUT","url":"Patient/64a75df8-8bed-49ea-9c90-ee3569d233df"}},{"fullUrl":"Organization/87e2cfe8-fc1a-41f8-b7c6-41d5d686d0a3","resource":{"resourceType":"Organization","id":"87e2cfe8-fc1a-41f8-b7c6-41d5d686d0a3","meta":{"profile":["http://hl7.org/fhir/us/qicore/StructureDefinition/qicore-organization"]},"identifier":[{"use":"temp","system":"urn:oid:2.16.840.1.113883.4.4","value":"21-3259825"}],"active":true,"type":[{"coding":[{"system":"http://terminology.hl7.org/CodeSystem/organization-type","code":"pay","display":"Payer"}]}],"name":"Blue Cross Blue Shield of Texas","telecom":[{"system":"phone","value":"(+1) 972-766-6900"}],"address":[{"use":"billing","type":"postal","line":["P.O. Box 660044"],"city":"Dallas","state":"TX","postalCode":"75266-0044","country":"USA"}]},"request":{"method":"PUT","url":"Organization/87e2cfe8-fc1a-41f8-b7c6-41d5d686d0a3"}},{"fullUrl":"MedicationAdministration/f8ca3c72-4b14-408f-ad73-c34d6df3b51d","resource":{"resourceType":"MedicationAdministration","id":"f8ca3c72-4b14-408f-ad73-c34d6df3b51d","meta":{"profile":["http://hl7.org/fhir/us/qicore/StructureDefinition/qicore-medicationadministration"]},"status":"completed","medicationCodeableConcept":{"coding":[{"system":"http://www.nlm.nih.gov/research/umls/rxnorm","code":"1037045"}]},"subject":{"reference":"Patient/64a75df8-8bed-49ea-9c90-ee3569d233df"},"effectivePeriod":{"start":"2026-10-10T08:01:00Z","end":"2026-10-10T08:45:00.000+00:00"}},"request":{"method":"PUT","url":"MedicationAdministration/f8ca3c72-4b14-408f-ad73-c34d6df3b51d"}},{"fullUrl":"MeasureReport/7dab50c7-1185-4c33-8376-e60e07af5f66","resource":{"resourceType":"MeasureReport","id":"7dab50c7-1185-4c33-8376-e60e07af5f66","meta":{"profile":["http://hl7.org/fhir/us/cqfmeasures/StructureDefinition/test-case-cqfm"]},"contained":[{"resourceType":"Parameters","id":"0eb181fb-39ea-4c25-811d-946557a343ca-parameters","parameter":[{"name":"subject","valueString":"64a75df8-8bed-49ea-9c90-ee3569d233df"}]}],"extension":[{"url":"http://hl7.org/fhir/StructureDefinition/cqf-inputParameters","valueReference":{"reference":"#0eb181fb-39ea-4c25-811d-946557a343ca-parameters"}},{"url":"http://hl7.org/fhir/us/cqfmeasures/StructureDefinition/cqfm-testCaseDescription","valueMarkdown":"\"Patient receives antithrombotic in the ED.MedAntithromboticStart EQ 0day DuringEd\nglobal.\"\"Hospitalization\"\" =(Ed+IP)\"\n"}],"modifierExtension":[{"url":"http://hl7.org/fhir/us/cqfmeasures/StructureDefinition/cqfm-isTestCase","valueBoolean":true}],"status":"complete","type":"individual","measure":"https://madie.cms.gov/Measure/CMS72FHIRSTKAntithromboticDay2","period":{"start":"2026-01-01","end":"2026-12-31"},"group":[{"id":"Group_1","population":[{"id":"InitialPopulation_1","code":{"coding":[{"system":"http://terminology.hl7.org/CodeSystem/measure-population","code":"initial-population","display":"Initial Population"}]},"count":1},{"id":"Denominator_1","code":{"coding":[{"system":"http://terminology.hl7.org/CodeSystem/measure-population","code":"denominator","display":"Denominator"}]},"count":1},{"id":"DenominatorExclusion_1","code":{"coding":[{"system":"http://terminology.hl7.org/CodeSystem/measure-population","code":"denominator-exclusion","display":"Denominator Exclusion"}]},"count":0},{"id":"Numerator_1","code":{"coding":[{"system":"http://terminology.hl7.org/CodeSystem/measure-population","code":"numerator","display":"Numerator"}]},"count":1},{"id":"DenominatorException_1","code":{"coding":[{"system":"http://terminology.hl7.org/CodeSystem/measure-population","code":"denominator-exception","display":"Denominator Exception"}]},"count":0}],"measureScore":{"value":0.0}}],"evaluatedResource":[{"reference":"Patient/64a75df8-8bed-49ea-9c90-ee3569d233df"},{"reference":"Encounter/4da6020b-3ff2-4190-8e19-af7df3a240af"},{"reference":"Claim/5ca62962b8484628b8de1ec5"},{"reference":"Encounter/eaecc56b-4d2f-42dc-9008-d00cec0b844f"},{"reference":"MedicationAdministration/f8ca3c72-4b14-408f-ad73-c34d6df3b51d"},{"reference":"Coverage/c4fdfdda-c583-4f6b-9cbc-500f2b9d10f4"},{"reference":"Condition/edb491f8-5a24-409c-8475-3a963ac62081"},{"reference":"Organization/87e2cfe8-fc1a-41f8-b7c6-41d5d686d0a3"},{"reference":"Practitioner/20376946-5006-4a27-8b87-bcebfb9065f4"}]},"request":{"method":"PUT","url":"MeasureReport/7dab50c7-1185-4c33-8376-e60e07af5f66"}},{"fullUrl":"Coverage/c4fdfdda-c583-4f6b-9cbc-500f2b9d10f4","resource":{"resourceType":"Coverage","id":"c4fdfdda-c583-4f6b-9cbc-500f2b9d10f4","status":"active","subscriberId":"523435","beneficiary":{"reference":"Patient/64a75df8-8bed-49ea-9c90-ee3569d233df"},"relationship":{"coding":[{"system":"http://terminology.hl7.org/CodeSystem/subscriber-relationship","code":"self"}]},"period":{"start":"1976-09-26T08:00:00Z"},"payor":[{"reference":"Organization/87e2cfe8-fc1a-41f8-b7c6-41d5d686d0a3"}]},"request":{"method":"PUT","url":"Coverage/c4fdfdda-c583-4f6b-9cbc-500f2b9d10f4"}},{"fullUrl":"Claim/5ca62962b8484628b8de1ec5","resource":{"resourceType":"Claim","id":"5ca62962b8484628b8de1ec5","meta":{"profile":["http://hl7.org/fhir/us/qicore/StructureDefinition/qicore-claim"]},"status":"active","type":{"coding":[{"system":"http://terminology.hl7.org/CodeSystem/claim-type","code":"institutional"}]},"use":"claim","patient":{"reference":"Patient/d170a0a8-b5ad-4303-b6df-e304dd5f92ad"},"created":"2026-12-01","provider":{"reference":"Practitioner/20376946-5006-4a27-8b87-bcebfb9065f4"},"priority":{"coding":[{"system":"http://terminology.hl7.org/CodeSystem/processpriority","code":"normal"}]},"diagnosis":[{"sequence":1,"diagnosisCodeableConcept":{"coding":[{"system":"http://hl7.org/fhir/sid/icd-10-cm","code":"I63.00"}]},"type":[{"coding":[{"system":"http://terminology.hl7.org/CodeSystem/ex-diagnosistype","code":"principal"}]}]}],"insurance":[{"sequence":1,"focal":true,"coverage":{"reference":"Coverage/5fa041661c76ba66d9959367"}}],"item":[{"sequence":1,"diagnosisSequence":[1],"productOrService":{"coding":[{"system":"http://terminology.hl7.org/CodeSystem/ex-USCLS","code":"99555"}]},"encounter":[{"reference":"Encounter/eaecc56b-4d2f-42dc-9008-d00cec0b844f"}]}]},"request":{"method":"PUT","url":"Claim/5ca62962b8484628b8de1ec5"}}]}