{"resourceType":"Bundle","id":"tests-93798745-af1c-4eb6-8dc4-446a531c05a4-bundle","type":"transaction","entry":[{"fullUrl":"Practitioner/d462ec98-7e96-4b19-8ce1-d28bde787668","resource":{"resourceType":"Practitioner","id":"d462ec98-7e96-4b19-8ce1-d28bde787668","meta":{"profile":["http://hl7.org/fhir/us/qicore/StructureDefinition/qicore-practitioner"]},"identifier":[{"system":"http://hl7.org/fhir/sid/us-npi","value":"9999999896"}],"name":[{"family":"Evil","prefix":["Dr"]}]},"request":{"method":"PUT","url":"Practitioner/d462ec98-7e96-4b19-8ce1-d28bde787668"}},{"fullUrl":"Encounter/f5176c97-b4b6-4d95-ae2c-d76fad74ac52","resource":{"resourceType":"Encounter","id":"f5176c97-b4b6-4d95-ae2c-d76fad74ac52","meta":{"profile":["http://hl7.org/fhir/us/qicore/StructureDefinition/qicore-encounter"]},"status":"finished","class":{"system":"http://terminology.hl7.org/CodeSystem/v3-ActCode","code":"EMER","display":"emergency"},"type":[{"coding":[{"system":"http://snomed.info/sct","code":"4525004"}]}],"subject":{"reference":"Patient/93798745-af1c-4eb6-8dc4-446a531c05a4"},"period":{"start":"2026-10-10T01:00:00Z","end":"2026-10-11T01:59:00.000+00:00"},"length":{"value":1,"unit":"days"}},"request":{"method":"PUT","url":"Encounter/f5176c97-b4b6-4d95-ae2c-d76fad74ac52"}},{"fullUrl":"Encounter/e92955f5-479d-42b4-9d2a-dfacb2a4af31","resource":{"resourceType":"Encounter","id":"e92955f5-479d-42b4-9d2a-dfacb2a4af31","meta":{"profile":["http://hl7.org/fhir/us/qicore/StructureDefinition/qicore-encounter"]},"status":"finished","class":{"system":"http://terminology.hl7.org/CodeSystem/v3-ActCode","code":"IMP","display":"inpatient encounter"},"type":[{"coding":[{"system":"http://snomed.info/sct","code":"32485007"}]}],"subject":{"reference":"Patient/93798745-af1c-4eb6-8dc4-446a531c05a4"},"period":{"start":"2026-10-11T02:00:00Z","end":"2026-10-15T11:30:00.000+00:00"},"length":{"value":4,"unit":"days"},"reasonReference":[{"reference":"Condition/708255b7-b5a2-4b84-9589-fe4123c549da"}]},"request":{"method":"PUT","url":"Encounter/e92955f5-479d-42b4-9d2a-dfacb2a4af31"}},{"fullUrl":"Condition/708255b7-b5a2-4b84-9589-fe4123c549da","resource":{"resourceType":"Condition","id":"708255b7-b5a2-4b84-9589-fe4123c549da","meta":{"profile":["http://hl7.org/fhir/us/qicore/StructureDefinition/qicore-condition-problems-health-concerns"]},"clinicalStatus":{"coding":[{"system":"http://terminology.hl7.org/CodeSystem/condition-clinical","code":"active"}]},"verificationStatus":{"coding":[{"system":"http://terminology.hl7.org/CodeSystem/condition-ver-status","code":"confirmed"}]},"category":[{"coding":[{"system":"http://terminology.hl7.org/CodeSystem/condition-category","code":"encounter-diagnosis","display":"Encounter Diagnosis"}]}],"code":{"coding":[{"system":"http://snomed.info/sct","version":"2020-09","code":"111297002","display":"Nonparalytic stroke (disorder)","userSelected":true}]},"subject":{"reference":"Patient/93798745-af1c-4eb6-8dc4-446a531c05a4"},"recordedDate":"2026-08-16T08:00:00Z"},"request":{"method":"PUT","url":"Condition/708255b7-b5a2-4b84-9589-fe4123c549da"}},{"fullUrl":"MedicationAdministration/bd768809-dee1-46fd-b48b-fcab799fe251","resource":{"resourceType":"MedicationAdministration","id":"bd768809-dee1-46fd-b48b-fcab799fe251","meta":{"profile":["http://hl7.org/fhir/us/qicore/StructureDefinition/qicore-medicationadministration"]},"status":"completed","medicationCodeableConcept":{"coding":[{"system":"http://www.nlm.nih.gov/research/umls/rxnorm","code":"198466"}]},"subject":{"reference":"Patient/93798745-af1c-4eb6-8dc4-446a531c05a4"},"effectivePeriod":{"start":"2026-10-11T23:59:00Z"}},"request":{"method":"PUT","url":"MedicationAdministration/bd768809-dee1-46fd-b48b-fcab799fe251"}},{"fullUrl":"Coverage/417734e5-d560-48a1-aa43-2f4718b0a9ed","resource":{"resourceType":"Coverage","id":"417734e5-d560-48a1-aa43-2f4718b0a9ed","status":"active","subscriberId":"523435","beneficiary":{"reference":"Patient/93798745-af1c-4eb6-8dc4-446a531c05a4"},"relationship":{"coding":[{"system":"http://terminology.hl7.org/CodeSystem/subscriber-relationship","code":"self"}]},"period":{"start":"1976-09-26T08:00:00Z"},"payor":[{"reference":"Organization/89c3b6a5-a376-47b6-88f8-52f53863ffd8"}]},"request":{"method":"PUT","url":"Coverage/417734e5-d560-48a1-aa43-2f4718b0a9ed"}},{"fullUrl":"Bundle/60f82c2e98086b570510e298","resource":{"resourceType":"Bundle","id":"60f82c2e98086b570510e298","type":"transaction","entry":[{"fullUrl":"https://madie.cms.gov/Patient/93798745-af1c-4eb6-8dc4-446a531c05a4","resource":{"resourceType":"Patient","id":"93798745-af1c-4eb6-8dc4-446a531c05a4","meta":{"profile":["http://hl7.org/fhir/us/qicore/StructureDefinition/qicore-patient"]},"text":{"status":"generated","div":"<div xmlns=\"http://www.w3.org/1999/xhtml\"><div class=\"hapiHeaderText\">MedAntithromboticStart_eq1dayDuringEncIPwEd <b>NUMERFAIL - 3061 </b></div><table class=\"hapiPropertyTable\"><tbody><tr><td>Identifier</td><td>efb6046ae135027a64d1fa1873b580614d445125bf8cff274eca2380ad404ec9</td></tr><tr><td>Date of birth</td><td><span>26 September 1975</span></td></tr></tbody></table></div>"},"extension":[{"url":"http://hl7.org/fhir/us/core/StructureDefinition/us-core-race","extension":[{"url":"ombCategory","valueCoding":{"system":"urn:oid:2.16.840.1.113883.6.238","code":"2054-5","display":"Black or African American","userSelected":true}},{"url":"text","valueString":"Black or African American"}]},{"url":"http://hl7.org/fhir/us/core/StructureDefinition/us-core-ethnicity","extension":[{"url":"ombCategory","valueCoding":{"system":"urn:oid:2.16.840.1.113883.6.238","code":"2186-5","display":"Not Hispanic or Latino","userSelected":true}},{"url":"text","valueString":"Not Hispanic or Latino"}]}],"identifier":[{"type":{"coding":[{"system":"http://terminology.hl7.org/CodeSystem/v2-0203","code":"MR"}]},"system":"https://bonnie-fhir.healthit.gov/","value":"60f82c2e98086b570510e298"}],"active":true,"name":[{"use":"usual","family":"NUMERPass - 3061","given":["MedAntithromboticStarteq1dayDuringEncIPwEd"]}],"gender":"female","birthDate":"1976-09-26"},"request":{"method":"PUT","url":"Patient/93798745-af1c-4eb6-8dc4-446a531c05a4"}},{"fullUrl":"https://madie.cms.gov/Encounter/f5176c97-b4b6-4d95-ae2c-d76fad74ac52","resource":{"resourceType":"Encounter","id":"f5176c97-b4b6-4d95-ae2c-d76fad74ac52","meta":{"profile":["http://hl7.org/fhir/us/qicore/StructureDefinition/qicore-encounter"]},"status":"finished","class":{"system":"http://terminology.hl7.org/CodeSystem/v3-ActCode","code":"EMER","display":"emergency"},"type":[{"coding":[{"system":"http://snomed.info/sct","code":"4525004"}]}],"subject":{"reference":"Patient/93798745-af1c-4eb6-8dc4-446a531c05a4"},"period":{"start":"2026-10-10T01:00:00Z","end":"2026-10-11T01:59:00.000+00:00"},"length":{"value":1,"unit":"days"}},"request":{"method":"PUT","url":"Encounter/f5176c97-b4b6-4d95-ae2c-d76fad74ac52"}},{"fullUrl":"https://madie.cms.gov/Encounter/e92955f5-479d-42b4-9d2a-dfacb2a4af31","resource":{"resourceType":"Encounter","id":"e92955f5-479d-42b4-9d2a-dfacb2a4af31","meta":{"profile":["http://hl7.org/fhir/us/qicore/StructureDefinition/qicore-encounter"]},"status":"finished","class":{"system":"http://terminology.hl7.org/CodeSystem/v3-ActCode","code":"IMP","display":"inpatient encounter"},"type":[{"coding":[{"system":"http://snomed.info/sct","code":"32485007"}]}],"subject":{"reference":"Patient/93798745-af1c-4eb6-8dc4-446a531c05a4"},"period":{"start":"2026-10-11T02:00:00Z","end":"2026-10-15T11:30:00.000+00:00"},"length":{"value":4,"unit":"days"},"reasonReference":[{"reference":"Condition/708255b7-b5a2-4b84-9589-fe4123c549da"}]},"request":{"method":"PUT","url":"Encounter/e92955f5-479d-42b4-9d2a-dfacb2a4af31"}},{"fullUrl":"https://madie.cms.gov/claim/5ca62962b8484628b8de1ec5","resource":{"resourceType":"Claim","id":"5ca62962b8484628b8de1ec5","meta":{"profile":["http://hl7.org/fhir/us/qicore/StructureDefinition/qicore-claim"]},"status":"active","type":{"coding":[{"system":"http://terminology.hl7.org/CodeSystem/claim-type","code":"institutional"}]},"use":"claim","patient":{"reference":"Patient/d170a0a8-b5ad-4303-b6df-e304dd5f92ad"},"created":"2026-12-01","provider":{"reference":"Practitioner/d462ec98-7e96-4b19-8ce1-d28bde787668"},"priority":{"coding":[{"system":"http://terminology.hl7.org/CodeSystem/processpriority","code":"normal"}]},"diagnosis":[{"sequence":1,"diagnosisCodeableConcept":{"coding":[{"system":"http://hl7.org/fhir/sid/icd-10-cm","code":"I63.00"}]},"type":[{"coding":[{"system":"http://terminology.hl7.org/CodeSystem/ex-diagnosistype","code":"principal"}]}]}],"insurance":[{"sequence":1,"focal":true,"coverage":{"reference":"Coverage/5fa041661c76ba66d9959367"}}],"item":[{"sequence":1,"diagnosisSequence":[1],"productOrService":{"coding":[{"system":"http://terminology.hl7.org/CodeSystem/ex-USCLS","code":"99555"}]},"encounter":[{"reference":"Encounter/e92955f5-479d-42b4-9d2a-dfacb2a4af31"}]}]},"request":{"method":"PUT","url":"Claim/5ca62962b8484628b8de1ec5"}},{"fullUrl":"https://madie.cms.gov/MedicationAdministration/bd768809-dee1-46fd-b48b-fcab799fe251","resource":{"resourceType":"MedicationAdministration","id":"bd768809-dee1-46fd-b48b-fcab799fe251","meta":{"profile":["http://hl7.org/fhir/us/qicore/StructureDefinition/qicore-medicationadministration"]},"status":"completed","medicationCodeableConcept":{"coding":[{"system":"http://www.nlm.nih.gov/research/umls/rxnorm","code":"198466"}]},"subject":{"reference":"Patient/93798745-af1c-4eb6-8dc4-446a531c05a4"},"effectivePeriod":{"start":"2026-10-11T23:59:00Z"}},"request":{"method":"PUT","url":"MedicationAdministration/bd768809-dee1-46fd-b48b-fcab799fe251"}},{"fullUrl":"https://madie.cms.gov/Coverage/417734e5-d560-48a1-aa43-2f4718b0a9ed","resource":{"resourceType":"Coverage","id":"417734e5-d560-48a1-aa43-2f4718b0a9ed","status":"active","subscriberId":"523435","beneficiary":{"reference":"Patient/93798745-af1c-4eb6-8dc4-446a531c05a4"},"relationship":{"coding":[{"system":"http://terminology.hl7.org/CodeSystem/subscriber-relationship","code":"self"}]},"period":{"start":"1976-09-26T08:00:00Z"},"payor":[{"reference":"Organization/89c3b6a5-a376-47b6-88f8-52f53863ffd8"}]},"request":{"method":"PUT","url":"Coverage/417734e5-d560-48a1-aa43-2f4718b0a9ed"}},{"fullUrl":"https://madie.cms.gov/Condition/708255b7-b5a2-4b84-9589-fe4123c549da","resource":{"resourceType":"Condition","id":"708255b7-b5a2-4b84-9589-fe4123c549da","meta":{"profile":["http://hl7.org/fhir/us/qicore/StructureDefinition/qicore-condition-problems-health-concerns"]},"clinicalStatus":{"coding":[{"system":"http://terminology.hl7.org/CodeSystem/condition-clinical","code":"active"}]},"verificationStatus":{"coding":[{"system":"http://terminology.hl7.org/CodeSystem/condition-ver-status","code":"confirmed"}]},"category":[{"coding":[{"system":"http://terminology.hl7.org/CodeSystem/condition-category","code":"encounter-diagnosis","display":"Encounter Diagnosis"}]}],"code":{"coding":[{"system":"http://snomed.info/sct","version":"2020-09","code":"111297002","display":"Nonparalytic stroke (disorder)","userSelected":true}]},"subject":{"reference":"Patient/93798745-af1c-4eb6-8dc4-446a531c05a4"},"recordedDate":"2026-08-16T08:00:00Z"},"request":{"method":"PUT","url":"Condition/708255b7-b5a2-4b84-9589-fe4123c549da"}},{"fullUrl":"https://madie.cms.gov/Organization/89c3b6a5-a376-47b6-88f8-52f53863ffd8","resource":{"resourceType":"Organization","id":"89c3b6a5-a376-47b6-88f8-52f53863ffd8","meta":{"profile":["http://hl7.org/fhir/us/qicore/StructureDefinition/qicore-organization"]},"identifier":[{"use":"temp","system":"urn:oid:2.16.840.1.113883.4.4","value":"21-3259825"}],"active":true,"type":[{"coding":[{"system":"http://terminology.hl7.org/CodeSystem/organization-type","code":"pay","display":"Payer"}]}],"name":"Blue Cross Blue Shield of Texas","telecom":[{"system":"phone","value":"(+1) 972-766-6900"}],"address":[{"use":"billing","type":"postal","line":["P.O. Box 660044"],"city":"Dallas","state":"TX","postalCode":"75266-0044","country":"USA"}]},"request":{"method":"PUT","url":"Organization/89c3b6a5-a376-47b6-88f8-52f53863ffd8"}},{"fullUrl":"https://madie.cms.gov/Practitioner/d462ec98-7e96-4b19-8ce1-d28bde787668","resource":{"resourceType":"Practitioner","id":"d462ec98-7e96-4b19-8ce1-d28bde787668","meta":{"profile":["http://hl7.org/fhir/us/qicore/StructureDefinition/qicore-practitioner"]},"identifier":[{"system":"http://hl7.org/fhir/sid/us-npi","value":"9999999896"}],"name":[{"family":"Evil","prefix":["Dr"]}]},"request":{"method":"PUT","url":"Practitioner/d462ec98-7e96-4b19-8ce1-d28bde787668"}},{"fullUrl":"https://madie.cms.gov/MeasureReport/36776a0e-0404-4007-a479-cd81b982a7b9","resource":{"resourceType":"MeasureReport","id":"36776a0e-0404-4007-a479-cd81b982a7b9","meta":{"profile":["http://hl7.org/fhir/us/cqfmeasures/StructureDefinition/test-case-cqfm"]},"contained":[{"resourceType":"Parameters","id":"23ca2dde-b252-4680-acba-ef2419ecfd50-parameters","parameter":[{"name":"subject","valueString":"93798745-af1c-4eb6-8dc4-446a531c05a4"}]}],"extension":[{"url":"http://hl7.org/fhir/StructureDefinition/cqf-inputParameters","valueReference":{"reference":"#23ca2dde-b252-4680-acba-ef2419ecfd50-parameters"}},{"url":"http://hl7.org/fhir/us/cqfmeasures/StructureDefinition/cqfm-testCaseDescription","valueMarkdown":"Patient receives antithrombotic in = 1 day after IP encounter starts. global.\"Hospitalization\" =(IP)\n"}],"modifierExtension":[{"url":"http://hl7.org/fhir/us/cqfmeasures/StructureDefinition/cqfm-isTestCase","valueBoolean":true}],"status":"complete","type":"individual","measure":"https://madie.cms.gov/Measure/CMS72FHIRSTKAntithromboticDay2","period":{"start":"2026-01-01","end":"2026-12-31"},"group":[{"id":"Group_1","population":[{"id":"InitialPopulation_1","code":{"coding":[{"system":"http://terminology.hl7.org/CodeSystem/measure-population","code":"initial-population","display":"Initial Population"}]},"count":1},{"id":"Denominator_1","code":{"coding":[{"system":"http://terminology.hl7.org/CodeSystem/measure-population","code":"denominator","display":"Denominator"}]},"count":1},{"id":"DenominatorExclusion_1","code":{"coding":[{"system":"http://terminology.hl7.org/CodeSystem/measure-population","code":"denominator-exclusion","display":"Denominator Exclusion"}]},"count":0},{"id":"Numerator_1","code":{"coding":[{"system":"http://terminology.hl7.org/CodeSystem/measure-population","code":"numerator","display":"Numerator"}]},"count":1},{"id":"DenominatorException_1","code":{"coding":[{"system":"http://terminology.hl7.org/CodeSystem/measure-population","code":"denominator-exception","display":"Denominator Exception"}]},"count":0}],"measureScore":{"value":0.0}}],"evaluatedResource":[{"reference":"Patient/93798745-af1c-4eb6-8dc4-446a531c05a4"},{"reference":"Encounter/f5176c97-b4b6-4d95-ae2c-d76fad74ac52"},{"reference":"Encounter/e92955f5-479d-42b4-9d2a-dfacb2a4af31"},{"reference":"Claim/5ca62962b8484628b8de1ec5"},{"reference":"MedicationAdministration/bd768809-dee1-46fd-b48b-fcab799fe251"},{"reference":"Coverage/417734e5-d560-48a1-aa43-2f4718b0a9ed"},{"reference":"Condition/708255b7-b5a2-4b84-9589-fe4123c549da"},{"reference":"Organization/89c3b6a5-a376-47b6-88f8-52f53863ffd8"},{"reference":"Practitioner/d462ec98-7e96-4b19-8ce1-d28bde787668"}]},"request":{"method":"PUT","url":"MeasureReport/36776a0e-0404-4007-a479-cd81b982a7b9"}}]},"request":{"method":"PUT","url":"Bundle/60f82c2e98086b570510e298"}},{"fullUrl":"Organization/89c3b6a5-a376-47b6-88f8-52f53863ffd8","resource":{"resourceType":"Organization","id":"89c3b6a5-a376-47b6-88f8-52f53863ffd8","meta":{"profile":["http://hl7.org/fhir/us/qicore/StructureDefinition/qicore-organization"]},"identifier":[{"use":"temp","system":"urn:oid:2.16.840.1.113883.4.4","value":"21-3259825"}],"active":true,"type":[{"coding":[{"system":"http://terminology.hl7.org/CodeSystem/organization-type","code":"pay","display":"Payer"}]}],"name":"Blue Cross Blue Shield of Texas","telecom":[{"system":"phone","value":"(+1) 972-766-6900"}],"address":[{"use":"billing","type":"postal","line":["P.O. Box 660044"],"city":"Dallas","state":"TX","postalCode":"75266-0044","country":"USA"}]},"request":{"method":"PUT","url":"Organization/89c3b6a5-a376-47b6-88f8-52f53863ffd8"}},{"fullUrl":"MeasureReport/36776a0e-0404-4007-a479-cd81b982a7b9","resource":{"resourceType":"MeasureReport","id":"36776a0e-0404-4007-a479-cd81b982a7b9","meta":{"profile":["http://hl7.org/fhir/us/cqfmeasures/StructureDefinition/test-case-cqfm"]},"contained":[{"resourceType":"Parameters","id":"23ca2dde-b252-4680-acba-ef2419ecfd50-parameters","parameter":[{"name":"subject","valueString":"93798745-af1c-4eb6-8dc4-446a531c05a4"}]}],"extension":[{"url":"http://hl7.org/fhir/StructureDefinition/cqf-inputParameters","valueReference":{"reference":"#23ca2dde-b252-4680-acba-ef2419ecfd50-parameters"}},{"url":"http://hl7.org/fhir/us/cqfmeasures/StructureDefinition/cqfm-testCaseDescription","valueMarkdown":"Patient receives antithrombotic in = 1 day after IP encounter starts. global.\"Hospitalization\" =(IP)\n"}],"modifierExtension":[{"url":"http://hl7.org/fhir/us/cqfmeasures/StructureDefinition/cqfm-isTestCase","valueBoolean":true}],"status":"complete","type":"individual","measure":"https://madie.cms.gov/Measure/CMS72FHIRSTKAntithromboticDay2","period":{"start":"2026-01-01","end":"2026-12-31"},"group":[{"id":"Group_1","population":[{"id":"InitialPopulation_1","code":{"coding":[{"system":"http://terminology.hl7.org/CodeSystem/measure-population","code":"initial-population","display":"Initial Population"}]},"count":1},{"id":"Denominator_1","code":{"coding":[{"system":"http://terminology.hl7.org/CodeSystem/measure-population","code":"denominator","display":"Denominator"}]},"count":1},{"id":"DenominatorExclusion_1","code":{"coding":[{"system":"http://terminology.hl7.org/CodeSystem/measure-population","code":"denominator-exclusion","display":"Denominator Exclusion"}]},"count":0},{"id":"Numerator_1","code":{"coding":[{"system":"http://terminology.hl7.org/CodeSystem/measure-population","code":"numerator","display":"Numerator"}]},"count":1},{"id":"DenominatorException_1","code":{"coding":[{"system":"http://terminology.hl7.org/CodeSystem/measure-population","code":"denominator-exception","display":"Denominator Exception"}]},"count":0}],"measureScore":{"value":0.0}}],"evaluatedResource":[{"reference":"Patient/93798745-af1c-4eb6-8dc4-446a531c05a4"},{"reference":"Encounter/f5176c97-b4b6-4d95-ae2c-d76fad74ac52"},{"reference":"Encounter/e92955f5-479d-42b4-9d2a-dfacb2a4af31"},{"reference":"Claim/5ca62962b8484628b8de1ec5"},{"reference":"MedicationAdministration/bd768809-dee1-46fd-b48b-fcab799fe251"},{"reference":"Coverage/417734e5-d560-48a1-aa43-2f4718b0a9ed"},{"reference":"Condition/708255b7-b5a2-4b84-9589-fe4123c549da"},{"reference":"Organization/89c3b6a5-a376-47b6-88f8-52f53863ffd8"},{"reference":"Practitioner/d462ec98-7e96-4b19-8ce1-d28bde787668"}]},"request":{"method":"PUT","url":"MeasureReport/36776a0e-0404-4007-a479-cd81b982a7b9"}},{"fullUrl":"Patient/93798745-af1c-4eb6-8dc4-446a531c05a4","resource":{"resourceType":"Patient","id":"93798745-af1c-4eb6-8dc4-446a531c05a4","meta":{"profile":["http://hl7.org/fhir/us/qicore/StructureDefinition/qicore-patient"]},"text":{"status":"generated","div":"<div xmlns=\"http://www.w3.org/1999/xhtml\"><div class=\"hapiHeaderText\">MedAntithromboticStart_eq1dayDuringEncIPwEd <b>NUMERFAIL - 3061 </b></div><table class=\"hapiPropertyTable\"><tbody><tr><td>Identifier</td><td>efb6046ae135027a64d1fa1873b580614d445125bf8cff274eca2380ad404ec9</td></tr><tr><td>Date of birth</td><td><span>26 September 1975</span></td></tr></tbody></table></div>"},"extension":[{"url":"http://hl7.org/fhir/us/core/StructureDefinition/us-core-race","extension":[{"url":"ombCategory","valueCoding":{"system":"urn:oid:2.16.840.1.113883.6.238","code":"2054-5","display":"Black or African American","userSelected":true}},{"url":"text","valueString":"Black or African American"}]},{"url":"http://hl7.org/fhir/us/core/StructureDefinition/us-core-ethnicity","extension":[{"url":"ombCategory","valueCoding":{"system":"urn:oid:2.16.840.1.113883.6.238","code":"2186-5","display":"Not Hispanic or Latino","userSelected":true}},{"url":"text","valueString":"Not Hispanic or Latino"}]}],"identifier":[{"type":{"coding":[{"system":"http://terminology.hl7.org/CodeSystem/v2-0203","code":"MR"}]},"system":"https://bonnie-fhir.healthit.gov/","value":"60f82c2e98086b570510e298"}],"active":true,"name":[{"use":"usual","family":"NUMERPass - 3061","given":["MedAntithromboticStarteq1dayDuringEncIPwEd"]}],"gender":"female","birthDate":"1976-09-26"},"request":{"method":"PUT","url":"Patient/93798745-af1c-4eb6-8dc4-446a531c05a4"}},{"fullUrl":"Claim/5ca62962b8484628b8de1ec5","resource":{"resourceType":"Claim","id":"5ca62962b8484628b8de1ec5","meta":{"profile":["http://hl7.org/fhir/us/qicore/StructureDefinition/qicore-claim"]},"status":"active","type":{"coding":[{"system":"http://terminology.hl7.org/CodeSystem/claim-type","code":"institutional"}]},"use":"claim","patient":{"reference":"Patient/d170a0a8-b5ad-4303-b6df-e304dd5f92ad"},"created":"2026-12-01","provider":{"reference":"Practitioner/d462ec98-7e96-4b19-8ce1-d28bde787668"},"priority":{"coding":[{"system":"http://terminology.hl7.org/CodeSystem/processpriority","code":"normal"}]},"diagnosis":[{"sequence":1,"diagnosisCodeableConcept":{"coding":[{"system":"http://hl7.org/fhir/sid/icd-10-cm","code":"I63.00"}]},"type":[{"coding":[{"system":"http://terminology.hl7.org/CodeSystem/ex-diagnosistype","code":"principal"}]}]}],"insurance":[{"sequence":1,"focal":true,"coverage":{"reference":"Coverage/5fa041661c76ba66d9959367"}}],"item":[{"sequence":1,"diagnosisSequence":[1],"productOrService":{"coding":[{"system":"http://terminology.hl7.org/CodeSystem/ex-USCLS","code":"99555"}]},"encounter":[{"reference":"Encounter/e92955f5-479d-42b4-9d2a-dfacb2a4af31"}]}]},"request":{"method":"PUT","url":"Claim/5ca62962b8484628b8de1ec5"}}]}