{"resourceType":"Bundle","id":"tests-daede659-35ef-47bc-90f0-7882f07f6c50-bundle","type":"transaction","entry":[{"fullUrl":"Organization/bc3b58b9-9c22-4102-8638-05699767bda5","resource":{"resourceType":"Organization","id":"bc3b58b9-9c22-4102-8638-05699767bda5","meta":{"profile":["http://hl7.org/fhir/us/qicore/StructureDefinition/qicore-organization"]},"identifier":[{"use":"temp","system":"urn:oid:2.16.840.1.113883.4.4","value":"21-3259825"}],"active":true,"type":[{"coding":[{"system":"http://terminology.hl7.org/CodeSystem/organization-type","code":"pay","display":"Payer"}]}],"name":"Blue Cross Blue Shield of Texas","telecom":[{"system":"phone","value":"(+1) 972-766-6900"}],"address":[{"use":"billing","type":"postal","line":["P.O. Box 660044"],"city":"Dallas","state":"TX","postalCode":"75266-0044","country":"USA"}]},"request":{"method":"PUT","url":"Organization/bc3b58b9-9c22-4102-8638-05699767bda5"}},{"fullUrl":"Procedure/0389a2ac-65db-4355-8db1-e9e8f6e480c7","resource":{"resourceType":"Procedure","id":"0389a2ac-65db-4355-8db1-e9e8f6e480c7","meta":{"profile":["http://hl7.org/fhir/us/qicore/StructureDefinition/qicore-procedure"]},"extension":[{"url":"http://hl7.org/fhir/us/qicore/StructureDefinition/qicore-recorded","valueDateTime":"2026-11-19T13:35:00Z"}],"status":"completed","code":{"coding":[{"system":"http://snomed.info/sct","code":"133918004"}]},"subject":{"reference":"Patient/daede659-35ef-47bc-90f0-7882f07f6c50"},"performedPeriod":{"start":"2026-11-18T10:01:00Z","end":"2026-11-18T10:01:00.000+00:00"}},"request":{"method":"PUT","url":"Procedure/0389a2ac-65db-4355-8db1-e9e8f6e480c7"}},{"fullUrl":"Encounter/5cbc73e0-88ad-4006-ad0f-510004ea28ba","resource":{"resourceType":"Encounter","id":"5cbc73e0-88ad-4006-ad0f-510004ea28ba","meta":{"profile":["http://hl7.org/fhir/us/qicore/StructureDefinition/qicore-encounter"]},"status":"finished","class":{"system":"http://terminology.hl7.org/CodeSystem/v3-ActCode","code":"IMP","display":"inpatient encounter"},"type":[{"coding":[{"system":"http://snomed.info/sct","code":"183452005"}]}],"subject":{"reference":"Patient/daede659-35ef-47bc-90f0-7882f07f6c50"},"period":{"start":"2026-11-18T11:00:00Z","end":"2026-11-20T08:15:00.000+00:00"},"reasonReference":[{"reference":"Condition/80e8080f-582e-47fa-a80d-1c26ba634879"}]},"request":{"method":"PUT","url":"Encounter/5cbc73e0-88ad-4006-ad0f-510004ea28ba"}},{"fullUrl":"Bundle/60f82c3098086b570510e2ec","resource":{"resourceType":"Bundle","id":"60f82c3098086b570510e2ec","type":"transaction","entry":[{"fullUrl":"https://madie.cms.gov/Patient/daede659-35ef-47bc-90f0-7882f07f6c50","resource":{"resourceType":"Patient","id":"daede659-35ef-47bc-90f0-7882f07f6c50","meta":{"profile":["http://hl7.org/fhir/us/qicore/StructureDefinition/qicore-patient"]},"text":{"status":"generated","div":"<div xmlns=\"http://www.w3.org/1999/xhtml\"><div class=\"hapiHeaderText\">CMP_DayOf_RelvPerStart_OnObsEnd_EDEndLT1hrB4Obs_ObsEndLT1hrB4IP <b>DENEXPASS </b></div><table class=\"hapiPropertyTable\"><tbody><tr><td>Date of birth</td><td><span>01 January 1980</span></td></tr></tbody></table></div>"},"extension":[{"url":"http://hl7.org/fhir/us/core/StructureDefinition/us-core-race","extension":[{"url":"ombCategory","valueCoding":{"system":"urn:oid:2.16.840.1.113883.6.238","code":"2106-3","display":"White","userSelected":true}},{"url":"text","valueString":"White"}]},{"url":"http://hl7.org/fhir/us/core/StructureDefinition/us-core-ethnicity","extension":[{"url":"ombCategory","valueCoding":{"system":"urn:oid:2.16.840.1.113883.6.238","code":"2186-5","display":"Not Hispanic or Latino","userSelected":true}},{"url":"text","valueString":"Not Hispanic or Latino"}]}],"identifier":[{"type":{"coding":[{"system":"http://terminology.hl7.org/CodeSystem/v2-0203","code":"MR"}]},"system":"https://bonnie-fhir.healthit.gov/","value":"60f82c3098086b570510e2ec"}],"active":true,"name":[{"use":"usual","family":"DENEXPass","given":["CMPDayOfRelvPerStartOnObsEndEDEndLT1hrB4ObsObsEndLT1hrB4IP"]}],"gender":"female","birthDate":"1981-01-01"},"request":{"method":"PUT","url":"Patient/daede659-35ef-47bc-90f0-7882f07f6c50"}},{"fullUrl":"https://madie.cms.gov/Encounter/bf88c62d-56b8-4ade-a5d7-710727710733","resource":{"resourceType":"Encounter","id":"bf88c62d-56b8-4ade-a5d7-710727710733","meta":{"profile":["http://hl7.org/fhir/us/qicore/StructureDefinition/qicore-encounter"]},"status":"finished","class":{"system":"http://terminology.hl7.org/CodeSystem/v3-ActCode","code":"EMER","display":"emergency"},"type":[{"coding":[{"system":"http://snomed.info/sct","code":"4525004"}]}],"subject":{"reference":"Patient/daede659-35ef-47bc-90f0-7882f07f6c50"},"period":{"start":"2026-11-18T07:00:00Z","end":"2026-11-18T08:01:00.000+00:00"},"diagnosis":[{"condition":{"reference":"Condition/80e8080f-582e-47fa-a80d-1c26ba634879"},"use":{"coding":[{"system":"http://terminology.hl7.org/CodeSystem/diagnosis-role","code":"billing","display":"Billing"}]},"rank":1}]},"request":{"method":"PUT","url":"Encounter/bf88c62d-56b8-4ade-a5d7-710727710733"}},{"fullUrl":"https://madie.cms.gov/Encounter/d28b4deb-b826-499f-9770-bfeebdec4d9f","resource":{"resourceType":"Encounter","id":"d28b4deb-b826-499f-9770-bfeebdec4d9f","meta":{"profile":["http://hl7.org/fhir/us/qicore/StructureDefinition/qicore-encounter"]},"status":"finished","class":{"system":"http://terminology.hl7.org/CodeSystem/v3-ActCode","code":"OBSENC","display":"observation encounter"},"type":[{"coding":[{"system":"http://snomed.info/sct","code":"448951000124107"}]}],"subject":{"reference":"Patient/daede659-35ef-47bc-90f0-7882f07f6c50"},"period":{"start":"2026-11-18T09:00:00Z","end":"2026-11-18T10:01:00.000+00:00"}},"request":{"method":"PUT","url":"Encounter/d28b4deb-b826-499f-9770-bfeebdec4d9f"}},{"fullUrl":"https://madie.cms.gov/Encounter/5cbc73e0-88ad-4006-ad0f-510004ea28ba","resource":{"resourceType":"Encounter","id":"5cbc73e0-88ad-4006-ad0f-510004ea28ba","meta":{"profile":["http://hl7.org/fhir/us/qicore/StructureDefinition/qicore-encounter"]},"status":"finished","class":{"system":"http://terminology.hl7.org/CodeSystem/v3-ActCode","code":"IMP","display":"inpatient encounter"},"type":[{"coding":[{"system":"http://snomed.info/sct","code":"183452005"}]}],"subject":{"reference":"Patient/daede659-35ef-47bc-90f0-7882f07f6c50"},"period":{"start":"2026-11-18T11:00:00Z","end":"2026-11-20T08:15:00.000+00:00"},"reasonReference":[{"reference":"Condition/80e8080f-582e-47fa-a80d-1c26ba634879"}]},"request":{"method":"PUT","url":"Encounter/5cbc73e0-88ad-4006-ad0f-510004ea28ba"}},{"fullUrl":"https://madie.cms.gov/Procedure/0389a2ac-65db-4355-8db1-e9e8f6e480c7","resource":{"resourceType":"Procedure","id":"0389a2ac-65db-4355-8db1-e9e8f6e480c7","meta":{"profile":["http://hl7.org/fhir/us/qicore/StructureDefinition/qicore-procedure"]},"extension":[{"url":"http://hl7.org/fhir/us/qicore/StructureDefinition/qicore-recorded","valueDateTime":"2026-11-19T13:35:00Z"}],"status":"completed","code":{"coding":[{"system":"http://snomed.info/sct","code":"133918004"}]},"subject":{"reference":"Patient/daede659-35ef-47bc-90f0-7882f07f6c50"},"performedPeriod":{"start":"2026-11-18T10:01:00Z","end":"2026-11-18T10:01:00.000+00:00"}},"request":{"method":"PUT","url":"Procedure/0389a2ac-65db-4355-8db1-e9e8f6e480c7"}},{"fullUrl":"https://madie.cms.gov/Condition/80e8080f-582e-47fa-a80d-1c26ba634879","resource":{"resourceType":"Condition","id":"80e8080f-582e-47fa-a80d-1c26ba634879","meta":{"profile":["http://hl7.org/fhir/us/qicore/StructureDefinition/qicore-condition-encounter-diagnosis"]},"clinicalStatus":{"coding":[{"system":"http://terminology.hl7.org/CodeSystem/condition-clinical","code":"active"}]},"verificationStatus":{"coding":[{"system":"http://terminology.hl7.org/CodeSystem/condition-ver-status","code":"confirmed"}]},"category":[{"coding":[{"system":"http://terminology.hl7.org/CodeSystem/condition-category","code":"encounter-diagnosis","display":"Encounter Diagnosis"}]}],"code":{"coding":[{"system":"http://snomed.info/sct","version":"2020-09","code":"111297002","display":"Nonparalytic stroke (disorder)","userSelected":true}]},"subject":{"reference":"Patient/daede659-35ef-47bc-90f0-7882f07f6c50"},"encounter":{"reference":"Encounter/5cbc73e0-88ad-4006-ad0f-510004ea28ba"},"recordedDate":"2026-08-13T08:00:00Z"},"request":{"method":"PUT","url":"Condition/80e8080f-582e-47fa-a80d-1c26ba634879"}},{"fullUrl":"https://madie.cms.gov/claim/5ca62962b8484628b8de1ec5","resource":{"resourceType":"Claim","id":"5ca62962b8484628b8de1ec5","meta":{"profile":["http://hl7.org/fhir/us/qicore/StructureDefinition/qicore-claim"]},"status":"active","type":{"coding":[{"system":"http://terminology.hl7.org/CodeSystem/claim-type","code":"institutional"}]},"use":"claim","patient":{"reference":"Patient/daede659-35ef-47bc-90f0-7882f07f6c50"},"created":"2026-12-01","provider":{"reference":"Practitioner/practitioner-123456"},"priority":{"coding":[{"system":"http://terminology.hl7.org/CodeSystem/processpriority","code":"normal"}]},"diagnosis":[{"sequence":1,"diagnosisCodeableConcept":{"coding":[{"system":"http://hl7.org/fhir/sid/icd-10-cm","code":"I63.00"}]},"type":[{"coding":[{"system":"http://terminology.hl7.org/CodeSystem/ex-diagnosistype","code":"principal"}]}]}],"insurance":[{"sequence":1,"focal":true,"coverage":{"reference":"Coverage/5fa041661c76ba66d9959367"}}],"item":[{"sequence":1,"diagnosisSequence":[1],"productOrService":{"coding":[{"system":"http://terminology.hl7.org/CodeSystem/ex-USCLS","code":"99555"}]},"encounter":[{"reference":"Encounter/5cbc73e0-88ad-4006-ad0f-510004ea28ba"}]}]},"request":{"method":"PUT","url":"Claim/5ca62962b8484628b8de1ec5"}},{"fullUrl":"https://madie.cms.gov/Coverage/6ed95937-2b62-4752-93dd-1b0d2a04389b","resource":{"resourceType":"Coverage","id":"6ed95937-2b62-4752-93dd-1b0d2a04389b","meta":{"profile":["http://hl7.org/fhir/us/qicore/StructureDefinition/qicore-coverage"]},"status":"active","beneficiary":{"reference":"Patient/daede659-35ef-47bc-90f0-7882f07f6c50"},"payor":[{"reference":"Organization/bc3b58b9-9c22-4102-8638-05699767bda5"}]},"request":{"method":"PUT","url":"Coverage/6ed95937-2b62-4752-93dd-1b0d2a04389b"}},{"fullUrl":"https://madie.cms.gov/Organization/bc3b58b9-9c22-4102-8638-05699767bda5","resource":{"resourceType":"Organization","id":"bc3b58b9-9c22-4102-8638-05699767bda5","meta":{"profile":["http://hl7.org/fhir/us/qicore/StructureDefinition/qicore-organization"]},"identifier":[{"use":"temp","system":"urn:oid:2.16.840.1.113883.4.4","value":"21-3259825"}],"active":true,"type":[{"coding":[{"system":"http://terminology.hl7.org/CodeSystem/organization-type","code":"pay","display":"Payer"}]}],"name":"Blue Cross Blue Shield of Texas","telecom":[{"system":"phone","value":"(+1) 972-766-6900"}],"address":[{"use":"billing","type":"postal","line":["P.O. Box 660044"],"city":"Dallas","state":"TX","postalCode":"75266-0044","country":"USA"}]},"request":{"method":"PUT","url":"Organization/bc3b58b9-9c22-4102-8638-05699767bda5"}},{"fullUrl":"https://madie.cms.gov/MeasureReport/d2b729ee-c20f-4278-8cab-534310250cb3","resource":{"resourceType":"MeasureReport","id":"d2b729ee-c20f-4278-8cab-534310250cb3","meta":{"profile":["http://hl7.org/fhir/us/cqfmeasures/StructureDefinition/test-case-cqfm"]},"contained":[{"resourceType":"Parameters","id":"9e97fe91-8a97-4516-b7b0-7c2130db185d-parameters","parameter":[{"name":"subject","valueString":"daede659-35ef-47bc-90f0-7882f07f6c50"}]}],"extension":[{"url":"http://hl7.org/fhir/StructureDefinition/cqf-inputParameters","valueReference":{"reference":"#9e97fe91-8a97-4516-b7b0-7c2130db185d-parameters"}},{"url":"http://hl7.org/fhir/us/cqfmeasures/StructureDefinition/cqfm-testCaseDescription","valueMarkdown":"Patient receives comfort measures performed on the day of hospital arrival, on Obs end. ED ends less than 1 hour before Obs Start, Obs ends less than 1 hour before IP start.\n"}],"modifierExtension":[{"url":"http://hl7.org/fhir/us/cqfmeasures/StructureDefinition/cqfm-isTestCase","valueBoolean":true}],"status":"complete","type":"individual","measure":"https://madie.cms.gov/Measure/CMS72FHIRSTKAntithromboticDay2","period":{"start":"2026-01-01","end":"2026-12-31"},"group":[{"id":"Group_1","population":[{"id":"InitialPopulation_1","code":{"coding":[{"system":"http://terminology.hl7.org/CodeSystem/measure-population","code":"initial-population","display":"Initial Population"}]},"count":1},{"id":"Denominator_1","code":{"coding":[{"system":"http://terminology.hl7.org/CodeSystem/measure-population","code":"denominator","display":"Denominator"}]},"count":1},{"id":"DenominatorExclusion_1","code":{"coding":[{"system":"http://terminology.hl7.org/CodeSystem/measure-population","code":"denominator-exclusion","display":"Denominator Exclusion"}]},"count":1},{"id":"Numerator_1","code":{"coding":[{"system":"http://terminology.hl7.org/CodeSystem/measure-population","code":"numerator","display":"Numerator"}]},"count":0},{"id":"DenominatorException_1","code":{"coding":[{"system":"http://terminology.hl7.org/CodeSystem/measure-population","code":"denominator-exception","display":"Denominator Exception"}]},"count":0}],"measureScore":{"value":0.0}}],"evaluatedResource":[{"reference":"Patient/daede659-35ef-47bc-90f0-7882f07f6c50"},{"reference":"Encounter/bf88c62d-56b8-4ade-a5d7-710727710733"},{"reference":"Encounter/d28b4deb-b826-499f-9770-bfeebdec4d9f"},{"reference":"Encounter/5cbc73e0-88ad-4006-ad0f-510004ea28ba"},{"reference":"Procedure/0389a2ac-65db-4355-8db1-e9e8f6e480c7"},{"reference":"Condition/80e8080f-582e-47fa-a80d-1c26ba634879"},{"reference":"Claim/5ca62962b8484628b8de1ec5"},{"reference":"Coverage/6ed95937-2b62-4752-93dd-1b0d2a04389b"},{"reference":"Organization/bc3b58b9-9c22-4102-8638-05699767bda5"}]},"request":{"method":"PUT","url":"MeasureReport/d2b729ee-c20f-4278-8cab-534310250cb3"}}]},"request":{"method":"PUT","url":"Bundle/60f82c3098086b570510e2ec"}},{"fullUrl":"Condition/80e8080f-582e-47fa-a80d-1c26ba634879","resource":{"resourceType":"Condition","id":"80e8080f-582e-47fa-a80d-1c26ba634879","meta":{"profile":["http://hl7.org/fhir/us/qicore/StructureDefinition/qicore-condition-encounter-diagnosis"]},"clinicalStatus":{"coding":[{"system":"http://terminology.hl7.org/CodeSystem/condition-clinical","code":"active"}]},"verificationStatus":{"coding":[{"system":"http://terminology.hl7.org/CodeSystem/condition-ver-status","code":"confirmed"}]},"category":[{"coding":[{"system":"http://terminology.hl7.org/CodeSystem/condition-category","code":"encounter-diagnosis","display":"Encounter Diagnosis"}]}],"code":{"coding":[{"system":"http://snomed.info/sct","version":"2020-09","code":"111297002","display":"Nonparalytic stroke (disorder)","userSelected":true}]},"subject":{"reference":"Patient/daede659-35ef-47bc-90f0-7882f07f6c50"},"encounter":{"reference":"Encounter/5cbc73e0-88ad-4006-ad0f-510004ea28ba"},"recordedDate":"2026-08-13T08:00:00Z"},"request":{"method":"PUT","url":"Condition/80e8080f-582e-47fa-a80d-1c26ba634879"}},{"fullUrl":"Coverage/6ed95937-2b62-4752-93dd-1b0d2a04389b","resource":{"resourceType":"Coverage","id":"6ed95937-2b62-4752-93dd-1b0d2a04389b","meta":{"profile":["http://hl7.org/fhir/us/qicore/StructureDefinition/qicore-coverage"]},"status":"active","beneficiary":{"reference":"Patient/daede659-35ef-47bc-90f0-7882f07f6c50"},"payor":[{"reference":"Organization/bc3b58b9-9c22-4102-8638-05699767bda5"}]},"request":{"method":"PUT","url":"Coverage/6ed95937-2b62-4752-93dd-1b0d2a04389b"}},{"fullUrl":"Encounter/d28b4deb-b826-499f-9770-bfeebdec4d9f","resource":{"resourceType":"Encounter","id":"d28b4deb-b826-499f-9770-bfeebdec4d9f","meta":{"profile":["http://hl7.org/fhir/us/qicore/StructureDefinition/qicore-encounter"]},"status":"finished","class":{"system":"http://terminology.hl7.org/CodeSystem/v3-ActCode","code":"OBSENC","display":"observation encounter"},"type":[{"coding":[{"system":"http://snomed.info/sct","code":"448951000124107"}]}],"subject":{"reference":"Patient/daede659-35ef-47bc-90f0-7882f07f6c50"},"period":{"start":"2026-11-18T09:00:00Z","end":"2026-11-18T10:01:00.000+00:00"}},"request":{"method":"PUT","url":"Encounter/d28b4deb-b826-499f-9770-bfeebdec4d9f"}},{"fullUrl":"Encounter/bf88c62d-56b8-4ade-a5d7-710727710733","resource":{"resourceType":"Encounter","id":"bf88c62d-56b8-4ade-a5d7-710727710733","meta":{"profile":["http://hl7.org/fhir/us/qicore/StructureDefinition/qicore-encounter"]},"status":"finished","class":{"system":"http://terminology.hl7.org/CodeSystem/v3-ActCode","code":"EMER","display":"emergency"},"type":[{"coding":[{"system":"http://snomed.info/sct","code":"4525004"}]}],"subject":{"reference":"Patient/daede659-35ef-47bc-90f0-7882f07f6c50"},"period":{"start":"2026-11-18T07:00:00Z","end":"2026-11-18T08:01:00.000+00:00"},"diagnosis":[{"condition":{"reference":"Condition/80e8080f-582e-47fa-a80d-1c26ba634879"},"use":{"coding":[{"system":"http://terminology.hl7.org/CodeSystem/diagnosis-role","code":"billing","display":"Billing"}]},"rank":1}]},"request":{"method":"PUT","url":"Encounter/bf88c62d-56b8-4ade-a5d7-710727710733"}},{"fullUrl":"Patient/daede659-35ef-47bc-90f0-7882f07f6c50","resource":{"resourceType":"Patient","id":"daede659-35ef-47bc-90f0-7882f07f6c50","meta":{"profile":["http://hl7.org/fhir/us/qicore/StructureDefinition/qicore-patient"]},"text":{"status":"generated","div":"<div xmlns=\"http://www.w3.org/1999/xhtml\"><div class=\"hapiHeaderText\">CMP_DayOf_RelvPerStart_OnObsEnd_EDEndLT1hrB4Obs_ObsEndLT1hrB4IP <b>DENEXPASS </b></div><table class=\"hapiPropertyTable\"><tbody><tr><td>Date of birth</td><td><span>01 January 1980</span></td></tr></tbody></table></div>"},"extension":[{"url":"http://hl7.org/fhir/us/core/StructureDefinition/us-core-race","extension":[{"url":"ombCategory","valueCoding":{"system":"urn:oid:2.16.840.1.113883.6.238","code":"2106-3","display":"White","userSelected":true}},{"url":"text","valueString":"White"}]},{"url":"http://hl7.org/fhir/us/core/StructureDefinition/us-core-ethnicity","extension":[{"url":"ombCategory","valueCoding":{"system":"urn:oid:2.16.840.1.113883.6.238","code":"2186-5","display":"Not Hispanic or Latino","userSelected":true}},{"url":"text","valueString":"Not Hispanic or Latino"}]}],"identifier":[{"type":{"coding":[{"system":"http://terminology.hl7.org/CodeSystem/v2-0203","code":"MR"}]},"system":"https://bonnie-fhir.healthit.gov/","value":"60f82c3098086b570510e2ec"}],"active":true,"name":[{"use":"usual","family":"DENEXPass","given":["CMPDayOfRelvPerStartOnObsEndEDEndLT1hrB4ObsObsEndLT1hrB4IP"]}],"gender":"female","birthDate":"1981-01-01"},"request":{"method":"PUT","url":"Patient/daede659-35ef-47bc-90f0-7882f07f6c50"}},{"fullUrl":"Claim/5ca62962b8484628b8de1ec5","resource":{"resourceType":"Claim","id":"5ca62962b8484628b8de1ec5","meta":{"profile":["http://hl7.org/fhir/us/qicore/StructureDefinition/qicore-claim"]},"status":"active","type":{"coding":[{"system":"http://terminology.hl7.org/CodeSystem/claim-type","code":"institutional"}]},"use":"claim","patient":{"reference":"Patient/daede659-35ef-47bc-90f0-7882f07f6c50"},"created":"2026-12-01","provider":{"reference":"Practitioner/practitioner-123456"},"priority":{"coding":[{"system":"http://terminology.hl7.org/CodeSystem/processpriority","code":"normal"}]},"diagnosis":[{"sequence":1,"diagnosisCodeableConcept":{"coding":[{"system":"http://hl7.org/fhir/sid/icd-10-cm","code":"I63.00"}]},"type":[{"coding":[{"system":"http://terminology.hl7.org/CodeSystem/ex-diagnosistype","code":"principal"}]}]}],"insurance":[{"sequence":1,"focal":true,"coverage":{"reference":"Coverage/5fa041661c76ba66d9959367"}}],"item":[{"sequence":1,"diagnosisSequence":[1],"productOrService":{"coding":[{"system":"http://terminology.hl7.org/CodeSystem/ex-USCLS","code":"99555"}]},"encounter":[{"reference":"Encounter/5cbc73e0-88ad-4006-ad0f-510004ea28ba"}]}]},"request":{"method":"PUT","url":"Claim/5ca62962b8484628b8de1ec5"}},{"fullUrl":"MeasureReport/d2b729ee-c20f-4278-8cab-534310250cb3","resource":{"resourceType":"MeasureReport","id":"d2b729ee-c20f-4278-8cab-534310250cb3","meta":{"profile":["http://hl7.org/fhir/us/cqfmeasures/StructureDefinition/test-case-cqfm"]},"contained":[{"resourceType":"Parameters","id":"9e97fe91-8a97-4516-b7b0-7c2130db185d-parameters","parameter":[{"name":"subject","valueString":"daede659-35ef-47bc-90f0-7882f07f6c50"}]}],"extension":[{"url":"http://hl7.org/fhir/StructureDefinition/cqf-inputParameters","valueReference":{"reference":"#9e97fe91-8a97-4516-b7b0-7c2130db185d-parameters"}},{"url":"http://hl7.org/fhir/us/cqfmeasures/StructureDefinition/cqfm-testCaseDescription","valueMarkdown":"Patient receives comfort measures performed on the day of hospital arrival, on Obs end. ED ends less than 1 hour before Obs Start, Obs ends less than 1 hour before IP start.\n"}],"modifierExtension":[{"url":"http://hl7.org/fhir/us/cqfmeasures/StructureDefinition/cqfm-isTestCase","valueBoolean":true}],"status":"complete","type":"individual","measure":"https://madie.cms.gov/Measure/CMS72FHIRSTKAntithromboticDay2","period":{"start":"2026-01-01","end":"2026-12-31"},"group":[{"id":"Group_1","population":[{"id":"InitialPopulation_1","code":{"coding":[{"system":"http://terminology.hl7.org/CodeSystem/measure-population","code":"initial-population","display":"Initial Population"}]},"count":1},{"id":"Denominator_1","code":{"coding":[{"system":"http://terminology.hl7.org/CodeSystem/measure-population","code":"denominator","display":"Denominator"}]},"count":1},{"id":"DenominatorExclusion_1","code":{"coding":[{"system":"http://terminology.hl7.org/CodeSystem/measure-population","code":"denominator-exclusion","display":"Denominator Exclusion"}]},"count":1},{"id":"Numerator_1","code":{"coding":[{"system":"http://terminology.hl7.org/CodeSystem/measure-population","code":"numerator","display":"Numerator"}]},"count":0},{"id":"DenominatorException_1","code":{"coding":[{"system":"http://terminology.hl7.org/CodeSystem/measure-population","code":"denominator-exception","display":"Denominator Exception"}]},"count":0}],"measureScore":{"value":0.0}}],"evaluatedResource":[{"reference":"Patient/daede659-35ef-47bc-90f0-7882f07f6c50"},{"reference":"Encounter/bf88c62d-56b8-4ade-a5d7-710727710733"},{"reference":"Encounter/d28b4deb-b826-499f-9770-bfeebdec4d9f"},{"reference":"Encounter/5cbc73e0-88ad-4006-ad0f-510004ea28ba"},{"reference":"Procedure/0389a2ac-65db-4355-8db1-e9e8f6e480c7"},{"reference":"Condition/80e8080f-582e-47fa-a80d-1c26ba634879"},{"reference":"Claim/5ca62962b8484628b8de1ec5"},{"reference":"Coverage/6ed95937-2b62-4752-93dd-1b0d2a04389b"},{"reference":"Organization/bc3b58b9-9c22-4102-8638-05699767bda5"}]},"request":{"method":"PUT","url":"MeasureReport/d2b729ee-c20f-4278-8cab-534310250cb3"}}]}