{"resourceType":"Bundle","id":"tests-871d38c3-6822-4136-8fe0-2ed0f226888f-bundle","type":"transaction","entry":[{"fullUrl":"Patient/871d38c3-6822-4136-8fe0-2ed0f226888f","resource":{"resourceType":"Patient","id":"871d38c3-6822-4136-8fe0-2ed0f226888f","meta":{"profile":["http://hl7.org/fhir/us/qicore/StructureDefinition/qicore-patient"]},"text":{"status":"generated","div":"<div xmlns=\"http://www.w3.org/1999/xhtml\"><div class=\"hapiHeaderText\">EncDx=IschemicStroke <b>IPPFAIL </b></div><table class=\"hapiPropertyTable\"><tbody><tr><td>Identifier</td><td>89a98bc05b4643f22db6eeb5f4cd4a58</td></tr><tr><td>Date of birth</td><td><span>20 August 1994</span></td></tr></tbody></table></div>"},"extension":[{"url":"http://hl7.org/fhir/us/core/StructureDefinition/us-core-race","extension":[{"url":"ombCategory","valueCoding":{"system":"urn:oid:2.16.840.1.113883.6.238","code":"1002-5","display":"American Indian or Alaska Native","userSelected":true}},{"url":"text","valueString":"American Indian or Alaska Native"}]},{"url":"http://hl7.org/fhir/us/core/StructureDefinition/us-core-ethnicity","extension":[{"url":"ombCategory","valueCoding":{"system":"urn:oid:2.16.840.1.113883.6.238","code":"2186-5","display":"Not Hispanic or Latino","userSelected":true}},{"url":"text","valueString":"Not Hispanic or Latino"}]}],"identifier":[{"type":{"coding":[{"system":"http://terminology.hl7.org/CodeSystem/v2-0203","code":"MR"}]},"system":"https://bonnie-fhir.healthit.gov/","value":"60f82c2e98086b570510e275"}],"active":true,"name":[{"use":"usual","family":"IPPFail","given":["EncDxIschemicStroke"]}],"gender":"male","birthDate":"1995-08-20"},"request":{"method":"PUT","url":"Patient/871d38c3-6822-4136-8fe0-2ed0f226888f"}},{"fullUrl":"Coverage/8db7575c-529f-4f7e-94cf-a91212e3ae1b","resource":{"resourceType":"Coverage","id":"8db7575c-529f-4f7e-94cf-a91212e3ae1b","status":"active","beneficiary":{"reference":"Patient/871d38c3-6822-4136-8fe0-2ed0f226888f"},"period":{"start":"1995-08-20T07:00:00Z"},"payor":[{"reference":"Organization/09c1ba8a-ec9c-4168-ac3f-96824114c020"}]},"request":{"method":"PUT","url":"Coverage/8db7575c-529f-4f7e-94cf-a91212e3ae1b"}},{"fullUrl":"Bundle/60f82c2e98086b570510e275","resource":{"resourceType":"Bundle","id":"60f82c2e98086b570510e275","type":"transaction","entry":[{"fullUrl":"https://madie.cms.gov/Patient/871d38c3-6822-4136-8fe0-2ed0f226888f","resource":{"resourceType":"Patient","id":"871d38c3-6822-4136-8fe0-2ed0f226888f","meta":{"profile":["http://hl7.org/fhir/us/qicore/StructureDefinition/qicore-patient"]},"text":{"status":"generated","div":"<div xmlns=\"http://www.w3.org/1999/xhtml\"><div class=\"hapiHeaderText\">EncDx=IschemicStroke <b>IPPFAIL </b></div><table class=\"hapiPropertyTable\"><tbody><tr><td>Identifier</td><td>89a98bc05b4643f22db6eeb5f4cd4a58</td></tr><tr><td>Date of birth</td><td><span>20 August 1994</span></td></tr></tbody></table></div>"},"extension":[{"url":"http://hl7.org/fhir/us/core/StructureDefinition/us-core-race","extension":[{"url":"ombCategory","valueCoding":{"system":"urn:oid:2.16.840.1.113883.6.238","code":"1002-5","display":"American Indian or Alaska Native","userSelected":true}},{"url":"text","valueString":"American Indian or Alaska Native"}]},{"url":"http://hl7.org/fhir/us/core/StructureDefinition/us-core-ethnicity","extension":[{"url":"ombCategory","valueCoding":{"system":"urn:oid:2.16.840.1.113883.6.238","code":"2186-5","display":"Not Hispanic or Latino","userSelected":true}},{"url":"text","valueString":"Not Hispanic or Latino"}]}],"identifier":[{"type":{"coding":[{"system":"http://terminology.hl7.org/CodeSystem/v2-0203","code":"MR"}]},"system":"https://bonnie-fhir.healthit.gov/","value":"60f82c2e98086b570510e275"}],"active":true,"name":[{"use":"usual","family":"IPPFail","given":["EncDxIschemicStroke"]}],"gender":"male","birthDate":"1995-08-20"},"request":{"method":"PUT","url":"Patient/871d38c3-6822-4136-8fe0-2ed0f226888f"}},{"fullUrl":"https://madie.cms.gov/Encounter/ae3720db-088d-4058-9b62-ba80844d3625","resource":{"resourceType":"Encounter","id":"ae3720db-088d-4058-9b62-ba80844d3625","meta":{"profile":["http://hl7.org/fhir/us/qicore/StructureDefinition/qicore-encounter"]},"status":"finished","class":{"system":"http://terminology.hl7.org/CodeSystem/v3-ActCode","code":"IMP","display":"inpatient encounter"},"type":[{"coding":[{"system":"http://snomed.info/sct","code":"32485007"}]}],"subject":{"reference":"Patient/871d38c3-6822-4136-8fe0-2ed0f226888f"},"period":{"start":"2026-08-21T00:00:00Z","end":"2026-12-18T23:59:00.000+00:00"},"length":{"value":119,"unit":"days"},"reasonReference":[{"reference":"Condition/f9387f1b-77e1-4569-b04f-29a465eece8d"}]},"request":{"method":"PUT","url":"Encounter/ae3720db-088d-4058-9b62-ba80844d3625"}},{"fullUrl":"https://madie.cms.gov/Coverage/8db7575c-529f-4f7e-94cf-a91212e3ae1b","resource":{"resourceType":"Coverage","id":"8db7575c-529f-4f7e-94cf-a91212e3ae1b","status":"active","beneficiary":{"reference":"Patient/871d38c3-6822-4136-8fe0-2ed0f226888f"},"period":{"start":"1995-08-20T07:00:00Z"},"payor":[{"reference":"Organization/09c1ba8a-ec9c-4168-ac3f-96824114c020"}]},"request":{"method":"PUT","url":"Coverage/8db7575c-529f-4f7e-94cf-a91212e3ae1b"}},{"fullUrl":"https://madie.cms.gov/Condition/f9387f1b-77e1-4569-b04f-29a465eece8d","resource":{"resourceType":"Condition","id":"f9387f1b-77e1-4569-b04f-29a465eece8d","meta":{"profile":["http://hl7.org/fhir/us/qicore/StructureDefinition/qicore-condition-encounter-diagnosis"]},"clinicalStatus":{"coding":[{"system":"http://terminology.hl7.org/CodeSystem/condition-clinical","code":"active"}]},"verificationStatus":{"coding":[{"system":"http://terminology.hl7.org/CodeSystem/condition-ver-status","code":"confirmed"}]},"category":[{"coding":[{"system":"http://terminology.hl7.org/CodeSystem/condition-category","code":"encounter-diagnosis","display":"Encounter Diagnosis"}]}],"code":{"coding":[{"system":"http://snomed.info/sct","version":"2020-09","code":"111297002","display":"Nonparalytic stroke (disorder)","userSelected":true}]},"subject":{"reference":"Patient/871d38c3-6822-4136-8fe0-2ed0f226888f"},"encounter":{"reference":"Encounter/ae3720db-088d-4058-9b62-ba80844d3625"},"recordedDate":"2026-08-16T08:00:00Z"},"request":{"method":"PUT","url":"Condition/f9387f1b-77e1-4569-b04f-29a465eece8d"}},{"fullUrl":"https://madie.cms.gov/claim/5ca62962b8484628b8de1ec5","resource":{"resourceType":"Claim","id":"5ca62962b8484628b8de1ec5","meta":{"profile":["http://hl7.org/fhir/us/qicore/StructureDefinition/qicore-claim"]},"status":"active","type":{"coding":[{"system":"http://terminology.hl7.org/CodeSystem/claim-type","code":"institutional"}]},"use":"claim","patient":{"reference":"Patient/871d38c3-6822-4136-8fe0-2ed0f226888f"},"created":"2026-12-01","provider":{"reference":"Practitioner/949f0b53-cc06-4f5c-8aeb-52cb5f17de09"},"priority":{"coding":[{"system":"http://terminology.hl7.org/CodeSystem/processpriority","code":"normal"}]},"diagnosis":[{"sequence":2,"diagnosisCodeableConcept":{"coding":[{"system":"http://hl7.org/fhir/sid/icd-10-cm","code":"I63.00"}]},"type":[{"coding":[{"system":"http://terminology.hl7.org/CodeSystem/ex-diagnosistype","code":"principal"}]}]}],"insurance":[{"sequence":2,"focal":true,"coverage":{"reference":"Coverage/5fa041661c76ba66d9959367"}}],"item":[{"sequence":1,"diagnosisSequence":[1],"productOrService":{"coding":[{"system":"http://terminology.hl7.org/CodeSystem/ex-USCLS","code":"99555"}]},"encounter":[{"reference":"Encounter/ae3720db-088d-4058-9b62-ba80844d3625"}]}]},"request":{"method":"PUT","url":"Claim/5ca62962b8484628b8de1ec5"}},{"fullUrl":"https://madie.cms.gov/Organization/09c1ba8a-ec9c-4168-ac3f-96824114c020","resource":{"resourceType":"Organization","id":"09c1ba8a-ec9c-4168-ac3f-96824114c020","meta":{"profile":["http://hl7.org/fhir/us/qicore/StructureDefinition/qicore-organization"]},"identifier":[{"use":"temp","system":"urn:oid:2.16.840.1.113883.4.4","value":"21-3259825"}],"active":true,"type":[{"coding":[{"system":"http://terminology.hl7.org/CodeSystem/organization-type","code":"pay","display":"Payer"}]}],"name":"Blue Cross Blue Shield of Texas","telecom":[{"system":"phone","value":"(+1) 972-766-6900"}],"address":[{"use":"billing","type":"postal","line":["P.O. Box 660044"],"city":"Dallas","state":"TX","postalCode":"75266-0044","country":"USA"}]},"request":{"method":"PUT","url":"Organization/09c1ba8a-ec9c-4168-ac3f-96824114c020"}},{"fullUrl":"https://madie.cms.gov/Practitioner/949f0b53-cc06-4f5c-8aeb-52cb5f17de09","resource":{"resourceType":"Practitioner","id":"949f0b53-cc06-4f5c-8aeb-52cb5f17de09","identifier":[{"system":"http://hl7.org/fhir/sid/us-npi","value":"123456"}],"name":[{"family":"Evil","prefix":["Dr"]}]},"request":{"method":"PUT","url":"Practitioner/949f0b53-cc06-4f5c-8aeb-52cb5f17de09"}},{"fullUrl":"https://madie.cms.gov/MeasureReport/840c6e95-6bfe-491e-b39d-3c3638a0bc6d","resource":{"resourceType":"MeasureReport","id":"840c6e95-6bfe-491e-b39d-3c3638a0bc6d","meta":{"profile":["http://hl7.org/fhir/us/cqfmeasures/StructureDefinition/test-case-cqfm"]},"contained":[{"resourceType":"Parameters","id":"be73fc5e-695c-4a58-9f00-9186ecd068f9-parameters","parameter":[{"name":"subject","valueString":"871d38c3-6822-4136-8fe0-2ed0f226888f"}]}],"extension":[{"url":"http://hl7.org/fhir/StructureDefinition/cqf-inputParameters","valueReference":{"reference":"#be73fc5e-695c-4a58-9f00-9186ecd068f9-parameters"}},{"url":"http://hl7.org/fhir/us/cqfmeasures/StructureDefinition/cqfm-testCaseDescription","valueMarkdown":"EncDx=IschemicStroke    LOS<120\n"}],"modifierExtension":[{"url":"http://hl7.org/fhir/us/cqfmeasures/StructureDefinition/cqfm-isTestCase","valueBoolean":true}],"status":"complete","type":"individual","measure":"https://madie.cms.gov/Measure/CMS72FHIRSTKAntithromboticDay2","period":{"start":"2026-01-01","end":"2026-12-31"},"group":[{"id":"Group_1","population":[{"id":"InitialPopulation_1","code":{"coding":[{"system":"http://terminology.hl7.org/CodeSystem/measure-population","code":"initial-population","display":"Initial Population"}]},"count":0},{"id":"Denominator_1","code":{"coding":[{"system":"http://terminology.hl7.org/CodeSystem/measure-population","code":"denominator","display":"Denominator"}]},"count":0},{"id":"DenominatorExclusion_1","code":{"coding":[{"system":"http://terminology.hl7.org/CodeSystem/measure-population","code":"denominator-exclusion","display":"Denominator Exclusion"}]},"count":0},{"id":"Numerator_1","code":{"coding":[{"system":"http://terminology.hl7.org/CodeSystem/measure-population","code":"numerator","display":"Numerator"}]},"count":0},{"id":"DenominatorException_1","code":{"coding":[{"system":"http://terminology.hl7.org/CodeSystem/measure-population","code":"denominator-exception","display":"Denominator Exception"}]},"count":0}],"measureScore":{"value":0.0}}],"evaluatedResource":[{"reference":"Patient/871d38c3-6822-4136-8fe0-2ed0f226888f"},{"reference":"Encounter/ae3720db-088d-4058-9b62-ba80844d3625"},{"reference":"Coverage/8db7575c-529f-4f7e-94cf-a91212e3ae1b"},{"reference":"Condition/f9387f1b-77e1-4569-b04f-29a465eece8d"},{"reference":"Claim/5ca62962b8484628b8de1ec5"},{"reference":"Organization/09c1ba8a-ec9c-4168-ac3f-96824114c020"},{"reference":"Practitioner/949f0b53-cc06-4f5c-8aeb-52cb5f17de09"}]},"request":{"method":"PUT","url":"MeasureReport/840c6e95-6bfe-491e-b39d-3c3638a0bc6d"}}]},"request":{"method":"PUT","url":"Bundle/60f82c2e98086b570510e275"}},{"fullUrl":"Practitioner/949f0b53-cc06-4f5c-8aeb-52cb5f17de09","resource":{"resourceType":"Practitioner","id":"949f0b53-cc06-4f5c-8aeb-52cb5f17de09","identifier":[{"system":"http://hl7.org/fhir/sid/us-npi","value":"123456"}],"name":[{"family":"Evil","prefix":["Dr"]}]},"request":{"method":"PUT","url":"Practitioner/949f0b53-cc06-4f5c-8aeb-52cb5f17de09"}},{"fullUrl":"Encounter/ae3720db-088d-4058-9b62-ba80844d3625","resource":{"resourceType":"Encounter","id":"ae3720db-088d-4058-9b62-ba80844d3625","meta":{"profile":["http://hl7.org/fhir/us/qicore/StructureDefinition/qicore-encounter"]},"status":"finished","class":{"system":"http://terminology.hl7.org/CodeSystem/v3-ActCode","code":"IMP","display":"inpatient encounter"},"type":[{"coding":[{"system":"http://snomed.info/sct","code":"32485007"}]}],"subject":{"reference":"Patient/871d38c3-6822-4136-8fe0-2ed0f226888f"},"period":{"start":"2026-08-21T00:00:00Z","end":"2026-12-18T23:59:00.000+00:00"},"length":{"value":119,"unit":"days"},"reasonReference":[{"reference":"Condition/f9387f1b-77e1-4569-b04f-29a465eece8d"}]},"request":{"method":"PUT","url":"Encounter/ae3720db-088d-4058-9b62-ba80844d3625"}},{"fullUrl":"Organization/09c1ba8a-ec9c-4168-ac3f-96824114c020","resource":{"resourceType":"Organization","id":"09c1ba8a-ec9c-4168-ac3f-96824114c020","meta":{"profile":["http://hl7.org/fhir/us/qicore/StructureDefinition/qicore-organization"]},"identifier":[{"use":"temp","system":"urn:oid:2.16.840.1.113883.4.4","value":"21-3259825"}],"active":true,"type":[{"coding":[{"system":"http://terminology.hl7.org/CodeSystem/organization-type","code":"pay","display":"Payer"}]}],"name":"Blue Cross Blue Shield of Texas","telecom":[{"system":"phone","value":"(+1) 972-766-6900"}],"address":[{"use":"billing","type":"postal","line":["P.O. Box 660044"],"city":"Dallas","state":"TX","postalCode":"75266-0044","country":"USA"}]},"request":{"method":"PUT","url":"Organization/09c1ba8a-ec9c-4168-ac3f-96824114c020"}},{"fullUrl":"MeasureReport/840c6e95-6bfe-491e-b39d-3c3638a0bc6d","resource":{"resourceType":"MeasureReport","id":"840c6e95-6bfe-491e-b39d-3c3638a0bc6d","meta":{"profile":["http://hl7.org/fhir/us/cqfmeasures/StructureDefinition/test-case-cqfm"]},"contained":[{"resourceType":"Parameters","id":"be73fc5e-695c-4a58-9f00-9186ecd068f9-parameters","parameter":[{"name":"subject","valueString":"871d38c3-6822-4136-8fe0-2ed0f226888f"}]}],"extension":[{"url":"http://hl7.org/fhir/StructureDefinition/cqf-inputParameters","valueReference":{"reference":"#be73fc5e-695c-4a58-9f00-9186ecd068f9-parameters"}},{"url":"http://hl7.org/fhir/us/cqfmeasures/StructureDefinition/cqfm-testCaseDescription","valueMarkdown":"EncDx=IschemicStroke    LOS<120\n"}],"modifierExtension":[{"url":"http://hl7.org/fhir/us/cqfmeasures/StructureDefinition/cqfm-isTestCase","valueBoolean":true}],"status":"complete","type":"individual","measure":"https://madie.cms.gov/Measure/CMS72FHIRSTKAntithromboticDay2","period":{"start":"2026-01-01","end":"2026-12-31"},"group":[{"id":"Group_1","population":[{"id":"InitialPopulation_1","code":{"coding":[{"system":"http://terminology.hl7.org/CodeSystem/measure-population","code":"initial-population","display":"Initial Population"}]},"count":0},{"id":"Denominator_1","code":{"coding":[{"system":"http://terminology.hl7.org/CodeSystem/measure-population","code":"denominator","display":"Denominator"}]},"count":0},{"id":"DenominatorExclusion_1","code":{"coding":[{"system":"http://terminology.hl7.org/CodeSystem/measure-population","code":"denominator-exclusion","display":"Denominator Exclusion"}]},"count":0},{"id":"Numerator_1","code":{"coding":[{"system":"http://terminology.hl7.org/CodeSystem/measure-population","code":"numerator","display":"Numerator"}]},"count":0},{"id":"DenominatorException_1","code":{"coding":[{"system":"http://terminology.hl7.org/CodeSystem/measure-population","code":"denominator-exception","display":"Denominator Exception"}]},"count":0}],"measureScore":{"value":0.0}}],"evaluatedResource":[{"reference":"Patient/871d38c3-6822-4136-8fe0-2ed0f226888f"},{"reference":"Encounter/ae3720db-088d-4058-9b62-ba80844d3625"},{"reference":"Coverage/8db7575c-529f-4f7e-94cf-a91212e3ae1b"},{"reference":"Condition/f9387f1b-77e1-4569-b04f-29a465eece8d"},{"reference":"Claim/5ca62962b8484628b8de1ec5"},{"reference":"Organization/09c1ba8a-ec9c-4168-ac3f-96824114c020"},{"reference":"Practitioner/949f0b53-cc06-4f5c-8aeb-52cb5f17de09"}]},"request":{"method":"PUT","url":"MeasureReport/840c6e95-6bfe-491e-b39d-3c3638a0bc6d"}},{"fullUrl":"Claim/5ca62962b8484628b8de1ec5","resource":{"resourceType":"Claim","id":"5ca62962b8484628b8de1ec5","meta":{"profile":["http://hl7.org/fhir/us/qicore/StructureDefinition/qicore-claim"]},"status":"active","type":{"coding":[{"system":"http://terminology.hl7.org/CodeSystem/claim-type","code":"institutional"}]},"use":"claim","patient":{"reference":"Patient/871d38c3-6822-4136-8fe0-2ed0f226888f"},"created":"2026-12-01","provider":{"reference":"Practitioner/949f0b53-cc06-4f5c-8aeb-52cb5f17de09"},"priority":{"coding":[{"system":"http://terminology.hl7.org/CodeSystem/processpriority","code":"normal"}]},"diagnosis":[{"sequence":2,"diagnosisCodeableConcept":{"coding":[{"system":"http://hl7.org/fhir/sid/icd-10-cm","code":"I63.00"}]},"type":[{"coding":[{"system":"http://terminology.hl7.org/CodeSystem/ex-diagnosistype","code":"principal"}]}]}],"insurance":[{"sequence":2,"focal":true,"coverage":{"reference":"Coverage/5fa041661c76ba66d9959367"}}],"item":[{"sequence":1,"diagnosisSequence":[1],"productOrService":{"coding":[{"system":"http://terminology.hl7.org/CodeSystem/ex-USCLS","code":"99555"}]},"encounter":[{"reference":"Encounter/ae3720db-088d-4058-9b62-ba80844d3625"}]}]},"request":{"method":"PUT","url":"Claim/5ca62962b8484628b8de1ec5"}},{"fullUrl":"Condition/f9387f1b-77e1-4569-b04f-29a465eece8d","resource":{"resourceType":"Condition","id":"f9387f1b-77e1-4569-b04f-29a465eece8d","meta":{"profile":["http://hl7.org/fhir/us/qicore/StructureDefinition/qicore-condition-encounter-diagnosis"]},"clinicalStatus":{"coding":[{"system":"http://terminology.hl7.org/CodeSystem/condition-clinical","code":"active"}]},"verificationStatus":{"coding":[{"system":"http://terminology.hl7.org/CodeSystem/condition-ver-status","code":"confirmed"}]},"category":[{"coding":[{"system":"http://terminology.hl7.org/CodeSystem/condition-category","code":"encounter-diagnosis","display":"Encounter Diagnosis"}]}],"code":{"coding":[{"system":"http://snomed.info/sct","version":"2020-09","code":"111297002","display":"Nonparalytic stroke (disorder)","userSelected":true}]},"subject":{"reference":"Patient/871d38c3-6822-4136-8fe0-2ed0f226888f"},"encounter":{"reference":"Encounter/ae3720db-088d-4058-9b62-ba80844d3625"},"recordedDate":"2026-08-16T08:00:00Z"},"request":{"method":"PUT","url":"Condition/f9387f1b-77e1-4569-b04f-29a465eece8d"}}]}