{"resourceType":"Bundle","id":"tests-3ab85f43-dd45-4827-8f13-ad9d1208d2e0-bundle","type":"transaction","entry":[{"fullUrl":"Patient/3ab85f43-dd45-4827-8f13-ad9d1208d2e0","resource":{"resourceType":"Patient","id":"3ab85f43-dd45-4827-8f13-ad9d1208d2e0","meta":{"profile":["http://hl7.org/fhir/us/qicore/StructureDefinition/qicore-patient"]},"text":{"status":"generated","div":"<div xmlns=\"http://www.w3.org/1999/xhtml\"><div class=\"hapiHeaderText\">LOS=1Day_EDB4EncIP <b>DENEXPASS </b></div><table class=\"hapiPropertyTable\"><tbody><tr><td>Identifier</td><td>95552307b3c1ddf2b7349c2d62c41aca</td></tr><tr><td>Date of birth</td><td><span>21 August 1994</span></td></tr></tbody></table></div>"},"extension":[{"url":"http://hl7.org/fhir/us/core/StructureDefinition/us-core-race","extension":[{"url":"ombCategory","valueCoding":{"system":"urn:oid:2.16.840.1.113883.6.238","code":"1002-5","display":"American Indian or Alaska Native","userSelected":true}},{"url":"text","valueString":"American Indian or Alaska Native"}]},{"url":"http://hl7.org/fhir/us/core/StructureDefinition/us-core-ethnicity","extension":[{"url":"ombCategory","valueCoding":{"system":"urn:oid:2.16.840.1.113883.6.238","code":"2186-5","display":"Not Hispanic or Latino","userSelected":true}},{"url":"text","valueString":"Not Hispanic or Latino"}]}],"identifier":[{"type":{"coding":[{"system":"http://terminology.hl7.org/CodeSystem/v2-0203","code":"MR"}]},"system":"https://bonnie-fhir.healthit.gov/","value":"60f82c2e98086b570510e26d"}],"active":true,"name":[{"use":"usual","family":"DENEXPass","given":["LOSEQ1DayEDB4EncIP"]}],"gender":"male","birthDate":"1995-08-21"},"request":{"method":"PUT","url":"Patient/3ab85f43-dd45-4827-8f13-ad9d1208d2e0"}},{"fullUrl":"Encounter/6f52c664-084c-4163-83e7-0f38b766d50d","resource":{"resourceType":"Encounter","id":"6f52c664-084c-4163-83e7-0f38b766d50d","meta":{"profile":["http://hl7.org/fhir/us/qicore/StructureDefinition/qicore-encounter"]},"status":"finished","class":{"system":"http://terminology.hl7.org/CodeSystem/v3-ActCode","code":"IMP","display":"inpatient encounter"},"type":[{"coding":[{"system":"http://snomed.info/sct","code":"32485007"}]}],"subject":{"reference":"Patient/3ab85f43-dd45-4827-8f13-ad9d1208d2e0"},"period":{"start":"2026-08-21T00:00:00Z","end":"2026-08-21T23:00:00.000+00:00"},"length":{"value":0,"unit":"days"},"reasonReference":[{"reference":"Condition/6f9ac635-61da-4778-9ffb-79357788cc4e"}]},"request":{"method":"PUT","url":"Encounter/6f52c664-084c-4163-83e7-0f38b766d50d"}},{"fullUrl":"Bundle/60f82c2e98086b570510e26d","resource":{"resourceType":"Bundle","id":"60f82c2e98086b570510e26d","type":"transaction","entry":[{"fullUrl":"https://madie.cms.gov/Patient/3ab85f43-dd45-4827-8f13-ad9d1208d2e0","resource":{"resourceType":"Patient","id":"3ab85f43-dd45-4827-8f13-ad9d1208d2e0","meta":{"profile":["http://hl7.org/fhir/us/qicore/StructureDefinition/qicore-patient"]},"text":{"status":"generated","div":"<div xmlns=\"http://www.w3.org/1999/xhtml\"><div class=\"hapiHeaderText\">LOS=1Day_EDB4EncIP <b>DENEXPASS </b></div><table class=\"hapiPropertyTable\"><tbody><tr><td>Identifier</td><td>95552307b3c1ddf2b7349c2d62c41aca</td></tr><tr><td>Date of birth</td><td><span>21 August 1994</span></td></tr></tbody></table></div>"},"extension":[{"url":"http://hl7.org/fhir/us/core/StructureDefinition/us-core-race","extension":[{"url":"ombCategory","valueCoding":{"system":"urn:oid:2.16.840.1.113883.6.238","code":"1002-5","display":"American Indian or Alaska Native","userSelected":true}},{"url":"text","valueString":"American Indian or Alaska Native"}]},{"url":"http://hl7.org/fhir/us/core/StructureDefinition/us-core-ethnicity","extension":[{"url":"ombCategory","valueCoding":{"system":"urn:oid:2.16.840.1.113883.6.238","code":"2186-5","display":"Not Hispanic or Latino","userSelected":true}},{"url":"text","valueString":"Not Hispanic or Latino"}]}],"identifier":[{"type":{"coding":[{"system":"http://terminology.hl7.org/CodeSystem/v2-0203","code":"MR"}]},"system":"https://bonnie-fhir.healthit.gov/","value":"60f82c2e98086b570510e26d"}],"active":true,"name":[{"use":"usual","family":"DENEXPass","given":["LOSEQ1DayEDB4EncIP"]}],"gender":"male","birthDate":"1995-08-21"},"request":{"method":"PUT","url":"Patient/3ab85f43-dd45-4827-8f13-ad9d1208d2e0"}},{"fullUrl":"https://madie.cms.gov/Encounter/97ca54e3-f361-4895-9510-1e61fd9918d4","resource":{"resourceType":"Encounter","id":"97ca54e3-f361-4895-9510-1e61fd9918d4","meta":{"profile":["http://hl7.org/fhir/us/qicore/StructureDefinition/qicore-encounter"]},"status":"finished","class":{"system":"http://terminology.hl7.org/CodeSystem/v3-ActCode","code":"EMER","display":"emergency"},"type":[{"coding":[{"system":"http://snomed.info/sct","code":"4525004"}]}],"subject":{"reference":"Patient/3ab85f43-dd45-4827-8f13-ad9d1208d2e0"},"period":{"start":"2026-08-20T00:00:00Z","end":"2026-08-20T23:59:00.000+00:00"},"length":{"value":0,"unit":"days"}},"request":{"method":"PUT","url":"Encounter/97ca54e3-f361-4895-9510-1e61fd9918d4"}},{"fullUrl":"https://madie.cms.gov/Encounter/6f52c664-084c-4163-83e7-0f38b766d50d","resource":{"resourceType":"Encounter","id":"6f52c664-084c-4163-83e7-0f38b766d50d","meta":{"profile":["http://hl7.org/fhir/us/qicore/StructureDefinition/qicore-encounter"]},"status":"finished","class":{"system":"http://terminology.hl7.org/CodeSystem/v3-ActCode","code":"IMP","display":"inpatient encounter"},"type":[{"coding":[{"system":"http://snomed.info/sct","code":"32485007"}]}],"subject":{"reference":"Patient/3ab85f43-dd45-4827-8f13-ad9d1208d2e0"},"period":{"start":"2026-08-21T00:00:00Z","end":"2026-08-21T23:00:00.000+00:00"},"length":{"value":0,"unit":"days"},"reasonReference":[{"reference":"Condition/6f9ac635-61da-4778-9ffb-79357788cc4e"}]},"request":{"method":"PUT","url":"Encounter/6f52c664-084c-4163-83e7-0f38b766d50d"}},{"fullUrl":"https://madie.cms.gov/claim/5ca62962b8484628b8de1ec5","resource":{"resourceType":"Claim","id":"5ca62962b8484628b8de1ec5","meta":{"profile":["http://hl7.org/fhir/us/qicore/StructureDefinition/qicore-claim"]},"status":"active","type":{"coding":[{"system":"http://terminology.hl7.org/CodeSystem/claim-type","code":"institutional"}]},"use":"claim","patient":{"reference":"Patient/d170a0a8-b5ad-4303-b6df-e304dd5f92ad"},"created":"2026-12-01","provider":{"reference":"Practitioner/practitioner-123456"},"priority":{"coding":[{"system":"http://terminology.hl7.org/CodeSystem/processpriority","code":"normal"}]},"diagnosis":[{"sequence":1,"diagnosisCodeableConcept":{"coding":[{"system":"http://hl7.org/fhir/sid/icd-10-cm","code":"I63.00"}]},"type":[{"coding":[{"system":"http://terminology.hl7.org/CodeSystem/ex-diagnosistype","code":"principal"}]}]}],"insurance":[{"sequence":1,"focal":true,"coverage":{"reference":"Coverage/5fa041661c76ba66d9959367"}}],"item":[{"sequence":1,"diagnosisSequence":[1],"productOrService":{"coding":[{"system":"http://terminology.hl7.org/CodeSystem/ex-USCLS","code":"99555"}]},"encounter":[{"reference":"Encounter/6f52c664-084c-4163-83e7-0f38b766d50d"}]}]},"request":{"method":"PUT","url":"Claim/5ca62962b8484628b8de1ec5"}},{"fullUrl":"https://madie.cms.gov/Coverage/c13f8fbf-963d-433a-ad76-cf5ed3571f02","resource":{"resourceType":"Coverage","id":"c13f8fbf-963d-433a-ad76-cf5ed3571f02","status":"active","beneficiary":{"reference":"Patient/3ab85f43-dd45-4827-8f13-ad9d1208d2e0"},"period":{"start":"1995-08-21T00:00:00Z"},"payor":[{"reference":"Organization/45ab1ed1-220d-4ffd-87a2-cd1029fea146"}]},"request":{"method":"PUT","url":"Coverage/c13f8fbf-963d-433a-ad76-cf5ed3571f02"}},{"fullUrl":"https://madie.cms.gov/Condition/6f9ac635-61da-4778-9ffb-79357788cc4e","resource":{"resourceType":"Condition","id":"6f9ac635-61da-4778-9ffb-79357788cc4e","meta":{"profile":["http://hl7.org/fhir/us/qicore/StructureDefinition/qicore-condition-encounter-diagnosis"]},"clinicalStatus":{"coding":[{"system":"http://terminology.hl7.org/CodeSystem/condition-clinical","code":"active"}]},"verificationStatus":{"coding":[{"system":"http://terminology.hl7.org/CodeSystem/condition-ver-status","code":"confirmed"}]},"category":[{"coding":[{"system":"http://terminology.hl7.org/CodeSystem/condition-category","code":"encounter-diagnosis","display":"Encounter Diagnosis"}]}],"code":{"coding":[{"system":"http://snomed.info/sct","version":"2020-09","code":"111297002","display":"Nonparalytic stroke (disorder)","userSelected":true}]},"subject":{"reference":"Patient/3ab85f43-dd45-4827-8f13-ad9d1208d2e0"},"recordedDate":"2026-08-13T08:00:00Z"},"request":{"method":"PUT","url":"Condition/6f9ac635-61da-4778-9ffb-79357788cc4e"}},{"fullUrl":"https://madie.cms.gov/Organization/45ab1ed1-220d-4ffd-87a2-cd1029fea146","resource":{"resourceType":"Organization","id":"45ab1ed1-220d-4ffd-87a2-cd1029fea146","meta":{"profile":["http://hl7.org/fhir/us/qicore/StructureDefinition/qicore-organization"]},"identifier":[{"use":"temp","system":"urn:oid:2.16.840.1.113883.4.4","value":"21-3259825"}],"active":true,"type":[{"coding":[{"system":"http://terminology.hl7.org/CodeSystem/organization-type","code":"pay","display":"Payer"}]}],"name":"Blue Cross Blue Shield of Texas","telecom":[{"system":"phone","value":"(+1) 972-766-6900"}],"address":[{"use":"billing","type":"postal","line":["P.O. Box 660044"],"city":"Dallas","state":"TX","postalCode":"75266-0044","country":"USA"}]},"request":{"method":"PUT","url":"Organization/45ab1ed1-220d-4ffd-87a2-cd1029fea146"}},{"fullUrl":"https://madie.cms.gov/MeasureReport/3c1ee15f-22cf-440a-99f9-879685cc84bb","resource":{"resourceType":"MeasureReport","id":"3c1ee15f-22cf-440a-99f9-879685cc84bb","meta":{"profile":["http://hl7.org/fhir/us/cqfmeasures/StructureDefinition/test-case-cqfm"]},"contained":[{"resourceType":"Parameters","id":"cecb9d17-7041-40b2-88c6-4bb6df4d2097-parameters","parameter":[{"name":"subject","valueString":"3ab85f43-dd45-4827-8f13-ad9d1208d2e0"}]}],"extension":[{"url":"http://hl7.org/fhir/StructureDefinition/cqf-inputParameters","valueReference":{"reference":"#cecb9d17-7041-40b2-88c6-4bb6df4d2097-parameters"}},{"url":"http://hl7.org/fhir/us/cqfmeasures/StructureDefinition/cqfm-testCaseDescription","valueMarkdown":"LOS= 1 Day, timing starts with ED Visit since ED visit <= 1 hour before IP encounter. global.Hospitalization ( =Ed +IP)\n"}],"modifierExtension":[{"url":"http://hl7.org/fhir/us/cqfmeasures/StructureDefinition/cqfm-isTestCase","valueBoolean":true}],"status":"complete","type":"individual","measure":"https://madie.cms.gov/Measure/CMS72FHIRSTKAntithromboticDay2","period":{"start":"2026-01-01","end":"2026-12-31"},"group":[{"id":"Group_1","population":[{"id":"InitialPopulation_1","code":{"coding":[{"system":"http://terminology.hl7.org/CodeSystem/measure-population","code":"initial-population","display":"Initial Population"}]},"count":1},{"id":"Denominator_1","code":{"coding":[{"system":"http://terminology.hl7.org/CodeSystem/measure-population","code":"denominator","display":"Denominator"}]},"count":1},{"id":"DenominatorExclusion_1","code":{"coding":[{"system":"http://terminology.hl7.org/CodeSystem/measure-population","code":"denominator-exclusion","display":"Denominator Exclusion"}]},"count":1},{"id":"Numerator_1","code":{"coding":[{"system":"http://terminology.hl7.org/CodeSystem/measure-population","code":"numerator","display":"Numerator"}]},"count":0},{"id":"DenominatorException_1","code":{"coding":[{"system":"http://terminology.hl7.org/CodeSystem/measure-population","code":"denominator-exception","display":"Denominator Exception"}]},"count":0}],"measureScore":{"value":0.0}}],"evaluatedResource":[{"reference":"Patient/3ab85f43-dd45-4827-8f13-ad9d1208d2e0"},{"reference":"Encounter/97ca54e3-f361-4895-9510-1e61fd9918d4"},{"reference":"Encounter/6f52c664-084c-4163-83e7-0f38b766d50d"},{"reference":"Claim/5ca62962b8484628b8de1ec5"},{"reference":"Coverage/c13f8fbf-963d-433a-ad76-cf5ed3571f02"},{"reference":"Condition/6f9ac635-61da-4778-9ffb-79357788cc4e"},{"reference":"Organization/45ab1ed1-220d-4ffd-87a2-cd1029fea146"}]},"request":{"method":"PUT","url":"MeasureReport/3c1ee15f-22cf-440a-99f9-879685cc84bb"}}]},"request":{"method":"PUT","url":"Bundle/60f82c2e98086b570510e26d"}},{"fullUrl":"Encounter/97ca54e3-f361-4895-9510-1e61fd9918d4","resource":{"resourceType":"Encounter","id":"97ca54e3-f361-4895-9510-1e61fd9918d4","meta":{"profile":["http://hl7.org/fhir/us/qicore/StructureDefinition/qicore-encounter"]},"status":"finished","class":{"system":"http://terminology.hl7.org/CodeSystem/v3-ActCode","code":"EMER","display":"emergency"},"type":[{"coding":[{"system":"http://snomed.info/sct","code":"4525004"}]}],"subject":{"reference":"Patient/3ab85f43-dd45-4827-8f13-ad9d1208d2e0"},"period":{"start":"2026-08-20T00:00:00Z","end":"2026-08-20T23:59:00.000+00:00"},"length":{"value":0,"unit":"days"}},"request":{"method":"PUT","url":"Encounter/97ca54e3-f361-4895-9510-1e61fd9918d4"}},{"fullUrl":"Condition/6f9ac635-61da-4778-9ffb-79357788cc4e","resource":{"resourceType":"Condition","id":"6f9ac635-61da-4778-9ffb-79357788cc4e","meta":{"profile":["http://hl7.org/fhir/us/qicore/StructureDefinition/qicore-condition-encounter-diagnosis"]},"clinicalStatus":{"coding":[{"system":"http://terminology.hl7.org/CodeSystem/condition-clinical","code":"active"}]},"verificationStatus":{"coding":[{"system":"http://terminology.hl7.org/CodeSystem/condition-ver-status","code":"confirmed"}]},"category":[{"coding":[{"system":"http://terminology.hl7.org/CodeSystem/condition-category","code":"encounter-diagnosis","display":"Encounter Diagnosis"}]}],"code":{"coding":[{"system":"http://snomed.info/sct","version":"2020-09","code":"111297002","display":"Nonparalytic stroke (disorder)","userSelected":true}]},"subject":{"reference":"Patient/3ab85f43-dd45-4827-8f13-ad9d1208d2e0"},"recordedDate":"2026-08-13T08:00:00Z"},"request":{"method":"PUT","url":"Condition/6f9ac635-61da-4778-9ffb-79357788cc4e"}},{"fullUrl":"Organization/45ab1ed1-220d-4ffd-87a2-cd1029fea146","resource":{"resourceType":"Organization","id":"45ab1ed1-220d-4ffd-87a2-cd1029fea146","meta":{"profile":["http://hl7.org/fhir/us/qicore/StructureDefinition/qicore-organization"]},"identifier":[{"use":"temp","system":"urn:oid:2.16.840.1.113883.4.4","value":"21-3259825"}],"active":true,"type":[{"coding":[{"system":"http://terminology.hl7.org/CodeSystem/organization-type","code":"pay","display":"Payer"}]}],"name":"Blue Cross Blue Shield of Texas","telecom":[{"system":"phone","value":"(+1) 972-766-6900"}],"address":[{"use":"billing","type":"postal","line":["P.O. Box 660044"],"city":"Dallas","state":"TX","postalCode":"75266-0044","country":"USA"}]},"request":{"method":"PUT","url":"Organization/45ab1ed1-220d-4ffd-87a2-cd1029fea146"}},{"fullUrl":"Coverage/c13f8fbf-963d-433a-ad76-cf5ed3571f02","resource":{"resourceType":"Coverage","id":"c13f8fbf-963d-433a-ad76-cf5ed3571f02","status":"active","beneficiary":{"reference":"Patient/3ab85f43-dd45-4827-8f13-ad9d1208d2e0"},"period":{"start":"1995-08-21T00:00:00Z"},"payor":[{"reference":"Organization/45ab1ed1-220d-4ffd-87a2-cd1029fea146"}]},"request":{"method":"PUT","url":"Coverage/c13f8fbf-963d-433a-ad76-cf5ed3571f02"}},{"fullUrl":"MeasureReport/3c1ee15f-22cf-440a-99f9-879685cc84bb","resource":{"resourceType":"MeasureReport","id":"3c1ee15f-22cf-440a-99f9-879685cc84bb","meta":{"profile":["http://hl7.org/fhir/us/cqfmeasures/StructureDefinition/test-case-cqfm"]},"contained":[{"resourceType":"Parameters","id":"cecb9d17-7041-40b2-88c6-4bb6df4d2097-parameters","parameter":[{"name":"subject","valueString":"3ab85f43-dd45-4827-8f13-ad9d1208d2e0"}]}],"extension":[{"url":"http://hl7.org/fhir/StructureDefinition/cqf-inputParameters","valueReference":{"reference":"#cecb9d17-7041-40b2-88c6-4bb6df4d2097-parameters"}},{"url":"http://hl7.org/fhir/us/cqfmeasures/StructureDefinition/cqfm-testCaseDescription","valueMarkdown":"LOS= 1 Day, timing starts with ED Visit since ED visit <= 1 hour before IP encounter. global.Hospitalization ( =Ed +IP)\n"}],"modifierExtension":[{"url":"http://hl7.org/fhir/us/cqfmeasures/StructureDefinition/cqfm-isTestCase","valueBoolean":true}],"status":"complete","type":"individual","measure":"https://madie.cms.gov/Measure/CMS72FHIRSTKAntithromboticDay2","period":{"start":"2026-01-01","end":"2026-12-31"},"group":[{"id":"Group_1","population":[{"id":"InitialPopulation_1","code":{"coding":[{"system":"http://terminology.hl7.org/CodeSystem/measure-population","code":"initial-population","display":"Initial Population"}]},"count":1},{"id":"Denominator_1","code":{"coding":[{"system":"http://terminology.hl7.org/CodeSystem/measure-population","code":"denominator","display":"Denominator"}]},"count":1},{"id":"DenominatorExclusion_1","code":{"coding":[{"system":"http://terminology.hl7.org/CodeSystem/measure-population","code":"denominator-exclusion","display":"Denominator Exclusion"}]},"count":1},{"id":"Numerator_1","code":{"coding":[{"system":"http://terminology.hl7.org/CodeSystem/measure-population","code":"numerator","display":"Numerator"}]},"count":0},{"id":"DenominatorException_1","code":{"coding":[{"system":"http://terminology.hl7.org/CodeSystem/measure-population","code":"denominator-exception","display":"Denominator Exception"}]},"count":0}],"measureScore":{"value":0.0}}],"evaluatedResource":[{"reference":"Patient/3ab85f43-dd45-4827-8f13-ad9d1208d2e0"},{"reference":"Encounter/97ca54e3-f361-4895-9510-1e61fd9918d4"},{"reference":"Encounter/6f52c664-084c-4163-83e7-0f38b766d50d"},{"reference":"Claim/5ca62962b8484628b8de1ec5"},{"reference":"Coverage/c13f8fbf-963d-433a-ad76-cf5ed3571f02"},{"reference":"Condition/6f9ac635-61da-4778-9ffb-79357788cc4e"},{"reference":"Organization/45ab1ed1-220d-4ffd-87a2-cd1029fea146"}]},"request":{"method":"PUT","url":"MeasureReport/3c1ee15f-22cf-440a-99f9-879685cc84bb"}},{"fullUrl":"Claim/5ca62962b8484628b8de1ec5","resource":{"resourceType":"Claim","id":"5ca62962b8484628b8de1ec5","meta":{"profile":["http://hl7.org/fhir/us/qicore/StructureDefinition/qicore-claim"]},"status":"active","type":{"coding":[{"system":"http://terminology.hl7.org/CodeSystem/claim-type","code":"institutional"}]},"use":"claim","patient":{"reference":"Patient/d170a0a8-b5ad-4303-b6df-e304dd5f92ad"},"created":"2026-12-01","provider":{"reference":"Practitioner/practitioner-123456"},"priority":{"coding":[{"system":"http://terminology.hl7.org/CodeSystem/processpriority","code":"normal"}]},"diagnosis":[{"sequence":1,"diagnosisCodeableConcept":{"coding":[{"system":"http://hl7.org/fhir/sid/icd-10-cm","code":"I63.00"}]},"type":[{"coding":[{"system":"http://terminology.hl7.org/CodeSystem/ex-diagnosistype","code":"principal"}]}]}],"insurance":[{"sequence":1,"focal":true,"coverage":{"reference":"Coverage/5fa041661c76ba66d9959367"}}],"item":[{"sequence":1,"diagnosisSequence":[1],"productOrService":{"coding":[{"system":"http://terminology.hl7.org/CodeSystem/ex-USCLS","code":"99555"}]},"encounter":[{"reference":"Encounter/6f52c664-084c-4163-83e7-0f38b766d50d"}]}]},"request":{"method":"PUT","url":"Claim/5ca62962b8484628b8de1ec5"}}]}