{"resourceType":"Bundle","id":"tests-fba66844-a0b7-4a8b-a33b-d75df55e9fea-bundle","type":"transaction","entry":[{"resource":{"resourceType":"MedicationAdministration","id":"bfa489d3-8c5b-4e89-8953-6dfb113c91c2","meta":{"profile":["http://hl7.org/fhir/us/qicore/StructureDefinition/qicore-medicationadministration"]},"status":"completed","medicationCodeableConcept":{"coding":[{"system":"http://www.nlm.nih.gov/research/umls/rxnorm","code":"1804799"}]},"subject":{"reference":"Patient/fba66844-a0b7-4a8b-a33b-d75df55e9fea"},"effectivePeriod":{"start":"2026-10-10T06:31:00Z"}},"request":{"method":"PUT","url":"MedicationAdministration/bfa489d3-8c5b-4e89-8953-6dfb113c91c2"}},{"resource":{"resourceType":"MeasureReport","id":"d0aa8b05-c625-4da5-a42d-d32eaa7bd9cf","meta":{"profile":["http://hl7.org/fhir/us/cqfmeasures/StructureDefinition/test-case-cqfm"]},"contained":[{"resourceType":"Parameters","id":"e2fdea73-5f23-40fb-880b-8bbebced3637-parameters","parameter":[{"name":"subject","valueString":"fba66844-a0b7-4a8b-a33b-d75df55e9fea"}]}],"extension":[{"url":"http://hl7.org/fhir/StructureDefinition/cqf-inputParameters","valueReference":{"reference":"#e2fdea73-5f23-40fb-880b-8bbebced3637-parameters"}},{"url":"http://hl7.org/fhir/us/cqfmeasures/StructureDefinition/cqfm-testCaseDescription","valueMarkdown":"Patient receives thrombolytic therapy prior to arrival as an encounter diagnosis.\n"}],"modifierExtension":[{"url":"http://hl7.org/fhir/us/cqfmeasures/StructureDefinition/cqfm-isTestCase","valueBoolean":true}],"status":"complete","type":"individual","measure":"https://madie.cms.gov/Measure/CMS72FHIRSTKAntithromboticDay2","period":{"start":"2026-01-01","end":"2026-12-31"},"group":[{"id":"Group_1","population":[{"id":"InitialPopulation_1","code":{"coding":[{"system":"http://terminology.hl7.org/CodeSystem/measure-population","code":"initial-population","display":"Initial Population"}]},"count":1},{"id":"Denominator_1","code":{"coding":[{"system":"http://terminology.hl7.org/CodeSystem/measure-population","code":"denominator","display":"Denominator"}]},"count":1},{"id":"DenominatorExclusion_1","code":{"coding":[{"system":"http://terminology.hl7.org/CodeSystem/measure-population","code":"denominator-exclusion","display":"Denominator Exclusion"}]},"count":1},{"id":"Numerator_1","code":{"coding":[{"system":"http://terminology.hl7.org/CodeSystem/measure-population","code":"numerator","display":"Numerator"}]},"count":0},{"id":"DenominatorException_1","code":{"coding":[{"system":"http://terminology.hl7.org/CodeSystem/measure-population","code":"denominator-exception","display":"Denominator Exception"}]},"count":0}],"measureScore":{"value":0.0}}],"evaluatedResource":[{"reference":"Patient/fba66844-a0b7-4a8b-a33b-d75df55e9fea"},{"reference":"Encounter/8f37af18-272e-4814-8b4b-9972be6b3862"},{"reference":"Encounter/2f989890-a523-4f2a-bd69-90444c5bdbd6"},{"reference":"Encounter/1c30927f-912e-4a1c-ad2d-eb07c8f21470"},{"reference":"MedicationAdministration/bfa489d3-8c5b-4e89-8953-6dfb113c91c2"},{"reference":"Coverage/0383d353-11b8-4697-9493-7db9432f0bef"},{"reference":"Condition/db2dcb5f-7370-4c4a-8ac8-8329d0513687"},{"reference":"Claim/5ca62962b8484628b8de1ec5"},{"reference":"Organization/832035d6-77f7-4a38-9076-6234f7487ec0"}]},"request":{"method":"PUT","url":"MeasureReport/d0aa8b05-c625-4da5-a42d-d32eaa7bd9cf"}},{"resource":{"resourceType":"Coverage","id":"0383d353-11b8-4697-9493-7db9432f0bef","status":"active","beneficiary":{"reference":"Patient/fba66844-a0b7-4a8b-a33b-d75df55e9fea"},"period":{"start":"1976-09-26T08:00:00Z"},"payor":[{"reference":"Organization/832035d6-77f7-4a38-9076-6234f7487ec0"}]},"request":{"method":"PUT","url":"Coverage/0383d353-11b8-4697-9493-7db9432f0bef"}},{"resource":{"resourceType":"Organization","id":"832035d6-77f7-4a38-9076-6234f7487ec0","meta":{"profile":["http://hl7.org/fhir/us/qicore/StructureDefinition/qicore-organization"]},"identifier":[{"use":"temp","system":"urn:oid:2.16.840.1.113883.4.4","value":"21-3259825"}],"active":true,"type":[{"coding":[{"system":"http://terminology.hl7.org/CodeSystem/organization-type","code":"pay","display":"Payer"}]}],"name":"Blue Cross Blue Shield of Texas","telecom":[{"system":"phone","value":"(+1) 972-766-6900"}],"address":[{"use":"billing","type":"postal","line":["P.O. Box 660044"],"city":"Dallas","state":"TX","postalCode":"75266-0044","country":"USA"}]},"request":{"method":"PUT","url":"Organization/832035d6-77f7-4a38-9076-6234f7487ec0"}},{"resource":{"resourceType":"Encounter","id":"1c30927f-912e-4a1c-ad2d-eb07c8f21470","meta":{"profile":["http://hl7.org/fhir/us/qicore/StructureDefinition/qicore-encounter"]},"status":"finished","class":{"system":"http://terminology.hl7.org/CodeSystem/v3-ActCode","code":"IMP","display":"inpatient encounter"},"type":[{"coding":[{"system":"http://snomed.info/sct","code":"32485007"}]}],"subject":{"reference":"Patient/fba66844-a0b7-4a8b-a33b-d75df55e9fea"},"period":{"start":"2026-10-10T07:31:00Z","end":"2026-10-12T11:15:00.000+00:00"},"length":{"value":2,"unit":"days"},"reasonReference":[{"reference":"Condition/db2dcb5f-7370-4c4a-8ac8-8329d0513687"}]},"request":{"method":"PUT","url":"Encounter/1c30927f-912e-4a1c-ad2d-eb07c8f21470"}},{"resource":{"resourceType":"Condition","id":"db2dcb5f-7370-4c4a-8ac8-8329d0513687","meta":{"profile":["http://hl7.org/fhir/us/qicore/StructureDefinition/qicore-condition-encounter-diagnosis"]},"clinicalStatus":{"coding":[{"system":"http://terminology.hl7.org/CodeSystem/condition-clinical","code":"active"}]},"verificationStatus":{"coding":[{"system":"http://terminology.hl7.org/CodeSystem/condition-ver-status","code":"confirmed"}]},"category":[{"coding":[{"system":"http://terminology.hl7.org/CodeSystem/condition-category","code":"encounter-diagnosis","display":"Encounter Diagnosis"}]}],"code":{"coding":[{"system":"http://snomed.info/sct","version":"2020-09","code":"111297002","display":"Nonparalytic stroke (disorder)","userSelected":true}]},"subject":{"reference":"Patient/fba66844-a0b7-4a8b-a33b-d75df55e9fea"},"encounter":{"reference":"Encounter/1c30927f-912e-4a1c-ad2d-eb07c8f21470"},"recordedDate":"2026-08-13T08:00:00Z"},"request":{"method":"PUT","url":"Condition/db2dcb5f-7370-4c4a-8ac8-8329d0513687"}},{"resource":{"resourceType":"Bundle","id":"60f82c2f98086b570510e29d","type":"transaction","entry":[{"fullUrl":"https://madie.cms.gov/Patient/fba66844-a0b7-4a8b-a33b-d75df55e9fea","resource":{"resourceType":"Patient","id":"fba66844-a0b7-4a8b-a33b-d75df55e9fea","meta":{"profile":["http://hl7.org/fhir/us/qicore/StructureDefinition/qicore-patient"]},"text":{"status":"generated","div":"<div xmlns=\"http://www.w3.org/1999/xhtml\"><div class=\"hapiHeaderText\">MedTPAdurObs_ED&lt;1hrObs&lt;1hrBFEnc <b>DENEXPASS </b></div><table class=\"hapiPropertyTable\"><tbody><tr><td>Identifier</td><td>1849d3434d2b47f16c7674f9526a9103bbee1b7e9de727db2be8290bb8155111</td></tr><tr><td>Date of birth</td><td><span>26 September 1975</span></td></tr></tbody></table></div>"},"extension":[{"url":"http://hl7.org/fhir/us/core/StructureDefinition/us-core-race","extension":[{"url":"ombCategory","valueCoding":{"system":"urn:oid:2.16.840.1.113883.6.238","code":"2054-5","display":"Black or African American","userSelected":true}},{"url":"text","valueString":"Black or African American"}]},{"url":"http://hl7.org/fhir/us/core/StructureDefinition/us-core-ethnicity","extension":[{"url":"ombCategory","valueCoding":{"system":"urn:oid:2.16.840.1.113883.6.238","code":"2186-5","display":"Not Hispanic or Latino","userSelected":true}},{"url":"text","valueString":"Not Hispanic or Latino"}]}],"identifier":[{"type":{"coding":[{"system":"http://terminology.hl7.org/CodeSystem/v2-0203","code":"MR"}]},"system":"https://bonnie-fhir.healthit.gov/","value":"60f82c2f98086b570510e29d"}],"active":true,"name":[{"use":"usual","family":"DENEXPass","given":["PriorTPADiagDurEncStart"]}],"gender":"female","birthDate":"1976-09-26"},"request":{"method":"PUT","url":"Patient/fba66844-a0b7-4a8b-a33b-d75df55e9fea"}},{"fullUrl":"https://madie.cms.gov/Encounter/8f37af18-272e-4814-8b4b-9972be6b3862","resource":{"resourceType":"Encounter","id":"8f37af18-272e-4814-8b4b-9972be6b3862","meta":{"profile":["http://hl7.org/fhir/us/qicore/StructureDefinition/qicore-encounter"]},"status":"finished","class":{"system":"http://terminology.hl7.org/CodeSystem/v3-ActCode","code":"EMER","display":"emergency"},"type":[{"coding":[{"system":"http://snomed.info/sct","code":"4525004"}]}],"subject":{"reference":"Patient/fba66844-a0b7-4a8b-a33b-d75df55e9fea"},"period":{"start":"2026-10-10T06:00:00Z","end":"2026-10-10T06:30:00.000+00:00"},"length":{"value":0,"unit":"days"}},"request":{"method":"PUT","url":"Encounter/8f37af18-272e-4814-8b4b-9972be6b3862"}},{"fullUrl":"https://madie.cms.gov/Encounter/2f989890-a523-4f2a-bd69-90444c5bdbd6","resource":{"resourceType":"Encounter","id":"2f989890-a523-4f2a-bd69-90444c5bdbd6","meta":{"profile":["http://hl7.org/fhir/us/qicore/StructureDefinition/qicore-encounter"]},"status":"finished","class":{"system":"http://terminology.hl7.org/CodeSystem/v3-ActCode","code":"OBSENC","display":"observation encounter"},"type":[{"coding":[{"system":"http://snomed.info/sct","code":"448851000124103"}]}],"subject":{"reference":"Patient/fba66844-a0b7-4a8b-a33b-d75df55e9fea"},"period":{"start":"2026-10-10T06:31:00Z","end":"2026-10-10T07:30:00.000+00:00"},"length":{"value":0,"unit":"days"}},"request":{"method":"PUT","url":"Encounter/2f989890-a523-4f2a-bd69-90444c5bdbd6"}},{"fullUrl":"https://madie.cms.gov/Encounter/1c30927f-912e-4a1c-ad2d-eb07c8f21470","resource":{"resourceType":"Encounter","id":"1c30927f-912e-4a1c-ad2d-eb07c8f21470","meta":{"profile":["http://hl7.org/fhir/us/qicore/StructureDefinition/qicore-encounter"]},"status":"finished","class":{"system":"http://terminology.hl7.org/CodeSystem/v3-ActCode","code":"IMP","display":"inpatient encounter"},"type":[{"coding":[{"system":"http://snomed.info/sct","code":"32485007"}]}],"subject":{"reference":"Patient/fba66844-a0b7-4a8b-a33b-d75df55e9fea"},"period":{"start":"2026-10-10T07:31:00Z","end":"2026-10-12T11:15:00.000+00:00"},"length":{"value":2,"unit":"days"},"reasonReference":[{"reference":"Condition/db2dcb5f-7370-4c4a-8ac8-8329d0513687"}]},"request":{"method":"PUT","url":"Encounter/1c30927f-912e-4a1c-ad2d-eb07c8f21470"}},{"fullUrl":"https://madie.cms.gov/MedicationAdministration/bfa489d3-8c5b-4e89-8953-6dfb113c91c2","resource":{"resourceType":"MedicationAdministration","id":"bfa489d3-8c5b-4e89-8953-6dfb113c91c2","meta":{"profile":["http://hl7.org/fhir/us/qicore/StructureDefinition/qicore-medicationadministration"]},"status":"completed","medicationCodeableConcept":{"coding":[{"system":"http://www.nlm.nih.gov/research/umls/rxnorm","code":"1804799"}]},"subject":{"reference":"Patient/fba66844-a0b7-4a8b-a33b-d75df55e9fea"},"effectivePeriod":{"start":"2026-10-10T06:31:00Z"}},"request":{"method":"PUT","url":"MedicationAdministration/bfa489d3-8c5b-4e89-8953-6dfb113c91c2"}},{"fullUrl":"https://madie.cms.gov/Coverage/0383d353-11b8-4697-9493-7db9432f0bef","resource":{"resourceType":"Coverage","id":"0383d353-11b8-4697-9493-7db9432f0bef","status":"active","beneficiary":{"reference":"Patient/fba66844-a0b7-4a8b-a33b-d75df55e9fea"},"period":{"start":"1976-09-26T08:00:00Z"},"payor":[{"reference":"Organization/832035d6-77f7-4a38-9076-6234f7487ec0"}]},"request":{"method":"PUT","url":"Coverage/0383d353-11b8-4697-9493-7db9432f0bef"}},{"fullUrl":"https://madie.cms.gov/Condition/db2dcb5f-7370-4c4a-8ac8-8329d0513687","resource":{"resourceType":"Condition","id":"db2dcb5f-7370-4c4a-8ac8-8329d0513687","meta":{"profile":["http://hl7.org/fhir/us/qicore/StructureDefinition/qicore-condition-encounter-diagnosis"]},"clinicalStatus":{"coding":[{"system":"http://terminology.hl7.org/CodeSystem/condition-clinical","code":"active"}]},"verificationStatus":{"coding":[{"system":"http://terminology.hl7.org/CodeSystem/condition-ver-status","code":"confirmed"}]},"category":[{"coding":[{"system":"http://terminology.hl7.org/CodeSystem/condition-category","code":"encounter-diagnosis","display":"Encounter Diagnosis"}]}],"code":{"coding":[{"system":"http://snomed.info/sct","version":"2020-09","code":"111297002","display":"Nonparalytic stroke (disorder)","userSelected":true}]},"subject":{"reference":"Patient/fba66844-a0b7-4a8b-a33b-d75df55e9fea"},"encounter":{"reference":"Encounter/1c30927f-912e-4a1c-ad2d-eb07c8f21470"},"recordedDate":"2026-08-13T08:00:00Z"},"request":{"method":"PUT","url":"Condition/db2dcb5f-7370-4c4a-8ac8-8329d0513687"}},{"fullUrl":"https://madie.cms.gov/claim/5ca62962b8484628b8de1ec5","resource":{"resourceType":"Claim","id":"5ca62962b8484628b8de1ec5","meta":{"profile":["http://hl7.org/fhir/us/qicore/StructureDefinition/qicore-claim"]},"status":"active","type":{"coding":[{"system":"http://terminology.hl7.org/CodeSystem/claim-type","code":"institutional"}]},"use":"claim","patient":{"reference":"Patient/fba66844-a0b7-4a8b-a33b-d75df55e9fea"},"created":"2026-12-01","provider":{"reference":"Practitioner/practitioner-123456"},"priority":{"coding":[{"system":"http://terminology.hl7.org/CodeSystem/processpriority","code":"normal"}]},"diagnosis":[{"sequence":1,"diagnosisCodeableConcept":{"coding":[{"system":"http://hl7.org/fhir/sid/icd-10-cm","code":"I63.00"}]},"type":[{"coding":[{"system":"http://terminology.hl7.org/CodeSystem/ex-diagnosistype","code":"principal"}]}]}],"insurance":[{"sequence":1,"focal":true,"coverage":{"reference":"Coverage/5fa041661c76ba66d9959367"}}],"item":[{"sequence":1,"diagnosisSequence":[1],"productOrService":{"coding":[{"system":"http://terminology.hl7.org/CodeSystem/ex-USCLS","code":"99555"}]},"encounter":[{"reference":"Encounter/1c30927f-912e-4a1c-ad2d-eb07c8f21470"}]}]},"request":{"method":"PUT","url":"Claim/5ca62962b8484628b8de1ec5"}},{"fullUrl":"https://madie.cms.gov/Organization/832035d6-77f7-4a38-9076-6234f7487ec0","resource":{"resourceType":"Organization","id":"832035d6-77f7-4a38-9076-6234f7487ec0","meta":{"profile":["http://hl7.org/fhir/us/qicore/StructureDefinition/qicore-organization"]},"identifier":[{"use":"temp","system":"urn:oid:2.16.840.1.113883.4.4","value":"21-3259825"}],"active":true,"type":[{"coding":[{"system":"http://terminology.hl7.org/CodeSystem/organization-type","code":"pay","display":"Payer"}]}],"name":"Blue Cross Blue Shield of Texas","telecom":[{"system":"phone","value":"(+1) 972-766-6900"}],"address":[{"use":"billing","type":"postal","line":["P.O. Box 660044"],"city":"Dallas","state":"TX","postalCode":"75266-0044","country":"USA"}]},"request":{"method":"PUT","url":"Organization/832035d6-77f7-4a38-9076-6234f7487ec0"}},{"fullUrl":"https://madie.cms.gov/MeasureReport/d0aa8b05-c625-4da5-a42d-d32eaa7bd9cf","resource":{"resourceType":"MeasureReport","id":"d0aa8b05-c625-4da5-a42d-d32eaa7bd9cf","meta":{"profile":["http://hl7.org/fhir/us/cqfmeasures/StructureDefinition/test-case-cqfm"]},"contained":[{"resourceType":"Parameters","id":"e2fdea73-5f23-40fb-880b-8bbebced3637-parameters","parameter":[{"name":"subject","valueString":"fba66844-a0b7-4a8b-a33b-d75df55e9fea"}]}],"extension":[{"url":"http://hl7.org/fhir/StructureDefinition/cqf-inputParameters","valueReference":{"reference":"#e2fdea73-5f23-40fb-880b-8bbebced3637-parameters"}},{"url":"http://hl7.org/fhir/us/cqfmeasures/StructureDefinition/cqfm-testCaseDescription","valueMarkdown":"Patient receives thrombolytic therapy prior to arrival as an encounter diagnosis.\n"}],"modifierExtension":[{"url":"http://hl7.org/fhir/us/cqfmeasures/StructureDefinition/cqfm-isTestCase","valueBoolean":true}],"status":"complete","type":"individual","measure":"https://madie.cms.gov/Measure/CMS72FHIRSTKAntithromboticDay2","period":{"start":"2026-01-01","end":"2026-12-31"},"group":[{"id":"Group_1","population":[{"id":"InitialPopulation_1","code":{"coding":[{"system":"http://terminology.hl7.org/CodeSystem/measure-population","code":"initial-population","display":"Initial Population"}]},"count":1},{"id":"Denominator_1","code":{"coding":[{"system":"http://terminology.hl7.org/CodeSystem/measure-population","code":"denominator","display":"Denominator"}]},"count":1},{"id":"DenominatorExclusion_1","code":{"coding":[{"system":"http://terminology.hl7.org/CodeSystem/measure-population","code":"denominator-exclusion","display":"Denominator Exclusion"}]},"count":1},{"id":"Numerator_1","code":{"coding":[{"system":"http://terminology.hl7.org/CodeSystem/measure-population","code":"numerator","display":"Numerator"}]},"count":0},{"id":"DenominatorException_1","code":{"coding":[{"system":"http://terminology.hl7.org/CodeSystem/measure-population","code":"denominator-exception","display":"Denominator Exception"}]},"count":0}],"measureScore":{"value":0.0}}],"evaluatedResource":[{"reference":"Patient/fba66844-a0b7-4a8b-a33b-d75df55e9fea"},{"reference":"Encounter/8f37af18-272e-4814-8b4b-9972be6b3862"},{"reference":"Encounter/2f989890-a523-4f2a-bd69-90444c5bdbd6"},{"reference":"Encounter/1c30927f-912e-4a1c-ad2d-eb07c8f21470"},{"reference":"MedicationAdministration/bfa489d3-8c5b-4e89-8953-6dfb113c91c2"},{"reference":"Coverage/0383d353-11b8-4697-9493-7db9432f0bef"},{"reference":"Condition/db2dcb5f-7370-4c4a-8ac8-8329d0513687"},{"reference":"Claim/5ca62962b8484628b8de1ec5"},{"reference":"Organization/832035d6-77f7-4a38-9076-6234f7487ec0"}]},"request":{"method":"PUT","url":"MeasureReport/d0aa8b05-c625-4da5-a42d-d32eaa7bd9cf"}}]},"request":{"method":"PUT","url":"Bundle/60f82c2f98086b570510e29d"}},{"resource":{"resourceType":"Encounter","id":"8f37af18-272e-4814-8b4b-9972be6b3862","meta":{"profile":["http://hl7.org/fhir/us/qicore/StructureDefinition/qicore-encounter"]},"status":"finished","class":{"system":"http://terminology.hl7.org/CodeSystem/v3-ActCode","code":"EMER","display":"emergency"},"type":[{"coding":[{"system":"http://snomed.info/sct","code":"4525004"}]}],"subject":{"reference":"Patient/fba66844-a0b7-4a8b-a33b-d75df55e9fea"},"period":{"start":"2026-10-10T06:00:00Z","end":"2026-10-10T06:30:00.000+00:00"},"length":{"value":0,"unit":"days"}},"request":{"method":"PUT","url":"Encounter/8f37af18-272e-4814-8b4b-9972be6b3862"}},{"resource":{"resourceType":"Patient","id":"fba66844-a0b7-4a8b-a33b-d75df55e9fea","meta":{"profile":["http://hl7.org/fhir/us/qicore/StructureDefinition/qicore-patient"]},"text":{"status":"generated","div":"<div xmlns=\"http://www.w3.org/1999/xhtml\"><div class=\"hapiHeaderText\">MedTPAdurObs_ED&lt;1hrObs&lt;1hrBFEnc <b>DENEXPASS </b></div><table class=\"hapiPropertyTable\"><tbody><tr><td>Identifier</td><td>1849d3434d2b47f16c7674f9526a9103bbee1b7e9de727db2be8290bb8155111</td></tr><tr><td>Date of birth</td><td><span>26 September 1975</span></td></tr></tbody></table></div>"},"extension":[{"url":"http://hl7.org/fhir/us/core/StructureDefinition/us-core-race","extension":[{"url":"ombCategory","valueCoding":{"system":"urn:oid:2.16.840.1.113883.6.238","code":"2054-5","display":"Black or African American","userSelected":true}},{"url":"text","valueString":"Black or African American"}]},{"url":"http://hl7.org/fhir/us/core/StructureDefinition/us-core-ethnicity","extension":[{"url":"ombCategory","valueCoding":{"system":"urn:oid:2.16.840.1.113883.6.238","code":"2186-5","display":"Not Hispanic or Latino","userSelected":true}},{"url":"text","valueString":"Not Hispanic or Latino"}]}],"identifier":[{"type":{"coding":[{"system":"http://terminology.hl7.org/CodeSystem/v2-0203","code":"MR"}]},"system":"https://bonnie-fhir.healthit.gov/","value":"60f82c2f98086b570510e29d"}],"active":true,"name":[{"use":"usual","family":"DENEXPass","given":["PriorTPADiagDurEncStart"]}],"gender":"female","birthDate":"1976-09-26"},"request":{"method":"PUT","url":"Patient/fba66844-a0b7-4a8b-a33b-d75df55e9fea"}},{"resource":{"resourceType":"Encounter","id":"2f989890-a523-4f2a-bd69-90444c5bdbd6","meta":{"profile":["http://hl7.org/fhir/us/qicore/StructureDefinition/qicore-encounter"]},"status":"finished","class":{"system":"http://terminology.hl7.org/CodeSystem/v3-ActCode","code":"OBSENC","display":"observation encounter"},"type":[{"coding":[{"system":"http://snomed.info/sct","code":"448851000124103"}]}],"subject":{"reference":"Patient/fba66844-a0b7-4a8b-a33b-d75df55e9fea"},"period":{"start":"2026-10-10T06:31:00Z","end":"2026-10-10T07:30:00.000+00:00"},"length":{"value":0,"unit":"days"}},"request":{"method":"PUT","url":"Encounter/2f989890-a523-4f2a-bd69-90444c5bdbd6"}},{"resource":{"resourceType":"Claim","id":"5ca62962b8484628b8de1ec5","meta":{"profile":["http://hl7.org/fhir/us/qicore/StructureDefinition/qicore-claim"]},"status":"active","type":{"coding":[{"system":"http://terminology.hl7.org/CodeSystem/claim-type","code":"institutional"}]},"use":"claim","patient":{"reference":"Patient/fba66844-a0b7-4a8b-a33b-d75df55e9fea"},"created":"2026-12-01","provider":{"reference":"Practitioner/practitioner-123456"},"priority":{"coding":[{"system":"http://terminology.hl7.org/CodeSystem/processpriority","code":"normal"}]},"diagnosis":[{"sequence":1,"diagnosisCodeableConcept":{"coding":[{"system":"http://hl7.org/fhir/sid/icd-10-cm","code":"I63.00"}]},"type":[{"coding":[{"system":"http://terminology.hl7.org/CodeSystem/ex-diagnosistype","code":"principal"}]}]}],"insurance":[{"sequence":1,"focal":true,"coverage":{"reference":"Coverage/5fa041661c76ba66d9959367"}}],"item":[{"sequence":1,"diagnosisSequence":[1],"productOrService":{"coding":[{"system":"http://terminology.hl7.org/CodeSystem/ex-USCLS","code":"99555"}]},"encounter":[{"reference":"Encounter/1c30927f-912e-4a1c-ad2d-eb07c8f21470"}]}]},"request":{"method":"PUT","url":"Claim/5ca62962b8484628b8de1ec5"}}]}