{"resourceType":"Bundle","id":"tests-b8af7899-c18a-4070-a987-202949b4446a-bundle","type":"transaction","entry":[{"fullUrl":"Organization/ed893777-b1b5-4dd5-bb25-858dcf2c909e","resource":{"resourceType":"Organization","id":"ed893777-b1b5-4dd5-bb25-858dcf2c909e","meta":{"profile":["http://hl7.org/fhir/us/qicore/StructureDefinition/qicore-organization"]},"identifier":[{"use":"temp","system":"urn:oid:2.16.840.1.113883.4.4","value":"21-3259825"}],"active":true,"type":[{"coding":[{"system":"http://terminology.hl7.org/CodeSystem/organization-type","code":"pay","display":"Payer"}]}],"name":"Blue Cross Blue Shield of Texas","telecom":[{"system":"phone","value":"(+1) 972-766-6900"}],"address":[{"use":"billing","type":"postal","line":["P.O. Box 660044"],"city":"Dallas","state":"TX","postalCode":"75266-0044","country":"USA"}]},"request":{"method":"PUT","url":"Organization/ed893777-b1b5-4dd5-bb25-858dcf2c909e"}},{"fullUrl":"MeasureReport/86d98fe4-b519-48b3-a67d-7b8c39164a4f","resource":{"resourceType":"MeasureReport","id":"86d98fe4-b519-48b3-a67d-7b8c39164a4f","meta":{"profile":["http://hl7.org/fhir/us/cqfmeasures/StructureDefinition/test-case-cqfm"]},"contained":[{"resourceType":"Parameters","id":"c541acb9-58f6-4a6d-b6f8-e4342ec653d9-parameters","parameter":[{"name":"subject","valueString":"b8af7899-c18a-4070-a987-202949b4446a"}]}],"extension":[{"url":"http://hl7.org/fhir/StructureDefinition/cqf-inputParameters","valueReference":{"reference":"#c541acb9-58f6-4a6d-b6f8-e4342ec653d9-parameters"}},{"url":"http://hl7.org/fhir/us/cqfmeasures/StructureDefinition/cqfm-testCaseDescription","valueMarkdown":"Patient receives IV or IA TPA  procedure = 24 hours before IP encounter starts\n"}],"modifierExtension":[{"url":"http://hl7.org/fhir/us/cqfmeasures/StructureDefinition/cqfm-isTestCase","valueBoolean":true}],"status":"complete","type":"individual","measure":"https://madie.cms.gov/Measure/CMS72FHIRSTKAntithromboticDay2","period":{"start":"2026-01-01","end":"2026-12-31"},"group":[{"id":"Group_1","population":[{"id":"InitialPopulation_1","code":{"coding":[{"system":"http://terminology.hl7.org/CodeSystem/measure-population","code":"initial-population","display":"Initial Population"}]},"count":1},{"id":"Denominator_1","code":{"coding":[{"system":"http://terminology.hl7.org/CodeSystem/measure-population","code":"denominator","display":"Denominator"}]},"count":1},{"id":"DenominatorExclusion_1","code":{"coding":[{"system":"http://terminology.hl7.org/CodeSystem/measure-population","code":"denominator-exclusion","display":"Denominator Exclusion"}]},"count":1},{"id":"Numerator_1","code":{"coding":[{"system":"http://terminology.hl7.org/CodeSystem/measure-population","code":"numerator","display":"Numerator"}]},"count":0},{"id":"DenominatorException_1","code":{"coding":[{"system":"http://terminology.hl7.org/CodeSystem/measure-population","code":"denominator-exception","display":"Denominator Exception"}]},"count":0}],"measureScore":{"value":0.0}}],"evaluatedResource":[{"reference":"Patient/b8af7899-c18a-4070-a987-202949b4446a"},{"reference":"Encounter/603fab26-6b1a-418f-9a6c-a2e7a93304d1"},{"reference":"Coverage/1217f133-99e8-4ae1-8937-ab9ab68faace"},{"reference":"Procedure/5167f979-e5d0-4230-9dae-466ec2a8fcfc"},{"reference":"Condition/133f4ed8-1fe2-4700-bb33-06bebc244577"},{"reference":"Claim/5ca62962b8484628b8de1ec5"},{"reference":"Organization/ed893777-b1b5-4dd5-bb25-858dcf2c909e"}]},"request":{"method":"PUT","url":"MeasureReport/86d98fe4-b519-48b3-a67d-7b8c39164a4f"}},{"fullUrl":"Encounter/603fab26-6b1a-418f-9a6c-a2e7a93304d1","resource":{"resourceType":"Encounter","id":"603fab26-6b1a-418f-9a6c-a2e7a93304d1","meta":{"profile":["http://hl7.org/fhir/us/qicore/StructureDefinition/qicore-encounter"]},"status":"finished","class":{"system":"http://terminology.hl7.org/CodeSystem/v3-ActCode","code":"IMP","display":"inpatient encounter"},"type":[{"coding":[{"system":"http://snomed.info/sct","code":"32485007"}]}],"subject":{"reference":"Patient/b8af7899-c18a-4070-a987-202949b4446a"},"period":{"start":"2026-10-10T09:00:00Z","end":"2026-10-12T11:15:00.000+00:00"},"length":{"value":2,"unit":"days"},"reasonCode":[{"coding":[{"system":"http://snomed.info/sct","code":"307521008"}]}],"reasonReference":[{"reference":"Condition/133f4ed8-1fe2-4700-bb33-06bebc244577"}]},"request":{"method":"PUT","url":"Encounter/603fab26-6b1a-418f-9a6c-a2e7a93304d1"}},{"fullUrl":"Condition/133f4ed8-1fe2-4700-bb33-06bebc244577","resource":{"resourceType":"Condition","id":"133f4ed8-1fe2-4700-bb33-06bebc244577","meta":{"profile":["http://hl7.org/fhir/us/qicore/StructureDefinition/qicore-condition-encounter-diagnosis"]},"clinicalStatus":{"coding":[{"system":"http://terminology.hl7.org/CodeSystem/condition-clinical","code":"active"}]},"verificationStatus":{"coding":[{"system":"http://terminology.hl7.org/CodeSystem/condition-ver-status","code":"confirmed"}]},"category":[{"coding":[{"system":"http://terminology.hl7.org/CodeSystem/condition-category","code":"encounter-diagnosis","display":"Encounter Diagnosis"}]}],"code":{"coding":[{"system":"http://snomed.info/sct","version":"2020-09","code":"111297002","display":"Nonparalytic stroke (disorder)","userSelected":true}]},"subject":{"reference":"Patient/b8af7899-c18a-4070-a987-202949b4446a"},"encounter":{"reference":"Encounter/603fab26-6b1a-418f-9a6c-a2e7a93304d1"},"recordedDate":"2026-08-13T08:00:00Z"},"request":{"method":"PUT","url":"Condition/133f4ed8-1fe2-4700-bb33-06bebc244577"}},{"fullUrl":"Patient/b8af7899-c18a-4070-a987-202949b4446a","resource":{"resourceType":"Patient","id":"b8af7899-c18a-4070-a987-202949b4446a","meta":{"profile":["http://hl7.org/fhir/us/qicore/StructureDefinition/qicore-patient"]},"text":{"status":"generated","div":"<div xmlns=\"http://www.w3.org/1999/xhtml\"><div class=\"hapiHeaderText\">ProcTPA=24HrsB4IPEnc <b>DENEXPASS </b></div><table class=\"hapiPropertyTable\"><tbody><tr><td>Identifier</td><td>e1ccb8d7064ef318a17ff487851987df</td></tr><tr><td>Date of birth</td><td><span>26 September 1975</span></td></tr></tbody></table></div>"},"extension":[{"url":"http://hl7.org/fhir/us/core/StructureDefinition/us-core-race","extension":[{"url":"ombCategory","valueCoding":{"system":"urn:oid:2.16.840.1.113883.6.238","code":"2054-5","display":"Black or African American","userSelected":true}},{"url":"text","valueString":"Black or African American"}]},{"url":"http://hl7.org/fhir/us/core/StructureDefinition/us-core-ethnicity","extension":[{"url":"ombCategory","valueCoding":{"system":"urn:oid:2.16.840.1.113883.6.238","code":"2186-5","display":"Not Hispanic or Latino","userSelected":true}},{"url":"text","valueString":"Not Hispanic or Latino"}]}],"identifier":[{"type":{"coding":[{"system":"http://terminology.hl7.org/CodeSystem/v2-0203","code":"MR"}]},"system":"https://bonnie-fhir.healthit.gov/","value":"60f82c2e98086b570510e262"}],"active":true,"name":[{"use":"usual","family":"DENEXPass","given":["ProcTPAEQ24HrsB4IPEnc"]}],"gender":"female","birthDate":"1976-09-26"},"request":{"method":"PUT","url":"Patient/b8af7899-c18a-4070-a987-202949b4446a"}},{"fullUrl":"Bundle/60f82c2e98086b570510e262","resource":{"resourceType":"Bundle","id":"60f82c2e98086b570510e262","type":"transaction","entry":[{"fullUrl":"https://madie.cms.gov/Patient/b8af7899-c18a-4070-a987-202949b4446a","resource":{"resourceType":"Patient","id":"b8af7899-c18a-4070-a987-202949b4446a","meta":{"profile":["http://hl7.org/fhir/us/qicore/StructureDefinition/qicore-patient"]},"text":{"status":"generated","div":"<div xmlns=\"http://www.w3.org/1999/xhtml\"><div class=\"hapiHeaderText\">ProcTPA=24HrsB4IPEnc <b>DENEXPASS </b></div><table class=\"hapiPropertyTable\"><tbody><tr><td>Identifier</td><td>e1ccb8d7064ef318a17ff487851987df</td></tr><tr><td>Date of birth</td><td><span>26 September 1975</span></td></tr></tbody></table></div>"},"extension":[{"url":"http://hl7.org/fhir/us/core/StructureDefinition/us-core-race","extension":[{"url":"ombCategory","valueCoding":{"system":"urn:oid:2.16.840.1.113883.6.238","code":"2054-5","display":"Black or African American","userSelected":true}},{"url":"text","valueString":"Black or African American"}]},{"url":"http://hl7.org/fhir/us/core/StructureDefinition/us-core-ethnicity","extension":[{"url":"ombCategory","valueCoding":{"system":"urn:oid:2.16.840.1.113883.6.238","code":"2186-5","display":"Not Hispanic or Latino","userSelected":true}},{"url":"text","valueString":"Not Hispanic or Latino"}]}],"identifier":[{"type":{"coding":[{"system":"http://terminology.hl7.org/CodeSystem/v2-0203","code":"MR"}]},"system":"https://bonnie-fhir.healthit.gov/","value":"60f82c2e98086b570510e262"}],"active":true,"name":[{"use":"usual","family":"DENEXPass","given":["ProcTPAEQ24HrsB4IPEnc"]}],"gender":"female","birthDate":"1976-09-26"},"request":{"method":"PUT","url":"Patient/b8af7899-c18a-4070-a987-202949b4446a"}},{"fullUrl":"https://madie.cms.gov/Encounter/603fab26-6b1a-418f-9a6c-a2e7a93304d1","resource":{"resourceType":"Encounter","id":"603fab26-6b1a-418f-9a6c-a2e7a93304d1","meta":{"profile":["http://hl7.org/fhir/us/qicore/StructureDefinition/qicore-encounter"]},"status":"finished","class":{"system":"http://terminology.hl7.org/CodeSystem/v3-ActCode","code":"IMP","display":"inpatient encounter"},"type":[{"coding":[{"system":"http://snomed.info/sct","code":"32485007"}]}],"subject":{"reference":"Patient/b8af7899-c18a-4070-a987-202949b4446a"},"period":{"start":"2026-10-10T09:00:00Z","end":"2026-10-12T11:15:00.000+00:00"},"length":{"value":2,"unit":"days"},"reasonCode":[{"coding":[{"system":"http://snomed.info/sct","code":"307521008"}]}],"reasonReference":[{"reference":"Condition/133f4ed8-1fe2-4700-bb33-06bebc244577"}]},"request":{"method":"PUT","url":"Encounter/603fab26-6b1a-418f-9a6c-a2e7a93304d1"}},{"fullUrl":"https://madie.cms.gov/Coverage/1217f133-99e8-4ae1-8937-ab9ab68faace","resource":{"resourceType":"Coverage","id":"1217f133-99e8-4ae1-8937-ab9ab68faace","status":"active","beneficiary":{"reference":"Patient/b8af7899-c18a-4070-a987-202949b4446a"},"period":{"start":"1976-09-26T08:00:00Z"},"payor":[{"reference":"Organization/ed893777-b1b5-4dd5-bb25-858dcf2c909e"}]},"request":{"method":"PUT","url":"Coverage/1217f133-99e8-4ae1-8937-ab9ab68faace"}},{"fullUrl":"https://madie.cms.gov/Procedure/5167f979-e5d0-4230-9dae-466ec2a8fcfc","resource":{"resourceType":"Procedure","id":"5167f979-e5d0-4230-9dae-466ec2a8fcfc","meta":{"profile":["http://hl7.org/fhir/us/qicore/StructureDefinition/qicore-procedure"]},"extension":[{"url":"http://hl7.org/fhir/us/qicore/StructureDefinition/qicore-recorded","valueDateTime":"2026-10-09T09:00:00Z"}],"status":"completed","code":{"coding":[{"system":"http://snomed.info/sct","code":"307521008"}]},"subject":{"reference":"Patient/b8af7899-c18a-4070-a987-202949b4446a"},"performedPeriod":{"start":"2026-10-10T09:00:00Z","end":"2026-10-12T11:15:00.000+00:00"}},"request":{"method":"PUT","url":"Procedure/5167f979-e5d0-4230-9dae-466ec2a8fcfc"}},{"fullUrl":"https://madie.cms.gov/Condition/133f4ed8-1fe2-4700-bb33-06bebc244577","resource":{"resourceType":"Condition","id":"133f4ed8-1fe2-4700-bb33-06bebc244577","meta":{"profile":["http://hl7.org/fhir/us/qicore/StructureDefinition/qicore-condition-encounter-diagnosis"]},"clinicalStatus":{"coding":[{"system":"http://terminology.hl7.org/CodeSystem/condition-clinical","code":"active"}]},"verificationStatus":{"coding":[{"system":"http://terminology.hl7.org/CodeSystem/condition-ver-status","code":"confirmed"}]},"category":[{"coding":[{"system":"http://terminology.hl7.org/CodeSystem/condition-category","code":"encounter-diagnosis","display":"Encounter Diagnosis"}]}],"code":{"coding":[{"system":"http://snomed.info/sct","version":"2020-09","code":"111297002","display":"Nonparalytic stroke (disorder)","userSelected":true}]},"subject":{"reference":"Patient/b8af7899-c18a-4070-a987-202949b4446a"},"encounter":{"reference":"Encounter/603fab26-6b1a-418f-9a6c-a2e7a93304d1"},"recordedDate":"2026-08-13T08:00:00Z"},"request":{"method":"PUT","url":"Condition/133f4ed8-1fe2-4700-bb33-06bebc244577"}},{"fullUrl":"https://madie.cms.gov/claim/5ca62962b8484628b8de1ec5","resource":{"resourceType":"Claim","id":"5ca62962b8484628b8de1ec5","meta":{"profile":["http://hl7.org/fhir/us/qicore/StructureDefinition/qicore-claim"]},"status":"active","type":{"coding":[{"system":"http://terminology.hl7.org/CodeSystem/claim-type","code":"institutional"}]},"use":"claim","patient":{"reference":"Patient/b8af7899-c18a-4070-a987-202949b4446a"},"created":"2026-12-01","provider":{"reference":"Practitioner/practitioner-123456"},"priority":{"coding":[{"system":"http://terminology.hl7.org/CodeSystem/processpriority","code":"normal"}]},"diagnosis":[{"sequence":1,"diagnosisCodeableConcept":{"coding":[{"system":"http://hl7.org/fhir/sid/icd-10-cm","code":"I63.00"}]},"type":[{"coding":[{"system":"http://terminology.hl7.org/CodeSystem/ex-diagnosistype","code":"principal"}]}]}],"insurance":[{"sequence":1,"focal":true,"coverage":{"reference":"Coverage/5fa041661c76ba66d9959367"}}],"item":[{"sequence":1,"diagnosisSequence":[1],"productOrService":{"coding":[{"system":"http://terminology.hl7.org/CodeSystem/ex-USCLS","code":"99555"}]},"encounter":[{"reference":"Encounter/603fab26-6b1a-418f-9a6c-a2e7a93304d1"}]}]},"request":{"method":"PUT","url":"Claim/5ca62962b8484628b8de1ec5"}},{"fullUrl":"https://madie.cms.gov/Organization/ed893777-b1b5-4dd5-bb25-858dcf2c909e","resource":{"resourceType":"Organization","id":"ed893777-b1b5-4dd5-bb25-858dcf2c909e","meta":{"profile":["http://hl7.org/fhir/us/qicore/StructureDefinition/qicore-organization"]},"identifier":[{"use":"temp","system":"urn:oid:2.16.840.1.113883.4.4","value":"21-3259825"}],"active":true,"type":[{"coding":[{"system":"http://terminology.hl7.org/CodeSystem/organization-type","code":"pay","display":"Payer"}]}],"name":"Blue Cross Blue Shield of Texas","telecom":[{"system":"phone","value":"(+1) 972-766-6900"}],"address":[{"use":"billing","type":"postal","line":["P.O. Box 660044"],"city":"Dallas","state":"TX","postalCode":"75266-0044","country":"USA"}]},"request":{"method":"PUT","url":"Organization/ed893777-b1b5-4dd5-bb25-858dcf2c909e"}},{"fullUrl":"https://madie.cms.gov/MeasureReport/86d98fe4-b519-48b3-a67d-7b8c39164a4f","resource":{"resourceType":"MeasureReport","id":"86d98fe4-b519-48b3-a67d-7b8c39164a4f","meta":{"profile":["http://hl7.org/fhir/us/cqfmeasures/StructureDefinition/test-case-cqfm"]},"contained":[{"resourceType":"Parameters","id":"c541acb9-58f6-4a6d-b6f8-e4342ec653d9-parameters","parameter":[{"name":"subject","valueString":"b8af7899-c18a-4070-a987-202949b4446a"}]}],"extension":[{"url":"http://hl7.org/fhir/StructureDefinition/cqf-inputParameters","valueReference":{"reference":"#c541acb9-58f6-4a6d-b6f8-e4342ec653d9-parameters"}},{"url":"http://hl7.org/fhir/us/cqfmeasures/StructureDefinition/cqfm-testCaseDescription","valueMarkdown":"Patient receives IV or IA TPA  procedure = 24 hours before IP encounter starts\n"}],"modifierExtension":[{"url":"http://hl7.org/fhir/us/cqfmeasures/StructureDefinition/cqfm-isTestCase","valueBoolean":true}],"status":"complete","type":"individual","measure":"https://madie.cms.gov/Measure/CMS72FHIRSTKAntithromboticDay2","period":{"start":"2026-01-01","end":"2026-12-31"},"group":[{"id":"Group_1","population":[{"id":"InitialPopulation_1","code":{"coding":[{"system":"http://terminology.hl7.org/CodeSystem/measure-population","code":"initial-population","display":"Initial Population"}]},"count":1},{"id":"Denominator_1","code":{"coding":[{"system":"http://terminology.hl7.org/CodeSystem/measure-population","code":"denominator","display":"Denominator"}]},"count":1},{"id":"DenominatorExclusion_1","code":{"coding":[{"system":"http://terminology.hl7.org/CodeSystem/measure-population","code":"denominator-exclusion","display":"Denominator Exclusion"}]},"count":1},{"id":"Numerator_1","code":{"coding":[{"system":"http://terminology.hl7.org/CodeSystem/measure-population","code":"numerator","display":"Numerator"}]},"count":0},{"id":"DenominatorException_1","code":{"coding":[{"system":"http://terminology.hl7.org/CodeSystem/measure-population","code":"denominator-exception","display":"Denominator Exception"}]},"count":0}],"measureScore":{"value":0.0}}],"evaluatedResource":[{"reference":"Patient/b8af7899-c18a-4070-a987-202949b4446a"},{"reference":"Encounter/603fab26-6b1a-418f-9a6c-a2e7a93304d1"},{"reference":"Coverage/1217f133-99e8-4ae1-8937-ab9ab68faace"},{"reference":"Procedure/5167f979-e5d0-4230-9dae-466ec2a8fcfc"},{"reference":"Condition/133f4ed8-1fe2-4700-bb33-06bebc244577"},{"reference":"Claim/5ca62962b8484628b8de1ec5"},{"reference":"Organization/ed893777-b1b5-4dd5-bb25-858dcf2c909e"}]},"request":{"method":"PUT","url":"MeasureReport/86d98fe4-b519-48b3-a67d-7b8c39164a4f"}}]},"request":{"method":"PUT","url":"Bundle/60f82c2e98086b570510e262"}},{"fullUrl":"Coverage/1217f133-99e8-4ae1-8937-ab9ab68faace","resource":{"resourceType":"Coverage","id":"1217f133-99e8-4ae1-8937-ab9ab68faace","status":"active","beneficiary":{"reference":"Patient/b8af7899-c18a-4070-a987-202949b4446a"},"period":{"start":"1976-09-26T08:00:00Z"},"payor":[{"reference":"Organization/ed893777-b1b5-4dd5-bb25-858dcf2c909e"}]},"request":{"method":"PUT","url":"Coverage/1217f133-99e8-4ae1-8937-ab9ab68faace"}},{"fullUrl":"Procedure/5167f979-e5d0-4230-9dae-466ec2a8fcfc","resource":{"resourceType":"Procedure","id":"5167f979-e5d0-4230-9dae-466ec2a8fcfc","meta":{"profile":["http://hl7.org/fhir/us/qicore/StructureDefinition/qicore-procedure"]},"extension":[{"url":"http://hl7.org/fhir/us/qicore/StructureDefinition/qicore-recorded","valueDateTime":"2026-10-09T09:00:00Z"}],"status":"completed","code":{"coding":[{"system":"http://snomed.info/sct","code":"307521008"}]},"subject":{"reference":"Patient/b8af7899-c18a-4070-a987-202949b4446a"},"performedPeriod":{"start":"2026-10-10T09:00:00Z","end":"2026-10-12T11:15:00.000+00:00"}},"request":{"method":"PUT","url":"Procedure/5167f979-e5d0-4230-9dae-466ec2a8fcfc"}},{"fullUrl":"Claim/5ca62962b8484628b8de1ec5","resource":{"resourceType":"Claim","id":"5ca62962b8484628b8de1ec5","meta":{"profile":["http://hl7.org/fhir/us/qicore/StructureDefinition/qicore-claim"]},"status":"active","type":{"coding":[{"system":"http://terminology.hl7.org/CodeSystem/claim-type","code":"institutional"}]},"use":"claim","patient":{"reference":"Patient/b8af7899-c18a-4070-a987-202949b4446a"},"created":"2026-12-01","provider":{"reference":"Practitioner/practitioner-123456"},"priority":{"coding":[{"system":"http://terminology.hl7.org/CodeSystem/processpriority","code":"normal"}]},"diagnosis":[{"sequence":1,"diagnosisCodeableConcept":{"coding":[{"system":"http://hl7.org/fhir/sid/icd-10-cm","code":"I63.00"}]},"type":[{"coding":[{"system":"http://terminology.hl7.org/CodeSystem/ex-diagnosistype","code":"principal"}]}]}],"insurance":[{"sequence":1,"focal":true,"coverage":{"reference":"Coverage/5fa041661c76ba66d9959367"}}],"item":[{"sequence":1,"diagnosisSequence":[1],"productOrService":{"coding":[{"system":"http://terminology.hl7.org/CodeSystem/ex-USCLS","code":"99555"}]},"encounter":[{"reference":"Encounter/603fab26-6b1a-418f-9a6c-a2e7a93304d1"}]}]},"request":{"method":"PUT","url":"Claim/5ca62962b8484628b8de1ec5"}}]}