{"resourceType":"Bundle","id":"tests-2505f602-4b0b-4e31-bd98-83ea0fac484f-bundle","type":"transaction","entry":[{"fullUrl":"Condition/fae03537-3db8-46d3-939e-a4d7ffa9a29c","resource":{"resourceType":"Condition","id":"fae03537-3db8-46d3-939e-a4d7ffa9a29c","meta":{"profile":["http://hl7.org/fhir/us/qicore/StructureDefinition/qicore-condition-encounter-diagnosis"]},"clinicalStatus":{"coding":[{"system":"http://terminology.hl7.org/CodeSystem/condition-clinical","code":"active"}]},"verificationStatus":{"coding":[{"system":"http://terminology.hl7.org/CodeSystem/condition-ver-status","code":"confirmed"}]},"category":[{"coding":[{"system":"http://terminology.hl7.org/CodeSystem/condition-category","code":"encounter-diagnosis","display":"Encounter Diagnosis"}]}],"code":{"coding":[{"system":"http://snomed.info/sct","version":"2020-09","code":"111297002","display":"Nonparalytic stroke (disorder)","userSelected":true}]},"subject":{"reference":"Patient/2505f602-4b0b-4e31-bd98-83ea0fac484f"},"recordedDate":"2026-08-13T08:00:00Z"},"request":{"method":"PUT","url":"Condition/fae03537-3db8-46d3-939e-a4d7ffa9a29c"}},{"fullUrl":"Encounter/1f69438b-4754-49d3-8fe0-89e5a0406fa7","resource":{"resourceType":"Encounter","id":"1f69438b-4754-49d3-8fe0-89e5a0406fa7","meta":{"profile":["http://hl7.org/fhir/us/qicore/StructureDefinition/qicore-encounter"]},"status":"finished","class":{"system":"http://terminology.hl7.org/CodeSystem/v3-ActCode","code":"EMER","display":"emergency","userSelected":true},"type":[{"coding":[{"system":"http://snomed.info/sct","code":"4525004"}]}],"subject":{"reference":"Patient/2505f602-4b0b-4e31-bd98-83ea0fac484f"},"period":{"start":"2026-10-10T04:00:00Z","end":"2026-10-10T06:00:00.000+00:00"},"length":{"value":0,"unit":"days"}},"request":{"method":"PUT","url":"Encounter/1f69438b-4754-49d3-8fe0-89e5a0406fa7"}},{"fullUrl":"Organization/ac436f57-e3da-48ba-9d5f-8962abd45721","resource":{"resourceType":"Organization","id":"ac436f57-e3da-48ba-9d5f-8962abd45721","meta":{"profile":["http://hl7.org/fhir/us/qicore/StructureDefinition/qicore-organization"]},"identifier":[{"use":"temp","system":"urn:oid:2.16.840.1.113883.4.4","value":"21-3259825"}],"active":true,"type":[{"coding":[{"system":"http://terminology.hl7.org/CodeSystem/organization-type","code":"pay","display":"Payer"}]}],"name":"Blue Cross Blue Shield of Texas","telecom":[{"system":"phone","value":"(+1) 972-766-6900"}],"address":[{"use":"billing","type":"postal","line":["P.O. Box 660044"],"city":"Dallas","state":"TX","postalCode":"75266-0044","country":"USA"}]},"request":{"method":"PUT","url":"Organization/ac436f57-e3da-48ba-9d5f-8962abd45721"}},{"fullUrl":"Patient/2505f602-4b0b-4e31-bd98-83ea0fac484f","resource":{"resourceType":"Patient","id":"2505f602-4b0b-4e31-bd98-83ea0fac484f","meta":{"profile":["http://hl7.org/fhir/us/qicore/StructureDefinition/qicore-patient"]},"text":{"status":"generated","div":"<div xmlns=\"http://www.w3.org/1999/xhtml\"><div class=\"hapiHeaderText\">CMP&lt;1day_DuringEncIP <b>DENEXPASS </b></div><table class=\"hapiPropertyTable\"><tbody><tr><td>Identifier</td><td>29ee7c03f9bc2d520cd864a0cadbd62a</td></tr><tr><td>Date of birth</td><td><span>26 September 1975</span></td></tr></tbody></table></div>"},"extension":[{"url":"http://hl7.org/fhir/us/core/StructureDefinition/us-core-race","extension":[{"url":"ombCategory","valueCoding":{"system":"urn:oid:2.16.840.1.113883.6.238","code":"2054-5","display":"Black or African American","userSelected":true}},{"url":"text","valueString":"Black or African American"}]},{"url":"http://hl7.org/fhir/us/core/StructureDefinition/us-core-ethnicity","extension":[{"url":"ombCategory","valueCoding":{"system":"urn:oid:2.16.840.1.113883.6.238","code":"2186-5","display":"Not Hispanic or Latino","userSelected":true}},{"url":"text","valueString":"Not Hispanic or Latino"}]}],"identifier":[{"type":{"coding":[{"system":"http://terminology.hl7.org/CodeSystem/v2-0203","code":"MR"}]},"system":"https://bonnie-fhir.healthit.gov/","value":"60f82c2e98086b570510e288"}],"active":true,"name":[{"use":"usual","family":"DENEXPass","given":["CMP<1dayDuringEncIP"]}],"gender":"female","birthDate":"1976-09-26"},"request":{"method":"PUT","url":"Patient/2505f602-4b0b-4e31-bd98-83ea0fac484f"}},{"fullUrl":"Encounter/aef312f3-c81c-467a-841d-39bc9dc72348","resource":{"resourceType":"Encounter","id":"aef312f3-c81c-467a-841d-39bc9dc72348","meta":{"profile":["http://hl7.org/fhir/us/qicore/StructureDefinition/qicore-encounter"]},"status":"finished","class":{"system":"http://terminology.hl7.org/CodeSystem/v3-ActCode","code":"IMP","display":"inpatient encounter","userSelected":true},"type":[{"coding":[{"system":"http://snomed.info/sct","code":"32485007"}]}],"subject":{"reference":"Patient/2505f602-4b0b-4e31-bd98-83ea0fac484f"},"period":{"start":"2026-10-10T06:15:00Z","end":"2026-10-11T11:30:00.000+00:00"},"length":{"value":1,"unit":"days"},"reasonReference":[{"reference":"Condition/fae03537-3db8-46d3-939e-a4d7ffa9a29c"}]},"request":{"method":"PUT","url":"Encounter/aef312f3-c81c-467a-841d-39bc9dc72348"}},{"fullUrl":"Procedure/ac852c06-1c3c-4568-8d11-f860881053fa","resource":{"resourceType":"Procedure","id":"ac852c06-1c3c-4568-8d11-f860881053fa","meta":{"profile":["http://hl7.org/fhir/us/qicore/StructureDefinition/qicore-procedure"]},"extension":[{"url":"http://hl7.org/fhir/us/qicore/StructureDefinition/qicore-recorded","valueDateTime":"2026-11-19T13:35:00Z"}],"status":"completed","code":{"coding":[{"system":"http://snomed.info/sct","code":"133918004"}]},"subject":{"reference":"Patient/2505f602-4b0b-4e31-bd98-83ea0fac484f"},"performedPeriod":{"start":"2026-10-10T11:14:00Z"}},"request":{"method":"PUT","url":"Procedure/ac852c06-1c3c-4568-8d11-f860881053fa"}},{"fullUrl":"Coverage/85491232-4e74-4120-bf59-1a81929d351e","resource":{"resourceType":"Coverage","id":"85491232-4e74-4120-bf59-1a81929d351e","status":"active","beneficiary":{"reference":"Patient/2505f602-4b0b-4e31-bd98-83ea0fac484f"},"period":{"start":"1976-09-26T08:00:00Z"},"payor":[{"reference":"Organization/ac436f57-e3da-48ba-9d5f-8962abd45721"}]},"request":{"method":"PUT","url":"Coverage/85491232-4e74-4120-bf59-1a81929d351e"}},{"fullUrl":"Bundle/60f82c2e98086b570510e288","resource":{"resourceType":"Bundle","id":"60f82c2e98086b570510e288","type":"transaction","entry":[{"fullUrl":"https://madie.cms.gov/Patient/2505f602-4b0b-4e31-bd98-83ea0fac484f","resource":{"resourceType":"Patient","id":"2505f602-4b0b-4e31-bd98-83ea0fac484f","meta":{"profile":["http://hl7.org/fhir/us/qicore/StructureDefinition/qicore-patient"]},"text":{"status":"generated","div":"<div xmlns=\"http://www.w3.org/1999/xhtml\"><div class=\"hapiHeaderText\">CMP&lt;1day_DuringEncIP <b>DENEXPASS </b></div><table class=\"hapiPropertyTable\"><tbody><tr><td>Identifier</td><td>29ee7c03f9bc2d520cd864a0cadbd62a</td></tr><tr><td>Date of birth</td><td><span>26 September 1975</span></td></tr></tbody></table></div>"},"extension":[{"url":"http://hl7.org/fhir/us/core/StructureDefinition/us-core-race","extension":[{"url":"ombCategory","valueCoding":{"system":"urn:oid:2.16.840.1.113883.6.238","code":"2054-5","display":"Black or African American","userSelected":true}},{"url":"text","valueString":"Black or African American"}]},{"url":"http://hl7.org/fhir/us/core/StructureDefinition/us-core-ethnicity","extension":[{"url":"ombCategory","valueCoding":{"system":"urn:oid:2.16.840.1.113883.6.238","code":"2186-5","display":"Not Hispanic or Latino","userSelected":true}},{"url":"text","valueString":"Not Hispanic or Latino"}]}],"identifier":[{"type":{"coding":[{"system":"http://terminology.hl7.org/CodeSystem/v2-0203","code":"MR"}]},"system":"https://bonnie-fhir.healthit.gov/","value":"60f82c2e98086b570510e288"}],"active":true,"name":[{"use":"usual","family":"DENEXPass","given":["CMP<1dayDuringEncIP"]}],"gender":"female","birthDate":"1976-09-26"},"request":{"method":"PUT","url":"Patient/2505f602-4b0b-4e31-bd98-83ea0fac484f"}},{"fullUrl":"https://madie.cms.gov/Encounter/1f69438b-4754-49d3-8fe0-89e5a0406fa7","resource":{"resourceType":"Encounter","id":"1f69438b-4754-49d3-8fe0-89e5a0406fa7","meta":{"profile":["http://hl7.org/fhir/us/qicore/StructureDefinition/qicore-encounter"]},"status":"finished","class":{"system":"http://terminology.hl7.org/CodeSystem/v3-ActCode","code":"EMER","display":"emergency","userSelected":true},"type":[{"coding":[{"system":"http://snomed.info/sct","code":"4525004"}]}],"subject":{"reference":"Patient/2505f602-4b0b-4e31-bd98-83ea0fac484f"},"period":{"start":"2026-10-10T04:00:00Z","end":"2026-10-10T06:00:00.000+00:00"},"length":{"value":0,"unit":"days"}},"request":{"method":"PUT","url":"Encounter/1f69438b-4754-49d3-8fe0-89e5a0406fa7"}},{"fullUrl":"https://madie.cms.gov/Encounter/aef312f3-c81c-467a-841d-39bc9dc72348","resource":{"resourceType":"Encounter","id":"aef312f3-c81c-467a-841d-39bc9dc72348","meta":{"profile":["http://hl7.org/fhir/us/qicore/StructureDefinition/qicore-encounter"]},"status":"finished","class":{"system":"http://terminology.hl7.org/CodeSystem/v3-ActCode","code":"IMP","display":"inpatient encounter","userSelected":true},"type":[{"coding":[{"system":"http://snomed.info/sct","code":"32485007"}]}],"subject":{"reference":"Patient/2505f602-4b0b-4e31-bd98-83ea0fac484f"},"period":{"start":"2026-10-10T06:15:00Z","end":"2026-10-11T11:30:00.000+00:00"},"length":{"value":1,"unit":"days"},"reasonReference":[{"reference":"Condition/fae03537-3db8-46d3-939e-a4d7ffa9a29c"}]},"request":{"method":"PUT","url":"Encounter/aef312f3-c81c-467a-841d-39bc9dc72348"}},{"fullUrl":"https://madie.cms.gov/claim/5ca62962b8484628b8de1ec5","resource":{"resourceType":"Claim","id":"5ca62962b8484628b8de1ec5","meta":{"profile":["http://hl7.org/fhir/us/qicore/StructureDefinition/qicore-claim"]},"status":"active","type":{"coding":[{"system":"http://terminology.hl7.org/CodeSystem/claim-type","code":"institutional"}]},"use":"claim","patient":{"reference":"Patient/2505f602-4b0b-4e31-bd98-83ea0fac484f"},"created":"2026-12-01","provider":{"reference":"Practitioner/practitioner-123456"},"priority":{"coding":[{"system":"http://terminology.hl7.org/CodeSystem/processpriority","code":"normal"}]},"diagnosis":[{"sequence":1,"diagnosisCodeableConcept":{"coding":[{"system":"http://hl7.org/fhir/sid/icd-10-cm","code":"I63.00"}]},"type":[{"coding":[{"system":"http://terminology.hl7.org/CodeSystem/ex-diagnosistype","code":"principal"}]}]}],"insurance":[{"sequence":1,"focal":true,"coverage":{"reference":"Coverage/85491232-4e74-4120-bf59-1a81929d351e"}}],"item":[{"sequence":1,"diagnosisSequence":[1],"productOrService":{"coding":[{"system":"http://terminology.hl7.org/CodeSystem/ex-USCLS","code":"99555"}]},"encounter":[{"reference":"Encounter/aef312f3-c81c-467a-841d-39bc9dc72348"}]}]},"request":{"method":"PUT","url":"Claim/5ca62962b8484628b8de1ec5"}},{"fullUrl":"https://madie.cms.gov/Procedure/ac852c06-1c3c-4568-8d11-f860881053fa","resource":{"resourceType":"Procedure","id":"ac852c06-1c3c-4568-8d11-f860881053fa","meta":{"profile":["http://hl7.org/fhir/us/qicore/StructureDefinition/qicore-procedure"]},"extension":[{"url":"http://hl7.org/fhir/us/qicore/StructureDefinition/qicore-recorded","valueDateTime":"2026-11-19T13:35:00Z"}],"status":"completed","code":{"coding":[{"system":"http://snomed.info/sct","code":"133918004"}]},"subject":{"reference":"Patient/2505f602-4b0b-4e31-bd98-83ea0fac484f"},"performedPeriod":{"start":"2026-10-10T11:14:00Z"}},"request":{"method":"PUT","url":"Procedure/ac852c06-1c3c-4568-8d11-f860881053fa"}},{"fullUrl":"https://madie.cms.gov/Coverage/85491232-4e74-4120-bf59-1a81929d351e","resource":{"resourceType":"Coverage","id":"85491232-4e74-4120-bf59-1a81929d351e","status":"active","beneficiary":{"reference":"Patient/2505f602-4b0b-4e31-bd98-83ea0fac484f"},"period":{"start":"1976-09-26T08:00:00Z"},"payor":[{"reference":"Organization/ac436f57-e3da-48ba-9d5f-8962abd45721"}]},"request":{"method":"PUT","url":"Coverage/85491232-4e74-4120-bf59-1a81929d351e"}},{"fullUrl":"https://madie.cms.gov/Condition/fae03537-3db8-46d3-939e-a4d7ffa9a29c","resource":{"resourceType":"Condition","id":"fae03537-3db8-46d3-939e-a4d7ffa9a29c","meta":{"profile":["http://hl7.org/fhir/us/qicore/StructureDefinition/qicore-condition-encounter-diagnosis"]},"clinicalStatus":{"coding":[{"system":"http://terminology.hl7.org/CodeSystem/condition-clinical","code":"active"}]},"verificationStatus":{"coding":[{"system":"http://terminology.hl7.org/CodeSystem/condition-ver-status","code":"confirmed"}]},"category":[{"coding":[{"system":"http://terminology.hl7.org/CodeSystem/condition-category","code":"encounter-diagnosis","display":"Encounter Diagnosis"}]}],"code":{"coding":[{"system":"http://snomed.info/sct","version":"2020-09","code":"111297002","display":"Nonparalytic stroke (disorder)","userSelected":true}]},"subject":{"reference":"Patient/2505f602-4b0b-4e31-bd98-83ea0fac484f"},"recordedDate":"2026-08-13T08:00:00Z"},"request":{"method":"PUT","url":"Condition/fae03537-3db8-46d3-939e-a4d7ffa9a29c"}},{"fullUrl":"https://madie.cms.gov/Organization/ac436f57-e3da-48ba-9d5f-8962abd45721","resource":{"resourceType":"Organization","id":"ac436f57-e3da-48ba-9d5f-8962abd45721","meta":{"profile":["http://hl7.org/fhir/us/qicore/StructureDefinition/qicore-organization"]},"identifier":[{"use":"temp","system":"urn:oid:2.16.840.1.113883.4.4","value":"21-3259825"}],"active":true,"type":[{"coding":[{"system":"http://terminology.hl7.org/CodeSystem/organization-type","code":"pay","display":"Payer"}]}],"name":"Blue Cross Blue Shield of Texas","telecom":[{"system":"phone","value":"(+1) 972-766-6900"}],"address":[{"use":"billing","type":"postal","line":["P.O. Box 660044"],"city":"Dallas","state":"TX","postalCode":"75266-0044","country":"USA"}]},"request":{"method":"PUT","url":"Organization/ac436f57-e3da-48ba-9d5f-8962abd45721"}},{"fullUrl":"https://madie.cms.gov/MeasureReport/f0554464-b77a-4002-9684-ab0a7ab4222b","resource":{"resourceType":"MeasureReport","id":"f0554464-b77a-4002-9684-ab0a7ab4222b","meta":{"profile":["http://hl7.org/fhir/us/cqfmeasures/StructureDefinition/test-case-cqfm"]},"contained":[{"resourceType":"Parameters","id":"fa0e3f77-20c3-433a-84ef-fad6daaff3da-parameters","parameter":[{"name":"subject","valueString":"2505f602-4b0b-4e31-bd98-83ea0fac484f"}]}],"extension":[{"url":"http://hl7.org/fhir/StructureDefinition/cqf-inputParameters","valueReference":{"reference":"#fa0e3f77-20c3-433a-84ef-fad6daaff3da-parameters"}},{"url":"http://hl7.org/fhir/us/cqfmeasures/StructureDefinition/cqfm-testCaseDescription","valueMarkdown":"Patient receives comfort measures performed CMP<1day (=0 day)   during Enc IP   global.\"Hospitalization\" =(Ed+IP)\n"}],"modifierExtension":[{"url":"http://hl7.org/fhir/us/cqfmeasures/StructureDefinition/cqfm-isTestCase","valueBoolean":true}],"status":"complete","type":"individual","measure":"https://madie.cms.gov/Measure/CMS72FHIRSTKAntithromboticDay2","period":{"start":"2026-01-01","end":"2026-12-31"},"group":[{"id":"Group_1","population":[{"id":"InitialPopulation_1","code":{"coding":[{"system":"http://terminology.hl7.org/CodeSystem/measure-population","code":"initial-population","display":"Initial Population"}]},"count":1},{"id":"Denominator_1","code":{"coding":[{"system":"http://terminology.hl7.org/CodeSystem/measure-population","code":"denominator","display":"Denominator"}]},"count":1},{"id":"DenominatorExclusion_1","code":{"coding":[{"system":"http://terminology.hl7.org/CodeSystem/measure-population","code":"denominator-exclusion","display":"Denominator Exclusion"}]},"count":1},{"id":"Numerator_1","code":{"coding":[{"system":"http://terminology.hl7.org/CodeSystem/measure-population","code":"numerator","display":"Numerator"}]},"count":0},{"id":"DenominatorException_1","code":{"coding":[{"system":"http://terminology.hl7.org/CodeSystem/measure-population","code":"denominator-exception","display":"Denominator Exception"}]},"count":0}],"measureScore":{"value":0.0}}],"evaluatedResource":[{"reference":"Patient/2505f602-4b0b-4e31-bd98-83ea0fac484f"},{"reference":"Encounter/1f69438b-4754-49d3-8fe0-89e5a0406fa7"},{"reference":"Encounter/aef312f3-c81c-467a-841d-39bc9dc72348"},{"reference":"Claim/5ca62962b8484628b8de1ec5"},{"reference":"Procedure/ac852c06-1c3c-4568-8d11-f860881053fa"},{"reference":"Coverage/85491232-4e74-4120-bf59-1a81929d351e"},{"reference":"Condition/fae03537-3db8-46d3-939e-a4d7ffa9a29c"},{"reference":"Organization/ac436f57-e3da-48ba-9d5f-8962abd45721"}]},"request":{"method":"PUT","url":"MeasureReport/f0554464-b77a-4002-9684-ab0a7ab4222b"}}]},"request":{"method":"PUT","url":"Bundle/60f82c2e98086b570510e288"}},{"fullUrl":"MeasureReport/f0554464-b77a-4002-9684-ab0a7ab4222b","resource":{"resourceType":"MeasureReport","id":"f0554464-b77a-4002-9684-ab0a7ab4222b","meta":{"profile":["http://hl7.org/fhir/us/cqfmeasures/StructureDefinition/test-case-cqfm"]},"contained":[{"resourceType":"Parameters","id":"fa0e3f77-20c3-433a-84ef-fad6daaff3da-parameters","parameter":[{"name":"subject","valueString":"2505f602-4b0b-4e31-bd98-83ea0fac484f"}]}],"extension":[{"url":"http://hl7.org/fhir/StructureDefinition/cqf-inputParameters","valueReference":{"reference":"#fa0e3f77-20c3-433a-84ef-fad6daaff3da-parameters"}},{"url":"http://hl7.org/fhir/us/cqfmeasures/StructureDefinition/cqfm-testCaseDescription","valueMarkdown":"Patient receives comfort measures performed CMP<1day (=0 day)   during Enc IP   global.\"Hospitalization\" =(Ed+IP)\n"}],"modifierExtension":[{"url":"http://hl7.org/fhir/us/cqfmeasures/StructureDefinition/cqfm-isTestCase","valueBoolean":true}],"status":"complete","type":"individual","measure":"https://madie.cms.gov/Measure/CMS72FHIRSTKAntithromboticDay2","period":{"start":"2026-01-01","end":"2026-12-31"},"group":[{"id":"Group_1","population":[{"id":"InitialPopulation_1","code":{"coding":[{"system":"http://terminology.hl7.org/CodeSystem/measure-population","code":"initial-population","display":"Initial Population"}]},"count":1},{"id":"Denominator_1","code":{"coding":[{"system":"http://terminology.hl7.org/CodeSystem/measure-population","code":"denominator","display":"Denominator"}]},"count":1},{"id":"DenominatorExclusion_1","code":{"coding":[{"system":"http://terminology.hl7.org/CodeSystem/measure-population","code":"denominator-exclusion","display":"Denominator Exclusion"}]},"count":1},{"id":"Numerator_1","code":{"coding":[{"system":"http://terminology.hl7.org/CodeSystem/measure-population","code":"numerator","display":"Numerator"}]},"count":0},{"id":"DenominatorException_1","code":{"coding":[{"system":"http://terminology.hl7.org/CodeSystem/measure-population","code":"denominator-exception","display":"Denominator Exception"}]},"count":0}],"measureScore":{"value":0.0}}],"evaluatedResource":[{"reference":"Patient/2505f602-4b0b-4e31-bd98-83ea0fac484f"},{"reference":"Encounter/1f69438b-4754-49d3-8fe0-89e5a0406fa7"},{"reference":"Encounter/aef312f3-c81c-467a-841d-39bc9dc72348"},{"reference":"Claim/5ca62962b8484628b8de1ec5"},{"reference":"Procedure/ac852c06-1c3c-4568-8d11-f860881053fa"},{"reference":"Coverage/85491232-4e74-4120-bf59-1a81929d351e"},{"reference":"Condition/fae03537-3db8-46d3-939e-a4d7ffa9a29c"},{"reference":"Organization/ac436f57-e3da-48ba-9d5f-8962abd45721"}]},"request":{"method":"PUT","url":"MeasureReport/f0554464-b77a-4002-9684-ab0a7ab4222b"}},{"fullUrl":"Claim/5ca62962b8484628b8de1ec5","resource":{"resourceType":"Claim","id":"5ca62962b8484628b8de1ec5","meta":{"profile":["http://hl7.org/fhir/us/qicore/StructureDefinition/qicore-claim"]},"status":"active","type":{"coding":[{"system":"http://terminology.hl7.org/CodeSystem/claim-type","code":"institutional"}]},"use":"claim","patient":{"reference":"Patient/2505f602-4b0b-4e31-bd98-83ea0fac484f"},"created":"2026-12-01","provider":{"reference":"Practitioner/practitioner-123456"},"priority":{"coding":[{"system":"http://terminology.hl7.org/CodeSystem/processpriority","code":"normal"}]},"diagnosis":[{"sequence":1,"diagnosisCodeableConcept":{"coding":[{"system":"http://hl7.org/fhir/sid/icd-10-cm","code":"I63.00"}]},"type":[{"coding":[{"system":"http://terminology.hl7.org/CodeSystem/ex-diagnosistype","code":"principal"}]}]}],"insurance":[{"sequence":1,"focal":true,"coverage":{"reference":"Coverage/85491232-4e74-4120-bf59-1a81929d351e"}}],"item":[{"sequence":1,"diagnosisSequence":[1],"productOrService":{"coding":[{"system":"http://terminology.hl7.org/CodeSystem/ex-USCLS","code":"99555"}]},"encounter":[{"reference":"Encounter/aef312f3-c81c-467a-841d-39bc9dc72348"}]}]},"request":{"method":"PUT","url":"Claim/5ca62962b8484628b8de1ec5"}}]}