{"resourceType":"Bundle","id":"tests-ff9ea2c7-7a68-486d-809e-f0e2cd94d6eb-bundle","type":"transaction","entry":[{"fullUrl":"Patient/ff9ea2c7-7a68-486d-809e-f0e2cd94d6eb","resource":{"resourceType":"Patient","id":"ff9ea2c7-7a68-486d-809e-f0e2cd94d6eb","meta":{"profile":["http://hl7.org/fhir/us/qicore/StructureDefinition/qicore-patient"]},"text":{"status":"generated","div":"<div xmlns=\"http://www.w3.org/1999/xhtml\"><div class=\"hapiHeaderText\">LOS=2Days_EDstarts1Day23HoursB4IPEncEnds <b>DENEXFAIL </b></div><table class=\"hapiPropertyTable\"><tbody><tr><td>Identifier</td><td>bf1322b8dda82ca552d7dd81fbfd64f6</td></tr><tr><td>Date of birth</td><td><span>20 August 1994</span></td></tr></tbody></table></div>"},"extension":[{"url":"http://hl7.org/fhir/us/core/StructureDefinition/us-core-race","extension":[{"url":"ombCategory","valueCoding":{"system":"urn:oid:2.16.840.1.113883.6.238","code":"1002-5","display":"American Indian or Alaska Native","userSelected":true}},{"url":"text","valueString":"American Indian or Alaska Native"}]},{"url":"http://hl7.org/fhir/us/core/StructureDefinition/us-core-ethnicity","extension":[{"url":"ombCategory","valueCoding":{"system":"urn:oid:2.16.840.1.113883.6.238","code":"2135-2","display":"Hispanic or Latino","userSelected":true}},{"url":"text","valueString":"Hispanic or Latino"}]}],"identifier":[{"type":{"coding":[{"system":"http://terminology.hl7.org/CodeSystem/v2-0203","code":"MR"}]},"system":"https://bonnie-fhir.healthit.gov/","value":"60f82c2e98086b570510e26c"}],"active":true,"name":[{"use":"usual","family":"DENEXFail","given":["LOSEQ2DaysEDstarts1Day23HoursB4IPEncEnds"]}],"gender":"male","birthDate":"1995-08-20"},"request":{"method":"PUT","url":"Patient/ff9ea2c7-7a68-486d-809e-f0e2cd94d6eb"}},{"fullUrl":"Condition/6f5c3a33-de54-4f2d-9891-46237c5b240d","resource":{"resourceType":"Condition","id":"6f5c3a33-de54-4f2d-9891-46237c5b240d","meta":{"profile":["http://hl7.org/fhir/us/qicore/StructureDefinition/qicore-condition-encounter-diagnosis"]},"clinicalStatus":{"coding":[{"system":"http://terminology.hl7.org/CodeSystem/condition-clinical","code":"active"}]},"verificationStatus":{"coding":[{"system":"http://terminology.hl7.org/CodeSystem/condition-ver-status","code":"confirmed"}]},"category":[{"coding":[{"system":"http://terminology.hl7.org/CodeSystem/condition-category","code":"encounter-diagnosis","display":"Encounter Diagnosis"}]}],"code":{"coding":[{"system":"http://snomed.info/sct","version":"2020-09","code":"111297002","display":"Nonparalytic stroke (disorder)","userSelected":true}]},"subject":{"reference":"Patient/ff9ea2c7-7a68-486d-809e-f0e2cd94d6eb"},"encounter":{"reference":"Encounter/b155e4c3-a631-48fa-badb-404d25e1b614"},"recordedDate":"2026-08-12T08:00:00Z"},"request":{"method":"PUT","url":"Condition/6f5c3a33-de54-4f2d-9891-46237c5b240d"}},{"fullUrl":"Encounter/11c74c95-9780-4eff-bcd2-dbf098269515","resource":{"resourceType":"Encounter","id":"11c74c95-9780-4eff-bcd2-dbf098269515","meta":{"profile":["http://hl7.org/fhir/us/qicore/StructureDefinition/qicore-encounter"]},"status":"finished","class":{"system":"http://terminology.hl7.org/CodeSystem/v3-ActCode","code":"EMER","display":"emergency","userSelected":true},"type":[{"coding":[{"system":"http://snomed.info/sct","code":"4525004"}]}],"subject":{"reference":"Patient/ff9ea2c7-7a68-486d-809e-f0e2cd94d6eb"},"period":{"start":"2026-08-19T22:59:00Z","end":"2026-08-20T23:59:00.000+00:00"},"length":{"value":1,"unit":"days"}},"request":{"method":"PUT","url":"Encounter/11c74c95-9780-4eff-bcd2-dbf098269515"}},{"fullUrl":"MeasureReport/3221e696-5ed3-445d-9b42-377006e692ab","resource":{"resourceType":"MeasureReport","id":"3221e696-5ed3-445d-9b42-377006e692ab","meta":{"profile":["http://hl7.org/fhir/us/cqfmeasures/StructureDefinition/test-case-cqfm"]},"contained":[{"resourceType":"Parameters","id":"a02487a1-0877-45a7-9e92-f75d9dfbeb5d-parameters","parameter":[{"name":"subject","valueString":"ff9ea2c7-7a68-486d-809e-f0e2cd94d6eb"}]}],"extension":[{"url":"http://hl7.org/fhir/StructureDefinition/cqf-inputParameters","valueReference":{"reference":"#a02487a1-0877-45a7-9e92-f75d9dfbeb5d-parameters"}},{"url":"http://hl7.org/fhir/us/cqfmeasures/StructureDefinition/cqfm-testCaseDescription","valueMarkdown":"LOS=2 days, Patient has ED visit that starts 1 day and 23 hours before end of IP encounter, global.Hospitalization ( =Ed +IP)\n"}],"modifierExtension":[{"url":"http://hl7.org/fhir/us/cqfmeasures/StructureDefinition/cqfm-isTestCase","valueBoolean":true}],"status":"complete","type":"individual","measure":"https://madie.cms.gov/Measure/CMS72FHIRSTKAntithromboticDay2","period":{"start":"2026-01-01","end":"2026-12-31"},"group":[{"id":"Group_1","population":[{"id":"InitialPopulation_1","code":{"coding":[{"system":"http://terminology.hl7.org/CodeSystem/measure-population","code":"initial-population","display":"Initial Population"}]},"count":1},{"id":"Denominator_1","code":{"coding":[{"system":"http://terminology.hl7.org/CodeSystem/measure-population","code":"denominator","display":"Denominator"}]},"count":1},{"id":"DenominatorExclusion_1","code":{"coding":[{"system":"http://terminology.hl7.org/CodeSystem/measure-population","code":"denominator-exclusion","display":"Denominator Exclusion"}]},"count":0},{"id":"Numerator_1","code":{"coding":[{"system":"http://terminology.hl7.org/CodeSystem/measure-population","code":"numerator","display":"Numerator"}]},"count":0},{"id":"DenominatorException_1","code":{"coding":[{"system":"http://terminology.hl7.org/CodeSystem/measure-population","code":"denominator-exception","display":"Denominator Exception"}]},"count":0}],"measureScore":{"value":0.0}}],"evaluatedResource":[{"reference":"Patient/ff9ea2c7-7a68-486d-809e-f0e2cd94d6eb"},{"reference":"Encounter/11c74c95-9780-4eff-bcd2-dbf098269515"},{"reference":"Encounter/b155e4c3-a631-48fa-badb-404d25e1b614"},{"reference":"Coverage/e3097d9e-0525-4904-81f5-700cbef36444"},{"reference":"Condition/ffa8b7df-291e-4658-bd7d-7f670c4ebd6e"},{"reference":"Condition/6f5c3a33-de54-4f2d-9891-46237c5b240d"},{"reference":"Claim/5ca62962b8484628b8de1ec5"},{"reference":"Organization/84c1fa2c-6e50-4752-be47-c146b24c97bf"}]},"request":{"method":"PUT","url":"MeasureReport/3221e696-5ed3-445d-9b42-377006e692ab"}},{"fullUrl":"Organization/84c1fa2c-6e50-4752-be47-c146b24c97bf","resource":{"resourceType":"Organization","id":"84c1fa2c-6e50-4752-be47-c146b24c97bf","meta":{"profile":["http://hl7.org/fhir/us/qicore/StructureDefinition/qicore-organization"]},"identifier":[{"use":"temp","system":"urn:oid:2.16.840.1.113883.4.4","value":"21-3259825"}],"active":true,"type":[{"coding":[{"system":"http://terminology.hl7.org/CodeSystem/organization-type","code":"pay","display":"Payer"}]}],"name":"Blue Cross Blue Shield of Texas","telecom":[{"system":"phone","value":"(+1) 972-766-6900"}],"address":[{"use":"billing","type":"postal","line":["P.O. Box 660044"],"city":"Dallas","state":"TX","postalCode":"75266-0044","country":"USA"}]},"request":{"method":"PUT","url":"Organization/84c1fa2c-6e50-4752-be47-c146b24c97bf"}},{"fullUrl":"Condition/ffa8b7df-291e-4658-bd7d-7f670c4ebd6e","resource":{"resourceType":"Condition","id":"ffa8b7df-291e-4658-bd7d-7f670c4ebd6e","meta":{"profile":["http://hl7.org/fhir/us/qicore/StructureDefinition/qicore-condition-encounter-diagnosis"]},"clinicalStatus":{"coding":[{"system":"http://terminology.hl7.org/CodeSystem/condition-clinical","code":"active"}]},"verificationStatus":{"coding":[{"system":"http://terminology.hl7.org/CodeSystem/condition-ver-status","code":"confirmed"}]},"category":[{"coding":[{"system":"http://terminology.hl7.org/CodeSystem/condition-category","code":"encounter-diagnosis","display":"Encounter Diagnosis"}]}],"code":{"coding":[{"system":"http://snomed.info/sct","version":"2020-09","code":"111297002","display":"Nonparalytic stroke (disorder)","userSelected":true}]},"subject":{"reference":"Patient/ff9ea2c7-7a68-486d-809e-f0e2cd94d6eb"},"encounter":{"reference":"Encounter/b155e4c3-a631-48fa-badb-404d25e1b614"},"recordedDate":"2026-08-12T08:00:00Z"},"request":{"method":"PUT","url":"Condition/ffa8b7df-291e-4658-bd7d-7f670c4ebd6e"}},{"fullUrl":"Coverage/e3097d9e-0525-4904-81f5-700cbef36444","resource":{"resourceType":"Coverage","id":"e3097d9e-0525-4904-81f5-700cbef36444","status":"active","beneficiary":{"reference":"Patient/ff9ea2c7-7a68-486d-809e-f0e2cd94d6eb"},"period":{"start":"1995-08-20T07:00:00Z"},"payor":[{"reference":"Organization/84c1fa2c-6e50-4752-be47-c146b24c97bf"}]},"request":{"method":"PUT","url":"Coverage/e3097d9e-0525-4904-81f5-700cbef36444"}},{"fullUrl":"Encounter/b155e4c3-a631-48fa-badb-404d25e1b614","resource":{"resourceType":"Encounter","id":"b155e4c3-a631-48fa-badb-404d25e1b614","meta":{"profile":["http://hl7.org/fhir/us/qicore/StructureDefinition/qicore-encounter"]},"status":"finished","class":{"system":"http://terminology.hl7.org/CodeSystem/v3-ActCode","code":"IMP","display":"inpatient encounter","userSelected":true},"type":[{"coding":[{"system":"http://snomed.info/sct","code":"32485007"}]}],"subject":{"reference":"Patient/ff9ea2c7-7a68-486d-809e-f0e2cd94d6eb"},"period":{"start":"2026-08-21T00:00:00Z","end":"2026-08-21T23:59:00.000+00:00"},"length":{"value":0,"unit":"days"},"reasonReference":[{"reference":"Condition/6f5c3a33-de54-4f2d-9891-46237c5b240d"}]},"request":{"method":"PUT","url":"Encounter/b155e4c3-a631-48fa-badb-404d25e1b614"}},{"fullUrl":"Bundle/60f82c2e98086b570510e26c","resource":{"resourceType":"Bundle","id":"60f82c2e98086b570510e26c","type":"transaction","entry":[{"fullUrl":"https://madie.cms.gov/Patient/ff9ea2c7-7a68-486d-809e-f0e2cd94d6eb","resource":{"resourceType":"Patient","id":"ff9ea2c7-7a68-486d-809e-f0e2cd94d6eb","meta":{"profile":["http://hl7.org/fhir/us/qicore/StructureDefinition/qicore-patient"]},"text":{"status":"generated","div":"<div xmlns=\"http://www.w3.org/1999/xhtml\"><div class=\"hapiHeaderText\">LOS=2Days_EDstarts1Day23HoursB4IPEncEnds <b>DENEXFAIL </b></div><table class=\"hapiPropertyTable\"><tbody><tr><td>Identifier</td><td>bf1322b8dda82ca552d7dd81fbfd64f6</td></tr><tr><td>Date of birth</td><td><span>20 August 1994</span></td></tr></tbody></table></div>"},"extension":[{"url":"http://hl7.org/fhir/us/core/StructureDefinition/us-core-race","extension":[{"url":"ombCategory","valueCoding":{"system":"urn:oid:2.16.840.1.113883.6.238","code":"1002-5","display":"American Indian or Alaska Native","userSelected":true}},{"url":"text","valueString":"American Indian or Alaska Native"}]},{"url":"http://hl7.org/fhir/us/core/StructureDefinition/us-core-ethnicity","extension":[{"url":"ombCategory","valueCoding":{"system":"urn:oid:2.16.840.1.113883.6.238","code":"2135-2","display":"Hispanic or Latino","userSelected":true}},{"url":"text","valueString":"Hispanic or Latino"}]}],"identifier":[{"type":{"coding":[{"system":"http://terminology.hl7.org/CodeSystem/v2-0203","code":"MR"}]},"system":"https://bonnie-fhir.healthit.gov/","value":"60f82c2e98086b570510e26c"}],"active":true,"name":[{"use":"usual","family":"DENEXFail","given":["LOSEQ2DaysEDstarts1Day23HoursB4IPEncEnds"]}],"gender":"male","birthDate":"1995-08-20"},"request":{"method":"PUT","url":"Patient/ff9ea2c7-7a68-486d-809e-f0e2cd94d6eb"}},{"fullUrl":"https://madie.cms.gov/Encounter/11c74c95-9780-4eff-bcd2-dbf098269515","resource":{"resourceType":"Encounter","id":"11c74c95-9780-4eff-bcd2-dbf098269515","meta":{"profile":["http://hl7.org/fhir/us/qicore/StructureDefinition/qicore-encounter"]},"status":"finished","class":{"system":"http://terminology.hl7.org/CodeSystem/v3-ActCode","code":"EMER","display":"emergency","userSelected":true},"type":[{"coding":[{"system":"http://snomed.info/sct","code":"4525004"}]}],"subject":{"reference":"Patient/ff9ea2c7-7a68-486d-809e-f0e2cd94d6eb"},"period":{"start":"2026-08-19T22:59:00Z","end":"2026-08-20T23:59:00.000+00:00"},"length":{"value":1,"unit":"days"}},"request":{"method":"PUT","url":"Encounter/11c74c95-9780-4eff-bcd2-dbf098269515"}},{"fullUrl":"https://madie.cms.gov/Encounter/b155e4c3-a631-48fa-badb-404d25e1b614","resource":{"resourceType":"Encounter","id":"b155e4c3-a631-48fa-badb-404d25e1b614","meta":{"profile":["http://hl7.org/fhir/us/qicore/StructureDefinition/qicore-encounter"]},"status":"finished","class":{"system":"http://terminology.hl7.org/CodeSystem/v3-ActCode","code":"IMP","display":"inpatient encounter","userSelected":true},"type":[{"coding":[{"system":"http://snomed.info/sct","code":"32485007"}]}],"subject":{"reference":"Patient/ff9ea2c7-7a68-486d-809e-f0e2cd94d6eb"},"period":{"start":"2026-08-21T00:00:00Z","end":"2026-08-21T23:59:00.000+00:00"},"length":{"value":0,"unit":"days"},"reasonReference":[{"reference":"Condition/6f5c3a33-de54-4f2d-9891-46237c5b240d"}]},"request":{"method":"PUT","url":"Encounter/b155e4c3-a631-48fa-badb-404d25e1b614"}},{"fullUrl":"https://madie.cms.gov/Coverage/e3097d9e-0525-4904-81f5-700cbef36444","resource":{"resourceType":"Coverage","id":"e3097d9e-0525-4904-81f5-700cbef36444","status":"active","beneficiary":{"reference":"Patient/ff9ea2c7-7a68-486d-809e-f0e2cd94d6eb"},"period":{"start":"1995-08-20T07:00:00Z"},"payor":[{"reference":"Organization/84c1fa2c-6e50-4752-be47-c146b24c97bf"}]},"request":{"method":"PUT","url":"Coverage/e3097d9e-0525-4904-81f5-700cbef36444"}},{"fullUrl":"https://madie.cms.gov/Condition/ffa8b7df-291e-4658-bd7d-7f670c4ebd6e","resource":{"resourceType":"Condition","id":"ffa8b7df-291e-4658-bd7d-7f670c4ebd6e","meta":{"profile":["http://hl7.org/fhir/us/qicore/StructureDefinition/qicore-condition-encounter-diagnosis"]},"clinicalStatus":{"coding":[{"system":"http://terminology.hl7.org/CodeSystem/condition-clinical","code":"active"}]},"verificationStatus":{"coding":[{"system":"http://terminology.hl7.org/CodeSystem/condition-ver-status","code":"confirmed"}]},"category":[{"coding":[{"system":"http://terminology.hl7.org/CodeSystem/condition-category","code":"encounter-diagnosis","display":"Encounter Diagnosis"}]}],"code":{"coding":[{"system":"http://snomed.info/sct","version":"2020-09","code":"111297002","display":"Nonparalytic stroke (disorder)","userSelected":true}]},"subject":{"reference":"Patient/ff9ea2c7-7a68-486d-809e-f0e2cd94d6eb"},"encounter":{"reference":"Encounter/b155e4c3-a631-48fa-badb-404d25e1b614"},"recordedDate":"2026-08-12T08:00:00Z"},"request":{"method":"PUT","url":"Condition/ffa8b7df-291e-4658-bd7d-7f670c4ebd6e"}},{"fullUrl":"https://madie.cms.gov/Condition/6f5c3a33-de54-4f2d-9891-46237c5b240d","resource":{"resourceType":"Condition","id":"6f5c3a33-de54-4f2d-9891-46237c5b240d","meta":{"profile":["http://hl7.org/fhir/us/qicore/StructureDefinition/qicore-condition-encounter-diagnosis"]},"clinicalStatus":{"coding":[{"system":"http://terminology.hl7.org/CodeSystem/condition-clinical","code":"active"}]},"verificationStatus":{"coding":[{"system":"http://terminology.hl7.org/CodeSystem/condition-ver-status","code":"confirmed"}]},"category":[{"coding":[{"system":"http://terminology.hl7.org/CodeSystem/condition-category","code":"encounter-diagnosis","display":"Encounter Diagnosis"}]}],"code":{"coding":[{"system":"http://snomed.info/sct","version":"2020-09","code":"111297002","display":"Nonparalytic stroke (disorder)","userSelected":true}]},"subject":{"reference":"Patient/ff9ea2c7-7a68-486d-809e-f0e2cd94d6eb"},"encounter":{"reference":"Encounter/b155e4c3-a631-48fa-badb-404d25e1b614"},"recordedDate":"2026-08-12T08:00:00Z"},"request":{"method":"PUT","url":"Condition/6f5c3a33-de54-4f2d-9891-46237c5b240d"}},{"fullUrl":"https://madie.cms.gov/claim/5ca62962b8484628b8de1ec5","resource":{"resourceType":"Claim","id":"5ca62962b8484628b8de1ec5","meta":{"profile":["http://hl7.org/fhir/us/qicore/StructureDefinition/qicore-claim"]},"status":"active","type":{"coding":[{"system":"http://terminology.hl7.org/CodeSystem/claim-type","code":"institutional"}]},"use":"claim","patient":{"reference":"Patient/5450abfd-a667-4eb9-9b59-e85feed4865c"},"created":"2026-12-01","provider":{"reference":"Practitioner/practitioner-123456"},"priority":{"coding":[{"system":"http://terminology.hl7.org/CodeSystem/processpriority","code":"normal"}]},"diagnosis":[{"sequence":1,"diagnosisCodeableConcept":{"coding":[{"system":"http://hl7.org/fhir/sid/icd-10-cm","code":"I63.00"}]},"type":[{"coding":[{"system":"http://terminology.hl7.org/CodeSystem/ex-diagnosistype","code":"principal"}]}]}],"insurance":[{"sequence":1,"focal":true,"coverage":{"reference":"Coverage/5fa041661c76ba66d9959367"}}],"item":[{"sequence":1,"diagnosisSequence":[1],"productOrService":{"coding":[{"system":"http://terminology.hl7.org/CodeSystem/ex-USCLS","code":"99555"}]},"encounter":[{"reference":"Encounter/b155e4c3-a631-48fa-badb-404d25e1b614"}]}]},"request":{"method":"PUT","url":"Claim/5ca62962b8484628b8de1ec5"}},{"fullUrl":"https://madie.cms.gov/Organization/84c1fa2c-6e50-4752-be47-c146b24c97bf","resource":{"resourceType":"Organization","id":"84c1fa2c-6e50-4752-be47-c146b24c97bf","meta":{"profile":["http://hl7.org/fhir/us/qicore/StructureDefinition/qicore-organization"]},"identifier":[{"use":"temp","system":"urn:oid:2.16.840.1.113883.4.4","value":"21-3259825"}],"active":true,"type":[{"coding":[{"system":"http://terminology.hl7.org/CodeSystem/organization-type","code":"pay","display":"Payer"}]}],"name":"Blue Cross Blue Shield of Texas","telecom":[{"system":"phone","value":"(+1) 972-766-6900"}],"address":[{"use":"billing","type":"postal","line":["P.O. Box 660044"],"city":"Dallas","state":"TX","postalCode":"75266-0044","country":"USA"}]},"request":{"method":"PUT","url":"Organization/84c1fa2c-6e50-4752-be47-c146b24c97bf"}},{"fullUrl":"https://madie.cms.gov/MeasureReport/3221e696-5ed3-445d-9b42-377006e692ab","resource":{"resourceType":"MeasureReport","id":"3221e696-5ed3-445d-9b42-377006e692ab","meta":{"profile":["http://hl7.org/fhir/us/cqfmeasures/StructureDefinition/test-case-cqfm"]},"contained":[{"resourceType":"Parameters","id":"a02487a1-0877-45a7-9e92-f75d9dfbeb5d-parameters","parameter":[{"name":"subject","valueString":"ff9ea2c7-7a68-486d-809e-f0e2cd94d6eb"}]}],"extension":[{"url":"http://hl7.org/fhir/StructureDefinition/cqf-inputParameters","valueReference":{"reference":"#a02487a1-0877-45a7-9e92-f75d9dfbeb5d-parameters"}},{"url":"http://hl7.org/fhir/us/cqfmeasures/StructureDefinition/cqfm-testCaseDescription","valueMarkdown":"LOS=2 days, Patient has ED visit that starts 1 day and 23 hours before end of IP encounter, global.Hospitalization ( =Ed +IP)\n"}],"modifierExtension":[{"url":"http://hl7.org/fhir/us/cqfmeasures/StructureDefinition/cqfm-isTestCase","valueBoolean":true}],"status":"complete","type":"individual","measure":"https://madie.cms.gov/Measure/CMS72FHIRSTKAntithromboticDay2","period":{"start":"2026-01-01","end":"2026-12-31"},"group":[{"id":"Group_1","population":[{"id":"InitialPopulation_1","code":{"coding":[{"system":"http://terminology.hl7.org/CodeSystem/measure-population","code":"initial-population","display":"Initial Population"}]},"count":1},{"id":"Denominator_1","code":{"coding":[{"system":"http://terminology.hl7.org/CodeSystem/measure-population","code":"denominator","display":"Denominator"}]},"count":1},{"id":"DenominatorExclusion_1","code":{"coding":[{"system":"http://terminology.hl7.org/CodeSystem/measure-population","code":"denominator-exclusion","display":"Denominator Exclusion"}]},"count":0},{"id":"Numerator_1","code":{"coding":[{"system":"http://terminology.hl7.org/CodeSystem/measure-population","code":"numerator","display":"Numerator"}]},"count":0},{"id":"DenominatorException_1","code":{"coding":[{"system":"http://terminology.hl7.org/CodeSystem/measure-population","code":"denominator-exception","display":"Denominator Exception"}]},"count":0}],"measureScore":{"value":0.0}}],"evaluatedResource":[{"reference":"Patient/ff9ea2c7-7a68-486d-809e-f0e2cd94d6eb"},{"reference":"Encounter/11c74c95-9780-4eff-bcd2-dbf098269515"},{"reference":"Encounter/b155e4c3-a631-48fa-badb-404d25e1b614"},{"reference":"Coverage/e3097d9e-0525-4904-81f5-700cbef36444"},{"reference":"Condition/ffa8b7df-291e-4658-bd7d-7f670c4ebd6e"},{"reference":"Condition/6f5c3a33-de54-4f2d-9891-46237c5b240d"},{"reference":"Claim/5ca62962b8484628b8de1ec5"},{"reference":"Organization/84c1fa2c-6e50-4752-be47-c146b24c97bf"}]},"request":{"method":"PUT","url":"MeasureReport/3221e696-5ed3-445d-9b42-377006e692ab"}}]},"request":{"method":"PUT","url":"Bundle/60f82c2e98086b570510e26c"}},{"fullUrl":"Claim/5ca62962b8484628b8de1ec5","resource":{"resourceType":"Claim","id":"5ca62962b8484628b8de1ec5","meta":{"profile":["http://hl7.org/fhir/us/qicore/StructureDefinition/qicore-claim"]},"status":"active","type":{"coding":[{"system":"http://terminology.hl7.org/CodeSystem/claim-type","code":"institutional"}]},"use":"claim","patient":{"reference":"Patient/5450abfd-a667-4eb9-9b59-e85feed4865c"},"created":"2026-12-01","provider":{"reference":"Practitioner/practitioner-123456"},"priority":{"coding":[{"system":"http://terminology.hl7.org/CodeSystem/processpriority","code":"normal"}]},"diagnosis":[{"sequence":1,"diagnosisCodeableConcept":{"coding":[{"system":"http://hl7.org/fhir/sid/icd-10-cm","code":"I63.00"}]},"type":[{"coding":[{"system":"http://terminology.hl7.org/CodeSystem/ex-diagnosistype","code":"principal"}]}]}],"insurance":[{"sequence":1,"focal":true,"coverage":{"reference":"Coverage/5fa041661c76ba66d9959367"}}],"item":[{"sequence":1,"diagnosisSequence":[1],"productOrService":{"coding":[{"system":"http://terminology.hl7.org/CodeSystem/ex-USCLS","code":"99555"}]},"encounter":[{"reference":"Encounter/b155e4c3-a631-48fa-badb-404d25e1b614"}]}]},"request":{"method":"PUT","url":"Claim/5ca62962b8484628b8de1ec5"}}]}