{"resourceType":"Bundle","id":"tests-763c581d-7398-47e7-ba78-eaa5853df551-bundle","type":"transaction","entry":[{"resource":{"resourceType":"Organization","id":"95c6e859-4d4b-4dfb-b7a8-6269c9da5369","meta":{"profile":["http://hl7.org/fhir/us/qicore/StructureDefinition/qicore-organization"]},"identifier":[{"use":"temp","system":"urn:oid:2.16.840.1.113883.4.4","value":"21-3259825"}],"active":true,"type":[{"coding":[{"system":"http://terminology.hl7.org/CodeSystem/organization-type","code":"pay","display":"Payer"}]}],"name":"Blue Cross Blue Shield of Texas","telecom":[{"system":"phone","value":"(+1) 972-766-6900"}],"address":[{"use":"billing","type":"postal","line":["P.O. Box 660044"],"city":"Dallas","state":"TX","postalCode":"75266-0044","country":"USA"}]},"request":{"method":"PUT","url":"Organization/95c6e859-4d4b-4dfb-b7a8-6269c9da5369"}},{"resource":{"resourceType":"Patient","id":"763c581d-7398-47e7-ba78-eaa5853df551","meta":{"profile":["http://hl7.org/fhir/us/qicore/StructureDefinition/qicore-patient"]},"text":{"status":"generated","div":"<div xmlns=\"http://www.w3.org/1999/xhtml\"><div class=\"hapiHeaderText\">CMP&gt;1day_duringIP <b>DENEXFAIL </b></div><table class=\"hapiPropertyTable\"><tbody><tr><td>Identifier</td><td>44765b479617151df23dd60d78910085</td></tr><tr><td>Date of birth</td><td><span>26 September 1975</span></td></tr></tbody></table></div>"},"extension":[{"url":"http://hl7.org/fhir/us/core/StructureDefinition/us-core-race","extension":[{"url":"ombCategory","valueCoding":{"system":"urn:oid:2.16.840.1.113883.6.238","code":"1002-5","display":"American Indian or Alaska Native","userSelected":true}},{"url":"text","valueString":"American Indian or Alaska Native"}]},{"url":"http://hl7.org/fhir/us/core/StructureDefinition/us-core-ethnicity","extension":[{"url":"ombCategory","valueCoding":{"system":"urn:oid:2.16.840.1.113883.6.238","code":"2135-2","display":"Hispanic or Latino","userSelected":true}},{"url":"text","valueString":"Hispanic or Latino"}]}],"identifier":[{"type":{"coding":[{"system":"http://terminology.hl7.org/CodeSystem/v2-0203","code":"MR"}]},"system":"https://bonnie-fhir.healthit.gov/","value":"60f82c2e98086b570510e286"}],"active":true,"name":[{"use":"usual","family":"DENEXFail","given":["CMPGT1dayduringIP"]}],"gender":"female","birthDate":"1976-09-26"},"request":{"method":"PUT","url":"Patient/763c581d-7398-47e7-ba78-eaa5853df551"}},{"resource":{"resourceType":"Encounter","id":"134af67d-8b05-451a-9a03-f037b40e7421","meta":{"profile":["http://hl7.org/fhir/us/qicore/StructureDefinition/qicore-encounter"]},"status":"finished","class":{"system":"http://terminology.hl7.org/CodeSystem/v3-ActCode","code":"EMER","display":"emergency","userSelected":true},"type":[{"coding":[{"system":"http://snomed.info/sct","code":"4525004"}]}],"subject":{"reference":"Patient/763c581d-7398-47e7-ba78-eaa5853df551"},"period":{"start":"2026-10-10T23:00:00Z","end":"2026-10-11T01:00:00.000+00:00"},"length":{"value":1,"unit":"days"}},"request":{"method":"PUT","url":"Encounter/134af67d-8b05-451a-9a03-f037b40e7421"}},{"resource":{"resourceType":"Encounter","id":"4859df28-d859-491c-9031-3d355ab2ba13","meta":{"profile":["http://hl7.org/fhir/us/qicore/StructureDefinition/qicore-encounter"]},"status":"finished","class":{"system":"http://terminology.hl7.org/CodeSystem/v3-ActCode","code":"IMP","display":"inpatient encounter","userSelected":true},"type":[{"coding":[{"system":"http://snomed.info/sct","code":"32485007"}]}],"subject":{"reference":"Patient/763c581d-7398-47e7-ba78-eaa5853df551"},"period":{"start":"2026-10-11T01:30:00Z","end":"2026-10-14T11:00:00.000+00:00"},"length":{"value":3,"unit":"days"},"reasonReference":[{"reference":"Condition/514c903e-b6c8-414c-8f0b-2e4cb887ba97"}]},"request":{"method":"PUT","url":"Encounter/4859df28-d859-491c-9031-3d355ab2ba13"}},{"resource":{"resourceType":"Coverage","id":"35c02a91-c818-46a0-8cb3-87c692096494","status":"active","beneficiary":{"reference":"Patient/763c581d-7398-47e7-ba78-eaa5853df551"},"period":{"start":"1976-09-26T08:00:00Z"},"payor":[{"reference":"Organization/95c6e859-4d4b-4dfb-b7a8-6269c9da5369"}]},"request":{"method":"PUT","url":"Coverage/35c02a91-c818-46a0-8cb3-87c692096494"}},{"resource":{"resourceType":"Condition","id":"514c903e-b6c8-414c-8f0b-2e4cb887ba97","meta":{"profile":["http://hl7.org/fhir/us/qicore/StructureDefinition/qicore-condition-encounter-diagnosis"]},"clinicalStatus":{"coding":[{"system":"http://terminology.hl7.org/CodeSystem/condition-clinical","code":"active"}]},"verificationStatus":{"coding":[{"system":"http://terminology.hl7.org/CodeSystem/condition-ver-status","code":"confirmed"}]},"category":[{"coding":[{"system":"http://terminology.hl7.org/CodeSystem/condition-category","code":"encounter-diagnosis","display":"Encounter Diagnosis"}]}],"code":{"coding":[{"system":"http://snomed.info/sct","version":"2020-09","code":"111297002","display":"Nonparalytic stroke (disorder)","userSelected":true}]},"subject":{"reference":"Patient/763c581d-7398-47e7-ba78-eaa5853df551"},"encounter":{"reference":"Encounter/4859df28-d859-491c-9031-3d355ab2ba13"},"recordedDate":"2026-08-11T08:00:00Z"},"request":{"method":"PUT","url":"Condition/514c903e-b6c8-414c-8f0b-2e4cb887ba97"}},{"resource":{"resourceType":"Procedure","id":"41f2c7b0-d64b-431b-bf36-dd7d2acaf5df","meta":{"profile":["http://hl7.org/fhir/us/qicore/StructureDefinition/qicore-procedure"]},"extension":[{"url":"http://hl7.org/fhir/us/qicore/StructureDefinition/qicore-recorded","valueDateTime":"2014-04-05T13:35:00Z"}],"status":"completed","code":{"coding":[{"system":"http://snomed.info/sct","code":"133918004"}]},"subject":{"reference":"Patient/763c581d-7398-47e7-ba78-eaa5853df551"},"performedPeriod":{"start":"2026-10-12T07:00:00Z"}},"request":{"method":"PUT","url":"Procedure/41f2c7b0-d64b-431b-bf36-dd7d2acaf5df"}},{"resource":{"resourceType":"MeasureReport","id":"b76d283f-3d23-4402-84d0-244e79df1b29","meta":{"profile":["http://hl7.org/fhir/us/cqfmeasures/StructureDefinition/test-case-cqfm"]},"contained":[{"resourceType":"Parameters","id":"1dfa291c-cfa5-43f8-b82c-2e5f1a4e23a8-parameters","parameter":[{"name":"subject","valueString":"763c581d-7398-47e7-ba78-eaa5853df551"}]}],"extension":[{"url":"http://hl7.org/fhir/StructureDefinition/cqf-inputParameters","valueReference":{"reference":"#1dfa291c-cfa5-43f8-b82c-2e5f1a4e23a8-parameters"}},{"url":"http://hl7.org/fhir/us/cqfmeasures/StructureDefinition/cqfm-testCaseDescription","valueMarkdown":"Patient receives comfort measures performed >1 day during EncIP, global.\"Hospitalization\" =(Ed+IP)\n"}],"modifierExtension":[{"url":"http://hl7.org/fhir/us/cqfmeasures/StructureDefinition/cqfm-isTestCase","valueBoolean":true}],"status":"complete","type":"individual","measure":"https://madie.cms.gov/Measure/CMS72FHIRSTKAntithromboticDay2","period":{"start":"2026-01-01","end":"2026-12-31"},"group":[{"id":"Group_1","population":[{"id":"InitialPopulation_1","code":{"coding":[{"system":"http://terminology.hl7.org/CodeSystem/measure-population","code":"initial-population","display":"Initial Population"}]},"count":1},{"id":"Denominator_1","code":{"coding":[{"system":"http://terminology.hl7.org/CodeSystem/measure-population","code":"denominator","display":"Denominator"}]},"count":1},{"id":"DenominatorExclusion_1","code":{"coding":[{"system":"http://terminology.hl7.org/CodeSystem/measure-population","code":"denominator-exclusion","display":"Denominator Exclusion"}]},"count":0},{"id":"Numerator_1","code":{"coding":[{"system":"http://terminology.hl7.org/CodeSystem/measure-population","code":"numerator","display":"Numerator"}]},"count":0},{"id":"DenominatorException_1","code":{"coding":[{"system":"http://terminology.hl7.org/CodeSystem/measure-population","code":"denominator-exception","display":"Denominator Exception"}]},"count":0}],"measureScore":{"value":0.0}}],"evaluatedResource":[{"reference":"Patient/763c581d-7398-47e7-ba78-eaa5853df551"},{"reference":"Encounter/134af67d-8b05-451a-9a03-f037b40e7421"},{"reference":"Encounter/4859df28-d859-491c-9031-3d355ab2ba13"},{"reference":"Procedure/41f2c7b0-d64b-431b-bf36-dd7d2acaf5df"},{"reference":"Coverage/35c02a91-c818-46a0-8cb3-87c692096494"},{"reference":"Condition/514c903e-b6c8-414c-8f0b-2e4cb887ba97"},{"reference":"Claim/5ca62962b8484628b8de1ec5"},{"reference":"Organization/95c6e859-4d4b-4dfb-b7a8-6269c9da5369"}]},"request":{"method":"PUT","url":"MeasureReport/b76d283f-3d23-4402-84d0-244e79df1b29"}},{"resource":{"resourceType":"Bundle","id":"60f82c2e98086b570510e286","type":"transaction","entry":[{"fullUrl":"https://madie.cms.gov/Patient/763c581d-7398-47e7-ba78-eaa5853df551","resource":{"resourceType":"Patient","id":"763c581d-7398-47e7-ba78-eaa5853df551","meta":{"profile":["http://hl7.org/fhir/us/qicore/StructureDefinition/qicore-patient"]},"text":{"status":"generated","div":"<div xmlns=\"http://www.w3.org/1999/xhtml\"><div class=\"hapiHeaderText\">CMP&gt;1day_duringIP <b>DENEXFAIL </b></div><table class=\"hapiPropertyTable\"><tbody><tr><td>Identifier</td><td>44765b479617151df23dd60d78910085</td></tr><tr><td>Date of birth</td><td><span>26 September 1975</span></td></tr></tbody></table></div>"},"extension":[{"url":"http://hl7.org/fhir/us/core/StructureDefinition/us-core-race","extension":[{"url":"ombCategory","valueCoding":{"system":"urn:oid:2.16.840.1.113883.6.238","code":"1002-5","display":"American Indian or Alaska Native","userSelected":true}},{"url":"text","valueString":"American Indian or Alaska Native"}]},{"url":"http://hl7.org/fhir/us/core/StructureDefinition/us-core-ethnicity","extension":[{"url":"ombCategory","valueCoding":{"system":"urn:oid:2.16.840.1.113883.6.238","code":"2135-2","display":"Hispanic or Latino","userSelected":true}},{"url":"text","valueString":"Hispanic or Latino"}]}],"identifier":[{"type":{"coding":[{"system":"http://terminology.hl7.org/CodeSystem/v2-0203","code":"MR"}]},"system":"https://bonnie-fhir.healthit.gov/","value":"60f82c2e98086b570510e286"}],"active":true,"name":[{"use":"usual","family":"DENEXFail","given":["CMPGT1dayduringIP"]}],"gender":"female","birthDate":"1976-09-26"},"request":{"method":"PUT","url":"Patient/763c581d-7398-47e7-ba78-eaa5853df551"}},{"fullUrl":"https://madie.cms.gov/Encounter/134af67d-8b05-451a-9a03-f037b40e7421","resource":{"resourceType":"Encounter","id":"134af67d-8b05-451a-9a03-f037b40e7421","meta":{"profile":["http://hl7.org/fhir/us/qicore/StructureDefinition/qicore-encounter"]},"status":"finished","class":{"system":"http://terminology.hl7.org/CodeSystem/v3-ActCode","code":"EMER","display":"emergency","userSelected":true},"type":[{"coding":[{"system":"http://snomed.info/sct","code":"4525004"}]}],"subject":{"reference":"Patient/763c581d-7398-47e7-ba78-eaa5853df551"},"period":{"start":"2026-10-10T23:00:00Z","end":"2026-10-11T01:00:00.000+00:00"},"length":{"value":1,"unit":"days"}},"request":{"method":"PUT","url":"Encounter/134af67d-8b05-451a-9a03-f037b40e7421"}},{"fullUrl":"https://madie.cms.gov/Encounter/4859df28-d859-491c-9031-3d355ab2ba13","resource":{"resourceType":"Encounter","id":"4859df28-d859-491c-9031-3d355ab2ba13","meta":{"profile":["http://hl7.org/fhir/us/qicore/StructureDefinition/qicore-encounter"]},"status":"finished","class":{"system":"http://terminology.hl7.org/CodeSystem/v3-ActCode","code":"IMP","display":"inpatient encounter","userSelected":true},"type":[{"coding":[{"system":"http://snomed.info/sct","code":"32485007"}]}],"subject":{"reference":"Patient/763c581d-7398-47e7-ba78-eaa5853df551"},"period":{"start":"2026-10-11T01:30:00Z","end":"2026-10-14T11:00:00.000+00:00"},"length":{"value":3,"unit":"days"},"reasonReference":[{"reference":"Condition/514c903e-b6c8-414c-8f0b-2e4cb887ba97"}]},"request":{"method":"PUT","url":"Encounter/4859df28-d859-491c-9031-3d355ab2ba13"}},{"fullUrl":"https://madie.cms.gov/Procedure/41f2c7b0-d64b-431b-bf36-dd7d2acaf5df","resource":{"resourceType":"Procedure","id":"41f2c7b0-d64b-431b-bf36-dd7d2acaf5df","meta":{"profile":["http://hl7.org/fhir/us/qicore/StructureDefinition/qicore-procedure"]},"extension":[{"url":"http://hl7.org/fhir/us/qicore/StructureDefinition/qicore-recorded","valueDateTime":"2014-04-05T13:35:00Z"}],"status":"completed","code":{"coding":[{"system":"http://snomed.info/sct","code":"133918004"}]},"subject":{"reference":"Patient/763c581d-7398-47e7-ba78-eaa5853df551"},"performedPeriod":{"start":"2026-10-12T07:00:00Z"}},"request":{"method":"PUT","url":"Procedure/41f2c7b0-d64b-431b-bf36-dd7d2acaf5df"}},{"fullUrl":"https://madie.cms.gov/Coverage/35c02a91-c818-46a0-8cb3-87c692096494","resource":{"resourceType":"Coverage","id":"35c02a91-c818-46a0-8cb3-87c692096494","status":"active","beneficiary":{"reference":"Patient/763c581d-7398-47e7-ba78-eaa5853df551"},"period":{"start":"1976-09-26T08:00:00Z"},"payor":[{"reference":"Organization/95c6e859-4d4b-4dfb-b7a8-6269c9da5369"}]},"request":{"method":"PUT","url":"Coverage/35c02a91-c818-46a0-8cb3-87c692096494"}},{"fullUrl":"https://madie.cms.gov/Condition/514c903e-b6c8-414c-8f0b-2e4cb887ba97","resource":{"resourceType":"Condition","id":"514c903e-b6c8-414c-8f0b-2e4cb887ba97","meta":{"profile":["http://hl7.org/fhir/us/qicore/StructureDefinition/qicore-condition-encounter-diagnosis"]},"clinicalStatus":{"coding":[{"system":"http://terminology.hl7.org/CodeSystem/condition-clinical","code":"active"}]},"verificationStatus":{"coding":[{"system":"http://terminology.hl7.org/CodeSystem/condition-ver-status","code":"confirmed"}]},"category":[{"coding":[{"system":"http://terminology.hl7.org/CodeSystem/condition-category","code":"encounter-diagnosis","display":"Encounter Diagnosis"}]}],"code":{"coding":[{"system":"http://snomed.info/sct","version":"2020-09","code":"111297002","display":"Nonparalytic stroke (disorder)","userSelected":true}]},"subject":{"reference":"Patient/763c581d-7398-47e7-ba78-eaa5853df551"},"encounter":{"reference":"Encounter/4859df28-d859-491c-9031-3d355ab2ba13"},"recordedDate":"2026-08-11T08:00:00Z"},"request":{"method":"PUT","url":"Condition/514c903e-b6c8-414c-8f0b-2e4cb887ba97"}},{"fullUrl":"https://madie.cms.gov/claim/5ca62962b8484628b8de1ec5","resource":{"resourceType":"Claim","id":"5ca62962b8484628b8de1ec5","meta":{"profile":["http://hl7.org/fhir/us/qicore/StructureDefinition/qicore-claim"]},"status":"active","type":{"coding":[{"system":"http://terminology.hl7.org/CodeSystem/claim-type","code":"institutional"}]},"use":"claim","patient":{"reference":"Patient/5450abfd-a667-4eb9-9b59-e85feed4865c"},"created":"2026-12-01","provider":{"reference":"Practitioner/practitioner-123456"},"priority":{"coding":[{"system":"http://terminology.hl7.org/CodeSystem/processpriority","code":"normal"}]},"diagnosis":[{"sequence":1,"diagnosisCodeableConcept":{"coding":[{"system":"http://hl7.org/fhir/sid/icd-10-cm","code":"I63.00"}]},"type":[{"coding":[{"system":"http://terminology.hl7.org/CodeSystem/ex-diagnosistype","code":"principal"}]}]}],"insurance":[{"sequence":1,"focal":true,"coverage":{"reference":"Coverage/5fa041661c76ba66d9959367"}}],"item":[{"sequence":1,"diagnosisSequence":[1],"productOrService":{"coding":[{"system":"http://terminology.hl7.org/CodeSystem/ex-USCLS","code":"99555"}]},"encounter":[{"reference":"Encounter/4859df28-d859-491c-9031-3d355ab2ba13"}]}]},"request":{"method":"PUT","url":"Claim/5ca62962b8484628b8de1ec5"}},{"fullUrl":"https://madie.cms.gov/Organization/95c6e859-4d4b-4dfb-b7a8-6269c9da5369","resource":{"resourceType":"Organization","id":"95c6e859-4d4b-4dfb-b7a8-6269c9da5369","meta":{"profile":["http://hl7.org/fhir/us/qicore/StructureDefinition/qicore-organization"]},"identifier":[{"use":"temp","system":"urn:oid:2.16.840.1.113883.4.4","value":"21-3259825"}],"active":true,"type":[{"coding":[{"system":"http://terminology.hl7.org/CodeSystem/organization-type","code":"pay","display":"Payer"}]}],"name":"Blue Cross Blue Shield of Texas","telecom":[{"system":"phone","value":"(+1) 972-766-6900"}],"address":[{"use":"billing","type":"postal","line":["P.O. Box 660044"],"city":"Dallas","state":"TX","postalCode":"75266-0044","country":"USA"}]},"request":{"method":"PUT","url":"Organization/95c6e859-4d4b-4dfb-b7a8-6269c9da5369"}},{"fullUrl":"https://madie.cms.gov/MeasureReport/b76d283f-3d23-4402-84d0-244e79df1b29","resource":{"resourceType":"MeasureReport","id":"b76d283f-3d23-4402-84d0-244e79df1b29","meta":{"profile":["http://hl7.org/fhir/us/cqfmeasures/StructureDefinition/test-case-cqfm"]},"contained":[{"resourceType":"Parameters","id":"1dfa291c-cfa5-43f8-b82c-2e5f1a4e23a8-parameters","parameter":[{"name":"subject","valueString":"763c581d-7398-47e7-ba78-eaa5853df551"}]}],"extension":[{"url":"http://hl7.org/fhir/StructureDefinition/cqf-inputParameters","valueReference":{"reference":"#1dfa291c-cfa5-43f8-b82c-2e5f1a4e23a8-parameters"}},{"url":"http://hl7.org/fhir/us/cqfmeasures/StructureDefinition/cqfm-testCaseDescription","valueMarkdown":"Patient receives comfort measures performed >1 day during EncIP, global.\"Hospitalization\" =(Ed+IP)\n"}],"modifierExtension":[{"url":"http://hl7.org/fhir/us/cqfmeasures/StructureDefinition/cqfm-isTestCase","valueBoolean":true}],"status":"complete","type":"individual","measure":"https://madie.cms.gov/Measure/CMS72FHIRSTKAntithromboticDay2","period":{"start":"2026-01-01","end":"2026-12-31"},"group":[{"id":"Group_1","population":[{"id":"InitialPopulation_1","code":{"coding":[{"system":"http://terminology.hl7.org/CodeSystem/measure-population","code":"initial-population","display":"Initial Population"}]},"count":1},{"id":"Denominator_1","code":{"coding":[{"system":"http://terminology.hl7.org/CodeSystem/measure-population","code":"denominator","display":"Denominator"}]},"count":1},{"id":"DenominatorExclusion_1","code":{"coding":[{"system":"http://terminology.hl7.org/CodeSystem/measure-population","code":"denominator-exclusion","display":"Denominator Exclusion"}]},"count":0},{"id":"Numerator_1","code":{"coding":[{"system":"http://terminology.hl7.org/CodeSystem/measure-population","code":"numerator","display":"Numerator"}]},"count":0},{"id":"DenominatorException_1","code":{"coding":[{"system":"http://terminology.hl7.org/CodeSystem/measure-population","code":"denominator-exception","display":"Denominator Exception"}]},"count":0}],"measureScore":{"value":0.0}}],"evaluatedResource":[{"reference":"Patient/763c581d-7398-47e7-ba78-eaa5853df551"},{"reference":"Encounter/134af67d-8b05-451a-9a03-f037b40e7421"},{"reference":"Encounter/4859df28-d859-491c-9031-3d355ab2ba13"},{"reference":"Procedure/41f2c7b0-d64b-431b-bf36-dd7d2acaf5df"},{"reference":"Coverage/35c02a91-c818-46a0-8cb3-87c692096494"},{"reference":"Condition/514c903e-b6c8-414c-8f0b-2e4cb887ba97"},{"reference":"Claim/5ca62962b8484628b8de1ec5"},{"reference":"Organization/95c6e859-4d4b-4dfb-b7a8-6269c9da5369"}]},"request":{"method":"PUT","url":"MeasureReport/b76d283f-3d23-4402-84d0-244e79df1b29"}}]},"request":{"method":"PUT","url":"Bundle/60f82c2e98086b570510e286"}},{"resource":{"resourceType":"Claim","id":"5ca62962b8484628b8de1ec5","meta":{"profile":["http://hl7.org/fhir/us/qicore/StructureDefinition/qicore-claim"]},"status":"active","type":{"coding":[{"system":"http://terminology.hl7.org/CodeSystem/claim-type","code":"institutional"}]},"use":"claim","patient":{"reference":"Patient/5450abfd-a667-4eb9-9b59-e85feed4865c"},"created":"2026-12-01","provider":{"reference":"Practitioner/practitioner-123456"},"priority":{"coding":[{"system":"http://terminology.hl7.org/CodeSystem/processpriority","code":"normal"}]},"diagnosis":[{"sequence":1,"diagnosisCodeableConcept":{"coding":[{"system":"http://hl7.org/fhir/sid/icd-10-cm","code":"I63.00"}]},"type":[{"coding":[{"system":"http://terminology.hl7.org/CodeSystem/ex-diagnosistype","code":"principal"}]}]}],"insurance":[{"sequence":1,"focal":true,"coverage":{"reference":"Coverage/5fa041661c76ba66d9959367"}}],"item":[{"sequence":1,"diagnosisSequence":[1],"productOrService":{"coding":[{"system":"http://terminology.hl7.org/CodeSystem/ex-USCLS","code":"99555"}]},"encounter":[{"reference":"Encounter/4859df28-d859-491c-9031-3d355ab2ba13"}]}]},"request":{"method":"PUT","url":"Claim/5ca62962b8484628b8de1ec5"}}]}