{"resourceType":"Bundle","id":"tests-4f8b0ca2-baf1-4ce6-8b9a-c3220097cf7c-bundle","type":"transaction","entry":[{"fullUrl":"Bundle/60f82c2f98086b570510e2aa","resource":{"resourceType":"Bundle","id":"60f82c2f98086b570510e2aa","type":"transaction","entry":[{"fullUrl":"https://madie.cms.gov/Patient/4f8b0ca2-baf1-4ce6-8b9a-c3220097cf7c","resource":{"resourceType":"Patient","id":"4f8b0ca2-baf1-4ce6-8b9a-c3220097cf7c","meta":{"profile":["http://hl7.org/fhir/us/qicore/StructureDefinition/qicore-patient"]},"text":{"status":"generated","div":"<div xmlns=\"http://www.w3.org/1999/xhtml\"><div class=\"hapiHeaderText\">INRDayOfObs_ED&lt;1hrObs&lt;1hrBFEncDayOf <b>DENEXCEPASS </b></div><table class=\"hapiPropertyTable\"><tbody><tr><td>Identifier</td><td>955c3164f28b1cd12a47e69610b3987de9a411ffaf7a33899bbd175a9be414f3</td></tr><tr><td>Date of birth</td><td><span>26 September 1975</span></td></tr></tbody></table></div>"},"extension":[{"url":"http://hl7.org/fhir/us/core/StructureDefinition/us-core-race","extension":[{"url":"ombCategory","valueCoding":{"system":"urn:oid:2.16.840.1.113883.6.238","code":"2054-5","display":"Black or African American","userSelected":true}},{"url":"text","valueString":"Black or African American"}]},{"url":"http://hl7.org/fhir/us/core/StructureDefinition/us-core-ethnicity","extension":[{"url":"ombCategory","valueCoding":{"system":"urn:oid:2.16.840.1.113883.6.238","code":"2186-5","display":"Not Hispanic or Latino","userSelected":true}},{"url":"text","valueString":"Not Hispanic or Latino"}]}],"identifier":[{"type":{"coding":[{"system":"http://terminology.hl7.org/CodeSystem/v2-0203","code":"MR"}]},"system":"https://bonnie-fhir.healthit.gov/","value":"60f82c2f98086b570510e2aa"}],"active":true,"name":[{"use":"usual","family":"DENEXCEPass","given":["INRDayOfObs_ED<1hrObs<1hrBFEncDayOf"]}],"gender":"female","birthDate":"1976-09-26"},"request":{"method":"PUT","url":"Patient/4f8b0ca2-baf1-4ce6-8b9a-c3220097cf7c"}},{"fullUrl":"https://madie.cms.gov/Encounter/14a3f05f-226c-47ec-af0b-efc7bd9d41db","resource":{"resourceType":"Encounter","id":"14a3f05f-226c-47ec-af0b-efc7bd9d41db","meta":{"profile":["http://hl7.org/fhir/us/qicore/StructureDefinition/qicore-encounter"]},"status":"finished","class":{"system":"http://terminology.hl7.org/CodeSystem/v3-ActCode","code":"EMER","display":"emergency","userSelected":true},"type":[{"coding":[{"system":"http://snomed.info/sct","code":"4525004"}]}],"subject":{"reference":"Patient/4f8b0ca2-baf1-4ce6-8b9a-c3220097cf7c"},"period":{"start":"2026-10-10T06:15:00Z","end":"2026-10-10T06:30:00.000+00:00"},"length":{"value":0,"unit":"days"}},"request":{"method":"PUT","url":"Encounter/14a3f05f-226c-47ec-af0b-efc7bd9d41db"}},{"fullUrl":"https://madie.cms.gov/Encounter/c72f28af-03ab-404a-aa9d-398d013e7eb3","resource":{"resourceType":"Encounter","id":"c72f28af-03ab-404a-aa9d-398d013e7eb3","meta":{"profile":["http://hl7.org/fhir/us/qicore/StructureDefinition/qicore-encounter"]},"status":"finished","class":{"system":"http://terminology.hl7.org/CodeSystem/v3-ActCode","code":"OBSENC","display":"observation encounter","userSelected":true},"type":[{"coding":[{"system":"http://snomed.info/sct","code":"448851000124103"}]}],"subject":{"reference":"Patient/4f8b0ca2-baf1-4ce6-8b9a-c3220097cf7c"},"period":{"start":"2026-10-10T06:31:00Z","end":"2026-10-10T07:30:00.000+00:00"},"length":{"value":0,"unit":"days"}},"request":{"method":"PUT","url":"Encounter/c72f28af-03ab-404a-aa9d-398d013e7eb3"}},{"fullUrl":"https://madie.cms.gov/Encounter/03cc8429-79a6-4d7b-8fc3-e15e61770486","resource":{"resourceType":"Encounter","id":"03cc8429-79a6-4d7b-8fc3-e15e61770486","meta":{"profile":["http://hl7.org/fhir/us/qicore/StructureDefinition/qicore-encounter"]},"status":"finished","class":{"system":"http://terminology.hl7.org/CodeSystem/v3-ActCode","code":"IMP","display":"inpatient encounter","userSelected":true},"type":[{"coding":[{"system":"http://snomed.info/sct","code":"32485007"}]}],"subject":{"reference":"Patient/4f8b0ca2-baf1-4ce6-8b9a-c3220097cf7c"},"period":{"start":"2026-10-10T07:31:00Z","end":"2026-10-15T11:30:00.000+00:00"},"length":{"value":5,"unit":"days"},"reasonReference":[{"reference":"Condition/d48bb9e4-2d84-440b-b466-45ad057ceb72"}]},"request":{"method":"PUT","url":"Encounter/03cc8429-79a6-4d7b-8fc3-e15e61770486"}},{"fullUrl":"https://madie.cms.gov/claim/5ca62962b8484628b8de1ec5","resource":{"resourceType":"Claim","id":"5ca62962b8484628b8de1ec5","meta":{"profile":["http://hl7.org/fhir/us/qicore/StructureDefinition/qicore-claim"]},"status":"active","type":{"coding":[{"system":"http://terminology.hl7.org/CodeSystem/claim-type","code":"institutional"}]},"use":"claim","patient":{"reference":"Patient/d170a0a8-b5ad-4303-b6df-e304dd5f92ad"},"created":"2026-12-01","provider":{"reference":"Practitioner/practitioner-123456"},"priority":{"coding":[{"system":"http://terminology.hl7.org/CodeSystem/processpriority","code":"normal"}]},"diagnosis":[{"sequence":1,"diagnosisCodeableConcept":{"coding":[{"system":"http://hl7.org/fhir/sid/icd-10-cm","code":"I63.00"}]},"type":[{"coding":[{"system":"http://terminology.hl7.org/CodeSystem/ex-diagnosistype","code":"principal"}]}]}],"insurance":[{"sequence":1,"focal":true,"coverage":{"reference":"Coverage/5fa041661c76ba66d9959367"}}],"item":[{"sequence":1,"diagnosisSequence":[1],"productOrService":{"coding":[{"system":"http://terminology.hl7.org/CodeSystem/ex-USCLS","code":"99555"}]},"encounter":[{"reference":"Encounter/03cc8429-79a6-4d7b-8fc3-e15e61770486"}]}]},"request":{"method":"PUT","url":"Claim/5ca62962b8484628b8de1ec5"}},{"fullUrl":"https://madie.cms.gov/Observation/f869d741-6414-4d0f-b44f-b5aebce687eb","resource":{"resourceType":"Observation","id":"f869d741-6414-4d0f-b44f-b5aebce687eb","meta":{"profile":["http://hl7.org/fhir/us/qicore/StructureDefinition/qicore-observation-lab"]},"status":"final","category":[{"coding":[{"system":"http://terminology.hl7.org/CodeSystem/observation-category","code":"laboratory","display":"Laboratory"}]}],"code":{"coding":[{"system":"http://loinc.org","code":"34714-6"}]},"subject":{"reference":"Patient/4f8b0ca2-baf1-4ce6-8b9a-c3220097cf7c"},"effectivePeriod":{"start":"2026-10-10T06:15:00Z"},"issued":"2026-10-10T06:31:00.000+00:00","valueQuantity":{"value":3.6}},"request":{"method":"PUT","url":"Observation/f869d741-6414-4d0f-b44f-b5aebce687eb"}},{"fullUrl":"https://madie.cms.gov/Coverage/c7f11770-fbf1-44bb-860e-d58548f0d35a","resource":{"resourceType":"Coverage","id":"c7f11770-fbf1-44bb-860e-d58548f0d35a","status":"active","subscriberId":"523435","beneficiary":{"reference":"Patient/4f8b0ca2-baf1-4ce6-8b9a-c3220097cf7c"},"relationship":{"coding":[{"system":"http://terminology.hl7.org/CodeSystem/subscriber-relationship","code":"self"}]},"period":{"start":"1976-09-26T08:00:00Z"},"payor":[{"reference":"Organization/eefa8594-0eed-4f10-84e3-a8583f68dc3c"}]},"request":{"method":"PUT","url":"Coverage/c7f11770-fbf1-44bb-860e-d58548f0d35a"}},{"fullUrl":"https://madie.cms.gov/Condition/d48bb9e4-2d84-440b-b466-45ad057ceb72","resource":{"resourceType":"Condition","id":"d48bb9e4-2d84-440b-b466-45ad057ceb72","meta":{"profile":["http://hl7.org/fhir/us/qicore/StructureDefinition/qicore-condition-encounter-diagnosis"]},"clinicalStatus":{"coding":[{"system":"http://terminology.hl7.org/CodeSystem/condition-clinical","code":"active"}]},"verificationStatus":{"coding":[{"system":"http://terminology.hl7.org/CodeSystem/condition-ver-status","code":"confirmed"}]},"category":[{"coding":[{"system":"http://terminology.hl7.org/CodeSystem/condition-category","code":"encounter-diagnosis","display":"Encounter Diagnosis"}]}],"code":{"coding":[{"system":"http://snomed.info/sct","version":"2020-09","code":"111297002","display":"Nonparalytic stroke (disorder)","userSelected":true}]},"subject":{"reference":"Patient/4f8b0ca2-baf1-4ce6-8b9a-c3220097cf7c"},"recordedDate":"2026-08-06T08:00:00Z"},"request":{"method":"PUT","url":"Condition/d48bb9e4-2d84-440b-b466-45ad057ceb72"}},{"fullUrl":"https://madie.cms.gov/Organization/eefa8594-0eed-4f10-84e3-a8583f68dc3c","resource":{"resourceType":"Organization","id":"eefa8594-0eed-4f10-84e3-a8583f68dc3c","meta":{"profile":["http://hl7.org/fhir/us/qicore/StructureDefinition/qicore-organization"]},"identifier":[{"use":"temp","system":"urn:oid:2.16.840.1.113883.4.4","value":"21-3259825"}],"active":true,"type":[{"coding":[{"system":"http://terminology.hl7.org/CodeSystem/organization-type","code":"pay","display":"Payer"}]}],"name":"Blue Cross Blue Shield of Texas","telecom":[{"system":"phone","value":"(+1) 972-766-6900"}],"address":[{"use":"billing","type":"postal","line":["P.O. Box 660044"],"city":"Dallas","state":"TX","postalCode":"75266-0044","country":"USA"}]},"request":{"method":"PUT","url":"Organization/eefa8594-0eed-4f10-84e3-a8583f68dc3c"}},{"fullUrl":"https://madie.cms.gov/MeasureReport/b6fed7bd-3c88-4d4d-8b1a-a4f9c76ac2e1","resource":{"resourceType":"MeasureReport","id":"b6fed7bd-3c88-4d4d-8b1a-a4f9c76ac2e1","meta":{"profile":["http://hl7.org/fhir/us/cqfmeasures/StructureDefinition/test-case-cqfm"]},"contained":[{"resourceType":"Parameters","id":"223a0523-cb63-4eeb-8b07-720c284b3fe9-parameters","parameter":[{"name":"subject","valueString":"4f8b0ca2-baf1-4ce6-8b9a-c3220097cf7c"}]}],"extension":[{"url":"http://hl7.org/fhir/StructureDefinition/cqf-inputParameters","valueReference":{"reference":"#223a0523-cb63-4eeb-8b07-720c284b3fe9-parameters"}},{"url":"http://hl7.org/fhir/us/cqfmeasures/StructureDefinition/cqfm-testCaseDescription","valueMarkdown":"Patient receives INR of 3.6 the day of Obs start. ED ends 1 min before Obs, Obs ends 1 min before IP starts on the same day.Testing Day of operator with HospitalizationWithObservation function.\n"}],"modifierExtension":[{"url":"http://hl7.org/fhir/us/cqfmeasures/StructureDefinition/cqfm-isTestCase","valueBoolean":true}],"status":"complete","type":"individual","measure":"https://madie.cms.gov/Measure/CMS72FHIRSTKAntithromboticDay2","period":{"start":"2026-01-01","end":"2026-12-31"},"group":[{"id":"Group_1","population":[{"id":"InitialPopulation_1","code":{"coding":[{"system":"http://terminology.hl7.org/CodeSystem/measure-population","code":"initial-population","display":"Initial Population"}]},"count":1},{"id":"Denominator_1","code":{"coding":[{"system":"http://terminology.hl7.org/CodeSystem/measure-population","code":"denominator","display":"Denominator"}]},"count":1},{"id":"DenominatorExclusion_1","code":{"coding":[{"system":"http://terminology.hl7.org/CodeSystem/measure-population","code":"denominator-exclusion","display":"Denominator Exclusion"}]},"count":0},{"id":"Numerator_1","code":{"coding":[{"system":"http://terminology.hl7.org/CodeSystem/measure-population","code":"numerator","display":"Numerator"}]},"count":0},{"id":"DenominatorException_1","code":{"coding":[{"system":"http://terminology.hl7.org/CodeSystem/measure-population","code":"denominator-exception","display":"Denominator Exception"}]},"count":1}],"measureScore":{"value":0.0}}],"evaluatedResource":[{"reference":"Patient/4f8b0ca2-baf1-4ce6-8b9a-c3220097cf7c"},{"reference":"Encounter/14a3f05f-226c-47ec-af0b-efc7bd9d41db"},{"reference":"Encounter/c72f28af-03ab-404a-aa9d-398d013e7eb3"},{"reference":"Encounter/03cc8429-79a6-4d7b-8fc3-e15e61770486"},{"reference":"Claim/5ca62962b8484628b8de1ec5"},{"reference":"Observation/f869d741-6414-4d0f-b44f-b5aebce687eb"},{"reference":"Coverage/c7f11770-fbf1-44bb-860e-d58548f0d35a"},{"reference":"Condition/d48bb9e4-2d84-440b-b466-45ad057ceb72"},{"reference":"Organization/eefa8594-0eed-4f10-84e3-a8583f68dc3c"}]},"request":{"method":"PUT","url":"MeasureReport/b6fed7bd-3c88-4d4d-8b1a-a4f9c76ac2e1"}}]},"request":{"method":"PUT","url":"Bundle/60f82c2f98086b570510e2aa"}},{"fullUrl":"Coverage/c7f11770-fbf1-44bb-860e-d58548f0d35a","resource":{"resourceType":"Coverage","id":"c7f11770-fbf1-44bb-860e-d58548f0d35a","status":"active","subscriberId":"523435","beneficiary":{"reference":"Patient/4f8b0ca2-baf1-4ce6-8b9a-c3220097cf7c"},"relationship":{"coding":[{"system":"http://terminology.hl7.org/CodeSystem/subscriber-relationship","code":"self"}]},"period":{"start":"1976-09-26T08:00:00Z"},"payor":[{"reference":"Organization/eefa8594-0eed-4f10-84e3-a8583f68dc3c"}]},"request":{"method":"PUT","url":"Coverage/c7f11770-fbf1-44bb-860e-d58548f0d35a"}},{"fullUrl":"Encounter/03cc8429-79a6-4d7b-8fc3-e15e61770486","resource":{"resourceType":"Encounter","id":"03cc8429-79a6-4d7b-8fc3-e15e61770486","meta":{"profile":["http://hl7.org/fhir/us/qicore/StructureDefinition/qicore-encounter"]},"status":"finished","class":{"system":"http://terminology.hl7.org/CodeSystem/v3-ActCode","code":"IMP","display":"inpatient encounter","userSelected":true},"type":[{"coding":[{"system":"http://snomed.info/sct","code":"32485007"}]}],"subject":{"reference":"Patient/4f8b0ca2-baf1-4ce6-8b9a-c3220097cf7c"},"period":{"start":"2026-10-10T07:31:00Z","end":"2026-10-15T11:30:00.000+00:00"},"length":{"value":5,"unit":"days"},"reasonReference":[{"reference":"Condition/d48bb9e4-2d84-440b-b466-45ad057ceb72"}]},"request":{"method":"PUT","url":"Encounter/03cc8429-79a6-4d7b-8fc3-e15e61770486"}},{"fullUrl":"Patient/4f8b0ca2-baf1-4ce6-8b9a-c3220097cf7c","resource":{"resourceType":"Patient","id":"4f8b0ca2-baf1-4ce6-8b9a-c3220097cf7c","meta":{"profile":["http://hl7.org/fhir/us/qicore/StructureDefinition/qicore-patient"]},"text":{"status":"generated","div":"<div xmlns=\"http://www.w3.org/1999/xhtml\"><div class=\"hapiHeaderText\">INRDayOfObs_ED&lt;1hrObs&lt;1hrBFEncDayOf <b>DENEXCEPASS </b></div><table class=\"hapiPropertyTable\"><tbody><tr><td>Identifier</td><td>955c3164f28b1cd12a47e69610b3987de9a411ffaf7a33899bbd175a9be414f3</td></tr><tr><td>Date of birth</td><td><span>26 September 1975</span></td></tr></tbody></table></div>"},"extension":[{"url":"http://hl7.org/fhir/us/core/StructureDefinition/us-core-race","extension":[{"url":"ombCategory","valueCoding":{"system":"urn:oid:2.16.840.1.113883.6.238","code":"2054-5","display":"Black or African American","userSelected":true}},{"url":"text","valueString":"Black or African American"}]},{"url":"http://hl7.org/fhir/us/core/StructureDefinition/us-core-ethnicity","extension":[{"url":"ombCategory","valueCoding":{"system":"urn:oid:2.16.840.1.113883.6.238","code":"2186-5","display":"Not Hispanic or Latino","userSelected":true}},{"url":"text","valueString":"Not Hispanic or Latino"}]}],"identifier":[{"type":{"coding":[{"system":"http://terminology.hl7.org/CodeSystem/v2-0203","code":"MR"}]},"system":"https://bonnie-fhir.healthit.gov/","value":"60f82c2f98086b570510e2aa"}],"active":true,"name":[{"use":"usual","family":"DENEXCEPass","given":["INRDayOfObs_ED<1hrObs<1hrBFEncDayOf"]}],"gender":"female","birthDate":"1976-09-26"},"request":{"method":"PUT","url":"Patient/4f8b0ca2-baf1-4ce6-8b9a-c3220097cf7c"}},{"fullUrl":"Encounter/14a3f05f-226c-47ec-af0b-efc7bd9d41db","resource":{"resourceType":"Encounter","id":"14a3f05f-226c-47ec-af0b-efc7bd9d41db","meta":{"profile":["http://hl7.org/fhir/us/qicore/StructureDefinition/qicore-encounter"]},"status":"finished","class":{"system":"http://terminology.hl7.org/CodeSystem/v3-ActCode","code":"EMER","display":"emergency","userSelected":true},"type":[{"coding":[{"system":"http://snomed.info/sct","code":"4525004"}]}],"subject":{"reference":"Patient/4f8b0ca2-baf1-4ce6-8b9a-c3220097cf7c"},"period":{"start":"2026-10-10T06:15:00Z","end":"2026-10-10T06:30:00.000+00:00"},"length":{"value":0,"unit":"days"}},"request":{"method":"PUT","url":"Encounter/14a3f05f-226c-47ec-af0b-efc7bd9d41db"}},{"fullUrl":"Condition/d48bb9e4-2d84-440b-b466-45ad057ceb72","resource":{"resourceType":"Condition","id":"d48bb9e4-2d84-440b-b466-45ad057ceb72","meta":{"profile":["http://hl7.org/fhir/us/qicore/StructureDefinition/qicore-condition-encounter-diagnosis"]},"clinicalStatus":{"coding":[{"system":"http://terminology.hl7.org/CodeSystem/condition-clinical","code":"active"}]},"verificationStatus":{"coding":[{"system":"http://terminology.hl7.org/CodeSystem/condition-ver-status","code":"confirmed"}]},"category":[{"coding":[{"system":"http://terminology.hl7.org/CodeSystem/condition-category","code":"encounter-diagnosis","display":"Encounter Diagnosis"}]}],"code":{"coding":[{"system":"http://snomed.info/sct","version":"2020-09","code":"111297002","display":"Nonparalytic stroke (disorder)","userSelected":true}]},"subject":{"reference":"Patient/4f8b0ca2-baf1-4ce6-8b9a-c3220097cf7c"},"recordedDate":"2026-08-06T08:00:00Z"},"request":{"method":"PUT","url":"Condition/d48bb9e4-2d84-440b-b466-45ad057ceb72"}},{"fullUrl":"Organization/eefa8594-0eed-4f10-84e3-a8583f68dc3c","resource":{"resourceType":"Organization","id":"eefa8594-0eed-4f10-84e3-a8583f68dc3c","meta":{"profile":["http://hl7.org/fhir/us/qicore/StructureDefinition/qicore-organization"]},"identifier":[{"use":"temp","system":"urn:oid:2.16.840.1.113883.4.4","value":"21-3259825"}],"active":true,"type":[{"coding":[{"system":"http://terminology.hl7.org/CodeSystem/organization-type","code":"pay","display":"Payer"}]}],"name":"Blue Cross Blue Shield of Texas","telecom":[{"system":"phone","value":"(+1) 972-766-6900"}],"address":[{"use":"billing","type":"postal","line":["P.O. Box 660044"],"city":"Dallas","state":"TX","postalCode":"75266-0044","country":"USA"}]},"request":{"method":"PUT","url":"Organization/eefa8594-0eed-4f10-84e3-a8583f68dc3c"}},{"fullUrl":"MeasureReport/b6fed7bd-3c88-4d4d-8b1a-a4f9c76ac2e1","resource":{"resourceType":"MeasureReport","id":"b6fed7bd-3c88-4d4d-8b1a-a4f9c76ac2e1","meta":{"profile":["http://hl7.org/fhir/us/cqfmeasures/StructureDefinition/test-case-cqfm"]},"contained":[{"resourceType":"Parameters","id":"223a0523-cb63-4eeb-8b07-720c284b3fe9-parameters","parameter":[{"name":"subject","valueString":"4f8b0ca2-baf1-4ce6-8b9a-c3220097cf7c"}]}],"extension":[{"url":"http://hl7.org/fhir/StructureDefinition/cqf-inputParameters","valueReference":{"reference":"#223a0523-cb63-4eeb-8b07-720c284b3fe9-parameters"}},{"url":"http://hl7.org/fhir/us/cqfmeasures/StructureDefinition/cqfm-testCaseDescription","valueMarkdown":"Patient receives INR of 3.6 the day of Obs start. ED ends 1 min before Obs, Obs ends 1 min before IP starts on the same day.Testing Day of operator with HospitalizationWithObservation function.\n"}],"modifierExtension":[{"url":"http://hl7.org/fhir/us/cqfmeasures/StructureDefinition/cqfm-isTestCase","valueBoolean":true}],"status":"complete","type":"individual","measure":"https://madie.cms.gov/Measure/CMS72FHIRSTKAntithromboticDay2","period":{"start":"2026-01-01","end":"2026-12-31"},"group":[{"id":"Group_1","population":[{"id":"InitialPopulation_1","code":{"coding":[{"system":"http://terminology.hl7.org/CodeSystem/measure-population","code":"initial-population","display":"Initial Population"}]},"count":1},{"id":"Denominator_1","code":{"coding":[{"system":"http://terminology.hl7.org/CodeSystem/measure-population","code":"denominator","display":"Denominator"}]},"count":1},{"id":"DenominatorExclusion_1","code":{"coding":[{"system":"http://terminology.hl7.org/CodeSystem/measure-population","code":"denominator-exclusion","display":"Denominator Exclusion"}]},"count":0},{"id":"Numerator_1","code":{"coding":[{"system":"http://terminology.hl7.org/CodeSystem/measure-population","code":"numerator","display":"Numerator"}]},"count":0},{"id":"DenominatorException_1","code":{"coding":[{"system":"http://terminology.hl7.org/CodeSystem/measure-population","code":"denominator-exception","display":"Denominator Exception"}]},"count":1}],"measureScore":{"value":0.0}}],"evaluatedResource":[{"reference":"Patient/4f8b0ca2-baf1-4ce6-8b9a-c3220097cf7c"},{"reference":"Encounter/14a3f05f-226c-47ec-af0b-efc7bd9d41db"},{"reference":"Encounter/c72f28af-03ab-404a-aa9d-398d013e7eb3"},{"reference":"Encounter/03cc8429-79a6-4d7b-8fc3-e15e61770486"},{"reference":"Claim/5ca62962b8484628b8de1ec5"},{"reference":"Observation/f869d741-6414-4d0f-b44f-b5aebce687eb"},{"reference":"Coverage/c7f11770-fbf1-44bb-860e-d58548f0d35a"},{"reference":"Condition/d48bb9e4-2d84-440b-b466-45ad057ceb72"},{"reference":"Organization/eefa8594-0eed-4f10-84e3-a8583f68dc3c"}]},"request":{"method":"PUT","url":"MeasureReport/b6fed7bd-3c88-4d4d-8b1a-a4f9c76ac2e1"}},{"fullUrl":"Observation/f869d741-6414-4d0f-b44f-b5aebce687eb","resource":{"resourceType":"Observation","id":"f869d741-6414-4d0f-b44f-b5aebce687eb","meta":{"profile":["http://hl7.org/fhir/us/qicore/StructureDefinition/qicore-observation-lab"]},"status":"final","category":[{"coding":[{"system":"http://terminology.hl7.org/CodeSystem/observation-category","code":"laboratory","display":"Laboratory"}]}],"code":{"coding":[{"system":"http://loinc.org","code":"34714-6"}]},"subject":{"reference":"Patient/4f8b0ca2-baf1-4ce6-8b9a-c3220097cf7c"},"effectivePeriod":{"start":"2026-10-10T06:15:00Z"},"issued":"2026-10-10T06:31:00.000+00:00","valueQuantity":{"value":3.6}},"request":{"method":"PUT","url":"Observation/f869d741-6414-4d0f-b44f-b5aebce687eb"}},{"fullUrl":"Encounter/c72f28af-03ab-404a-aa9d-398d013e7eb3","resource":{"resourceType":"Encounter","id":"c72f28af-03ab-404a-aa9d-398d013e7eb3","meta":{"profile":["http://hl7.org/fhir/us/qicore/StructureDefinition/qicore-encounter"]},"status":"finished","class":{"system":"http://terminology.hl7.org/CodeSystem/v3-ActCode","code":"OBSENC","display":"observation encounter","userSelected":true},"type":[{"coding":[{"system":"http://snomed.info/sct","code":"448851000124103"}]}],"subject":{"reference":"Patient/4f8b0ca2-baf1-4ce6-8b9a-c3220097cf7c"},"period":{"start":"2026-10-10T06:31:00Z","end":"2026-10-10T07:30:00.000+00:00"},"length":{"value":0,"unit":"days"}},"request":{"method":"PUT","url":"Encounter/c72f28af-03ab-404a-aa9d-398d013e7eb3"}},{"fullUrl":"Claim/5ca62962b8484628b8de1ec5","resource":{"resourceType":"Claim","id":"5ca62962b8484628b8de1ec5","meta":{"profile":["http://hl7.org/fhir/us/qicore/StructureDefinition/qicore-claim"]},"status":"active","type":{"coding":[{"system":"http://terminology.hl7.org/CodeSystem/claim-type","code":"institutional"}]},"use":"claim","patient":{"reference":"Patient/d170a0a8-b5ad-4303-b6df-e304dd5f92ad"},"created":"2026-12-01","provider":{"reference":"Practitioner/practitioner-123456"},"priority":{"coding":[{"system":"http://terminology.hl7.org/CodeSystem/processpriority","code":"normal"}]},"diagnosis":[{"sequence":1,"diagnosisCodeableConcept":{"coding":[{"system":"http://hl7.org/fhir/sid/icd-10-cm","code":"I63.00"}]},"type":[{"coding":[{"system":"http://terminology.hl7.org/CodeSystem/ex-diagnosistype","code":"principal"}]}]}],"insurance":[{"sequence":1,"focal":true,"coverage":{"reference":"Coverage/5fa041661c76ba66d9959367"}}],"item":[{"sequence":1,"diagnosisSequence":[1],"productOrService":{"coding":[{"system":"http://terminology.hl7.org/CodeSystem/ex-USCLS","code":"99555"}]},"encounter":[{"reference":"Encounter/03cc8429-79a6-4d7b-8fc3-e15e61770486"}]}]},"request":{"method":"PUT","url":"Claim/5ca62962b8484628b8de1ec5"}}]}