{"resourceType":"Bundle","id":"tests-a938e0ff-51b3-4001-b33e-5fd2c00a9147-bundle","type":"transaction","entry":[{"fullUrl":"Condition/baa1b298-9c1e-40c9-8322-6b370fce25a8","resource":{"resourceType":"Condition","id":"baa1b298-9c1e-40c9-8322-6b370fce25a8","meta":{"profile":["http://hl7.org/fhir/us/qicore/StructureDefinition/qicore-condition-problems-health-concerns"]},"clinicalStatus":{"coding":[{"system":"http://terminology.hl7.org/CodeSystem/condition-clinical","code":"active"}]},"verificationStatus":{"coding":[{"system":"http://terminology.hl7.org/CodeSystem/condition-ver-status","code":"confirmed"}]},"category":[{"coding":[{"system":"http://terminology.hl7.org/CodeSystem/condition-category","code":"encounter-diagnosis","display":"Encounter Diagnosis"}]}],"code":{"coding":[{"system":"http://snomed.info/sct","version":"2020-09","code":"111297002","display":"Nonparalytic stroke (disorder)","userSelected":true}]},"subject":{"reference":"Patient/a938e0ff-51b3-4001-b33e-5fd2c00a9147"},"recordedDate":"2026-08-16T08:00:00Z"},"request":{"method":"PUT","url":"Condition/baa1b298-9c1e-40c9-8322-6b370fce25a8"}},{"fullUrl":"Practitioner/88c50f3b-0810-4e63-8bc5-95b2fcc5af96","resource":{"resourceType":"Practitioner","id":"88c50f3b-0810-4e63-8bc5-95b2fcc5af96","meta":{"profile":["http://hl7.org/fhir/us/qicore/StructureDefinition/qicore-practitioner"]},"identifier":[{"system":"http://hl7.org/fhir/sid/us-npi","value":"9999999896"}],"name":[{"family":"Evil","prefix":["Dr"]}]},"request":{"method":"PUT","url":"Practitioner/88c50f3b-0810-4e63-8bc5-95b2fcc5af96"}},{"fullUrl":"Patient/a938e0ff-51b3-4001-b33e-5fd2c00a9147","resource":{"resourceType":"Patient","id":"a938e0ff-51b3-4001-b33e-5fd2c00a9147","meta":{"profile":["http://hl7.org/fhir/us/qicore/StructureDefinition/qicore-patient"]},"text":{"status":"generated","div":"<div xmlns=\"http://www.w3.org/1999/xhtml\"><div class=\"hapiHeaderText\">MedAntithromboticStart_eq0dayAtEdStart <b>NUMERPASS </b></div><table class=\"hapiPropertyTable\"><tbody><tr><td>Identifier</td><td>168b1b1f52f949d3490002df317e49f8</td></tr><tr><td>Date of birth</td><td><span>26 September 1975</span></td></tr></tbody></table></div>"},"extension":[{"url":"http://hl7.org/fhir/us/core/StructureDefinition/us-core-race","extension":[{"url":"ombCategory","valueCoding":{"system":"urn:oid:2.16.840.1.113883.6.238","code":"2054-5","display":"Black or African American","userSelected":true}},{"url":"text","valueString":"Black or African American"}]},{"url":"http://hl7.org/fhir/us/core/StructureDefinition/us-core-ethnicity","extension":[{"url":"ombCategory","valueCoding":{"system":"urn:oid:2.16.840.1.113883.6.238","code":"2186-5","display":"Not Hispanic or Latino","userSelected":true}},{"url":"text","valueString":"Not Hispanic or Latino"}]}],"identifier":[{"type":{"coding":[{"system":"http://terminology.hl7.org/CodeSystem/v2-0203","code":"MR"}]},"system":"https://bonnie-fhir.healthit.gov/","value":"60f82c2e98086b570510e28e"}],"active":true,"name":[{"use":"usual","family":"NUMERPass","given":["MedAntithromboticStarteq0dayAtEdStart"]}],"gender":"female","birthDate":"1976-09-26"},"request":{"method":"PUT","url":"Patient/a938e0ff-51b3-4001-b33e-5fd2c00a9147"}},{"fullUrl":"Encounter/53af2a25-29ac-48a5-9c2c-24f83cdbb078","resource":{"resourceType":"Encounter","id":"53af2a25-29ac-48a5-9c2c-24f83cdbb078","meta":{"profile":["http://hl7.org/fhir/us/qicore/StructureDefinition/qicore-encounter"]},"status":"finished","class":{"system":"http://terminology.hl7.org/CodeSystem/v3-ActCode","code":"EMER","display":"emergency"},"type":[{"coding":[{"system":"http://snomed.info/sct","code":"4525004"}]}],"subject":{"reference":"Patient/a938e0ff-51b3-4001-b33e-5fd2c00a9147"},"period":{"start":"2026-10-10T06:00:00Z","end":"2026-10-10T08:30:00.000+00:00"},"length":{"value":0,"unit":"days"}},"request":{"method":"PUT","url":"Encounter/53af2a25-29ac-48a5-9c2c-24f83cdbb078"}},{"fullUrl":"MeasureReport/3a79fe3e-54ed-4a94-b2e1-e2d0e70141b3","resource":{"resourceType":"MeasureReport","id":"3a79fe3e-54ed-4a94-b2e1-e2d0e70141b3","meta":{"profile":["http://hl7.org/fhir/us/cqfmeasures/StructureDefinition/test-case-cqfm"]},"contained":[{"resourceType":"Parameters","id":"de1703f5-51ca-4336-aac5-8ebcf5a94b31-parameters","parameter":[{"name":"subject","valueString":"a938e0ff-51b3-4001-b33e-5fd2c00a9147"}]}],"extension":[{"url":"http://hl7.org/fhir/StructureDefinition/cqf-inputParameters","valueReference":{"reference":"#de1703f5-51ca-4336-aac5-8ebcf5a94b31-parameters"}},{"url":"http://hl7.org/fhir/us/cqfmeasures/StructureDefinition/cqfm-testCaseDescription","valueMarkdown":"\"Patient receives antithrombotic in the ED.MedAntithromboticStart EQ 0day at ED start\nglobal.\"\"Hospitalization\"\" =(Ed+IP)\"\n"}],"modifierExtension":[{"url":"http://hl7.org/fhir/us/cqfmeasures/StructureDefinition/cqfm-isTestCase","valueBoolean":true}],"status":"complete","type":"individual","measure":"https://madie.cms.gov/Measure/CMS72FHIRSTKAntithromboticDay2","period":{"start":"2026-01-01","end":"2026-12-31"},"group":[{"id":"Group_1","population":[{"id":"InitialPopulation_1","code":{"coding":[{"system":"http://terminology.hl7.org/CodeSystem/measure-population","code":"initial-population","display":"Initial Population"}]},"count":1},{"id":"Denominator_1","code":{"coding":[{"system":"http://terminology.hl7.org/CodeSystem/measure-population","code":"denominator","display":"Denominator"}]},"count":1},{"id":"DenominatorExclusion_1","code":{"coding":[{"system":"http://terminology.hl7.org/CodeSystem/measure-population","code":"denominator-exclusion","display":"Denominator Exclusion"}]},"count":0},{"id":"Numerator_1","code":{"coding":[{"system":"http://terminology.hl7.org/CodeSystem/measure-population","code":"numerator","display":"Numerator"}]},"count":1},{"id":"DenominatorException_1","code":{"coding":[{"system":"http://terminology.hl7.org/CodeSystem/measure-population","code":"denominator-exception","display":"Denominator Exception"}]},"count":0}],"measureScore":{"value":0.0}}],"evaluatedResource":[{"reference":"Patient/a938e0ff-51b3-4001-b33e-5fd2c00a9147"},{"reference":"Encounter/53af2a25-29ac-48a5-9c2c-24f83cdbb078"},{"reference":"Encounter/d6f40be3-d93c-4b89-a767-8e5ac5c30e16"},{"reference":"Claim/5ca62962b8484628b8de1ec5"},{"reference":"MedicationAdministration/e012961b-bf56-43ce-b8c7-decfd532db7a"},{"reference":"Coverage/fcb3ef44-829f-4d41-b461-8440341ba8ad"},{"reference":"Condition/baa1b298-9c1e-40c9-8322-6b370fce25a8"},{"reference":"Organization/2e546636-68a4-42ce-bec3-eee28c9cff65"},{"reference":"Practitioner/88c50f3b-0810-4e63-8bc5-95b2fcc5af96"}]},"request":{"method":"PUT","url":"MeasureReport/3a79fe3e-54ed-4a94-b2e1-e2d0e70141b3"}},{"fullUrl":"Encounter/d6f40be3-d93c-4b89-a767-8e5ac5c30e16","resource":{"resourceType":"Encounter","id":"d6f40be3-d93c-4b89-a767-8e5ac5c30e16","meta":{"profile":["http://hl7.org/fhir/us/qicore/StructureDefinition/qicore-encounter"]},"status":"finished","class":{"system":"http://terminology.hl7.org/CodeSystem/v3-ActCode","code":"IMP","display":"inpatient encounter"},"type":[{"coding":[{"system":"http://snomed.info/sct","code":"32485007"}]}],"subject":{"reference":"Patient/a938e0ff-51b3-4001-b33e-5fd2c00a9147"},"period":{"start":"2026-10-10T09:00:00Z","end":"2026-10-12T11:30:00.000+00:00"},"length":{"value":2,"unit":"days"},"reasonReference":[{"reference":"Condition/baa1b298-9c1e-40c9-8322-6b370fce25a8"}]},"request":{"method":"PUT","url":"Encounter/d6f40be3-d93c-4b89-a767-8e5ac5c30e16"}},{"fullUrl":"Organization/2e546636-68a4-42ce-bec3-eee28c9cff65","resource":{"resourceType":"Organization","id":"2e546636-68a4-42ce-bec3-eee28c9cff65","meta":{"profile":["http://hl7.org/fhir/us/qicore/StructureDefinition/qicore-organization"]},"identifier":[{"use":"temp","system":"urn:oid:2.16.840.1.113883.4.4","value":"21-3259825"}],"active":true,"type":[{"coding":[{"system":"http://terminology.hl7.org/CodeSystem/organization-type","code":"pay","display":"Payer"}]}],"name":"Blue Cross Blue Shield of Texas","telecom":[{"system":"phone","value":"(+1) 972-766-6900"}],"address":[{"use":"billing","type":"postal","line":["P.O. Box 660044"],"city":"Dallas","state":"TX","postalCode":"75266-0044","country":"USA"}]},"request":{"method":"PUT","url":"Organization/2e546636-68a4-42ce-bec3-eee28c9cff65"}},{"fullUrl":"MedicationAdministration/e012961b-bf56-43ce-b8c7-decfd532db7a","resource":{"resourceType":"MedicationAdministration","id":"e012961b-bf56-43ce-b8c7-decfd532db7a","meta":{"profile":["http://hl7.org/fhir/us/qicore/StructureDefinition/qicore-medicationadministration"]},"status":"completed","medicationCodeableConcept":{"coding":[{"system":"http://www.nlm.nih.gov/research/umls/rxnorm","code":"1037045"}]},"subject":{"reference":"Patient/a938e0ff-51b3-4001-b33e-5fd2c00a9147"},"effectivePeriod":{"start":"2026-10-10T06:00:00Z","end":"2026-10-10T07:20:00.000+00:00"}},"request":{"method":"PUT","url":"MedicationAdministration/e012961b-bf56-43ce-b8c7-decfd532db7a"}},{"fullUrl":"Bundle/60f82c2e98086b570510e28e","resource":{"resourceType":"Bundle","id":"60f82c2e98086b570510e28e","type":"transaction","entry":[{"fullUrl":"https://madie.cms.gov/Patient/a938e0ff-51b3-4001-b33e-5fd2c00a9147","resource":{"resourceType":"Patient","id":"a938e0ff-51b3-4001-b33e-5fd2c00a9147","meta":{"profile":["http://hl7.org/fhir/us/qicore/StructureDefinition/qicore-patient"]},"text":{"status":"generated","div":"<div xmlns=\"http://www.w3.org/1999/xhtml\"><div class=\"hapiHeaderText\">MedAntithromboticStart_eq0dayAtEdStart <b>NUMERPASS </b></div><table class=\"hapiPropertyTable\"><tbody><tr><td>Identifier</td><td>168b1b1f52f949d3490002df317e49f8</td></tr><tr><td>Date of birth</td><td><span>26 September 1975</span></td></tr></tbody></table></div>"},"extension":[{"url":"http://hl7.org/fhir/us/core/StructureDefinition/us-core-race","extension":[{"url":"ombCategory","valueCoding":{"system":"urn:oid:2.16.840.1.113883.6.238","code":"2054-5","display":"Black or African American","userSelected":true}},{"url":"text","valueString":"Black or African American"}]},{"url":"http://hl7.org/fhir/us/core/StructureDefinition/us-core-ethnicity","extension":[{"url":"ombCategory","valueCoding":{"system":"urn:oid:2.16.840.1.113883.6.238","code":"2186-5","display":"Not Hispanic or Latino","userSelected":true}},{"url":"text","valueString":"Not Hispanic or Latino"}]}],"identifier":[{"type":{"coding":[{"system":"http://terminology.hl7.org/CodeSystem/v2-0203","code":"MR"}]},"system":"https://bonnie-fhir.healthit.gov/","value":"60f82c2e98086b570510e28e"}],"active":true,"name":[{"use":"usual","family":"NUMERPass","given":["MedAntithromboticStarteq0dayAtEdStart"]}],"gender":"female","birthDate":"1976-09-26"},"request":{"method":"PUT","url":"Patient/a938e0ff-51b3-4001-b33e-5fd2c00a9147"}},{"fullUrl":"https://madie.cms.gov/Encounter/53af2a25-29ac-48a5-9c2c-24f83cdbb078","resource":{"resourceType":"Encounter","id":"53af2a25-29ac-48a5-9c2c-24f83cdbb078","meta":{"profile":["http://hl7.org/fhir/us/qicore/StructureDefinition/qicore-encounter"]},"status":"finished","class":{"system":"http://terminology.hl7.org/CodeSystem/v3-ActCode","code":"EMER","display":"emergency"},"type":[{"coding":[{"system":"http://snomed.info/sct","code":"4525004"}]}],"subject":{"reference":"Patient/a938e0ff-51b3-4001-b33e-5fd2c00a9147"},"period":{"start":"2026-10-10T06:00:00Z","end":"2026-10-10T08:30:00.000+00:00"},"length":{"value":0,"unit":"days"}},"request":{"method":"PUT","url":"Encounter/53af2a25-29ac-48a5-9c2c-24f83cdbb078"}},{"fullUrl":"https://madie.cms.gov/Encounter/d6f40be3-d93c-4b89-a767-8e5ac5c30e16","resource":{"resourceType":"Encounter","id":"d6f40be3-d93c-4b89-a767-8e5ac5c30e16","meta":{"profile":["http://hl7.org/fhir/us/qicore/StructureDefinition/qicore-encounter"]},"status":"finished","class":{"system":"http://terminology.hl7.org/CodeSystem/v3-ActCode","code":"IMP","display":"inpatient encounter"},"type":[{"coding":[{"system":"http://snomed.info/sct","code":"32485007"}]}],"subject":{"reference":"Patient/a938e0ff-51b3-4001-b33e-5fd2c00a9147"},"period":{"start":"2026-10-10T09:00:00Z","end":"2026-10-12T11:30:00.000+00:00"},"length":{"value":2,"unit":"days"},"reasonReference":[{"reference":"Condition/baa1b298-9c1e-40c9-8322-6b370fce25a8"}]},"request":{"method":"PUT","url":"Encounter/d6f40be3-d93c-4b89-a767-8e5ac5c30e16"}},{"fullUrl":"https://madie.cms.gov/claim/5ca62962b8484628b8de1ec5","resource":{"resourceType":"Claim","id":"5ca62962b8484628b8de1ec5","meta":{"profile":["http://hl7.org/fhir/us/qicore/StructureDefinition/qicore-claim"]},"status":"active","type":{"coding":[{"system":"http://terminology.hl7.org/CodeSystem/claim-type","code":"institutional"}]},"use":"claim","patient":{"reference":"Patient/d170a0a8-b5ad-4303-b6df-e304dd5f92ad"},"created":"2026-12-01","provider":{"reference":"Practitioner/88c50f3b-0810-4e63-8bc5-95b2fcc5af96"},"priority":{"coding":[{"system":"http://terminology.hl7.org/CodeSystem/processpriority","code":"normal"}]},"diagnosis":[{"sequence":1,"diagnosisCodeableConcept":{"coding":[{"system":"http://hl7.org/fhir/sid/icd-10-cm","code":"I63.00"}]},"type":[{"coding":[{"system":"http://terminology.hl7.org/CodeSystem/ex-diagnosistype","code":"principal"}]}]}],"insurance":[{"sequence":1,"focal":true,"coverage":{"reference":"Coverage/5fa041661c76ba66d9959367"}}],"item":[{"sequence":1,"diagnosisSequence":[1],"productOrService":{"coding":[{"system":"http://terminology.hl7.org/CodeSystem/ex-USCLS","code":"99555"}]},"encounter":[{"reference":"Encounter/d6f40be3-d93c-4b89-a767-8e5ac5c30e16"}]}]},"request":{"method":"PUT","url":"Claim/5ca62962b8484628b8de1ec5"}},{"fullUrl":"https://madie.cms.gov/MedicationAdministration/e012961b-bf56-43ce-b8c7-decfd532db7a","resource":{"resourceType":"MedicationAdministration","id":"e012961b-bf56-43ce-b8c7-decfd532db7a","meta":{"profile":["http://hl7.org/fhir/us/qicore/StructureDefinition/qicore-medicationadministration"]},"status":"completed","medicationCodeableConcept":{"coding":[{"system":"http://www.nlm.nih.gov/research/umls/rxnorm","code":"1037045"}]},"subject":{"reference":"Patient/a938e0ff-51b3-4001-b33e-5fd2c00a9147"},"effectivePeriod":{"start":"2026-10-10T06:00:00Z","end":"2026-10-10T07:20:00.000+00:00"}},"request":{"method":"PUT","url":"MedicationAdministration/e012961b-bf56-43ce-b8c7-decfd532db7a"}},{"fullUrl":"https://madie.cms.gov/Coverage/fcb3ef44-829f-4d41-b461-8440341ba8ad","resource":{"resourceType":"Coverage","id":"fcb3ef44-829f-4d41-b461-8440341ba8ad","status":"active","subscriberId":"523435","beneficiary":{"reference":"Patient/a938e0ff-51b3-4001-b33e-5fd2c00a9147"},"relationship":{"coding":[{"system":"http://terminology.hl7.org/CodeSystem/subscriber-relationship","code":"self"}]},"period":{"start":"1976-09-26T08:00:00Z"},"payor":[{"reference":"Organization/2e546636-68a4-42ce-bec3-eee28c9cff65"}]},"request":{"method":"PUT","url":"Coverage/fcb3ef44-829f-4d41-b461-8440341ba8ad"}},{"fullUrl":"https://madie.cms.gov/Condition/baa1b298-9c1e-40c9-8322-6b370fce25a8","resource":{"resourceType":"Condition","id":"baa1b298-9c1e-40c9-8322-6b370fce25a8","meta":{"profile":["http://hl7.org/fhir/us/qicore/StructureDefinition/qicore-condition-problems-health-concerns"]},"clinicalStatus":{"coding":[{"system":"http://terminology.hl7.org/CodeSystem/condition-clinical","code":"active"}]},"verificationStatus":{"coding":[{"system":"http://terminology.hl7.org/CodeSystem/condition-ver-status","code":"confirmed"}]},"category":[{"coding":[{"system":"http://terminology.hl7.org/CodeSystem/condition-category","code":"encounter-diagnosis","display":"Encounter Diagnosis"}]}],"code":{"coding":[{"system":"http://snomed.info/sct","version":"2020-09","code":"111297002","display":"Nonparalytic stroke (disorder)","userSelected":true}]},"subject":{"reference":"Patient/a938e0ff-51b3-4001-b33e-5fd2c00a9147"},"recordedDate":"2026-08-16T08:00:00Z"},"request":{"method":"PUT","url":"Condition/baa1b298-9c1e-40c9-8322-6b370fce25a8"}},{"fullUrl":"https://madie.cms.gov/Organization/2e546636-68a4-42ce-bec3-eee28c9cff65","resource":{"resourceType":"Organization","id":"2e546636-68a4-42ce-bec3-eee28c9cff65","meta":{"profile":["http://hl7.org/fhir/us/qicore/StructureDefinition/qicore-organization"]},"identifier":[{"use":"temp","system":"urn:oid:2.16.840.1.113883.4.4","value":"21-3259825"}],"active":true,"type":[{"coding":[{"system":"http://terminology.hl7.org/CodeSystem/organization-type","code":"pay","display":"Payer"}]}],"name":"Blue Cross Blue Shield of Texas","telecom":[{"system":"phone","value":"(+1) 972-766-6900"}],"address":[{"use":"billing","type":"postal","line":["P.O. Box 660044"],"city":"Dallas","state":"TX","postalCode":"75266-0044","country":"USA"}]},"request":{"method":"PUT","url":"Organization/2e546636-68a4-42ce-bec3-eee28c9cff65"}},{"fullUrl":"https://madie.cms.gov/Practitioner/88c50f3b-0810-4e63-8bc5-95b2fcc5af96","resource":{"resourceType":"Practitioner","id":"88c50f3b-0810-4e63-8bc5-95b2fcc5af96","meta":{"profile":["http://hl7.org/fhir/us/qicore/StructureDefinition/qicore-practitioner"]},"identifier":[{"system":"http://hl7.org/fhir/sid/us-npi","value":"9999999896"}],"name":[{"family":"Evil","prefix":["Dr"]}]},"request":{"method":"PUT","url":"Practitioner/88c50f3b-0810-4e63-8bc5-95b2fcc5af96"}},{"fullUrl":"https://madie.cms.gov/MeasureReport/3a79fe3e-54ed-4a94-b2e1-e2d0e70141b3","resource":{"resourceType":"MeasureReport","id":"3a79fe3e-54ed-4a94-b2e1-e2d0e70141b3","meta":{"profile":["http://hl7.org/fhir/us/cqfmeasures/StructureDefinition/test-case-cqfm"]},"contained":[{"resourceType":"Parameters","id":"de1703f5-51ca-4336-aac5-8ebcf5a94b31-parameters","parameter":[{"name":"subject","valueString":"a938e0ff-51b3-4001-b33e-5fd2c00a9147"}]}],"extension":[{"url":"http://hl7.org/fhir/StructureDefinition/cqf-inputParameters","valueReference":{"reference":"#de1703f5-51ca-4336-aac5-8ebcf5a94b31-parameters"}},{"url":"http://hl7.org/fhir/us/cqfmeasures/StructureDefinition/cqfm-testCaseDescription","valueMarkdown":"\"Patient receives antithrombotic in the ED.MedAntithromboticStart EQ 0day at ED start\nglobal.\"\"Hospitalization\"\" =(Ed+IP)\"\n"}],"modifierExtension":[{"url":"http://hl7.org/fhir/us/cqfmeasures/StructureDefinition/cqfm-isTestCase","valueBoolean":true}],"status":"complete","type":"individual","measure":"https://madie.cms.gov/Measure/CMS72FHIRSTKAntithromboticDay2","period":{"start":"2026-01-01","end":"2026-12-31"},"group":[{"id":"Group_1","population":[{"id":"InitialPopulation_1","code":{"coding":[{"system":"http://terminology.hl7.org/CodeSystem/measure-population","code":"initial-population","display":"Initial Population"}]},"count":1},{"id":"Denominator_1","code":{"coding":[{"system":"http://terminology.hl7.org/CodeSystem/measure-population","code":"denominator","display":"Denominator"}]},"count":1},{"id":"DenominatorExclusion_1","code":{"coding":[{"system":"http://terminology.hl7.org/CodeSystem/measure-population","code":"denominator-exclusion","display":"Denominator Exclusion"}]},"count":0},{"id":"Numerator_1","code":{"coding":[{"system":"http://terminology.hl7.org/CodeSystem/measure-population","code":"numerator","display":"Numerator"}]},"count":1},{"id":"DenominatorException_1","code":{"coding":[{"system":"http://terminology.hl7.org/CodeSystem/measure-population","code":"denominator-exception","display":"Denominator Exception"}]},"count":0}],"measureScore":{"value":0.0}}],"evaluatedResource":[{"reference":"Patient/a938e0ff-51b3-4001-b33e-5fd2c00a9147"},{"reference":"Encounter/53af2a25-29ac-48a5-9c2c-24f83cdbb078"},{"reference":"Encounter/d6f40be3-d93c-4b89-a767-8e5ac5c30e16"},{"reference":"Claim/5ca62962b8484628b8de1ec5"},{"reference":"MedicationAdministration/e012961b-bf56-43ce-b8c7-decfd532db7a"},{"reference":"Coverage/fcb3ef44-829f-4d41-b461-8440341ba8ad"},{"reference":"Condition/baa1b298-9c1e-40c9-8322-6b370fce25a8"},{"reference":"Organization/2e546636-68a4-42ce-bec3-eee28c9cff65"},{"reference":"Practitioner/88c50f3b-0810-4e63-8bc5-95b2fcc5af96"}]},"request":{"method":"PUT","url":"MeasureReport/3a79fe3e-54ed-4a94-b2e1-e2d0e70141b3"}}]},"request":{"method":"PUT","url":"Bundle/60f82c2e98086b570510e28e"}},{"fullUrl":"Coverage/fcb3ef44-829f-4d41-b461-8440341ba8ad","resource":{"resourceType":"Coverage","id":"fcb3ef44-829f-4d41-b461-8440341ba8ad","status":"active","subscriberId":"523435","beneficiary":{"reference":"Patient/a938e0ff-51b3-4001-b33e-5fd2c00a9147"},"relationship":{"coding":[{"system":"http://terminology.hl7.org/CodeSystem/subscriber-relationship","code":"self"}]},"period":{"start":"1976-09-26T08:00:00Z"},"payor":[{"reference":"Organization/2e546636-68a4-42ce-bec3-eee28c9cff65"}]},"request":{"method":"PUT","url":"Coverage/fcb3ef44-829f-4d41-b461-8440341ba8ad"}},{"fullUrl":"Claim/5ca62962b8484628b8de1ec5","resource":{"resourceType":"Claim","id":"5ca62962b8484628b8de1ec5","meta":{"profile":["http://hl7.org/fhir/us/qicore/StructureDefinition/qicore-claim"]},"status":"active","type":{"coding":[{"system":"http://terminology.hl7.org/CodeSystem/claim-type","code":"institutional"}]},"use":"claim","patient":{"reference":"Patient/d170a0a8-b5ad-4303-b6df-e304dd5f92ad"},"created":"2026-12-01","provider":{"reference":"Practitioner/88c50f3b-0810-4e63-8bc5-95b2fcc5af96"},"priority":{"coding":[{"system":"http://terminology.hl7.org/CodeSystem/processpriority","code":"normal"}]},"diagnosis":[{"sequence":1,"diagnosisCodeableConcept":{"coding":[{"system":"http://hl7.org/fhir/sid/icd-10-cm","code":"I63.00"}]},"type":[{"coding":[{"system":"http://terminology.hl7.org/CodeSystem/ex-diagnosistype","code":"principal"}]}]}],"insurance":[{"sequence":1,"focal":true,"coverage":{"reference":"Coverage/5fa041661c76ba66d9959367"}}],"item":[{"sequence":1,"diagnosisSequence":[1],"productOrService":{"coding":[{"system":"http://terminology.hl7.org/CodeSystem/ex-USCLS","code":"99555"}]},"encounter":[{"reference":"Encounter/d6f40be3-d93c-4b89-a767-8e5ac5c30e16"}]}]},"request":{"method":"PUT","url":"Claim/5ca62962b8484628b8de1ec5"}}]}