{"resourceType":"Bundle","id":"tests-aadbfade-4898-4931-9e11-e5d7ba64ab27-bundle","type":"transaction","entry":[{"fullUrl":"MedicationAdministration/2006df78-8600-40ae-87be-6d0bc9098d7d","resource":{"resourceType":"MedicationAdministration","id":"2006df78-8600-40ae-87be-6d0bc9098d7d","meta":{"profile":["http://hl7.org/fhir/us/qicore/StructureDefinition/qicore-medicationadministration"]},"status":"completed","medicationCodeableConcept":{"coding":[{"system":"http://www.nlm.nih.gov/research/umls/rxnorm","code":"855812","display":"prasugrel 10 MG Oral Tablet","userSelected":true}]},"subject":{"reference":"Patient/aadbfade-4898-4931-9e11-e5d7ba64ab27"},"effectivePeriod":{"start":"2026-10-11T23:59:00Z"}},"request":{"method":"PUT","url":"MedicationAdministration/2006df78-8600-40ae-87be-6d0bc9098d7d"}},{"fullUrl":"Organization/7e8a258b-3ed0-4177-8591-76c12d66b927","resource":{"resourceType":"Organization","id":"7e8a258b-3ed0-4177-8591-76c12d66b927","meta":{"profile":["http://hl7.org/fhir/us/qicore/StructureDefinition/qicore-organization"]},"identifier":[{"use":"temp","system":"urn:oid:2.16.840.1.113883.4.4","value":"21-3259825"}],"active":true,"type":[{"coding":[{"system":"http://terminology.hl7.org/CodeSystem/organization-type","code":"pay","display":"Payer"}]}],"name":"Blue Cross Blue Shield of Texas","telecom":[{"system":"phone","value":"(+1) 972-766-6900"}],"address":[{"use":"billing","type":"postal","line":["P.O. Box 660044"],"city":"Dallas","state":"TX","postalCode":"75266-0044","country":"USA"}]},"request":{"method":"PUT","url":"Organization/7e8a258b-3ed0-4177-8591-76c12d66b927"}},{"fullUrl":"Condition/3838308f-d8e3-4950-9733-a4a2ffea3133","resource":{"resourceType":"Condition","id":"3838308f-d8e3-4950-9733-a4a2ffea3133","meta":{"profile":["http://hl7.org/fhir/us/qicore/StructureDefinition/qicore-condition-encounter-diagnosis"]},"clinicalStatus":{"coding":[{"system":"http://terminology.hl7.org/CodeSystem/condition-clinical","code":"active"}]},"verificationStatus":{"coding":[{"system":"http://terminology.hl7.org/CodeSystem/condition-ver-status","code":"confirmed"}]},"category":[{"coding":[{"system":"http://terminology.hl7.org/CodeSystem/condition-category","code":"encounter-diagnosis","display":"Encounter Diagnosis"}]}],"code":{"coding":[{"system":"http://snomed.info/sct","version":"2020-09","code":"111297002","display":"Nonparalytic stroke (disorder)","userSelected":true}]},"subject":{"reference":"Patient/aadbfade-4898-4931-9e11-e5d7ba64ab27"},"recordedDate":"2026-08-06T08:00:00Z"},"request":{"method":"PUT","url":"Condition/3838308f-d8e3-4950-9733-a4a2ffea3133"}},{"fullUrl":"Coverage/0bce8797-8a6d-4c79-9ca0-ce4b77d49bf4","resource":{"resourceType":"Coverage","id":"0bce8797-8a6d-4c79-9ca0-ce4b77d49bf4","status":"active","subscriberId":"523435","beneficiary":{"reference":"Patient/aadbfade-4898-4931-9e11-e5d7ba64ab27"},"relationship":{"coding":[{"system":"http://terminology.hl7.org/CodeSystem/subscriber-relationship","code":"self"}]},"period":{"start":"1976-09-26T08:00:00Z"},"payor":[{"reference":"Organization/7e8a258b-3ed0-4177-8591-76c12d66b927"}]},"request":{"method":"PUT","url":"Coverage/0bce8797-8a6d-4c79-9ca0-ce4b77d49bf4"}},{"fullUrl":"Patient/aadbfade-4898-4931-9e11-e5d7ba64ab27","resource":{"resourceType":"Patient","id":"aadbfade-4898-4931-9e11-e5d7ba64ab27","meta":{"profile":["http://hl7.org/fhir/us/qicore/StructureDefinition/qicore-patient"]},"text":{"status":"generated","div":"<div xmlns=\"http://www.w3.org/1999/xhtml\"><div class=\"hapiHeaderText\">PharmContraDayAftEncStart_NoEDNoObsBFEnc_RelePer <b>DENEXCEPPASS </b></div><table class=\"hapiPropertyTable\"><tbody><tr><td>Identifier</td><td>20549e17b75f876587bc16f30ff24d8e209663aec0492eb62127bd43e67eb9dc</td></tr><tr><td>Date of birth</td><td><span>26 September 1975</span></td></tr></tbody></table></div>"},"extension":[{"url":"http://hl7.org/fhir/us/core/StructureDefinition/us-core-race","extension":[{"url":"ombCategory","valueCoding":{"system":"urn:oid:2.16.840.1.113883.6.238","code":"2054-5","display":"Black or African American","userSelected":true}},{"url":"text","valueString":"Black or African American"}]},{"url":"http://hl7.org/fhir/us/core/StructureDefinition/us-core-ethnicity","extension":[{"url":"ombCategory","valueCoding":{"system":"urn:oid:2.16.840.1.113883.6.238","code":"2186-5","display":"Not Hispanic or Latino","userSelected":true}},{"url":"text","valueString":"Not Hispanic or Latino"}]}],"identifier":[{"type":{"coding":[{"system":"http://terminology.hl7.org/CodeSystem/v2-0203","code":"MR"}]},"system":"https://bonnie-fhir.healthit.gov/","value":"60f82c3098086b570510e2d0"}],"active":true,"name":[{"use":"usual","family":"DENEXCEPPass","given":["PharmContraDayAftEncStart_NoEDNoObsBFEnc_RelePer"]}],"gender":"female","birthDate":"1976-09-26"},"request":{"method":"PUT","url":"Patient/aadbfade-4898-4931-9e11-e5d7ba64ab27"}},{"fullUrl":"MeasureReport/0fa22ed1-256b-4579-b5b5-3a096bc131cb","resource":{"resourceType":"MeasureReport","id":"0fa22ed1-256b-4579-b5b5-3a096bc131cb","meta":{"profile":["http://hl7.org/fhir/us/cqfmeasures/StructureDefinition/test-case-cqfm"]},"contained":[{"resourceType":"Parameters","id":"e921fea4-2921-447c-998a-5e33c595797d-parameters","parameter":[{"name":"subject","valueString":"aadbfade-4898-4931-9e11-e5d7ba64ab27"}]}],"extension":[{"url":"http://hl7.org/fhir/StructureDefinition/cqf-inputParameters","valueReference":{"reference":"#e921fea4-2921-447c-998a-5e33c595797d-parameters"}},{"url":"http://hl7.org/fhir/us/cqfmeasures/StructureDefinition/cqfm-testCaseDescription","valueMarkdown":"Patient receives Ticagrelor day after IP start at 1159 pm. No ED. No Obs. Testing Day of operator with HospitalizationWithObservation function.\n"}],"modifierExtension":[{"url":"http://hl7.org/fhir/us/cqfmeasures/StructureDefinition/cqfm-isTestCase","valueBoolean":true}],"status":"complete","type":"individual","measure":"https://madie.cms.gov/Measure/CMS72FHIRSTKAntithromboticDay2","period":{"start":"2026-01-01","end":"2026-12-31"},"group":[{"id":"Group_1","population":[{"id":"InitialPopulation_1","code":{"coding":[{"system":"http://terminology.hl7.org/CodeSystem/measure-population","code":"initial-population","display":"Initial Population"}]},"count":1},{"id":"Denominator_1","code":{"coding":[{"system":"http://terminology.hl7.org/CodeSystem/measure-population","code":"denominator","display":"Denominator"}]},"count":1},{"id":"DenominatorExclusion_1","code":{"coding":[{"system":"http://terminology.hl7.org/CodeSystem/measure-population","code":"denominator-exclusion","display":"Denominator Exclusion"}]},"count":0},{"id":"Numerator_1","code":{"coding":[{"system":"http://terminology.hl7.org/CodeSystem/measure-population","code":"numerator","display":"Numerator"}]},"count":0},{"id":"DenominatorException_1","code":{"coding":[{"system":"http://terminology.hl7.org/CodeSystem/measure-population","code":"denominator-exception","display":"Denominator Exception"}]},"count":1}],"measureScore":{"value":0.0}}],"evaluatedResource":[{"reference":"Patient/aadbfade-4898-4931-9e11-e5d7ba64ab27"},{"reference":"Encounter/81552078-0261-463c-9e62-342a5cbf2134"},{"reference":"Claim/5ca62962b8484628b8de1ec5"},{"reference":"MedicationAdministration/2006df78-8600-40ae-87be-6d0bc9098d7d"},{"reference":"Coverage/0bce8797-8a6d-4c79-9ca0-ce4b77d49bf4"},{"reference":"Condition/3838308f-d8e3-4950-9733-a4a2ffea3133"},{"reference":"Organization/7e8a258b-3ed0-4177-8591-76c12d66b927"}]},"request":{"method":"PUT","url":"MeasureReport/0fa22ed1-256b-4579-b5b5-3a096bc131cb"}},{"fullUrl":"Encounter/81552078-0261-463c-9e62-342a5cbf2134","resource":{"resourceType":"Encounter","id":"81552078-0261-463c-9e62-342a5cbf2134","meta":{"profile":["http://hl7.org/fhir/us/qicore/StructureDefinition/qicore-encounter"]},"status":"finished","class":{"system":"http://terminology.hl7.org/CodeSystem/v3-ActCode","code":"IMP","display":"inpatient encounter","userSelected":true},"type":[{"coding":[{"system":"http://snomed.info/sct","code":"32485007"}]}],"subject":{"reference":"Patient/aadbfade-4898-4931-9e11-e5d7ba64ab27"},"period":{"start":"2026-10-10T09:00:00Z","end":"2026-10-12T11:15:00.000+00:00"},"length":{"value":2,"unit":"days"},"reasonReference":[{"reference":"Condition/3838308f-d8e3-4950-9733-a4a2ffea3133"}]},"request":{"method":"PUT","url":"Encounter/81552078-0261-463c-9e62-342a5cbf2134"}},{"fullUrl":"Bundle/60f82c3098086b570510e2d0","resource":{"resourceType":"Bundle","id":"60f82c3098086b570510e2d0","type":"transaction","entry":[{"fullUrl":"https://madie.cms.gov/Patient/aadbfade-4898-4931-9e11-e5d7ba64ab27","resource":{"resourceType":"Patient","id":"aadbfade-4898-4931-9e11-e5d7ba64ab27","meta":{"profile":["http://hl7.org/fhir/us/qicore/StructureDefinition/qicore-patient"]},"text":{"status":"generated","div":"<div xmlns=\"http://www.w3.org/1999/xhtml\"><div class=\"hapiHeaderText\">PharmContraDayAftEncStart_NoEDNoObsBFEnc_RelePer <b>DENEXCEPPASS </b></div><table class=\"hapiPropertyTable\"><tbody><tr><td>Identifier</td><td>20549e17b75f876587bc16f30ff24d8e209663aec0492eb62127bd43e67eb9dc</td></tr><tr><td>Date of birth</td><td><span>26 September 1975</span></td></tr></tbody></table></div>"},"extension":[{"url":"http://hl7.org/fhir/us/core/StructureDefinition/us-core-race","extension":[{"url":"ombCategory","valueCoding":{"system":"urn:oid:2.16.840.1.113883.6.238","code":"2054-5","display":"Black or African American","userSelected":true}},{"url":"text","valueString":"Black or African American"}]},{"url":"http://hl7.org/fhir/us/core/StructureDefinition/us-core-ethnicity","extension":[{"url":"ombCategory","valueCoding":{"system":"urn:oid:2.16.840.1.113883.6.238","code":"2186-5","display":"Not Hispanic or Latino","userSelected":true}},{"url":"text","valueString":"Not Hispanic or Latino"}]}],"identifier":[{"type":{"coding":[{"system":"http://terminology.hl7.org/CodeSystem/v2-0203","code":"MR"}]},"system":"https://bonnie-fhir.healthit.gov/","value":"60f82c3098086b570510e2d0"}],"active":true,"name":[{"use":"usual","family":"DENEXCEPPass","given":["PharmContraDayAftEncStart_NoEDNoObsBFEnc_RelePer"]}],"gender":"female","birthDate":"1976-09-26"},"request":{"method":"PUT","url":"Patient/aadbfade-4898-4931-9e11-e5d7ba64ab27"}},{"fullUrl":"https://madie.cms.gov/Encounter/81552078-0261-463c-9e62-342a5cbf2134","resource":{"resourceType":"Encounter","id":"81552078-0261-463c-9e62-342a5cbf2134","meta":{"profile":["http://hl7.org/fhir/us/qicore/StructureDefinition/qicore-encounter"]},"status":"finished","class":{"system":"http://terminology.hl7.org/CodeSystem/v3-ActCode","code":"IMP","display":"inpatient encounter","userSelected":true},"type":[{"coding":[{"system":"http://snomed.info/sct","code":"32485007"}]}],"subject":{"reference":"Patient/aadbfade-4898-4931-9e11-e5d7ba64ab27"},"period":{"start":"2026-10-10T09:00:00Z","end":"2026-10-12T11:15:00.000+00:00"},"length":{"value":2,"unit":"days"},"reasonReference":[{"reference":"Condition/3838308f-d8e3-4950-9733-a4a2ffea3133"}]},"request":{"method":"PUT","url":"Encounter/81552078-0261-463c-9e62-342a5cbf2134"}},{"fullUrl":"https://madie.cms.gov/claim/5ca62962b8484628b8de1ec5","resource":{"resourceType":"Claim","id":"5ca62962b8484628b8de1ec5","meta":{"profile":["http://hl7.org/fhir/us/qicore/StructureDefinition/qicore-claim"]},"status":"active","type":{"coding":[{"system":"http://terminology.hl7.org/CodeSystem/claim-type","code":"institutional"}]},"use":"claim","patient":{"reference":"Patient/d170a0a8-b5ad-4303-b6df-e304dd5f92ad"},"created":"2026-12-01","provider":{"reference":"Practitioner/practitioner-123456"},"priority":{"coding":[{"system":"http://terminology.hl7.org/CodeSystem/processpriority","code":"normal"}]},"diagnosis":[{"sequence":1,"diagnosisCodeableConcept":{"coding":[{"system":"http://hl7.org/fhir/sid/icd-10-cm","code":"I63.00"}]},"type":[{"coding":[{"system":"http://terminology.hl7.org/CodeSystem/ex-diagnosistype","code":"principal"}]}]}],"insurance":[{"sequence":1,"focal":true,"coverage":{"reference":"Coverage/5fa041661c76ba66d9959367"}}],"item":[{"sequence":1,"diagnosisSequence":[1],"productOrService":{"coding":[{"system":"http://terminology.hl7.org/CodeSystem/ex-USCLS","code":"99555"}]},"encounter":[{"reference":"Encounter/81552078-0261-463c-9e62-342a5cbf2134"}]}]},"request":{"method":"PUT","url":"Claim/5ca62962b8484628b8de1ec5"}},{"fullUrl":"https://madie.cms.gov/MedicationAdministration/2006df78-8600-40ae-87be-6d0bc9098d7d","resource":{"resourceType":"MedicationAdministration","id":"2006df78-8600-40ae-87be-6d0bc9098d7d","meta":{"profile":["http://hl7.org/fhir/us/qicore/StructureDefinition/qicore-medicationadministration"]},"status":"completed","medicationCodeableConcept":{"coding":[{"system":"http://www.nlm.nih.gov/research/umls/rxnorm","code":"855812","display":"prasugrel 10 MG Oral Tablet","userSelected":true}]},"subject":{"reference":"Patient/aadbfade-4898-4931-9e11-e5d7ba64ab27"},"effectivePeriod":{"start":"2026-10-11T23:59:00Z"}},"request":{"method":"PUT","url":"MedicationAdministration/2006df78-8600-40ae-87be-6d0bc9098d7d"}},{"fullUrl":"https://madie.cms.gov/Coverage/0bce8797-8a6d-4c79-9ca0-ce4b77d49bf4","resource":{"resourceType":"Coverage","id":"0bce8797-8a6d-4c79-9ca0-ce4b77d49bf4","status":"active","subscriberId":"523435","beneficiary":{"reference":"Patient/aadbfade-4898-4931-9e11-e5d7ba64ab27"},"relationship":{"coding":[{"system":"http://terminology.hl7.org/CodeSystem/subscriber-relationship","code":"self"}]},"period":{"start":"1976-09-26T08:00:00Z"},"payor":[{"reference":"Organization/7e8a258b-3ed0-4177-8591-76c12d66b927"}]},"request":{"method":"PUT","url":"Coverage/0bce8797-8a6d-4c79-9ca0-ce4b77d49bf4"}},{"fullUrl":"https://madie.cms.gov/Condition/3838308f-d8e3-4950-9733-a4a2ffea3133","resource":{"resourceType":"Condition","id":"3838308f-d8e3-4950-9733-a4a2ffea3133","meta":{"profile":["http://hl7.org/fhir/us/qicore/StructureDefinition/qicore-condition-encounter-diagnosis"]},"clinicalStatus":{"coding":[{"system":"http://terminology.hl7.org/CodeSystem/condition-clinical","code":"active"}]},"verificationStatus":{"coding":[{"system":"http://terminology.hl7.org/CodeSystem/condition-ver-status","code":"confirmed"}]},"category":[{"coding":[{"system":"http://terminology.hl7.org/CodeSystem/condition-category","code":"encounter-diagnosis","display":"Encounter Diagnosis"}]}],"code":{"coding":[{"system":"http://snomed.info/sct","version":"2020-09","code":"111297002","display":"Nonparalytic stroke (disorder)","userSelected":true}]},"subject":{"reference":"Patient/aadbfade-4898-4931-9e11-e5d7ba64ab27"},"recordedDate":"2026-08-06T08:00:00Z"},"request":{"method":"PUT","url":"Condition/3838308f-d8e3-4950-9733-a4a2ffea3133"}},{"fullUrl":"https://madie.cms.gov/Organization/7e8a258b-3ed0-4177-8591-76c12d66b927","resource":{"resourceType":"Organization","id":"7e8a258b-3ed0-4177-8591-76c12d66b927","meta":{"profile":["http://hl7.org/fhir/us/qicore/StructureDefinition/qicore-organization"]},"identifier":[{"use":"temp","system":"urn:oid:2.16.840.1.113883.4.4","value":"21-3259825"}],"active":true,"type":[{"coding":[{"system":"http://terminology.hl7.org/CodeSystem/organization-type","code":"pay","display":"Payer"}]}],"name":"Blue Cross Blue Shield of Texas","telecom":[{"system":"phone","value":"(+1) 972-766-6900"}],"address":[{"use":"billing","type":"postal","line":["P.O. Box 660044"],"city":"Dallas","state":"TX","postalCode":"75266-0044","country":"USA"}]},"request":{"method":"PUT","url":"Organization/7e8a258b-3ed0-4177-8591-76c12d66b927"}},{"fullUrl":"https://madie.cms.gov/MeasureReport/0fa22ed1-256b-4579-b5b5-3a096bc131cb","resource":{"resourceType":"MeasureReport","id":"0fa22ed1-256b-4579-b5b5-3a096bc131cb","meta":{"profile":["http://hl7.org/fhir/us/cqfmeasures/StructureDefinition/test-case-cqfm"]},"contained":[{"resourceType":"Parameters","id":"e921fea4-2921-447c-998a-5e33c595797d-parameters","parameter":[{"name":"subject","valueString":"aadbfade-4898-4931-9e11-e5d7ba64ab27"}]}],"extension":[{"url":"http://hl7.org/fhir/StructureDefinition/cqf-inputParameters","valueReference":{"reference":"#e921fea4-2921-447c-998a-5e33c595797d-parameters"}},{"url":"http://hl7.org/fhir/us/cqfmeasures/StructureDefinition/cqfm-testCaseDescription","valueMarkdown":"Patient receives Ticagrelor day after IP start at 1159 pm. No ED. No Obs. Testing Day of operator with HospitalizationWithObservation function.\n"}],"modifierExtension":[{"url":"http://hl7.org/fhir/us/cqfmeasures/StructureDefinition/cqfm-isTestCase","valueBoolean":true}],"status":"complete","type":"individual","measure":"https://madie.cms.gov/Measure/CMS72FHIRSTKAntithromboticDay2","period":{"start":"2026-01-01","end":"2026-12-31"},"group":[{"id":"Group_1","population":[{"id":"InitialPopulation_1","code":{"coding":[{"system":"http://terminology.hl7.org/CodeSystem/measure-population","code":"initial-population","display":"Initial Population"}]},"count":1},{"id":"Denominator_1","code":{"coding":[{"system":"http://terminology.hl7.org/CodeSystem/measure-population","code":"denominator","display":"Denominator"}]},"count":1},{"id":"DenominatorExclusion_1","code":{"coding":[{"system":"http://terminology.hl7.org/CodeSystem/measure-population","code":"denominator-exclusion","display":"Denominator Exclusion"}]},"count":0},{"id":"Numerator_1","code":{"coding":[{"system":"http://terminology.hl7.org/CodeSystem/measure-population","code":"numerator","display":"Numerator"}]},"count":0},{"id":"DenominatorException_1","code":{"coding":[{"system":"http://terminology.hl7.org/CodeSystem/measure-population","code":"denominator-exception","display":"Denominator Exception"}]},"count":1}],"measureScore":{"value":0.0}}],"evaluatedResource":[{"reference":"Patient/aadbfade-4898-4931-9e11-e5d7ba64ab27"},{"reference":"Encounter/81552078-0261-463c-9e62-342a5cbf2134"},{"reference":"Claim/5ca62962b8484628b8de1ec5"},{"reference":"MedicationAdministration/2006df78-8600-40ae-87be-6d0bc9098d7d"},{"reference":"Coverage/0bce8797-8a6d-4c79-9ca0-ce4b77d49bf4"},{"reference":"Condition/3838308f-d8e3-4950-9733-a4a2ffea3133"},{"reference":"Organization/7e8a258b-3ed0-4177-8591-76c12d66b927"}]},"request":{"method":"PUT","url":"MeasureReport/0fa22ed1-256b-4579-b5b5-3a096bc131cb"}}]},"request":{"method":"PUT","url":"Bundle/60f82c3098086b570510e2d0"}},{"fullUrl":"Claim/5ca62962b8484628b8de1ec5","resource":{"resourceType":"Claim","id":"5ca62962b8484628b8de1ec5","meta":{"profile":["http://hl7.org/fhir/us/qicore/StructureDefinition/qicore-claim"]},"status":"active","type":{"coding":[{"system":"http://terminology.hl7.org/CodeSystem/claim-type","code":"institutional"}]},"use":"claim","patient":{"reference":"Patient/d170a0a8-b5ad-4303-b6df-e304dd5f92ad"},"created":"2026-12-01","provider":{"reference":"Practitioner/practitioner-123456"},"priority":{"coding":[{"system":"http://terminology.hl7.org/CodeSystem/processpriority","code":"normal"}]},"diagnosis":[{"sequence":1,"diagnosisCodeableConcept":{"coding":[{"system":"http://hl7.org/fhir/sid/icd-10-cm","code":"I63.00"}]},"type":[{"coding":[{"system":"http://terminology.hl7.org/CodeSystem/ex-diagnosistype","code":"principal"}]}]}],"insurance":[{"sequence":1,"focal":true,"coverage":{"reference":"Coverage/5fa041661c76ba66d9959367"}}],"item":[{"sequence":1,"diagnosisSequence":[1],"productOrService":{"coding":[{"system":"http://terminology.hl7.org/CodeSystem/ex-USCLS","code":"99555"}]},"encounter":[{"reference":"Encounter/81552078-0261-463c-9e62-342a5cbf2134"}]}]},"request":{"method":"PUT","url":"Claim/5ca62962b8484628b8de1ec5"}}]}