{"resourceType":"Bundle","id":"tests-59f7d72d-7470-46ee-986a-daabe67f64a7-bundle","type":"transaction","entry":[{"fullUrl":"Organization/800bab47-7664-4c88-802d-0aceb613dffe","resource":{"resourceType":"Organization","id":"800bab47-7664-4c88-802d-0aceb613dffe","meta":{"profile":["http://hl7.org/fhir/us/qicore/StructureDefinition/qicore-organization"]},"identifier":[{"use":"temp","system":"urn:oid:2.16.840.1.113883.4.4","value":"21-3259825"}],"active":true,"type":[{"coding":[{"system":"http://terminology.hl7.org/CodeSystem/organization-type","code":"pay","display":"Payer"}]}],"name":"Blue Cross Blue Shield of Texas","telecom":[{"system":"phone","value":"(+1) 972-766-6900"}],"address":[{"use":"billing","type":"postal","line":["P.O. Box 660044"],"city":"Dallas","state":"TX","postalCode":"75266-0044","country":"USA"}]},"request":{"method":"PUT","url":"Organization/800bab47-7664-4c88-802d-0aceb613dffe"}},{"fullUrl":"Patient/59f7d72d-7470-46ee-986a-daabe67f64a7","resource":{"resourceType":"Patient","id":"59f7d72d-7470-46ee-986a-daabe67f64a7","meta":{"profile":["http://hl7.org/fhir/us/qicore/StructureDefinition/qicore-patient"]},"text":{"status":"generated","div":"<div xmlns=\"http://www.w3.org/1999/xhtml\"><div class=\"hapiHeaderText\">CMP_DayOf_RelvDat_1minB4IPEnd_EDEndLT1hrB4Obs_ObsEndLT1hrB4IP <b>DENEXPASS </b></div><table class=\"hapiPropertyTable\"><tbody><tr><td>Date of birth</td><td><span>01 January 1980</span></td></tr></tbody></table></div>"},"extension":[{"url":"http://hl7.org/fhir/us/core/StructureDefinition/us-core-race","extension":[{"url":"ombCategory","valueCoding":{"system":"urn:oid:2.16.840.1.113883.6.238","code":"2106-3","display":"White","userSelected":true}},{"url":"text","valueString":"White"}]},{"url":"http://hl7.org/fhir/us/core/StructureDefinition/us-core-ethnicity","extension":[{"url":"ombCategory","valueCoding":{"system":"urn:oid:2.16.840.1.113883.6.238","code":"2186-5","display":"Not Hispanic or Latino","userSelected":true}},{"url":"text","valueString":"Not Hispanic or Latino"}]}],"identifier":[{"type":{"coding":[{"system":"http://terminology.hl7.org/CodeSystem/v2-0203","code":"MR"}]},"system":"https://bonnie-fhir.healthit.gov/","value":"60f82c3098086b570510e2e1"}],"active":true,"name":[{"use":"usual","family":"DENEXPass","given":["CMPDayOfRelvDat1minB4IPEndEDEndLT1hrB4ObsObsEndLT1hrB4IP"]}],"gender":"female","birthDate":"1981-01-01"},"request":{"method":"PUT","url":"Patient/59f7d72d-7470-46ee-986a-daabe67f64a7"}},{"fullUrl":"Condition/a8f2a1c5-e86b-459d-a42d-0045029d9067","resource":{"resourceType":"Condition","id":"a8f2a1c5-e86b-459d-a42d-0045029d9067","meta":{"profile":["http://hl7.org/fhir/us/qicore/StructureDefinition/qicore-condition-encounter-diagnosis"]},"clinicalStatus":{"coding":[{"system":"http://terminology.hl7.org/CodeSystem/condition-clinical","code":"active"}]},"verificationStatus":{"coding":[{"system":"http://terminology.hl7.org/CodeSystem/condition-ver-status","code":"confirmed"}]},"category":[{"coding":[{"system":"http://terminology.hl7.org/CodeSystem/condition-category","code":"encounter-diagnosis","display":"Encounter Diagnosis"}]}],"code":{"coding":[{"system":"http://snomed.info/sct","version":"2020-09","code":"111297002","display":"Nonparalytic stroke (disorder)","userSelected":true}]},"subject":{"reference":"Patient/59f7d72d-7470-46ee-986a-daabe67f64a7"},"recordedDate":"2026-08-13T08:00:00Z"},"request":{"method":"PUT","url":"Condition/a8f2a1c5-e86b-459d-a42d-0045029d9067"}},{"fullUrl":"MeasureReport/a0c18504-3d59-4a8e-9a56-b4b2c6bc4117","resource":{"resourceType":"MeasureReport","id":"a0c18504-3d59-4a8e-9a56-b4b2c6bc4117","meta":{"profile":["http://hl7.org/fhir/us/cqfmeasures/StructureDefinition/test-case-cqfm"]},"contained":[{"resourceType":"Parameters","id":"3d0ac7d2-64d6-45ee-93e3-294fbe759d76-parameters","parameter":[{"name":"subject","valueString":"59f7d72d-7470-46ee-986a-daabe67f64a7"}]}],"extension":[{"url":"http://hl7.org/fhir/StructureDefinition/cqf-inputParameters","valueReference":{"reference":"#3d0ac7d2-64d6-45ee-93e3-294fbe759d76-parameters"}},{"url":"http://hl7.org/fhir/us/cqfmeasures/StructureDefinition/cqfm-testCaseDescription","valueMarkdown":"Patient receives comfort measures performed on the day of hospital arrival, 1 min before IP end. ED ends less than 1 hour before Obs Start, Obs ends less than 1 hour before IP start.\n"}],"modifierExtension":[{"url":"http://hl7.org/fhir/us/cqfmeasures/StructureDefinition/cqfm-isTestCase","valueBoolean":true}],"status":"complete","type":"individual","measure":"https://madie.cms.gov/Measure/CMS72FHIRSTKAntithromboticDay2","period":{"start":"2026-01-01","end":"2026-12-31"},"group":[{"id":"Group_1","population":[{"id":"InitialPopulation_1","code":{"coding":[{"system":"http://terminology.hl7.org/CodeSystem/measure-population","code":"initial-population","display":"Initial Population"}]},"count":1},{"id":"Denominator_1","code":{"coding":[{"system":"http://terminology.hl7.org/CodeSystem/measure-population","code":"denominator","display":"Denominator"}]},"count":1},{"id":"DenominatorExclusion_1","code":{"coding":[{"system":"http://terminology.hl7.org/CodeSystem/measure-population","code":"denominator-exclusion","display":"Denominator Exclusion"}]},"count":1},{"id":"Numerator_1","code":{"coding":[{"system":"http://terminology.hl7.org/CodeSystem/measure-population","code":"numerator","display":"Numerator"}]},"count":0},{"id":"DenominatorException_1","code":{"coding":[{"system":"http://terminology.hl7.org/CodeSystem/measure-population","code":"denominator-exception","display":"Denominator Exception"}]},"count":0}],"measureScore":{"value":0.0}}],"evaluatedResource":[{"reference":"Patient/59f7d72d-7470-46ee-986a-daabe67f64a7"},{"reference":"Encounter/93c66698-c977-4d68-8004-b1f7db4084bc"},{"reference":"Encounter/98525b94-8334-4fdf-bb65-6e8f9496fff6"},{"reference":"Encounter/5f7b971d-69fc-4ee0-8e71-aa4356621c1b"},{"reference":"Claim/5ca62962b8484628b8de1ec5"},{"reference":"Procedure/6e0cbcd3-2e7f-490f-813e-6c53b7b3dee1"},{"reference":"Condition/a8f2a1c5-e86b-459d-a42d-0045029d9067"},{"reference":"Coverage/e52cae72-b842-4dda-a497-8f21ae18ea46"},{"reference":"Organization/800bab47-7664-4c88-802d-0aceb613dffe"}]},"request":{"method":"PUT","url":"MeasureReport/a0c18504-3d59-4a8e-9a56-b4b2c6bc4117"}},{"fullUrl":"Coverage/e52cae72-b842-4dda-a497-8f21ae18ea46","resource":{"resourceType":"Coverage","id":"e52cae72-b842-4dda-a497-8f21ae18ea46","meta":{"profile":["http://hl7.org/fhir/us/qicore/StructureDefinition/qicore-coverage"]},"status":"active","beneficiary":{"reference":"Patient/59f7d72d-7470-46ee-986a-daabe67f64a7"},"payor":[{"reference":"Organization/800bab47-7664-4c88-802d-0aceb613dffe"}]},"request":{"method":"PUT","url":"Coverage/e52cae72-b842-4dda-a497-8f21ae18ea46"}},{"fullUrl":"Encounter/98525b94-8334-4fdf-bb65-6e8f9496fff6","resource":{"resourceType":"Encounter","id":"98525b94-8334-4fdf-bb65-6e8f9496fff6","meta":{"profile":["http://hl7.org/fhir/us/qicore/StructureDefinition/qicore-encounter"]},"status":"finished","class":{"system":"http://terminology.hl7.org/CodeSystem/v3-ActCode","code":"OBSENC","display":"observation encounter"},"type":[{"coding":[{"system":"http://snomed.info/sct","code":"448951000124107"}]}],"subject":{"reference":"Patient/59f7d72d-7470-46ee-986a-daabe67f64a7"},"period":{"start":"2026-11-18T09:00:00Z","end":"2026-11-18T10:01:00.000+00:00"}},"request":{"method":"PUT","url":"Encounter/98525b94-8334-4fdf-bb65-6e8f9496fff6"}},{"fullUrl":"Encounter/5f7b971d-69fc-4ee0-8e71-aa4356621c1b","resource":{"resourceType":"Encounter","id":"5f7b971d-69fc-4ee0-8e71-aa4356621c1b","meta":{"profile":["http://hl7.org/fhir/us/qicore/StructureDefinition/qicore-encounter"]},"status":"finished","class":{"system":"http://terminology.hl7.org/CodeSystem/v3-ActCode","code":"IMP","display":"inpatient encounter"},"type":[{"coding":[{"system":"http://snomed.info/sct","code":"183452005"}]}],"subject":{"reference":"Patient/59f7d72d-7470-46ee-986a-daabe67f64a7"},"period":{"start":"2026-11-18T11:00:00Z","end":"2026-11-18T20:15:00.000+00:00"},"reasonReference":[{"reference":"Condition/a8f2a1c5-e86b-459d-a42d-0045029d9067"}]},"request":{"method":"PUT","url":"Encounter/5f7b971d-69fc-4ee0-8e71-aa4356621c1b"}},{"fullUrl":"Procedure/6e0cbcd3-2e7f-490f-813e-6c53b7b3dee1","resource":{"resourceType":"Procedure","id":"6e0cbcd3-2e7f-490f-813e-6c53b7b3dee1","meta":{"profile":["http://hl7.org/fhir/us/qicore/StructureDefinition/qicore-procedure"]},"extension":[{"url":"http://hl7.org/fhir/us/qicore/StructureDefinition/qicore-recorded","valueDateTime":"2026-11-18T11:00:00Z"}],"status":"completed","code":{"coding":[{"system":"http://snomed.info/sct","code":"133918004"}]},"subject":{"reference":"Patient/59f7d72d-7470-46ee-986a-daabe67f64a7"},"performedPeriod":{"start":"2026-11-18T11:00:00Z","end":"2026-11-18T20:15:00.000+00:00"}},"request":{"method":"PUT","url":"Procedure/6e0cbcd3-2e7f-490f-813e-6c53b7b3dee1"}},{"fullUrl":"Bundle/60f82c3098086b570510e2e1","resource":{"resourceType":"Bundle","id":"60f82c3098086b570510e2e1","type":"transaction","entry":[{"fullUrl":"https://madie.cms.gov/Patient/59f7d72d-7470-46ee-986a-daabe67f64a7","resource":{"resourceType":"Patient","id":"59f7d72d-7470-46ee-986a-daabe67f64a7","meta":{"profile":["http://hl7.org/fhir/us/qicore/StructureDefinition/qicore-patient"]},"text":{"status":"generated","div":"<div xmlns=\"http://www.w3.org/1999/xhtml\"><div class=\"hapiHeaderText\">CMP_DayOf_RelvDat_1minB4IPEnd_EDEndLT1hrB4Obs_ObsEndLT1hrB4IP <b>DENEXPASS </b></div><table class=\"hapiPropertyTable\"><tbody><tr><td>Date of birth</td><td><span>01 January 1980</span></td></tr></tbody></table></div>"},"extension":[{"url":"http://hl7.org/fhir/us/core/StructureDefinition/us-core-race","extension":[{"url":"ombCategory","valueCoding":{"system":"urn:oid:2.16.840.1.113883.6.238","code":"2106-3","display":"White","userSelected":true}},{"url":"text","valueString":"White"}]},{"url":"http://hl7.org/fhir/us/core/StructureDefinition/us-core-ethnicity","extension":[{"url":"ombCategory","valueCoding":{"system":"urn:oid:2.16.840.1.113883.6.238","code":"2186-5","display":"Not Hispanic or Latino","userSelected":true}},{"url":"text","valueString":"Not Hispanic or Latino"}]}],"identifier":[{"type":{"coding":[{"system":"http://terminology.hl7.org/CodeSystem/v2-0203","code":"MR"}]},"system":"https://bonnie-fhir.healthit.gov/","value":"60f82c3098086b570510e2e1"}],"active":true,"name":[{"use":"usual","family":"DENEXPass","given":["CMPDayOfRelvDat1minB4IPEndEDEndLT1hrB4ObsObsEndLT1hrB4IP"]}],"gender":"female","birthDate":"1981-01-01"},"request":{"method":"PUT","url":"Patient/59f7d72d-7470-46ee-986a-daabe67f64a7"}},{"fullUrl":"https://madie.cms.gov/Encounter/93c66698-c977-4d68-8004-b1f7db4084bc","resource":{"resourceType":"Encounter","id":"93c66698-c977-4d68-8004-b1f7db4084bc","meta":{"profile":["http://hl7.org/fhir/us/qicore/StructureDefinition/qicore-encounter"]},"status":"finished","class":{"system":"http://terminology.hl7.org/CodeSystem/v3-ActCode","code":"EMER","display":"emergency"},"type":[{"coding":[{"system":"http://snomed.info/sct","code":"4525004"}]}],"subject":{"reference":"Patient/59f7d72d-7470-46ee-986a-daabe67f64a7"},"period":{"start":"2026-11-18T07:00:00Z","end":"2026-11-18T08:01:00.000+00:00"}},"request":{"method":"PUT","url":"Encounter/93c66698-c977-4d68-8004-b1f7db4084bc"}},{"fullUrl":"https://madie.cms.gov/Encounter/98525b94-8334-4fdf-bb65-6e8f9496fff6","resource":{"resourceType":"Encounter","id":"98525b94-8334-4fdf-bb65-6e8f9496fff6","meta":{"profile":["http://hl7.org/fhir/us/qicore/StructureDefinition/qicore-encounter"]},"status":"finished","class":{"system":"http://terminology.hl7.org/CodeSystem/v3-ActCode","code":"OBSENC","display":"observation encounter"},"type":[{"coding":[{"system":"http://snomed.info/sct","code":"448951000124107"}]}],"subject":{"reference":"Patient/59f7d72d-7470-46ee-986a-daabe67f64a7"},"period":{"start":"2026-11-18T09:00:00Z","end":"2026-11-18T10:01:00.000+00:00"}},"request":{"method":"PUT","url":"Encounter/98525b94-8334-4fdf-bb65-6e8f9496fff6"}},{"fullUrl":"https://madie.cms.gov/Encounter/5f7b971d-69fc-4ee0-8e71-aa4356621c1b","resource":{"resourceType":"Encounter","id":"5f7b971d-69fc-4ee0-8e71-aa4356621c1b","meta":{"profile":["http://hl7.org/fhir/us/qicore/StructureDefinition/qicore-encounter"]},"status":"finished","class":{"system":"http://terminology.hl7.org/CodeSystem/v3-ActCode","code":"IMP","display":"inpatient encounter"},"type":[{"coding":[{"system":"http://snomed.info/sct","code":"183452005"}]}],"subject":{"reference":"Patient/59f7d72d-7470-46ee-986a-daabe67f64a7"},"period":{"start":"2026-11-18T11:00:00Z","end":"2026-11-18T20:15:00.000+00:00"},"reasonReference":[{"reference":"Condition/a8f2a1c5-e86b-459d-a42d-0045029d9067"}]},"request":{"method":"PUT","url":"Encounter/5f7b971d-69fc-4ee0-8e71-aa4356621c1b"}},{"fullUrl":"https://madie.cms.gov/claim/5ca62962b8484628b8de1ec5","resource":{"resourceType":"Claim","id":"5ca62962b8484628b8de1ec5","meta":{"profile":["http://hl7.org/fhir/us/qicore/StructureDefinition/qicore-claim"]},"status":"active","type":{"coding":[{"system":"http://terminology.hl7.org/CodeSystem/claim-type","code":"institutional"}]},"use":"claim","patient":{"reference":"Patient/59f7d72d-7470-46ee-986a-daabe67f64a7"},"created":"2026-12-01","provider":{"reference":"Practitioner/practitioner-123456"},"priority":{"coding":[{"system":"http://terminology.hl7.org/CodeSystem/processpriority","code":"normal"}]},"diagnosis":[{"sequence":1,"diagnosisCodeableConcept":{"coding":[{"system":"http://hl7.org/fhir/sid/icd-10-cm","code":"I63.00"}]},"type":[{"coding":[{"system":"http://terminology.hl7.org/CodeSystem/ex-diagnosistype","code":"principal"}]}]}],"insurance":[{"sequence":1,"focal":true,"coverage":{"reference":"Coverage/e52cae72-b842-4dda-a497-8f21ae18ea46"}}],"item":[{"sequence":1,"diagnosisSequence":[1],"productOrService":{"coding":[{"system":"http://terminology.hl7.org/CodeSystem/ex-USCLS","code":"99555"}]},"encounter":[{"reference":"Encounter/5f7b971d-69fc-4ee0-8e71-aa4356621c1b"}]}]},"request":{"method":"PUT","url":"Claim/5ca62962b8484628b8de1ec5"}},{"fullUrl":"https://madie.cms.gov/Procedure/6e0cbcd3-2e7f-490f-813e-6c53b7b3dee1","resource":{"resourceType":"Procedure","id":"6e0cbcd3-2e7f-490f-813e-6c53b7b3dee1","meta":{"profile":["http://hl7.org/fhir/us/qicore/StructureDefinition/qicore-procedure"]},"extension":[{"url":"http://hl7.org/fhir/us/qicore/StructureDefinition/qicore-recorded","valueDateTime":"2026-11-18T11:00:00Z"}],"status":"completed","code":{"coding":[{"system":"http://snomed.info/sct","code":"133918004"}]},"subject":{"reference":"Patient/59f7d72d-7470-46ee-986a-daabe67f64a7"},"performedPeriod":{"start":"2026-11-18T11:00:00Z","end":"2026-11-18T20:15:00.000+00:00"}},"request":{"method":"PUT","url":"Procedure/6e0cbcd3-2e7f-490f-813e-6c53b7b3dee1"}},{"fullUrl":"https://madie.cms.gov/Condition/a8f2a1c5-e86b-459d-a42d-0045029d9067","resource":{"resourceType":"Condition","id":"a8f2a1c5-e86b-459d-a42d-0045029d9067","meta":{"profile":["http://hl7.org/fhir/us/qicore/StructureDefinition/qicore-condition-encounter-diagnosis"]},"clinicalStatus":{"coding":[{"system":"http://terminology.hl7.org/CodeSystem/condition-clinical","code":"active"}]},"verificationStatus":{"coding":[{"system":"http://terminology.hl7.org/CodeSystem/condition-ver-status","code":"confirmed"}]},"category":[{"coding":[{"system":"http://terminology.hl7.org/CodeSystem/condition-category","code":"encounter-diagnosis","display":"Encounter Diagnosis"}]}],"code":{"coding":[{"system":"http://snomed.info/sct","version":"2020-09","code":"111297002","display":"Nonparalytic stroke (disorder)","userSelected":true}]},"subject":{"reference":"Patient/59f7d72d-7470-46ee-986a-daabe67f64a7"},"recordedDate":"2026-08-13T08:00:00Z"},"request":{"method":"PUT","url":"Condition/a8f2a1c5-e86b-459d-a42d-0045029d9067"}},{"fullUrl":"https://madie.cms.gov/Coverage/e52cae72-b842-4dda-a497-8f21ae18ea46","resource":{"resourceType":"Coverage","id":"e52cae72-b842-4dda-a497-8f21ae18ea46","meta":{"profile":["http://hl7.org/fhir/us/qicore/StructureDefinition/qicore-coverage"]},"status":"active","beneficiary":{"reference":"Patient/59f7d72d-7470-46ee-986a-daabe67f64a7"},"payor":[{"reference":"Organization/800bab47-7664-4c88-802d-0aceb613dffe"}]},"request":{"method":"PUT","url":"Coverage/e52cae72-b842-4dda-a497-8f21ae18ea46"}},{"fullUrl":"https://madie.cms.gov/Organization/800bab47-7664-4c88-802d-0aceb613dffe","resource":{"resourceType":"Organization","id":"800bab47-7664-4c88-802d-0aceb613dffe","meta":{"profile":["http://hl7.org/fhir/us/qicore/StructureDefinition/qicore-organization"]},"identifier":[{"use":"temp","system":"urn:oid:2.16.840.1.113883.4.4","value":"21-3259825"}],"active":true,"type":[{"coding":[{"system":"http://terminology.hl7.org/CodeSystem/organization-type","code":"pay","display":"Payer"}]}],"name":"Blue Cross Blue Shield of Texas","telecom":[{"system":"phone","value":"(+1) 972-766-6900"}],"address":[{"use":"billing","type":"postal","line":["P.O. Box 660044"],"city":"Dallas","state":"TX","postalCode":"75266-0044","country":"USA"}]},"request":{"method":"PUT","url":"Organization/800bab47-7664-4c88-802d-0aceb613dffe"}},{"fullUrl":"https://madie.cms.gov/MeasureReport/a0c18504-3d59-4a8e-9a56-b4b2c6bc4117","resource":{"resourceType":"MeasureReport","id":"a0c18504-3d59-4a8e-9a56-b4b2c6bc4117","meta":{"profile":["http://hl7.org/fhir/us/cqfmeasures/StructureDefinition/test-case-cqfm"]},"contained":[{"resourceType":"Parameters","id":"3d0ac7d2-64d6-45ee-93e3-294fbe759d76-parameters","parameter":[{"name":"subject","valueString":"59f7d72d-7470-46ee-986a-daabe67f64a7"}]}],"extension":[{"url":"http://hl7.org/fhir/StructureDefinition/cqf-inputParameters","valueReference":{"reference":"#3d0ac7d2-64d6-45ee-93e3-294fbe759d76-parameters"}},{"url":"http://hl7.org/fhir/us/cqfmeasures/StructureDefinition/cqfm-testCaseDescription","valueMarkdown":"Patient receives comfort measures performed on the day of hospital arrival, 1 min before IP end. ED ends less than 1 hour before Obs Start, Obs ends less than 1 hour before IP start.\n"}],"modifierExtension":[{"url":"http://hl7.org/fhir/us/cqfmeasures/StructureDefinition/cqfm-isTestCase","valueBoolean":true}],"status":"complete","type":"individual","measure":"https://madie.cms.gov/Measure/CMS72FHIRSTKAntithromboticDay2","period":{"start":"2026-01-01","end":"2026-12-31"},"group":[{"id":"Group_1","population":[{"id":"InitialPopulation_1","code":{"coding":[{"system":"http://terminology.hl7.org/CodeSystem/measure-population","code":"initial-population","display":"Initial Population"}]},"count":1},{"id":"Denominator_1","code":{"coding":[{"system":"http://terminology.hl7.org/CodeSystem/measure-population","code":"denominator","display":"Denominator"}]},"count":1},{"id":"DenominatorExclusion_1","code":{"coding":[{"system":"http://terminology.hl7.org/CodeSystem/measure-population","code":"denominator-exclusion","display":"Denominator Exclusion"}]},"count":1},{"id":"Numerator_1","code":{"coding":[{"system":"http://terminology.hl7.org/CodeSystem/measure-population","code":"numerator","display":"Numerator"}]},"count":0},{"id":"DenominatorException_1","code":{"coding":[{"system":"http://terminology.hl7.org/CodeSystem/measure-population","code":"denominator-exception","display":"Denominator Exception"}]},"count":0}],"measureScore":{"value":0.0}}],"evaluatedResource":[{"reference":"Patient/59f7d72d-7470-46ee-986a-daabe67f64a7"},{"reference":"Encounter/93c66698-c977-4d68-8004-b1f7db4084bc"},{"reference":"Encounter/98525b94-8334-4fdf-bb65-6e8f9496fff6"},{"reference":"Encounter/5f7b971d-69fc-4ee0-8e71-aa4356621c1b"},{"reference":"Claim/5ca62962b8484628b8de1ec5"},{"reference":"Procedure/6e0cbcd3-2e7f-490f-813e-6c53b7b3dee1"},{"reference":"Condition/a8f2a1c5-e86b-459d-a42d-0045029d9067"},{"reference":"Coverage/e52cae72-b842-4dda-a497-8f21ae18ea46"},{"reference":"Organization/800bab47-7664-4c88-802d-0aceb613dffe"}]},"request":{"method":"PUT","url":"MeasureReport/a0c18504-3d59-4a8e-9a56-b4b2c6bc4117"}}]},"request":{"method":"PUT","url":"Bundle/60f82c3098086b570510e2e1"}},{"fullUrl":"Encounter/93c66698-c977-4d68-8004-b1f7db4084bc","resource":{"resourceType":"Encounter","id":"93c66698-c977-4d68-8004-b1f7db4084bc","meta":{"profile":["http://hl7.org/fhir/us/qicore/StructureDefinition/qicore-encounter"]},"status":"finished","class":{"system":"http://terminology.hl7.org/CodeSystem/v3-ActCode","code":"EMER","display":"emergency"},"type":[{"coding":[{"system":"http://snomed.info/sct","code":"4525004"}]}],"subject":{"reference":"Patient/59f7d72d-7470-46ee-986a-daabe67f64a7"},"period":{"start":"2026-11-18T07:00:00Z","end":"2026-11-18T08:01:00.000+00:00"}},"request":{"method":"PUT","url":"Encounter/93c66698-c977-4d68-8004-b1f7db4084bc"}},{"fullUrl":"Claim/5ca62962b8484628b8de1ec5","resource":{"resourceType":"Claim","id":"5ca62962b8484628b8de1ec5","meta":{"profile":["http://hl7.org/fhir/us/qicore/StructureDefinition/qicore-claim"]},"status":"active","type":{"coding":[{"system":"http://terminology.hl7.org/CodeSystem/claim-type","code":"institutional"}]},"use":"claim","patient":{"reference":"Patient/59f7d72d-7470-46ee-986a-daabe67f64a7"},"created":"2026-12-01","provider":{"reference":"Practitioner/practitioner-123456"},"priority":{"coding":[{"system":"http://terminology.hl7.org/CodeSystem/processpriority","code":"normal"}]},"diagnosis":[{"sequence":1,"diagnosisCodeableConcept":{"coding":[{"system":"http://hl7.org/fhir/sid/icd-10-cm","code":"I63.00"}]},"type":[{"coding":[{"system":"http://terminology.hl7.org/CodeSystem/ex-diagnosistype","code":"principal"}]}]}],"insurance":[{"sequence":1,"focal":true,"coverage":{"reference":"Coverage/e52cae72-b842-4dda-a497-8f21ae18ea46"}}],"item":[{"sequence":1,"diagnosisSequence":[1],"productOrService":{"coding":[{"system":"http://terminology.hl7.org/CodeSystem/ex-USCLS","code":"99555"}]},"encounter":[{"reference":"Encounter/5f7b971d-69fc-4ee0-8e71-aa4356621c1b"}]}]},"request":{"method":"PUT","url":"Claim/5ca62962b8484628b8de1ec5"}}]}