{"resourceType":"Bundle","id":"tests-bb3dcb0a-5efb-4f55-99a3-56084dd48191-bundle","type":"transaction","entry":[{"fullUrl":"Procedure/16b48d77-af20-4daf-a7b8-a0ea549cd78e","resource":{"resourceType":"Procedure","id":"16b48d77-af20-4daf-a7b8-a0ea549cd78e","meta":{"profile":["http://hl7.org/fhir/us/qicore/StructureDefinition/qicore-procedure"]},"extension":[{"url":"http://hl7.org/fhir/us/qicore/StructureDefinition/qicore-recorded","valueDateTime":"2026-11-18T09:01:00Z"}],"status":"completed","code":{"coding":[{"system":"http://snomed.info/sct","code":"133918004"}]},"subject":{"reference":"Patient/bb3dcb0a-5efb-4f55-99a3-56084dd48191"},"performedDateTime":"2026-11-18T09:01:00Z"},"request":{"method":"PUT","url":"Procedure/16b48d77-af20-4daf-a7b8-a0ea549cd78e"}},{"fullUrl":"Bundle/60f82c3098086b570510e2da","resource":{"resourceType":"Bundle","id":"60f82c3098086b570510e2da","type":"transaction","entry":[{"fullUrl":"https://madie.cms.gov/Patient/bb3dcb0a-5efb-4f55-99a3-56084dd48191","resource":{"resourceType":"Patient","id":"bb3dcb0a-5efb-4f55-99a3-56084dd48191","meta":{"profile":["http://hl7.org/fhir/us/qicore/StructureDefinition/qicore-patient"]},"text":{"status":"generated","div":"<div xmlns=\"http://www.w3.org/1999/xhtml\"><div class=\"hapiHeaderText\">CMP_DayOf_RelvDat_1minAftObsStart_EDEndLT1hrB4Obs_ObsEndLT1hrB4IP <b>DENEXPASS </b></div><table class=\"hapiPropertyTable\"><tbody><tr><td>Date of birth</td><td><span>01 January 1980</span></td></tr></tbody></table></div>"},"extension":[{"url":"http://hl7.org/fhir/us/core/StructureDefinition/us-core-race","extension":[{"url":"ombCategory","valueCoding":{"system":"urn:oid:2.16.840.1.113883.6.238","code":"2106-3","display":"White","userSelected":true}},{"url":"text","valueString":"White"}]},{"url":"http://hl7.org/fhir/us/core/StructureDefinition/us-core-ethnicity","extension":[{"url":"ombCategory","valueCoding":{"system":"urn:oid:2.16.840.1.113883.6.238","code":"2186-5","display":"Not Hispanic or Latino","userSelected":true}},{"url":"text","valueString":"Not Hispanic or Latino"}]}],"identifier":[{"type":{"coding":[{"system":"http://terminology.hl7.org/CodeSystem/v2-0203","code":"MR"}]},"system":"https://bonnie-fhir.healthit.gov/","value":"60f82c3098086b570510e2da"}],"active":true,"name":[{"use":"usual","family":"DENEXPass","given":["CMPDayOfRelvDat1minAftObsStartEDEndLT1hrB4ObsObsEndLT1hrB4IP"]}],"gender":"female","birthDate":"1981-01-01"},"request":{"method":"PUT","url":"Patient/bb3dcb0a-5efb-4f55-99a3-56084dd48191"}},{"fullUrl":"https://madie.cms.gov/Encounter/a21cbe85-f7e4-4097-8df9-2ccda3045913","resource":{"resourceType":"Encounter","id":"a21cbe85-f7e4-4097-8df9-2ccda3045913","meta":{"profile":["http://hl7.org/fhir/us/qicore/StructureDefinition/qicore-encounter"]},"status":"finished","class":{"system":"http://terminology.hl7.org/CodeSystem/v3-ActCode","code":"EMER","display":"emergency"},"type":[{"coding":[{"system":"http://snomed.info/sct","code":"4525004"}]}],"subject":{"reference":"Patient/bb3dcb0a-5efb-4f55-99a3-56084dd48191"},"period":{"start":"2026-11-18T07:00:00Z","end":"2026-11-18T08:01:00.000+00:00"},"diagnosis":[{"condition":{"reference":"Condition/bbc7136a-ef66-4aad-b4e0-7887640b2469"},"use":{"coding":[{"system":"http://terminology.hl7.org/CodeSystem/diagnosis-role","code":"billing","display":"Billing"}]},"rank":1}]},"request":{"method":"PUT","url":"Encounter/a21cbe85-f7e4-4097-8df9-2ccda3045913"}},{"fullUrl":"https://madie.cms.gov/Encounter/62075c1a-562b-4af5-ba32-8a259a83edba","resource":{"resourceType":"Encounter","id":"62075c1a-562b-4af5-ba32-8a259a83edba","meta":{"profile":["http://hl7.org/fhir/us/qicore/StructureDefinition/qicore-encounter"]},"status":"finished","class":{"system":"http://terminology.hl7.org/CodeSystem/v3-ActCode","code":"OBSENC","display":"observation encounter","userSelected":true},"type":[{"coding":[{"system":"http://snomed.info/sct","code":"448951000124107"}]}],"subject":{"reference":"Patient/bb3dcb0a-5efb-4f55-99a3-56084dd48191"},"period":{"start":"2026-11-18T09:00:00Z","end":"2026-11-18T10:01:00.000+00:00"}},"request":{"method":"PUT","url":"Encounter/62075c1a-562b-4af5-ba32-8a259a83edba"}},{"fullUrl":"https://madie.cms.gov/Encounter/2b6a00b4-a794-46e2-96d2-381471b80afd","resource":{"resourceType":"Encounter","id":"2b6a00b4-a794-46e2-96d2-381471b80afd","meta":{"profile":["http://hl7.org/fhir/us/qicore/StructureDefinition/qicore-encounter"]},"status":"finished","class":{"system":"http://terminology.hl7.org/CodeSystem/v3-ActCode","code":"IMP","display":"inpatient encounter","userSelected":true},"type":[{"coding":[{"system":"http://snomed.info/sct","code":"183452005"}]}],"subject":{"reference":"Patient/bb3dcb0a-5efb-4f55-99a3-56084dd48191"},"period":{"start":"2026-11-18T11:00:00Z","end":"2026-11-20T08:15:00.000+00:00"},"reasonReference":[{"reference":"Condition/bbc7136a-ef66-4aad-b4e0-7887640b2469"}]},"request":{"method":"PUT","url":"Encounter/2b6a00b4-a794-46e2-96d2-381471b80afd"}},{"fullUrl":"https://madie.cms.gov/claim/5ca62962b8484628b8de1ec5","resource":{"resourceType":"Claim","id":"5ca62962b8484628b8de1ec5","meta":{"profile":["http://hl7.org/fhir/us/qicore/StructureDefinition/qicore-claim"]},"status":"active","type":{"coding":[{"system":"http://terminology.hl7.org/CodeSystem/claim-type","code":"institutional"}]},"use":"claim","patient":{"reference":"Patient/bb3dcb0a-5efb-4f55-99a3-56084dd48191"},"created":"2026-12-01","provider":{"reference":"Practitioner/practitioner-123456"},"priority":{"coding":[{"system":"http://terminology.hl7.org/CodeSystem/processpriority","code":"normal"}]},"diagnosis":[{"sequence":1,"diagnosisCodeableConcept":{"coding":[{"system":"http://hl7.org/fhir/sid/icd-10-cm","code":"I63.00"}]},"type":[{"coding":[{"system":"http://terminology.hl7.org/CodeSystem/ex-diagnosistype","code":"principal"}]}]}],"insurance":[{"sequence":1,"focal":true,"coverage":{"reference":"Coverage/ed04d6f9-53a8-42be-9bc6-7442ad029a77"}}],"item":[{"sequence":1,"diagnosisSequence":[1],"productOrService":{"coding":[{"system":"http://terminology.hl7.org/CodeSystem/ex-USCLS","code":"99555"}]},"encounter":[{"reference":"Encounter/2b6a00b4-a794-46e2-96d2-381471b80afd"}]}]},"request":{"method":"PUT","url":"Claim/5ca62962b8484628b8de1ec5"}},{"fullUrl":"https://madie.cms.gov/Procedure/16b48d77-af20-4daf-a7b8-a0ea549cd78e","resource":{"resourceType":"Procedure","id":"16b48d77-af20-4daf-a7b8-a0ea549cd78e","meta":{"profile":["http://hl7.org/fhir/us/qicore/StructureDefinition/qicore-procedure"]},"extension":[{"url":"http://hl7.org/fhir/us/qicore/StructureDefinition/qicore-recorded","valueDateTime":"2026-11-18T09:01:00Z"}],"status":"completed","code":{"coding":[{"system":"http://snomed.info/sct","code":"133918004"}]},"subject":{"reference":"Patient/bb3dcb0a-5efb-4f55-99a3-56084dd48191"},"performedDateTime":"2026-11-18T09:01:00Z"},"request":{"method":"PUT","url":"Procedure/16b48d77-af20-4daf-a7b8-a0ea549cd78e"}},{"fullUrl":"https://madie.cms.gov/Condition/bbc7136a-ef66-4aad-b4e0-7887640b2469","resource":{"resourceType":"Condition","id":"bbc7136a-ef66-4aad-b4e0-7887640b2469","meta":{"profile":["http://hl7.org/fhir/us/qicore/StructureDefinition/qicore-condition-encounter-diagnosis"]},"clinicalStatus":{"coding":[{"system":"http://terminology.hl7.org/CodeSystem/condition-clinical","code":"active"}]},"verificationStatus":{"coding":[{"system":"http://terminology.hl7.org/CodeSystem/condition-ver-status","code":"confirmed"}]},"category":[{"coding":[{"system":"http://terminology.hl7.org/CodeSystem/condition-category","code":"encounter-diagnosis","display":"Encounter Diagnosis"}]}],"code":{"coding":[{"system":"http://snomed.info/sct","version":"2020-09","code":"111297002","display":"Nonparalytic stroke (disorder)","userSelected":true}]},"subject":{"reference":"Patient/bb3dcb0a-5efb-4f55-99a3-56084dd48191"},"recordedDate":"2026-08-13T08:00:00Z"},"request":{"method":"PUT","url":"Condition/bbc7136a-ef66-4aad-b4e0-7887640b2469"}},{"fullUrl":"https://madie.cms.gov/Coverage/ed04d6f9-53a8-42be-9bc6-7442ad029a77","resource":{"resourceType":"Coverage","id":"ed04d6f9-53a8-42be-9bc6-7442ad029a77","meta":{"profile":["http://hl7.org/fhir/us/qicore/StructureDefinition/qicore-coverage"]},"status":"active","beneficiary":{"reference":"Patient/bb3dcb0a-5efb-4f55-99a3-56084dd48191"},"payor":[{"reference":"Organization/ba56453a-d5ef-4e05-a789-c59d1ec022c9"}]},"request":{"method":"PUT","url":"Coverage/ed04d6f9-53a8-42be-9bc6-7442ad029a77"}},{"fullUrl":"https://madie.cms.gov/Organization/ba56453a-d5ef-4e05-a789-c59d1ec022c9","resource":{"resourceType":"Organization","id":"ba56453a-d5ef-4e05-a789-c59d1ec022c9","meta":{"profile":["http://hl7.org/fhir/us/qicore/StructureDefinition/qicore-organization"]},"identifier":[{"use":"temp","system":"urn:oid:2.16.840.1.113883.4.4","value":"21-3259825"}],"active":true,"type":[{"coding":[{"system":"http://terminology.hl7.org/CodeSystem/organization-type","code":"pay","display":"Payer"}]}],"name":"Blue Cross Blue Shield of Texas","telecom":[{"system":"phone","value":"(+1) 972-766-6900"}],"address":[{"use":"billing","type":"postal","line":["P.O. Box 660044"],"city":"Dallas","state":"TX","postalCode":"75266-0044","country":"USA"}]},"request":{"method":"PUT","url":"Organization/ba56453a-d5ef-4e05-a789-c59d1ec022c9"}},{"fullUrl":"https://madie.cms.gov/MeasureReport/7ac6244c-f0f8-4647-b1a5-a6732dcf3d13","resource":{"resourceType":"MeasureReport","id":"7ac6244c-f0f8-4647-b1a5-a6732dcf3d13","meta":{"profile":["http://hl7.org/fhir/us/cqfmeasures/StructureDefinition/test-case-cqfm"]},"contained":[{"resourceType":"Parameters","id":"0c6d9197-23af-4ac4-8ede-906ae376b01b-parameters","parameter":[{"name":"subject","valueString":"bb3dcb0a-5efb-4f55-99a3-56084dd48191"}]}],"extension":[{"url":"http://hl7.org/fhir/StructureDefinition/cqf-inputParameters","valueReference":{"reference":"#0c6d9197-23af-4ac4-8ede-906ae376b01b-parameters"}},{"url":"http://hl7.org/fhir/us/cqfmeasures/StructureDefinition/cqfm-testCaseDescription","valueMarkdown":"Patient receives comfort measures performed on the day of hospital arrival, 1 min after Obs start. ED ends less than 1 hour before Obs Start, Obs ends less than 1 hour before IP start.\n"}],"modifierExtension":[{"url":"http://hl7.org/fhir/us/cqfmeasures/StructureDefinition/cqfm-isTestCase","valueBoolean":true}],"status":"complete","type":"individual","measure":"https://madie.cms.gov/Measure/CMS72FHIRSTKAntithromboticDay2","period":{"start":"2026-01-01","end":"2026-12-31"},"group":[{"id":"Group_1","population":[{"id":"InitialPopulation_1","code":{"coding":[{"system":"http://terminology.hl7.org/CodeSystem/measure-population","code":"initial-population","display":"Initial Population"}]},"count":1},{"id":"Denominator_1","code":{"coding":[{"system":"http://terminology.hl7.org/CodeSystem/measure-population","code":"denominator","display":"Denominator"}]},"count":1},{"id":"DenominatorExclusion_1","code":{"coding":[{"system":"http://terminology.hl7.org/CodeSystem/measure-population","code":"denominator-exclusion","display":"Denominator Exclusion"}]},"count":1},{"id":"Numerator_1","code":{"coding":[{"system":"http://terminology.hl7.org/CodeSystem/measure-population","code":"numerator","display":"Numerator"}]},"count":0},{"id":"DenominatorException_1","code":{"coding":[{"system":"http://terminology.hl7.org/CodeSystem/measure-population","code":"denominator-exception","display":"Denominator Exception"}]},"count":0}],"measureScore":{"value":0.0}}],"evaluatedResource":[{"reference":"Patient/bb3dcb0a-5efb-4f55-99a3-56084dd48191"},{"reference":"Encounter/a21cbe85-f7e4-4097-8df9-2ccda3045913"},{"reference":"Encounter/62075c1a-562b-4af5-ba32-8a259a83edba"},{"reference":"Encounter/2b6a00b4-a794-46e2-96d2-381471b80afd"},{"reference":"Claim/5ca62962b8484628b8de1ec5"},{"reference":"Procedure/16b48d77-af20-4daf-a7b8-a0ea549cd78e"},{"reference":"Condition/bbc7136a-ef66-4aad-b4e0-7887640b2469"},{"reference":"Coverage/ed04d6f9-53a8-42be-9bc6-7442ad029a77"},{"reference":"Organization/ba56453a-d5ef-4e05-a789-c59d1ec022c9"}]},"request":{"method":"PUT","url":"MeasureReport/7ac6244c-f0f8-4647-b1a5-a6732dcf3d13"}}]},"request":{"method":"PUT","url":"Bundle/60f82c3098086b570510e2da"}},{"fullUrl":"Patient/bb3dcb0a-5efb-4f55-99a3-56084dd48191","resource":{"resourceType":"Patient","id":"bb3dcb0a-5efb-4f55-99a3-56084dd48191","meta":{"profile":["http://hl7.org/fhir/us/qicore/StructureDefinition/qicore-patient"]},"text":{"status":"generated","div":"<div xmlns=\"http://www.w3.org/1999/xhtml\"><div class=\"hapiHeaderText\">CMP_DayOf_RelvDat_1minAftObsStart_EDEndLT1hrB4Obs_ObsEndLT1hrB4IP <b>DENEXPASS </b></div><table class=\"hapiPropertyTable\"><tbody><tr><td>Date of birth</td><td><span>01 January 1980</span></td></tr></tbody></table></div>"},"extension":[{"url":"http://hl7.org/fhir/us/core/StructureDefinition/us-core-race","extension":[{"url":"ombCategory","valueCoding":{"system":"urn:oid:2.16.840.1.113883.6.238","code":"2106-3","display":"White","userSelected":true}},{"url":"text","valueString":"White"}]},{"url":"http://hl7.org/fhir/us/core/StructureDefinition/us-core-ethnicity","extension":[{"url":"ombCategory","valueCoding":{"system":"urn:oid:2.16.840.1.113883.6.238","code":"2186-5","display":"Not Hispanic or Latino","userSelected":true}},{"url":"text","valueString":"Not Hispanic or Latino"}]}],"identifier":[{"type":{"coding":[{"system":"http://terminology.hl7.org/CodeSystem/v2-0203","code":"MR"}]},"system":"https://bonnie-fhir.healthit.gov/","value":"60f82c3098086b570510e2da"}],"active":true,"name":[{"use":"usual","family":"DENEXPass","given":["CMPDayOfRelvDat1minAftObsStartEDEndLT1hrB4ObsObsEndLT1hrB4IP"]}],"gender":"female","birthDate":"1981-01-01"},"request":{"method":"PUT","url":"Patient/bb3dcb0a-5efb-4f55-99a3-56084dd48191"}},{"fullUrl":"Condition/bbc7136a-ef66-4aad-b4e0-7887640b2469","resource":{"resourceType":"Condition","id":"bbc7136a-ef66-4aad-b4e0-7887640b2469","meta":{"profile":["http://hl7.org/fhir/us/qicore/StructureDefinition/qicore-condition-encounter-diagnosis"]},"clinicalStatus":{"coding":[{"system":"http://terminology.hl7.org/CodeSystem/condition-clinical","code":"active"}]},"verificationStatus":{"coding":[{"system":"http://terminology.hl7.org/CodeSystem/condition-ver-status","code":"confirmed"}]},"category":[{"coding":[{"system":"http://terminology.hl7.org/CodeSystem/condition-category","code":"encounter-diagnosis","display":"Encounter Diagnosis"}]}],"code":{"coding":[{"system":"http://snomed.info/sct","version":"2020-09","code":"111297002","display":"Nonparalytic stroke (disorder)","userSelected":true}]},"subject":{"reference":"Patient/bb3dcb0a-5efb-4f55-99a3-56084dd48191"},"recordedDate":"2026-08-13T08:00:00Z"},"request":{"method":"PUT","url":"Condition/bbc7136a-ef66-4aad-b4e0-7887640b2469"}},{"fullUrl":"Encounter/2b6a00b4-a794-46e2-96d2-381471b80afd","resource":{"resourceType":"Encounter","id":"2b6a00b4-a794-46e2-96d2-381471b80afd","meta":{"profile":["http://hl7.org/fhir/us/qicore/StructureDefinition/qicore-encounter"]},"status":"finished","class":{"system":"http://terminology.hl7.org/CodeSystem/v3-ActCode","code":"IMP","display":"inpatient encounter","userSelected":true},"type":[{"coding":[{"system":"http://snomed.info/sct","code":"183452005"}]}],"subject":{"reference":"Patient/bb3dcb0a-5efb-4f55-99a3-56084dd48191"},"period":{"start":"2026-11-18T11:00:00Z","end":"2026-11-20T08:15:00.000+00:00"},"reasonReference":[{"reference":"Condition/bbc7136a-ef66-4aad-b4e0-7887640b2469"}]},"request":{"method":"PUT","url":"Encounter/2b6a00b4-a794-46e2-96d2-381471b80afd"}},{"fullUrl":"Organization/ba56453a-d5ef-4e05-a789-c59d1ec022c9","resource":{"resourceType":"Organization","id":"ba56453a-d5ef-4e05-a789-c59d1ec022c9","meta":{"profile":["http://hl7.org/fhir/us/qicore/StructureDefinition/qicore-organization"]},"identifier":[{"use":"temp","system":"urn:oid:2.16.840.1.113883.4.4","value":"21-3259825"}],"active":true,"type":[{"coding":[{"system":"http://terminology.hl7.org/CodeSystem/organization-type","code":"pay","display":"Payer"}]}],"name":"Blue Cross Blue Shield of Texas","telecom":[{"system":"phone","value":"(+1) 972-766-6900"}],"address":[{"use":"billing","type":"postal","line":["P.O. Box 660044"],"city":"Dallas","state":"TX","postalCode":"75266-0044","country":"USA"}]},"request":{"method":"PUT","url":"Organization/ba56453a-d5ef-4e05-a789-c59d1ec022c9"}},{"fullUrl":"Encounter/a21cbe85-f7e4-4097-8df9-2ccda3045913","resource":{"resourceType":"Encounter","id":"a21cbe85-f7e4-4097-8df9-2ccda3045913","meta":{"profile":["http://hl7.org/fhir/us/qicore/StructureDefinition/qicore-encounter"]},"status":"finished","class":{"system":"http://terminology.hl7.org/CodeSystem/v3-ActCode","code":"EMER","display":"emergency"},"type":[{"coding":[{"system":"http://snomed.info/sct","code":"4525004"}]}],"subject":{"reference":"Patient/bb3dcb0a-5efb-4f55-99a3-56084dd48191"},"period":{"start":"2026-11-18T07:00:00Z","end":"2026-11-18T08:01:00.000+00:00"},"diagnosis":[{"condition":{"reference":"Condition/bbc7136a-ef66-4aad-b4e0-7887640b2469"},"use":{"coding":[{"system":"http://terminology.hl7.org/CodeSystem/diagnosis-role","code":"billing","display":"Billing"}]},"rank":1}]},"request":{"method":"PUT","url":"Encounter/a21cbe85-f7e4-4097-8df9-2ccda3045913"}},{"fullUrl":"MeasureReport/7ac6244c-f0f8-4647-b1a5-a6732dcf3d13","resource":{"resourceType":"MeasureReport","id":"7ac6244c-f0f8-4647-b1a5-a6732dcf3d13","meta":{"profile":["http://hl7.org/fhir/us/cqfmeasures/StructureDefinition/test-case-cqfm"]},"contained":[{"resourceType":"Parameters","id":"0c6d9197-23af-4ac4-8ede-906ae376b01b-parameters","parameter":[{"name":"subject","valueString":"bb3dcb0a-5efb-4f55-99a3-56084dd48191"}]}],"extension":[{"url":"http://hl7.org/fhir/StructureDefinition/cqf-inputParameters","valueReference":{"reference":"#0c6d9197-23af-4ac4-8ede-906ae376b01b-parameters"}},{"url":"http://hl7.org/fhir/us/cqfmeasures/StructureDefinition/cqfm-testCaseDescription","valueMarkdown":"Patient receives comfort measures performed on the day of hospital arrival, 1 min after Obs start. ED ends less than 1 hour before Obs Start, Obs ends less than 1 hour before IP start.\n"}],"modifierExtension":[{"url":"http://hl7.org/fhir/us/cqfmeasures/StructureDefinition/cqfm-isTestCase","valueBoolean":true}],"status":"complete","type":"individual","measure":"https://madie.cms.gov/Measure/CMS72FHIRSTKAntithromboticDay2","period":{"start":"2026-01-01","end":"2026-12-31"},"group":[{"id":"Group_1","population":[{"id":"InitialPopulation_1","code":{"coding":[{"system":"http://terminology.hl7.org/CodeSystem/measure-population","code":"initial-population","display":"Initial Population"}]},"count":1},{"id":"Denominator_1","code":{"coding":[{"system":"http://terminology.hl7.org/CodeSystem/measure-population","code":"denominator","display":"Denominator"}]},"count":1},{"id":"DenominatorExclusion_1","code":{"coding":[{"system":"http://terminology.hl7.org/CodeSystem/measure-population","code":"denominator-exclusion","display":"Denominator Exclusion"}]},"count":1},{"id":"Numerator_1","code":{"coding":[{"system":"http://terminology.hl7.org/CodeSystem/measure-population","code":"numerator","display":"Numerator"}]},"count":0},{"id":"DenominatorException_1","code":{"coding":[{"system":"http://terminology.hl7.org/CodeSystem/measure-population","code":"denominator-exception","display":"Denominator Exception"}]},"count":0}],"measureScore":{"value":0.0}}],"evaluatedResource":[{"reference":"Patient/bb3dcb0a-5efb-4f55-99a3-56084dd48191"},{"reference":"Encounter/a21cbe85-f7e4-4097-8df9-2ccda3045913"},{"reference":"Encounter/62075c1a-562b-4af5-ba32-8a259a83edba"},{"reference":"Encounter/2b6a00b4-a794-46e2-96d2-381471b80afd"},{"reference":"Claim/5ca62962b8484628b8de1ec5"},{"reference":"Procedure/16b48d77-af20-4daf-a7b8-a0ea549cd78e"},{"reference":"Condition/bbc7136a-ef66-4aad-b4e0-7887640b2469"},{"reference":"Coverage/ed04d6f9-53a8-42be-9bc6-7442ad029a77"},{"reference":"Organization/ba56453a-d5ef-4e05-a789-c59d1ec022c9"}]},"request":{"method":"PUT","url":"MeasureReport/7ac6244c-f0f8-4647-b1a5-a6732dcf3d13"}},{"fullUrl":"Coverage/ed04d6f9-53a8-42be-9bc6-7442ad029a77","resource":{"resourceType":"Coverage","id":"ed04d6f9-53a8-42be-9bc6-7442ad029a77","meta":{"profile":["http://hl7.org/fhir/us/qicore/StructureDefinition/qicore-coverage"]},"status":"active","beneficiary":{"reference":"Patient/bb3dcb0a-5efb-4f55-99a3-56084dd48191"},"payor":[{"reference":"Organization/ba56453a-d5ef-4e05-a789-c59d1ec022c9"}]},"request":{"method":"PUT","url":"Coverage/ed04d6f9-53a8-42be-9bc6-7442ad029a77"}},{"fullUrl":"Encounter/62075c1a-562b-4af5-ba32-8a259a83edba","resource":{"resourceType":"Encounter","id":"62075c1a-562b-4af5-ba32-8a259a83edba","meta":{"profile":["http://hl7.org/fhir/us/qicore/StructureDefinition/qicore-encounter"]},"status":"finished","class":{"system":"http://terminology.hl7.org/CodeSystem/v3-ActCode","code":"OBSENC","display":"observation encounter","userSelected":true},"type":[{"coding":[{"system":"http://snomed.info/sct","code":"448951000124107"}]}],"subject":{"reference":"Patient/bb3dcb0a-5efb-4f55-99a3-56084dd48191"},"period":{"start":"2026-11-18T09:00:00Z","end":"2026-11-18T10:01:00.000+00:00"}},"request":{"method":"PUT","url":"Encounter/62075c1a-562b-4af5-ba32-8a259a83edba"}},{"fullUrl":"Claim/5ca62962b8484628b8de1ec5","resource":{"resourceType":"Claim","id":"5ca62962b8484628b8de1ec5","meta":{"profile":["http://hl7.org/fhir/us/qicore/StructureDefinition/qicore-claim"]},"status":"active","type":{"coding":[{"system":"http://terminology.hl7.org/CodeSystem/claim-type","code":"institutional"}]},"use":"claim","patient":{"reference":"Patient/bb3dcb0a-5efb-4f55-99a3-56084dd48191"},"created":"2026-12-01","provider":{"reference":"Practitioner/practitioner-123456"},"priority":{"coding":[{"system":"http://terminology.hl7.org/CodeSystem/processpriority","code":"normal"}]},"diagnosis":[{"sequence":1,"diagnosisCodeableConcept":{"coding":[{"system":"http://hl7.org/fhir/sid/icd-10-cm","code":"I63.00"}]},"type":[{"coding":[{"system":"http://terminology.hl7.org/CodeSystem/ex-diagnosistype","code":"principal"}]}]}],"insurance":[{"sequence":1,"focal":true,"coverage":{"reference":"Coverage/ed04d6f9-53a8-42be-9bc6-7442ad029a77"}}],"item":[{"sequence":1,"diagnosisSequence":[1],"productOrService":{"coding":[{"system":"http://terminology.hl7.org/CodeSystem/ex-USCLS","code":"99555"}]},"encounter":[{"reference":"Encounter/2b6a00b4-a794-46e2-96d2-381471b80afd"}]}]},"request":{"method":"PUT","url":"Claim/5ca62962b8484628b8de1ec5"}}]}