{"resourceType":"Bundle","id":"tests-1ef5e77a-dea5-4f1f-873b-44ea79810330-bundle","type":"transaction","entry":[{"resource":{"resourceType":"Organization","id":"b03e2542-dfba-46bd-a701-9f86cc5b9b50","meta":{"profile":["http://hl7.org/fhir/us/qicore/StructureDefinition/qicore-organization"]},"identifier":[{"use":"temp","system":"urn:oid:2.16.840.1.113883.4.4","value":"21-3259825"}],"active":true,"type":[{"coding":[{"system":"http://terminology.hl7.org/CodeSystem/organization-type","code":"pay","display":"Payer"}]}],"name":"Blue Cross Blue Shield of Texas","telecom":[{"system":"phone","value":"(+1) 972-766-6900"}],"address":[{"use":"billing","type":"postal","line":["P.O. Box 660044"],"city":"Dallas","state":"TX","postalCode":"75266-0044","country":"USA"}]},"request":{"method":"PUT","url":"Organization/b03e2542-dfba-46bd-a701-9f86cc5b9b50"}},{"resource":{"resourceType":"Encounter","id":"cfe9cd65-a7d2-4487-bda5-758ffd4c4a23","meta":{"profile":["http://hl7.org/fhir/us/qicore/StructureDefinition/qicore-encounter"]},"status":"finished","class":{"system":"http://terminology.hl7.org/CodeSystem/v3-ActCode","code":"IMP","display":"inpatient encounter"},"type":[{"coding":[{"system":"http://snomed.info/sct","code":"32485007"}]}],"subject":{"reference":"Patient/1ef5e77a-dea5-4f1f-873b-44ea79810330"},"period":{"start":"2026-10-10T09:00:00Z","end":"2026-10-12T11:15:00.000+00:00"},"length":{"value":2,"unit":"days"},"reasonReference":[{"reference":"Condition/e5f27fab-2761-4d21-9aba-57a5e408dc71"}]},"request":{"method":"PUT","url":"Encounter/cfe9cd65-a7d2-4487-bda5-758ffd4c4a23"}},{"resource":{"resourceType":"Patient","id":"1ef5e77a-dea5-4f1f-873b-44ea79810330","meta":{"profile":["http://hl7.org/fhir/us/qicore/StructureDefinition/qicore-patient"]},"text":{"status":"generated","div":"<div xmlns=\"http://www.w3.org/1999/xhtml\"><div class=\"hapiHeaderText\">MedAntithromboticStart_eq0dayDuringEncIP <b>NUMERPASS </b></div><table class=\"hapiPropertyTable\"><tbody><tr><td>Identifier</td><td>6aa79e9cebbde8275335fd99b030f3d5</td></tr><tr><td>Date of birth</td><td><span>26 September 1975</span></td></tr></tbody></table></div>"},"extension":[{"url":"http://hl7.org/fhir/us/core/StructureDefinition/us-core-race","extension":[{"url":"ombCategory","valueCoding":{"system":"urn:oid:2.16.840.1.113883.6.238","code":"2054-5","display":"Black or African American","userSelected":true}},{"url":"text","valueString":"Black or African American"}]},{"url":"http://hl7.org/fhir/us/core/StructureDefinition/us-core-ethnicity","extension":[{"url":"ombCategory","valueCoding":{"system":"urn:oid:2.16.840.1.113883.6.238","code":"2186-5","display":"Not Hispanic or Latino","userSelected":true}},{"url":"text","valueString":"Not Hispanic or Latino"}]}],"identifier":[{"type":{"coding":[{"system":"http://terminology.hl7.org/CodeSystem/v2-0203","code":"MR"}]},"system":"https://bonnie-fhir.healthit.gov/","value":"60f82c2d98086b570510e259"}],"active":true,"name":[{"use":"usual","family":"NUMERPass","given":["MedAntithromboticStart_eq0dayDuringEncIP"]}],"gender":"female","birthDate":"1976-09-26"},"request":{"method":"PUT","url":"Patient/1ef5e77a-dea5-4f1f-873b-44ea79810330"}},{"resource":{"resourceType":"MedicationAdministration","id":"193b94aa-6975-42e1-96d0-36ec096e9ba4","meta":{"profile":["http://hl7.org/fhir/us/qicore/StructureDefinition/qicore-medicationadministration"]},"status":"completed","medicationCodeableConcept":{"coding":[{"system":"http://www.nlm.nih.gov/research/umls/rxnorm","code":"1037045"}]},"subject":{"reference":"Patient/1ef5e77a-dea5-4f1f-873b-44ea79810330"},"effectivePeriod":{"start":"2026-10-11T11:00:00Z"}},"request":{"method":"PUT","url":"MedicationAdministration/193b94aa-6975-42e1-96d0-36ec096e9ba4"}},{"resource":{"resourceType":"MeasureReport","id":"bf13dd8f-64dc-4f70-89d6-a87c55a4ffbe","meta":{"profile":["http://hl7.org/fhir/us/cqfmeasures/StructureDefinition/test-case-cqfm"]},"contained":[{"resourceType":"Parameters","id":"d1ff7326-5bb4-4b8b-b24c-3370baee27a6-parameters","parameter":[{"name":"subject","valueString":"1ef5e77a-dea5-4f1f-873b-44ea79810330"}]}],"extension":[{"url":"http://hl7.org/fhir/StructureDefinition/cqf-inputParameters","valueReference":{"reference":"#d1ff7326-5bb4-4b8b-b24c-3370baee27a6-parameters"}},{"url":"http://hl7.org/fhir/us/cqfmeasures/StructureDefinition/cqfm-testCaseDescription","valueMarkdown":"NUMERPass MedantithromboticStart_eq0dayDuringEncIP"}],"modifierExtension":[{"url":"http://hl7.org/fhir/us/cqfmeasures/StructureDefinition/cqfm-isTestCase","valueBoolean":true}],"status":"complete","type":"individual","measure":"https://madie.cms.gov/Measure/CMS72FHIRSTKAntithromboticDay2","period":{"start":"2026-01-01","end":"2026-12-31"},"group":[{"id":"Group_1","population":[{"id":"InitialPopulation_1","code":{"coding":[{"system":"http://terminology.hl7.org/CodeSystem/measure-population","code":"initial-population","display":"Initial Population"}]},"count":1},{"id":"Denominator_1","code":{"coding":[{"system":"http://terminology.hl7.org/CodeSystem/measure-population","code":"denominator","display":"Denominator"}]},"count":1},{"id":"DenominatorExclusion_1","code":{"coding":[{"system":"http://terminology.hl7.org/CodeSystem/measure-population","code":"denominator-exclusion","display":"Denominator Exclusion"}]},"count":0},{"id":"Numerator_1","code":{"coding":[{"system":"http://terminology.hl7.org/CodeSystem/measure-population","code":"numerator","display":"Numerator"}]},"count":1},{"id":"DenominatorException_1","code":{"coding":[{"system":"http://terminology.hl7.org/CodeSystem/measure-population","code":"denominator-exception","display":"Denominator Exception"}]},"count":0}],"measureScore":{"value":0.0}}],"evaluatedResource":[{"reference":"Patient/1ef5e77a-dea5-4f1f-873b-44ea79810330"},{"reference":"Encounter/cfe9cd65-a7d2-4487-bda5-758ffd4c4a23"},{"reference":"Claim/5ca62962b8484628b8de1ec5"},{"reference":"MedicationAdministration/193b94aa-6975-42e1-96d0-36ec096e9ba4"},{"reference":"Coverage/dca5ffa7-3c37-43b1-b522-eecf284d2408"},{"reference":"Condition/e5f27fab-2761-4d21-9aba-57a5e408dc71"},{"reference":"Organization/b03e2542-dfba-46bd-a701-9f86cc5b9b50"}]},"request":{"method":"PUT","url":"MeasureReport/bf13dd8f-64dc-4f70-89d6-a87c55a4ffbe"}},{"resource":{"resourceType":"Condition","id":"e5f27fab-2761-4d21-9aba-57a5e408dc71","meta":{"profile":["http://hl7.org/fhir/us/qicore/StructureDefinition/qicore-condition-problems-health-concerns"]},"clinicalStatus":{"coding":[{"system":"http://terminology.hl7.org/CodeSystem/condition-clinical","code":"active"}]},"verificationStatus":{"coding":[{"system":"http://terminology.hl7.org/CodeSystem/condition-ver-status","code":"confirmed"}]},"category":[{"coding":[{"system":"http://terminology.hl7.org/CodeSystem/condition-category","code":"encounter-diagnosis","display":"Encounter Diagnosis"}]}],"code":{"coding":[{"system":"http://snomed.info/sct","version":"2020-09","code":"111297002","display":"Nonparalytic stroke (disorder)","userSelected":true}]},"subject":{"reference":"Patient/1ef5e77a-dea5-4f1f-873b-44ea79810330"},"recordedDate":"2026-08-16T08:00:00Z"},"request":{"method":"PUT","url":"Condition/e5f27fab-2761-4d21-9aba-57a5e408dc71"}},{"resource":{"resourceType":"Bundle","id":"60f82c2d98086b570510e259","type":"transaction","entry":[{"fullUrl":"https://madie.cms.gov/Patient/1ef5e77a-dea5-4f1f-873b-44ea79810330","resource":{"resourceType":"Patient","id":"1ef5e77a-dea5-4f1f-873b-44ea79810330","meta":{"profile":["http://hl7.org/fhir/us/qicore/StructureDefinition/qicore-patient"]},"text":{"status":"generated","div":"<div xmlns=\"http://www.w3.org/1999/xhtml\"><div class=\"hapiHeaderText\">MedAntithromboticStart_eq0dayDuringEncIP <b>NUMERPASS </b></div><table class=\"hapiPropertyTable\"><tbody><tr><td>Identifier</td><td>6aa79e9cebbde8275335fd99b030f3d5</td></tr><tr><td>Date of birth</td><td><span>26 September 1975</span></td></tr></tbody></table></div>"},"extension":[{"url":"http://hl7.org/fhir/us/core/StructureDefinition/us-core-race","extension":[{"url":"ombCategory","valueCoding":{"system":"urn:oid:2.16.840.1.113883.6.238","code":"2054-5","display":"Black or African American","userSelected":true}},{"url":"text","valueString":"Black or African American"}]},{"url":"http://hl7.org/fhir/us/core/StructureDefinition/us-core-ethnicity","extension":[{"url":"ombCategory","valueCoding":{"system":"urn:oid:2.16.840.1.113883.6.238","code":"2186-5","display":"Not Hispanic or Latino","userSelected":true}},{"url":"text","valueString":"Not Hispanic or Latino"}]}],"identifier":[{"type":{"coding":[{"system":"http://terminology.hl7.org/CodeSystem/v2-0203","code":"MR"}]},"system":"https://bonnie-fhir.healthit.gov/","value":"60f82c2d98086b570510e259"}],"active":true,"name":[{"use":"usual","family":"NUMERPass","given":["MedAntithromboticStart_eq0dayDuringEncIP"]}],"gender":"female","birthDate":"1976-09-26"},"request":{"method":"PUT","url":"Patient/1ef5e77a-dea5-4f1f-873b-44ea79810330"}},{"fullUrl":"https://madie.cms.gov/Encounter/cfe9cd65-a7d2-4487-bda5-758ffd4c4a23","resource":{"resourceType":"Encounter","id":"cfe9cd65-a7d2-4487-bda5-758ffd4c4a23","meta":{"profile":["http://hl7.org/fhir/us/qicore/StructureDefinition/qicore-encounter"]},"status":"finished","class":{"system":"http://terminology.hl7.org/CodeSystem/v3-ActCode","code":"IMP","display":"inpatient encounter"},"type":[{"coding":[{"system":"http://snomed.info/sct","code":"32485007"}]}],"subject":{"reference":"Patient/1ef5e77a-dea5-4f1f-873b-44ea79810330"},"period":{"start":"2026-10-10T09:00:00Z","end":"2026-10-12T11:15:00.000+00:00"},"length":{"value":2,"unit":"days"},"reasonReference":[{"reference":"Condition/e5f27fab-2761-4d21-9aba-57a5e408dc71"}]},"request":{"method":"PUT","url":"Encounter/cfe9cd65-a7d2-4487-bda5-758ffd4c4a23"}},{"fullUrl":"https://madie.cms.gov/claim/5ca62962b8484628b8de1ec5","resource":{"resourceType":"Claim","id":"5ca62962b8484628b8de1ec5","meta":{"profile":["http://hl7.org/fhir/us/qicore/StructureDefinition/qicore-claim"]},"status":"active","type":{"coding":[{"system":"http://terminology.hl7.org/CodeSystem/claim-type","code":"institutional"}]},"use":"claim","patient":{"reference":"Patient/d170a0a8-b5ad-4303-b6df-e304dd5f92ad"},"created":"2026-12-01","provider":{"reference":"Practitioner/practitioner-123456"},"priority":{"coding":[{"system":"http://terminology.hl7.org/CodeSystem/processpriority","code":"normal"}]},"diagnosis":[{"sequence":1,"diagnosisCodeableConcept":{"coding":[{"system":"http://hl7.org/fhir/sid/icd-10-cm","code":"I63.00"}]},"type":[{"coding":[{"system":"http://terminology.hl7.org/CodeSystem/ex-diagnosistype","code":"principal"}]}]}],"insurance":[{"sequence":1,"focal":true,"coverage":{"reference":"Coverage/5fa041661c76ba66d9959367"}}],"item":[{"sequence":1,"diagnosisSequence":[1],"productOrService":{"coding":[{"system":"http://terminology.hl7.org/CodeSystem/ex-USCLS","code":"99555"}]},"encounter":[{"reference":"Encounter/cfe9cd65-a7d2-4487-bda5-758ffd4c4a23"}]}]},"request":{"method":"PUT","url":"Claim/5ca62962b8484628b8de1ec5"}},{"fullUrl":"https://madie.cms.gov/MedicationAdministration/193b94aa-6975-42e1-96d0-36ec096e9ba4","resource":{"resourceType":"MedicationAdministration","id":"193b94aa-6975-42e1-96d0-36ec096e9ba4","meta":{"profile":["http://hl7.org/fhir/us/qicore/StructureDefinition/qicore-medicationadministration"]},"status":"completed","medicationCodeableConcept":{"coding":[{"system":"http://www.nlm.nih.gov/research/umls/rxnorm","code":"1037045"}]},"subject":{"reference":"Patient/1ef5e77a-dea5-4f1f-873b-44ea79810330"},"effectivePeriod":{"start":"2026-10-11T11:00:00Z"}},"request":{"method":"PUT","url":"MedicationAdministration/193b94aa-6975-42e1-96d0-36ec096e9ba4"}},{"fullUrl":"https://madie.cms.gov/Coverage/dca5ffa7-3c37-43b1-b522-eecf284d2408","resource":{"resourceType":"Coverage","id":"dca5ffa7-3c37-43b1-b522-eecf284d2408","status":"active","subscriberId":"523435","beneficiary":{"reference":"Patient/1ef5e77a-dea5-4f1f-873b-44ea79810330"},"relationship":{"coding":[{"system":"http://terminology.hl7.org/CodeSystem/subscriber-relationship","code":"self"}]},"period":{"start":"1976-09-26T08:00:00Z"},"payor":[{"reference":"Organization/b03e2542-dfba-46bd-a701-9f86cc5b9b50"}]},"request":{"method":"PUT","url":"Coverage/dca5ffa7-3c37-43b1-b522-eecf284d2408"}},{"fullUrl":"https://madie.cms.gov/Condition/e5f27fab-2761-4d21-9aba-57a5e408dc71","resource":{"resourceType":"Condition","id":"e5f27fab-2761-4d21-9aba-57a5e408dc71","meta":{"profile":["http://hl7.org/fhir/us/qicore/StructureDefinition/qicore-condition-problems-health-concerns"]},"clinicalStatus":{"coding":[{"system":"http://terminology.hl7.org/CodeSystem/condition-clinical","code":"active"}]},"verificationStatus":{"coding":[{"system":"http://terminology.hl7.org/CodeSystem/condition-ver-status","code":"confirmed"}]},"category":[{"coding":[{"system":"http://terminology.hl7.org/CodeSystem/condition-category","code":"encounter-diagnosis","display":"Encounter Diagnosis"}]}],"code":{"coding":[{"system":"http://snomed.info/sct","version":"2020-09","code":"111297002","display":"Nonparalytic stroke (disorder)","userSelected":true}]},"subject":{"reference":"Patient/1ef5e77a-dea5-4f1f-873b-44ea79810330"},"recordedDate":"2026-08-16T08:00:00Z"},"request":{"method":"PUT","url":"Condition/e5f27fab-2761-4d21-9aba-57a5e408dc71"}},{"fullUrl":"https://madie.cms.gov/Organization/b03e2542-dfba-46bd-a701-9f86cc5b9b50","resource":{"resourceType":"Organization","id":"b03e2542-dfba-46bd-a701-9f86cc5b9b50","meta":{"profile":["http://hl7.org/fhir/us/qicore/StructureDefinition/qicore-organization"]},"identifier":[{"use":"temp","system":"urn:oid:2.16.840.1.113883.4.4","value":"21-3259825"}],"active":true,"type":[{"coding":[{"system":"http://terminology.hl7.org/CodeSystem/organization-type","code":"pay","display":"Payer"}]}],"name":"Blue Cross Blue Shield of Texas","telecom":[{"system":"phone","value":"(+1) 972-766-6900"}],"address":[{"use":"billing","type":"postal","line":["P.O. Box 660044"],"city":"Dallas","state":"TX","postalCode":"75266-0044","country":"USA"}]},"request":{"method":"PUT","url":"Organization/b03e2542-dfba-46bd-a701-9f86cc5b9b50"}},{"fullUrl":"https://madie.cms.gov/MeasureReport/bf13dd8f-64dc-4f70-89d6-a87c55a4ffbe","resource":{"resourceType":"MeasureReport","id":"bf13dd8f-64dc-4f70-89d6-a87c55a4ffbe","meta":{"profile":["http://hl7.org/fhir/us/cqfmeasures/StructureDefinition/test-case-cqfm"]},"contained":[{"resourceType":"Parameters","id":"d1ff7326-5bb4-4b8b-b24c-3370baee27a6-parameters","parameter":[{"name":"subject","valueString":"1ef5e77a-dea5-4f1f-873b-44ea79810330"}]}],"extension":[{"url":"http://hl7.org/fhir/StructureDefinition/cqf-inputParameters","valueReference":{"reference":"#d1ff7326-5bb4-4b8b-b24c-3370baee27a6-parameters"}},{"url":"http://hl7.org/fhir/us/cqfmeasures/StructureDefinition/cqfm-testCaseDescription","valueMarkdown":"NUMERPass MedantithromboticStart_eq0dayDuringEncIP"}],"modifierExtension":[{"url":"http://hl7.org/fhir/us/cqfmeasures/StructureDefinition/cqfm-isTestCase","valueBoolean":true}],"status":"complete","type":"individual","measure":"https://madie.cms.gov/Measure/CMS72FHIRSTKAntithromboticDay2","period":{"start":"2026-01-01","end":"2026-12-31"},"group":[{"id":"Group_1","population":[{"id":"InitialPopulation_1","code":{"coding":[{"system":"http://terminology.hl7.org/CodeSystem/measure-population","code":"initial-population","display":"Initial Population"}]},"count":1},{"id":"Denominator_1","code":{"coding":[{"system":"http://terminology.hl7.org/CodeSystem/measure-population","code":"denominator","display":"Denominator"}]},"count":1},{"id":"DenominatorExclusion_1","code":{"coding":[{"system":"http://terminology.hl7.org/CodeSystem/measure-population","code":"denominator-exclusion","display":"Denominator Exclusion"}]},"count":0},{"id":"Numerator_1","code":{"coding":[{"system":"http://terminology.hl7.org/CodeSystem/measure-population","code":"numerator","display":"Numerator"}]},"count":1},{"id":"DenominatorException_1","code":{"coding":[{"system":"http://terminology.hl7.org/CodeSystem/measure-population","code":"denominator-exception","display":"Denominator Exception"}]},"count":0}],"measureScore":{"value":0.0}}],"evaluatedResource":[{"reference":"Patient/1ef5e77a-dea5-4f1f-873b-44ea79810330"},{"reference":"Encounter/cfe9cd65-a7d2-4487-bda5-758ffd4c4a23"},{"reference":"Claim/5ca62962b8484628b8de1ec5"},{"reference":"MedicationAdministration/193b94aa-6975-42e1-96d0-36ec096e9ba4"},{"reference":"Coverage/dca5ffa7-3c37-43b1-b522-eecf284d2408"},{"reference":"Condition/e5f27fab-2761-4d21-9aba-57a5e408dc71"},{"reference":"Organization/b03e2542-dfba-46bd-a701-9f86cc5b9b50"}]},"request":{"method":"PUT","url":"MeasureReport/bf13dd8f-64dc-4f70-89d6-a87c55a4ffbe"}}]},"request":{"method":"PUT","url":"Bundle/60f82c2d98086b570510e259"}},{"resource":{"resourceType":"Claim","id":"5ca62962b8484628b8de1ec5","meta":{"profile":["http://hl7.org/fhir/us/qicore/StructureDefinition/qicore-claim"]},"status":"active","type":{"coding":[{"system":"http://terminology.hl7.org/CodeSystem/claim-type","code":"institutional"}]},"use":"claim","patient":{"reference":"Patient/d170a0a8-b5ad-4303-b6df-e304dd5f92ad"},"created":"2026-12-01","provider":{"reference":"Practitioner/practitioner-123456"},"priority":{"coding":[{"system":"http://terminology.hl7.org/CodeSystem/processpriority","code":"normal"}]},"diagnosis":[{"sequence":1,"diagnosisCodeableConcept":{"coding":[{"system":"http://hl7.org/fhir/sid/icd-10-cm","code":"I63.00"}]},"type":[{"coding":[{"system":"http://terminology.hl7.org/CodeSystem/ex-diagnosistype","code":"principal"}]}]}],"insurance":[{"sequence":1,"focal":true,"coverage":{"reference":"Coverage/5fa041661c76ba66d9959367"}}],"item":[{"sequence":1,"diagnosisSequence":[1],"productOrService":{"coding":[{"system":"http://terminology.hl7.org/CodeSystem/ex-USCLS","code":"99555"}]},"encounter":[{"reference":"Encounter/cfe9cd65-a7d2-4487-bda5-758ffd4c4a23"}]}]},"request":{"method":"PUT","url":"Claim/5ca62962b8484628b8de1ec5"}},{"resource":{"resourceType":"Coverage","id":"dca5ffa7-3c37-43b1-b522-eecf284d2408","status":"active","subscriberId":"523435","beneficiary":{"reference":"Patient/1ef5e77a-dea5-4f1f-873b-44ea79810330"},"relationship":{"coding":[{"system":"http://terminology.hl7.org/CodeSystem/subscriber-relationship","code":"self"}]},"period":{"start":"1976-09-26T08:00:00Z"},"payor":[{"reference":"Organization/b03e2542-dfba-46bd-a701-9f86cc5b9b50"}]},"request":{"method":"PUT","url":"Coverage/dca5ffa7-3c37-43b1-b522-eecf284d2408"}}]}