{"resourceType":"Bundle","id":"tests-f53d8150-0e5a-43b1-be8e-7a356f74f045-bundle","type":"transaction","entry":[{"fullUrl":"MeasureReport/222205c9-465a-4e57-863a-a51c1725a41e","resource":{"resourceType":"MeasureReport","id":"222205c9-465a-4e57-863a-a51c1725a41e","meta":{"profile":["http://hl7.org/fhir/us/cqfmeasures/StructureDefinition/test-case-cqfm"]},"contained":[{"resourceType":"Parameters","id":"df5a323c-e87b-4467-ab2d-cf4d627c0312-parameters","parameter":[{"name":"subject","valueString":"f53d8150-0e5a-43b1-be8e-7a356f74f045"}]}],"extension":[{"url":"http://hl7.org/fhir/StructureDefinition/cqf-inputParameters","valueReference":{"reference":"#df5a323c-e87b-4467-ab2d-cf4d627c0312-parameters"}},{"url":"http://hl7.org/fhir/us/cqfmeasures/StructureDefinition/cqfm-testCaseDescription","valueMarkdown":"Patient receives comfort measures performed on the day of hospital arrival, 1 min after ED end. ED ends less than 1 hour before Obs Start, Obs ends less than 1 hour before IP start.\n"}],"modifierExtension":[{"url":"http://hl7.org/fhir/us/cqfmeasures/StructureDefinition/cqfm-isTestCase","valueBoolean":true}],"status":"complete","type":"individual","measure":"https://madie.cms.gov/Measure/CMS72FHIRSTKAntithromboticDay2","period":{"start":"2026-01-01","end":"2026-12-31"},"group":[{"id":"Group_1","population":[{"id":"InitialPopulation_1","code":{"coding":[{"system":"http://terminology.hl7.org/CodeSystem/measure-population","code":"initial-population","display":"Initial Population"}]},"count":1},{"id":"Denominator_1","code":{"coding":[{"system":"http://terminology.hl7.org/CodeSystem/measure-population","code":"denominator","display":"Denominator"}]},"count":1},{"id":"DenominatorExclusion_1","code":{"coding":[{"system":"http://terminology.hl7.org/CodeSystem/measure-population","code":"denominator-exclusion","display":"Denominator Exclusion"}]},"count":1},{"id":"Numerator_1","code":{"coding":[{"system":"http://terminology.hl7.org/CodeSystem/measure-population","code":"numerator","display":"Numerator"}]},"count":0},{"id":"DenominatorException_1","code":{"coding":[{"system":"http://terminology.hl7.org/CodeSystem/measure-population","code":"denominator-exception","display":"Denominator Exception"}]},"count":0}],"measureScore":{"value":0.0}}],"evaluatedResource":[{"reference":"Patient/f53d8150-0e5a-43b1-be8e-7a356f74f045"},{"reference":"Encounter/e80b01d8-0169-4547-94cc-8b0e381a898e"},{"reference":"Encounter/ad7b167d-e757-4ee1-b477-afefcf88d823"},{"reference":"Encounter/6d7ce9c5-6313-4592-a2fd-a4545fe3706c"},{"reference":"Claim/5ca62962b8484628b8de1ec5"},{"reference":"Procedure/175f8243-e56c-44ab-903c-950db8c9c922"},{"reference":"Condition/71854a45-d73a-4570-86a1-6b8f658521e2"},{"reference":"Coverage/08bbd8b5-aa37-431f-9f4e-e8b5a769acf9"},{"reference":"Organization/531bd5b8-4bd6-4263-a79f-fe9b9849f9c6"}]},"request":{"method":"PUT","url":"MeasureReport/222205c9-465a-4e57-863a-a51c1725a41e"}},{"fullUrl":"Procedure/175f8243-e56c-44ab-903c-950db8c9c922","resource":{"resourceType":"Procedure","id":"175f8243-e56c-44ab-903c-950db8c9c922","meta":{"profile":["http://hl7.org/fhir/us/qicore/StructureDefinition/qicore-procedure"]},"extension":[{"url":"http://hl7.org/fhir/us/qicore/StructureDefinition/qicore-recorded","valueDateTime":"2014-04-05T13:35:00Z"}],"status":"completed","code":{"coding":[{"system":"http://snomed.info/sct","code":"133918004"}]},"subject":{"reference":"Patient/f53d8150-0e5a-43b1-be8e-7a356f74f045"},"performedPeriod":{"start":"2026-11-18T11:00:00Z","end":"2026-11-20T08:15:00.000+00:00"}},"request":{"method":"PUT","url":"Procedure/175f8243-e56c-44ab-903c-950db8c9c922"}},{"fullUrl":"Encounter/ad7b167d-e757-4ee1-b477-afefcf88d823","resource":{"resourceType":"Encounter","id":"ad7b167d-e757-4ee1-b477-afefcf88d823","meta":{"profile":["http://hl7.org/fhir/us/qicore/StructureDefinition/qicore-encounter"]},"status":"finished","class":{"system":"http://terminology.hl7.org/CodeSystem/v3-ActCode","code":"OBSENC","display":"observation encounter","userSelected":true},"type":[{"coding":[{"system":"http://snomed.info/sct","code":"448951000124107"}]}],"subject":{"reference":"Patient/f53d8150-0e5a-43b1-be8e-7a356f74f045"},"period":{"start":"2026-11-18T09:00:00Z","end":"2026-11-18T10:01:00.000+00:00"}},"request":{"method":"PUT","url":"Encounter/ad7b167d-e757-4ee1-b477-afefcf88d823"}},{"fullUrl":"Patient/f53d8150-0e5a-43b1-be8e-7a356f74f045","resource":{"resourceType":"Patient","id":"f53d8150-0e5a-43b1-be8e-7a356f74f045","meta":{"profile":["http://hl7.org/fhir/us/qicore/StructureDefinition/qicore-patient"]},"text":{"status":"generated","div":"<div xmlns=\"http://www.w3.org/1999/xhtml\"><div class=\"hapiHeaderText\">CMP_DayOf_RelvDat_1minAftEDEnd_EDEndLT1hrB4Obs_ObsEndLT1hrB4IP <b>DENEXPASS </b></div><table class=\"hapiPropertyTable\"><tbody><tr><td>Date of birth</td><td><span>01 January 1980</span></td></tr></tbody></table></div>"},"extension":[{"url":"http://hl7.org/fhir/us/core/StructureDefinition/us-core-race","extension":[{"url":"ombCategory","valueCoding":{"system":"urn:oid:2.16.840.1.113883.6.238","code":"2054-5","display":"Black or African American","userSelected":true}},{"url":"text","valueString":"Black or African American"}]},{"url":"http://hl7.org/fhir/us/core/StructureDefinition/us-core-ethnicity","extension":[{"url":"ombCategory","valueCoding":{"system":"urn:oid:2.16.840.1.113883.6.238","code":"2186-5","display":"Not Hispanic or Latino","userSelected":true}},{"url":"text","valueString":"Not Hispanic or Latino"}]}],"identifier":[{"type":{"coding":[{"system":"http://terminology.hl7.org/CodeSystem/v2-0203","code":"MR"}]},"system":"https://bonnie-fhir.healthit.gov/","value":"60f82c3098086b570510e2d7"}],"active":true,"name":[{"use":"usual","family":"DENEXPass","given":["CMP_DayOf_RelvDat_1minAftEDEnd_EDEndLT1hrB4Obs_ObsEndLT1hrB4IP"]}],"gender":"female","birthDate":"1981-01-01"},"request":{"method":"PUT","url":"Patient/f53d8150-0e5a-43b1-be8e-7a356f74f045"}},{"fullUrl":"Condition/71854a45-d73a-4570-86a1-6b8f658521e2","resource":{"resourceType":"Condition","id":"71854a45-d73a-4570-86a1-6b8f658521e2","meta":{"profile":["http://hl7.org/fhir/us/qicore/StructureDefinition/qicore-condition"]},"clinicalStatus":{"coding":[{"system":"http://terminology.hl7.org/CodeSystem/condition-clinical","code":"active"}]},"verificationStatus":{"coding":[{"system":"http://terminology.hl7.org/CodeSystem/condition-ver-status","code":"confirmed"}]},"category":[{"coding":[{"system":"http://terminology.hl7.org/CodeSystem/condition-category","code":"encounter-diagnosis","display":"Encounter Diagnosis"}]}],"code":{"coding":[{"system":"http://snomed.info/sct","version":"2020-09","code":"111297002","display":"Nonparalytic stroke (disorder)","userSelected":true}]},"subject":{"reference":"Patient/f53d8150-0e5a-43b1-be8e-7a356f74f045"},"recordedDate":"2026-08-13T08:00:00Z"},"request":{"method":"PUT","url":"Condition/71854a45-d73a-4570-86a1-6b8f658521e2"}},{"fullUrl":"Encounter/6d7ce9c5-6313-4592-a2fd-a4545fe3706c","resource":{"resourceType":"Encounter","id":"6d7ce9c5-6313-4592-a2fd-a4545fe3706c","meta":{"profile":["http://hl7.org/fhir/us/qicore/StructureDefinition/qicore-encounter"]},"status":"finished","class":{"system":"http://terminology.hl7.org/CodeSystem/v3-ActCode","code":"IMP","display":"inpatient encounter","userSelected":true},"type":[{"coding":[{"system":"http://snomed.info/sct","code":"183452005"}]}],"subject":{"reference":"Patient/f53d8150-0e5a-43b1-be8e-7a356f74f045"},"period":{"start":"2026-11-18T11:00:00Z","end":"2026-11-20T08:15:00.000+00:00"},"reasonReference":[{"reference":"Condition/71854a45-d73a-4570-86a1-6b8f658521e2"}]},"request":{"method":"PUT","url":"Encounter/6d7ce9c5-6313-4592-a2fd-a4545fe3706c"}},{"fullUrl":"Bundle/60f82c3098086b570510e2d7","resource":{"resourceType":"Bundle","id":"60f82c3098086b570510e2d7","type":"transaction","entry":[{"fullUrl":"https://madie.cms.gov/Patient/f53d8150-0e5a-43b1-be8e-7a356f74f045","resource":{"resourceType":"Patient","id":"f53d8150-0e5a-43b1-be8e-7a356f74f045","meta":{"profile":["http://hl7.org/fhir/us/qicore/StructureDefinition/qicore-patient"]},"text":{"status":"generated","div":"<div xmlns=\"http://www.w3.org/1999/xhtml\"><div class=\"hapiHeaderText\">CMP_DayOf_RelvDat_1minAftEDEnd_EDEndLT1hrB4Obs_ObsEndLT1hrB4IP <b>DENEXPASS </b></div><table class=\"hapiPropertyTable\"><tbody><tr><td>Date of birth</td><td><span>01 January 1980</span></td></tr></tbody></table></div>"},"extension":[{"url":"http://hl7.org/fhir/us/core/StructureDefinition/us-core-race","extension":[{"url":"ombCategory","valueCoding":{"system":"urn:oid:2.16.840.1.113883.6.238","code":"2054-5","display":"Black or African American","userSelected":true}},{"url":"text","valueString":"Black or African American"}]},{"url":"http://hl7.org/fhir/us/core/StructureDefinition/us-core-ethnicity","extension":[{"url":"ombCategory","valueCoding":{"system":"urn:oid:2.16.840.1.113883.6.238","code":"2186-5","display":"Not Hispanic or Latino","userSelected":true}},{"url":"text","valueString":"Not Hispanic or Latino"}]}],"identifier":[{"type":{"coding":[{"system":"http://terminology.hl7.org/CodeSystem/v2-0203","code":"MR"}]},"system":"https://bonnie-fhir.healthit.gov/","value":"60f82c3098086b570510e2d7"}],"active":true,"name":[{"use":"usual","family":"DENEXPass","given":["CMP_DayOf_RelvDat_1minAftEDEnd_EDEndLT1hrB4Obs_ObsEndLT1hrB4IP"]}],"gender":"female","birthDate":"1981-01-01"},"request":{"method":"PUT","url":"Patient/f53d8150-0e5a-43b1-be8e-7a356f74f045"}},{"fullUrl":"https://madie.cms.gov/Encounter/e80b01d8-0169-4547-94cc-8b0e381a898e","resource":{"resourceType":"Encounter","id":"e80b01d8-0169-4547-94cc-8b0e381a898e","meta":{"profile":["http://hl7.org/fhir/us/qicore/StructureDefinition/qicore-encounter"]},"status":"finished","class":{"system":"http://terminology.hl7.org/CodeSystem/v3-ActCode","code":"EMER","display":"emergency","userSelected":true},"type":[{"coding":[{"system":"http://snomed.info/sct","code":"4525004"}]}],"subject":{"reference":"Patient/f53d8150-0e5a-43b1-be8e-7a356f74f045"},"period":{"start":"2026-11-18T07:00:00Z","end":"2026-11-18T08:01:00.000+00:00"},"diagnosis":[{"condition":{"reference":"Condition/71854a45-d73a-4570-86a1-6b8f658521e2"},"use":{"coding":[{"system":"http://terminology.hl7.org/CodeSystem/diagnosis-role","code":"billing","display":"Billing"}]},"rank":1}]},"request":{"method":"PUT","url":"Encounter/e80b01d8-0169-4547-94cc-8b0e381a898e"}},{"fullUrl":"https://madie.cms.gov/Encounter/ad7b167d-e757-4ee1-b477-afefcf88d823","resource":{"resourceType":"Encounter","id":"ad7b167d-e757-4ee1-b477-afefcf88d823","meta":{"profile":["http://hl7.org/fhir/us/qicore/StructureDefinition/qicore-encounter"]},"status":"finished","class":{"system":"http://terminology.hl7.org/CodeSystem/v3-ActCode","code":"OBSENC","display":"observation encounter","userSelected":true},"type":[{"coding":[{"system":"http://snomed.info/sct","code":"448951000124107"}]}],"subject":{"reference":"Patient/f53d8150-0e5a-43b1-be8e-7a356f74f045"},"period":{"start":"2026-11-18T09:00:00Z","end":"2026-11-18T10:01:00.000+00:00"}},"request":{"method":"PUT","url":"Encounter/ad7b167d-e757-4ee1-b477-afefcf88d823"}},{"fullUrl":"https://madie.cms.gov/Encounter/6d7ce9c5-6313-4592-a2fd-a4545fe3706c","resource":{"resourceType":"Encounter","id":"6d7ce9c5-6313-4592-a2fd-a4545fe3706c","meta":{"profile":["http://hl7.org/fhir/us/qicore/StructureDefinition/qicore-encounter"]},"status":"finished","class":{"system":"http://terminology.hl7.org/CodeSystem/v3-ActCode","code":"IMP","display":"inpatient encounter","userSelected":true},"type":[{"coding":[{"system":"http://snomed.info/sct","code":"183452005"}]}],"subject":{"reference":"Patient/f53d8150-0e5a-43b1-be8e-7a356f74f045"},"period":{"start":"2026-11-18T11:00:00Z","end":"2026-11-20T08:15:00.000+00:00"},"reasonReference":[{"reference":"Condition/71854a45-d73a-4570-86a1-6b8f658521e2"}]},"request":{"method":"PUT","url":"Encounter/6d7ce9c5-6313-4592-a2fd-a4545fe3706c"}},{"fullUrl":"https://madie.cms.gov/claim/5ca62962b8484628b8de1ec5","resource":{"resourceType":"Claim","id":"5ca62962b8484628b8de1ec5","meta":{"profile":["http://hl7.org/fhir/us/qicore/StructureDefinition/qicore-claim"]},"status":"active","type":{"coding":[{"system":"http://terminology.hl7.org/CodeSystem/claim-type","code":"institutional"}]},"use":"claim","patient":{"reference":"Patient/f53d8150-0e5a-43b1-be8e-7a356f74f045"},"created":"2026-12-01","provider":{"reference":"Practitioner/practitioner-123456"},"priority":{"coding":[{"system":"http://terminology.hl7.org/CodeSystem/processpriority","code":"normal"}]},"diagnosis":[{"sequence":1,"diagnosisCodeableConcept":{"coding":[{"system":"http://hl7.org/fhir/sid/icd-10-cm","code":"I63.00"}]},"type":[{"coding":[{"system":"http://terminology.hl7.org/CodeSystem/ex-diagnosistype","code":"principal"}]}]}],"insurance":[{"sequence":1,"focal":true,"coverage":{"reference":"Coverage/08bbd8b5-aa37-431f-9f4e-e8b5a769acf9"}}],"item":[{"sequence":1,"diagnosisSequence":[1],"productOrService":{"coding":[{"system":"http://terminology.hl7.org/CodeSystem/ex-USCLS","code":"99555"}]},"encounter":[{"reference":"Encounter/6d7ce9c5-6313-4592-a2fd-a4545fe3706c"}]}]},"request":{"method":"PUT","url":"Claim/5ca62962b8484628b8de1ec5"}},{"fullUrl":"https://madie.cms.gov/Procedure/175f8243-e56c-44ab-903c-950db8c9c922","resource":{"resourceType":"Procedure","id":"175f8243-e56c-44ab-903c-950db8c9c922","meta":{"profile":["http://hl7.org/fhir/us/qicore/StructureDefinition/qicore-procedure"]},"extension":[{"url":"http://hl7.org/fhir/us/qicore/StructureDefinition/qicore-recorded","valueDateTime":"2014-04-05T13:35:00Z"}],"status":"completed","code":{"coding":[{"system":"http://snomed.info/sct","code":"133918004"}]},"subject":{"reference":"Patient/f53d8150-0e5a-43b1-be8e-7a356f74f045"},"performedPeriod":{"start":"2026-11-18T11:00:00Z","end":"2026-11-20T08:15:00.000+00:00"}},"request":{"method":"PUT","url":"Procedure/175f8243-e56c-44ab-903c-950db8c9c922"}},{"fullUrl":"https://madie.cms.gov/Condition/71854a45-d73a-4570-86a1-6b8f658521e2","resource":{"resourceType":"Condition","id":"71854a45-d73a-4570-86a1-6b8f658521e2","meta":{"profile":["http://hl7.org/fhir/us/qicore/StructureDefinition/qicore-condition"]},"clinicalStatus":{"coding":[{"system":"http://terminology.hl7.org/CodeSystem/condition-clinical","code":"active"}]},"verificationStatus":{"coding":[{"system":"http://terminology.hl7.org/CodeSystem/condition-ver-status","code":"confirmed"}]},"category":[{"coding":[{"system":"http://terminology.hl7.org/CodeSystem/condition-category","code":"encounter-diagnosis","display":"Encounter Diagnosis"}]}],"code":{"coding":[{"system":"http://snomed.info/sct","version":"2020-09","code":"111297002","display":"Nonparalytic stroke (disorder)","userSelected":true}]},"subject":{"reference":"Patient/f53d8150-0e5a-43b1-be8e-7a356f74f045"},"recordedDate":"2026-08-13T08:00:00Z"},"request":{"method":"PUT","url":"Condition/71854a45-d73a-4570-86a1-6b8f658521e2"}},{"fullUrl":"https://madie.cms.gov/Coverage/08bbd8b5-aa37-431f-9f4e-e8b5a769acf9","resource":{"resourceType":"Coverage","id":"08bbd8b5-aa37-431f-9f4e-e8b5a769acf9","meta":{"profile":["http://hl7.org/fhir/us/qicore/StructureDefinition/qicore-coverage"]},"status":"active","beneficiary":{"reference":"Patient/f53d8150-0e5a-43b1-be8e-7a356f74f045"},"payor":[{"reference":"Organization/531bd5b8-4bd6-4263-a79f-fe9b9849f9c6"}]},"request":{"method":"PUT","url":"Coverage/08bbd8b5-aa37-431f-9f4e-e8b5a769acf9"}},{"fullUrl":"https://madie.cms.gov/Organization/531bd5b8-4bd6-4263-a79f-fe9b9849f9c6","resource":{"resourceType":"Organization","id":"531bd5b8-4bd6-4263-a79f-fe9b9849f9c6","meta":{"profile":["http://hl7.org/fhir/us/qicore/StructureDefinition/qicore-organization"]},"identifier":[{"use":"temp","system":"urn:oid:2.16.840.1.113883.4.4","value":"21-3259825"}],"active":true,"type":[{"coding":[{"system":"http://terminology.hl7.org/CodeSystem/organization-type","code":"pay","display":"Payer"}]}],"name":"Blue Cross Blue Shield of Texas","telecom":[{"system":"phone","value":"(+1) 972-766-6900"}],"address":[{"use":"billing","type":"postal","line":["P.O. Box 660044"],"city":"Dallas","state":"TX","postalCode":"75266-0044","country":"USA"}]},"request":{"method":"PUT","url":"Organization/531bd5b8-4bd6-4263-a79f-fe9b9849f9c6"}},{"fullUrl":"https://madie.cms.gov/MeasureReport/222205c9-465a-4e57-863a-a51c1725a41e","resource":{"resourceType":"MeasureReport","id":"222205c9-465a-4e57-863a-a51c1725a41e","meta":{"profile":["http://hl7.org/fhir/us/cqfmeasures/StructureDefinition/test-case-cqfm"]},"contained":[{"resourceType":"Parameters","id":"df5a323c-e87b-4467-ab2d-cf4d627c0312-parameters","parameter":[{"name":"subject","valueString":"f53d8150-0e5a-43b1-be8e-7a356f74f045"}]}],"extension":[{"url":"http://hl7.org/fhir/StructureDefinition/cqf-inputParameters","valueReference":{"reference":"#df5a323c-e87b-4467-ab2d-cf4d627c0312-parameters"}},{"url":"http://hl7.org/fhir/us/cqfmeasures/StructureDefinition/cqfm-testCaseDescription","valueMarkdown":"Patient receives comfort measures performed on the day of hospital arrival, 1 min after ED end. ED ends less than 1 hour before Obs Start, Obs ends less than 1 hour before IP start.\n"}],"modifierExtension":[{"url":"http://hl7.org/fhir/us/cqfmeasures/StructureDefinition/cqfm-isTestCase","valueBoolean":true}],"status":"complete","type":"individual","measure":"https://madie.cms.gov/Measure/CMS72FHIRSTKAntithromboticDay2","period":{"start":"2026-01-01","end":"2026-12-31"},"group":[{"id":"Group_1","population":[{"id":"InitialPopulation_1","code":{"coding":[{"system":"http://terminology.hl7.org/CodeSystem/measure-population","code":"initial-population","display":"Initial Population"}]},"count":1},{"id":"Denominator_1","code":{"coding":[{"system":"http://terminology.hl7.org/CodeSystem/measure-population","code":"denominator","display":"Denominator"}]},"count":1},{"id":"DenominatorExclusion_1","code":{"coding":[{"system":"http://terminology.hl7.org/CodeSystem/measure-population","code":"denominator-exclusion","display":"Denominator Exclusion"}]},"count":1},{"id":"Numerator_1","code":{"coding":[{"system":"http://terminology.hl7.org/CodeSystem/measure-population","code":"numerator","display":"Numerator"}]},"count":0},{"id":"DenominatorException_1","code":{"coding":[{"system":"http://terminology.hl7.org/CodeSystem/measure-population","code":"denominator-exception","display":"Denominator Exception"}]},"count":0}],"measureScore":{"value":0.0}}],"evaluatedResource":[{"reference":"Patient/f53d8150-0e5a-43b1-be8e-7a356f74f045"},{"reference":"Encounter/e80b01d8-0169-4547-94cc-8b0e381a898e"},{"reference":"Encounter/ad7b167d-e757-4ee1-b477-afefcf88d823"},{"reference":"Encounter/6d7ce9c5-6313-4592-a2fd-a4545fe3706c"},{"reference":"Claim/5ca62962b8484628b8de1ec5"},{"reference":"Procedure/175f8243-e56c-44ab-903c-950db8c9c922"},{"reference":"Condition/71854a45-d73a-4570-86a1-6b8f658521e2"},{"reference":"Coverage/08bbd8b5-aa37-431f-9f4e-e8b5a769acf9"},{"reference":"Organization/531bd5b8-4bd6-4263-a79f-fe9b9849f9c6"}]},"request":{"method":"PUT","url":"MeasureReport/222205c9-465a-4e57-863a-a51c1725a41e"}}]},"request":{"method":"PUT","url":"Bundle/60f82c3098086b570510e2d7"}},{"fullUrl":"Encounter/e80b01d8-0169-4547-94cc-8b0e381a898e","resource":{"resourceType":"Encounter","id":"e80b01d8-0169-4547-94cc-8b0e381a898e","meta":{"profile":["http://hl7.org/fhir/us/qicore/StructureDefinition/qicore-encounter"]},"status":"finished","class":{"system":"http://terminology.hl7.org/CodeSystem/v3-ActCode","code":"EMER","display":"emergency","userSelected":true},"type":[{"coding":[{"system":"http://snomed.info/sct","code":"4525004"}]}],"subject":{"reference":"Patient/f53d8150-0e5a-43b1-be8e-7a356f74f045"},"period":{"start":"2026-11-18T07:00:00Z","end":"2026-11-18T08:01:00.000+00:00"},"diagnosis":[{"condition":{"reference":"Condition/71854a45-d73a-4570-86a1-6b8f658521e2"},"use":{"coding":[{"system":"http://terminology.hl7.org/CodeSystem/diagnosis-role","code":"billing","display":"Billing"}]},"rank":1}]},"request":{"method":"PUT","url":"Encounter/e80b01d8-0169-4547-94cc-8b0e381a898e"}},{"fullUrl":"Organization/531bd5b8-4bd6-4263-a79f-fe9b9849f9c6","resource":{"resourceType":"Organization","id":"531bd5b8-4bd6-4263-a79f-fe9b9849f9c6","meta":{"profile":["http://hl7.org/fhir/us/qicore/StructureDefinition/qicore-organization"]},"identifier":[{"use":"temp","system":"urn:oid:2.16.840.1.113883.4.4","value":"21-3259825"}],"active":true,"type":[{"coding":[{"system":"http://terminology.hl7.org/CodeSystem/organization-type","code":"pay","display":"Payer"}]}],"name":"Blue Cross Blue Shield of Texas","telecom":[{"system":"phone","value":"(+1) 972-766-6900"}],"address":[{"use":"billing","type":"postal","line":["P.O. Box 660044"],"city":"Dallas","state":"TX","postalCode":"75266-0044","country":"USA"}]},"request":{"method":"PUT","url":"Organization/531bd5b8-4bd6-4263-a79f-fe9b9849f9c6"}},{"fullUrl":"Coverage/08bbd8b5-aa37-431f-9f4e-e8b5a769acf9","resource":{"resourceType":"Coverage","id":"08bbd8b5-aa37-431f-9f4e-e8b5a769acf9","meta":{"profile":["http://hl7.org/fhir/us/qicore/StructureDefinition/qicore-coverage"]},"status":"active","beneficiary":{"reference":"Patient/f53d8150-0e5a-43b1-be8e-7a356f74f045"},"payor":[{"reference":"Organization/531bd5b8-4bd6-4263-a79f-fe9b9849f9c6"}]},"request":{"method":"PUT","url":"Coverage/08bbd8b5-aa37-431f-9f4e-e8b5a769acf9"}},{"fullUrl":"Claim/5ca62962b8484628b8de1ec5","resource":{"resourceType":"Claim","id":"5ca62962b8484628b8de1ec5","meta":{"profile":["http://hl7.org/fhir/us/qicore/StructureDefinition/qicore-claim"]},"status":"active","type":{"coding":[{"system":"http://terminology.hl7.org/CodeSystem/claim-type","code":"institutional"}]},"use":"claim","patient":{"reference":"Patient/f53d8150-0e5a-43b1-be8e-7a356f74f045"},"created":"2026-12-01","provider":{"reference":"Practitioner/practitioner-123456"},"priority":{"coding":[{"system":"http://terminology.hl7.org/CodeSystem/processpriority","code":"normal"}]},"diagnosis":[{"sequence":1,"diagnosisCodeableConcept":{"coding":[{"system":"http://hl7.org/fhir/sid/icd-10-cm","code":"I63.00"}]},"type":[{"coding":[{"system":"http://terminology.hl7.org/CodeSystem/ex-diagnosistype","code":"principal"}]}]}],"insurance":[{"sequence":1,"focal":true,"coverage":{"reference":"Coverage/08bbd8b5-aa37-431f-9f4e-e8b5a769acf9"}}],"item":[{"sequence":1,"diagnosisSequence":[1],"productOrService":{"coding":[{"system":"http://terminology.hl7.org/CodeSystem/ex-USCLS","code":"99555"}]},"encounter":[{"reference":"Encounter/6d7ce9c5-6313-4592-a2fd-a4545fe3706c"}]}]},"request":{"method":"PUT","url":"Claim/5ca62962b8484628b8de1ec5"}}]}