{"resourceType":"Bundle","id":"tests-d0a59b97-c3ab-4028-9109-a31359a93c47-bundle","type":"transaction","entry":[{"fullUrl":"Patient/d0a59b97-c3ab-4028-9109-a31359a93c47","resource":{"resourceType":"Patient","id":"d0a59b97-c3ab-4028-9109-a31359a93c47","meta":{"profile":["http://hl7.org/fhir/us/qicore/StructureDefinition/qicore-patient"]},"text":{"status":"generated","div":"<div xmlns=\"http://www.w3.org/1999/xhtml\"><div class=\"hapiHeaderText\">MedAntithromboticStart_eq0dayB4EdStart <b>NUMERPASS </b></div><table class=\"hapiPropertyTable\"><tbody><tr><td>Identifier</td><td>9d6a651043dc0df124664bf2c17e439c</td></tr><tr><td>Date of birth</td><td><span>26 September 1975</span></td></tr></tbody></table></div>"},"extension":[{"url":"http://hl7.org/fhir/us/core/StructureDefinition/us-core-race","extension":[{"url":"ombCategory","valueCoding":{"system":"urn:oid:2.16.840.1.113883.6.238","code":"2054-5","display":"Black or African American","userSelected":true}},{"url":"text","valueString":"Black or African American"}]},{"url":"http://hl7.org/fhir/us/core/StructureDefinition/us-core-ethnicity","extension":[{"url":"ombCategory","valueCoding":{"system":"urn:oid:2.16.840.1.113883.6.238","code":"2186-5","display":"Not Hispanic or Latino","userSelected":true}},{"url":"text","valueString":"Not Hispanic or Latino"}]}],"identifier":[{"type":{"coding":[{"system":"http://terminology.hl7.org/CodeSystem/v2-0203","code":"MR"}]},"system":"https://bonnie-fhir.healthit.gov/","value":"60f82c2e98086b570510e290"}],"active":true,"name":[{"use":"usual","family":"NUMERPass","given":["MedAntithromboticStart_eq0dayB4EdStart"]}],"gender":"female","birthDate":"1976-09-26"},"request":{"method":"PUT","url":"Patient/d0a59b97-c3ab-4028-9109-a31359a93c47"}},{"fullUrl":"MeasureReport/8b97eb71-06a6-4561-ae2b-5de01f094337","resource":{"resourceType":"MeasureReport","id":"8b97eb71-06a6-4561-ae2b-5de01f094337","meta":{"profile":["http://hl7.org/fhir/us/cqfmeasures/StructureDefinition/test-case-cqfm"]},"contained":[{"resourceType":"Parameters","id":"b92edbd9-90d5-47cc-8157-ae3b17b41a5c-parameters","parameter":[{"name":"subject","valueString":"d0a59b97-c3ab-4028-9109-a31359a93c47"}]}],"extension":[{"url":"http://hl7.org/fhir/StructureDefinition/cqf-inputParameters","valueReference":{"reference":"#b92edbd9-90d5-47cc-8157-ae3b17b41a5c-parameters"}},{"url":"http://hl7.org/fhir/us/cqfmeasures/StructureDefinition/cqfm-testCaseDescription","valueMarkdown":"\"Patient receives antithrombotic before ED , (=0day)\nglobal.\"\"Hospitalization\"\" =(Ed+IP)\"\n"}],"modifierExtension":[{"url":"http://hl7.org/fhir/us/cqfmeasures/StructureDefinition/cqfm-isTestCase","valueBoolean":true}],"status":"complete","type":"individual","measure":"https://madie.cms.gov/Measure/CMS72FHIRSTKAntithromboticDay2","period":{"start":"2026-01-01","end":"2026-12-31"},"group":[{"id":"Group_1","population":[{"id":"InitialPopulation_1","code":{"coding":[{"system":"http://terminology.hl7.org/CodeSystem/measure-population","code":"initial-population","display":"Initial Population"}]},"count":1},{"id":"Denominator_1","code":{"coding":[{"system":"http://terminology.hl7.org/CodeSystem/measure-population","code":"denominator","display":"Denominator"}]},"count":1},{"id":"DenominatorExclusion_1","code":{"coding":[{"system":"http://terminology.hl7.org/CodeSystem/measure-population","code":"denominator-exclusion","display":"Denominator Exclusion"}]},"count":0},{"id":"Numerator_1","code":{"coding":[{"system":"http://terminology.hl7.org/CodeSystem/measure-population","code":"numerator","display":"Numerator"}]},"count":1},{"id":"DenominatorException_1","code":{"coding":[{"system":"http://terminology.hl7.org/CodeSystem/measure-population","code":"denominator-exception","display":"Denominator Exception"}]},"count":0}],"measureScore":{"value":0.0}}],"evaluatedResource":[{"reference":"Patient/d0a59b97-c3ab-4028-9109-a31359a93c47"},{"reference":"Encounter/206e9f40-8771-41a2-ab6f-06171d118869"},{"reference":"Encounter/9bd6930a-3d9c-4ad9-8e4d-79a2be4d83cb"},{"reference":"Claim/5ca62962b8484628b8de1ec5"},{"reference":"MedicationAdministration/861cacc0-2d0f-40a2-839d-2d6dd59bbc7f"},{"reference":"Coverage/5baef0a7-9db7-4c8d-8229-5ab17f1fe868"},{"reference":"Condition/d93c7ce3-f7f1-4988-9569-11899b5e7668"},{"reference":"Organization/97ff6030-5871-43b2-b736-71c4b42b1a43"},{"reference":"Practitioner/09cbea32-6cb4-469c-b5fa-0669ebf35595"}]},"request":{"method":"PUT","url":"MeasureReport/8b97eb71-06a6-4561-ae2b-5de01f094337"}},{"fullUrl":"Organization/97ff6030-5871-43b2-b736-71c4b42b1a43","resource":{"resourceType":"Organization","id":"97ff6030-5871-43b2-b736-71c4b42b1a43","meta":{"profile":["http://hl7.org/fhir/us/qicore/StructureDefinition/qicore-organization"]},"identifier":[{"use":"temp","system":"urn:oid:2.16.840.1.113883.4.4","value":"21-3259825"}],"active":true,"type":[{"coding":[{"system":"http://terminology.hl7.org/CodeSystem/organization-type","code":"pay","display":"Payer"}]}],"name":"Blue Cross Blue Shield of Texas","telecom":[{"system":"phone","value":"(+1) 972-766-6900"}],"address":[{"use":"billing","type":"postal","line":["P.O. Box 660044"],"city":"Dallas","state":"TX","postalCode":"75266-0044","country":"USA"}]},"request":{"method":"PUT","url":"Organization/97ff6030-5871-43b2-b736-71c4b42b1a43"}},{"fullUrl":"Encounter/9bd6930a-3d9c-4ad9-8e4d-79a2be4d83cb","resource":{"resourceType":"Encounter","id":"9bd6930a-3d9c-4ad9-8e4d-79a2be4d83cb","meta":{"profile":["http://hl7.org/fhir/us/qicore/StructureDefinition/qicore-encounter"]},"status":"finished","class":{"system":"http://terminology.hl7.org/CodeSystem/v3-ActCode","code":"IMP","display":"inpatient encounter"},"type":[{"coding":[{"system":"http://snomed.info/sct","code":"32485007"}]}],"subject":{"reference":"Patient/d0a59b97-c3ab-4028-9109-a31359a93c47"},"period":{"start":"2026-10-10T09:00:00Z","end":"2026-10-12T11:30:00.000+00:00"},"length":{"value":2,"unit":"days"},"reasonReference":[{"reference":"Condition/d93c7ce3-f7f1-4988-9569-11899b5e7668"}]},"request":{"method":"PUT","url":"Encounter/9bd6930a-3d9c-4ad9-8e4d-79a2be4d83cb"}},{"fullUrl":"Condition/d93c7ce3-f7f1-4988-9569-11899b5e7668","resource":{"resourceType":"Condition","id":"d93c7ce3-f7f1-4988-9569-11899b5e7668","meta":{"profile":["http://hl7.org/fhir/us/qicore/StructureDefinition/qicore-condition-problems-health-concerns"]},"clinicalStatus":{"coding":[{"system":"http://terminology.hl7.org/CodeSystem/condition-clinical","code":"active"}]},"verificationStatus":{"coding":[{"system":"http://terminology.hl7.org/CodeSystem/condition-ver-status","code":"confirmed"}]},"category":[{"coding":[{"system":"http://terminology.hl7.org/CodeSystem/condition-category","code":"encounter-diagnosis","display":"Encounter Diagnosis"}]}],"code":{"coding":[{"system":"http://snomed.info/sct","version":"2020-09","code":"111297002","display":"Nonparalytic stroke (disorder)","userSelected":true}]},"subject":{"reference":"Patient/d0a59b97-c3ab-4028-9109-a31359a93c47"},"recordedDate":"2026-08-16T08:00:00Z"},"request":{"method":"PUT","url":"Condition/d93c7ce3-f7f1-4988-9569-11899b5e7668"}},{"fullUrl":"Practitioner/09cbea32-6cb4-469c-b5fa-0669ebf35595","resource":{"resourceType":"Practitioner","id":"09cbea32-6cb4-469c-b5fa-0669ebf35595","meta":{"profile":["http://hl7.org/fhir/us/qicore/StructureDefinition/qicore-practitioner"]},"identifier":[{"system":"http://hl7.org/fhir/sid/us-npi","value":"9999999896"}],"name":[{"family":"Evil","prefix":["Dr"]}]},"request":{"method":"PUT","url":"Practitioner/09cbea32-6cb4-469c-b5fa-0669ebf35595"}},{"fullUrl":"Encounter/206e9f40-8771-41a2-ab6f-06171d118869","resource":{"resourceType":"Encounter","id":"206e9f40-8771-41a2-ab6f-06171d118869","meta":{"profile":["http://hl7.org/fhir/us/qicore/StructureDefinition/qicore-encounter"]},"status":"finished","class":{"system":"http://terminology.hl7.org/CodeSystem/v3-ActCode","code":"EMER","display":"emergency"},"type":[{"coding":[{"system":"http://snomed.info/sct","code":"4525004"}]}],"subject":{"reference":"Patient/d0a59b97-c3ab-4028-9109-a31359a93c47"},"period":{"start":"2026-10-10T06:00:00Z","end":"2026-10-10T08:30:00.000+00:00"},"length":{"value":0,"unit":"days"}},"request":{"method":"PUT","url":"Encounter/206e9f40-8771-41a2-ab6f-06171d118869"}},{"fullUrl":"MedicationAdministration/861cacc0-2d0f-40a2-839d-2d6dd59bbc7f","resource":{"resourceType":"MedicationAdministration","id":"861cacc0-2d0f-40a2-839d-2d6dd59bbc7f","meta":{"profile":["http://hl7.org/fhir/us/qicore/StructureDefinition/qicore-medicationadministration"]},"status":"completed","medicationCodeableConcept":{"coding":[{"system":"http://www.nlm.nih.gov/research/umls/rxnorm","code":"1037045"}]},"subject":{"reference":"Patient/d0a59b97-c3ab-4028-9109-a31359a93c47"},"effectivePeriod":{"start":"2026-10-10T05:00:00Z","end":"2026-10-10T05:20:00.000+00:00"}},"request":{"method":"PUT","url":"MedicationAdministration/861cacc0-2d0f-40a2-839d-2d6dd59bbc7f"}},{"fullUrl":"Bundle/60f82c2e98086b570510e290","resource":{"resourceType":"Bundle","id":"60f82c2e98086b570510e290","type":"transaction","entry":[{"fullUrl":"https://madie.cms.gov/Patient/d0a59b97-c3ab-4028-9109-a31359a93c47","resource":{"resourceType":"Patient","id":"d0a59b97-c3ab-4028-9109-a31359a93c47","meta":{"profile":["http://hl7.org/fhir/us/qicore/StructureDefinition/qicore-patient"]},"text":{"status":"generated","div":"<div xmlns=\"http://www.w3.org/1999/xhtml\"><div class=\"hapiHeaderText\">MedAntithromboticStart_eq0dayB4EdStart <b>NUMERPASS </b></div><table class=\"hapiPropertyTable\"><tbody><tr><td>Identifier</td><td>9d6a651043dc0df124664bf2c17e439c</td></tr><tr><td>Date of birth</td><td><span>26 September 1975</span></td></tr></tbody></table></div>"},"extension":[{"url":"http://hl7.org/fhir/us/core/StructureDefinition/us-core-race","extension":[{"url":"ombCategory","valueCoding":{"system":"urn:oid:2.16.840.1.113883.6.238","code":"2054-5","display":"Black or African American","userSelected":true}},{"url":"text","valueString":"Black or African American"}]},{"url":"http://hl7.org/fhir/us/core/StructureDefinition/us-core-ethnicity","extension":[{"url":"ombCategory","valueCoding":{"system":"urn:oid:2.16.840.1.113883.6.238","code":"2186-5","display":"Not Hispanic or Latino","userSelected":true}},{"url":"text","valueString":"Not Hispanic or Latino"}]}],"identifier":[{"type":{"coding":[{"system":"http://terminology.hl7.org/CodeSystem/v2-0203","code":"MR"}]},"system":"https://bonnie-fhir.healthit.gov/","value":"60f82c2e98086b570510e290"}],"active":true,"name":[{"use":"usual","family":"NUMERPass","given":["MedAntithromboticStart_eq0dayB4EdStart"]}],"gender":"female","birthDate":"1976-09-26"},"request":{"method":"PUT","url":"Patient/d0a59b97-c3ab-4028-9109-a31359a93c47"}},{"fullUrl":"https://madie.cms.gov/Encounter/206e9f40-8771-41a2-ab6f-06171d118869","resource":{"resourceType":"Encounter","id":"206e9f40-8771-41a2-ab6f-06171d118869","meta":{"profile":["http://hl7.org/fhir/us/qicore/StructureDefinition/qicore-encounter"]},"status":"finished","class":{"system":"http://terminology.hl7.org/CodeSystem/v3-ActCode","code":"EMER","display":"emergency"},"type":[{"coding":[{"system":"http://snomed.info/sct","code":"4525004"}]}],"subject":{"reference":"Patient/d0a59b97-c3ab-4028-9109-a31359a93c47"},"period":{"start":"2026-10-10T06:00:00Z","end":"2026-10-10T08:30:00.000+00:00"},"length":{"value":0,"unit":"days"}},"request":{"method":"PUT","url":"Encounter/206e9f40-8771-41a2-ab6f-06171d118869"}},{"fullUrl":"https://madie.cms.gov/Encounter/9bd6930a-3d9c-4ad9-8e4d-79a2be4d83cb","resource":{"resourceType":"Encounter","id":"9bd6930a-3d9c-4ad9-8e4d-79a2be4d83cb","meta":{"profile":["http://hl7.org/fhir/us/qicore/StructureDefinition/qicore-encounter"]},"status":"finished","class":{"system":"http://terminology.hl7.org/CodeSystem/v3-ActCode","code":"IMP","display":"inpatient encounter"},"type":[{"coding":[{"system":"http://snomed.info/sct","code":"32485007"}]}],"subject":{"reference":"Patient/d0a59b97-c3ab-4028-9109-a31359a93c47"},"period":{"start":"2026-10-10T09:00:00Z","end":"2026-10-12T11:30:00.000+00:00"},"length":{"value":2,"unit":"days"},"reasonReference":[{"reference":"Condition/d93c7ce3-f7f1-4988-9569-11899b5e7668"}]},"request":{"method":"PUT","url":"Encounter/9bd6930a-3d9c-4ad9-8e4d-79a2be4d83cb"}},{"fullUrl":"https://madie.cms.gov/claim/5ca62962b8484628b8de1ec5","resource":{"resourceType":"Claim","id":"5ca62962b8484628b8de1ec5","meta":{"profile":["http://hl7.org/fhir/us/qicore/StructureDefinition/qicore-claim"]},"status":"active","type":{"coding":[{"system":"http://terminology.hl7.org/CodeSystem/claim-type","code":"institutional"}]},"use":"claim","patient":{"reference":"Patient/d170a0a8-b5ad-4303-b6df-e304dd5f92ad"},"created":"2026-12-01","provider":{"reference":"Practitioner/09cbea32-6cb4-469c-b5fa-0669ebf35595"},"priority":{"coding":[{"system":"http://terminology.hl7.org/CodeSystem/processpriority","code":"normal"}]},"diagnosis":[{"sequence":1,"diagnosisCodeableConcept":{"coding":[{"system":"http://hl7.org/fhir/sid/icd-10-cm","code":"I63.00"}]},"type":[{"coding":[{"system":"http://terminology.hl7.org/CodeSystem/ex-diagnosistype","code":"principal"}]}]}],"insurance":[{"sequence":1,"focal":true,"coverage":{"reference":"Coverage/5fa041661c76ba66d9959367"}}],"item":[{"sequence":1,"diagnosisSequence":[1],"productOrService":{"coding":[{"system":"http://terminology.hl7.org/CodeSystem/ex-USCLS","code":"99555"}]},"encounter":[{"reference":"Encounter/9bd6930a-3d9c-4ad9-8e4d-79a2be4d83cb"}]}]},"request":{"method":"PUT","url":"Claim/5ca62962b8484628b8de1ec5"}},{"fullUrl":"https://madie.cms.gov/MedicationAdministration/861cacc0-2d0f-40a2-839d-2d6dd59bbc7f","resource":{"resourceType":"MedicationAdministration","id":"861cacc0-2d0f-40a2-839d-2d6dd59bbc7f","meta":{"profile":["http://hl7.org/fhir/us/qicore/StructureDefinition/qicore-medicationadministration"]},"status":"completed","medicationCodeableConcept":{"coding":[{"system":"http://www.nlm.nih.gov/research/umls/rxnorm","code":"1037045"}]},"subject":{"reference":"Patient/d0a59b97-c3ab-4028-9109-a31359a93c47"},"effectivePeriod":{"start":"2026-10-10T05:00:00Z","end":"2026-10-10T05:20:00.000+00:00"}},"request":{"method":"PUT","url":"MedicationAdministration/861cacc0-2d0f-40a2-839d-2d6dd59bbc7f"}},{"fullUrl":"https://madie.cms.gov/Coverage/5baef0a7-9db7-4c8d-8229-5ab17f1fe868","resource":{"resourceType":"Coverage","id":"5baef0a7-9db7-4c8d-8229-5ab17f1fe868","status":"active","subscriberId":"523435","beneficiary":{"reference":"Patient/d0a59b97-c3ab-4028-9109-a31359a93c47"},"relationship":{"coding":[{"system":"http://terminology.hl7.org/CodeSystem/subscriber-relationship","code":"self"}]},"period":{"start":"1976-09-26T08:00:00Z"},"payor":[{"reference":"Organization/97ff6030-5871-43b2-b736-71c4b42b1a43"}]},"request":{"method":"PUT","url":"Coverage/5baef0a7-9db7-4c8d-8229-5ab17f1fe868"}},{"fullUrl":"https://madie.cms.gov/Condition/d93c7ce3-f7f1-4988-9569-11899b5e7668","resource":{"resourceType":"Condition","id":"d93c7ce3-f7f1-4988-9569-11899b5e7668","meta":{"profile":["http://hl7.org/fhir/us/qicore/StructureDefinition/qicore-condition-problems-health-concerns"]},"clinicalStatus":{"coding":[{"system":"http://terminology.hl7.org/CodeSystem/condition-clinical","code":"active"}]},"verificationStatus":{"coding":[{"system":"http://terminology.hl7.org/CodeSystem/condition-ver-status","code":"confirmed"}]},"category":[{"coding":[{"system":"http://terminology.hl7.org/CodeSystem/condition-category","code":"encounter-diagnosis","display":"Encounter Diagnosis"}]}],"code":{"coding":[{"system":"http://snomed.info/sct","version":"2020-09","code":"111297002","display":"Nonparalytic stroke (disorder)","userSelected":true}]},"subject":{"reference":"Patient/d0a59b97-c3ab-4028-9109-a31359a93c47"},"recordedDate":"2026-08-16T08:00:00Z"},"request":{"method":"PUT","url":"Condition/d93c7ce3-f7f1-4988-9569-11899b5e7668"}},{"fullUrl":"https://madie.cms.gov/Organization/97ff6030-5871-43b2-b736-71c4b42b1a43","resource":{"resourceType":"Organization","id":"97ff6030-5871-43b2-b736-71c4b42b1a43","meta":{"profile":["http://hl7.org/fhir/us/qicore/StructureDefinition/qicore-organization"]},"identifier":[{"use":"temp","system":"urn:oid:2.16.840.1.113883.4.4","value":"21-3259825"}],"active":true,"type":[{"coding":[{"system":"http://terminology.hl7.org/CodeSystem/organization-type","code":"pay","display":"Payer"}]}],"name":"Blue Cross Blue Shield of Texas","telecom":[{"system":"phone","value":"(+1) 972-766-6900"}],"address":[{"use":"billing","type":"postal","line":["P.O. Box 660044"],"city":"Dallas","state":"TX","postalCode":"75266-0044","country":"USA"}]},"request":{"method":"PUT","url":"Organization/97ff6030-5871-43b2-b736-71c4b42b1a43"}},{"fullUrl":"https://madie.cms.gov/Practitioner/09cbea32-6cb4-469c-b5fa-0669ebf35595","resource":{"resourceType":"Practitioner","id":"09cbea32-6cb4-469c-b5fa-0669ebf35595","meta":{"profile":["http://hl7.org/fhir/us/qicore/StructureDefinition/qicore-practitioner"]},"identifier":[{"system":"http://hl7.org/fhir/sid/us-npi","value":"9999999896"}],"name":[{"family":"Evil","prefix":["Dr"]}]},"request":{"method":"PUT","url":"Practitioner/09cbea32-6cb4-469c-b5fa-0669ebf35595"}},{"fullUrl":"https://madie.cms.gov/MeasureReport/8b97eb71-06a6-4561-ae2b-5de01f094337","resource":{"resourceType":"MeasureReport","id":"8b97eb71-06a6-4561-ae2b-5de01f094337","meta":{"profile":["http://hl7.org/fhir/us/cqfmeasures/StructureDefinition/test-case-cqfm"]},"contained":[{"resourceType":"Parameters","id":"b92edbd9-90d5-47cc-8157-ae3b17b41a5c-parameters","parameter":[{"name":"subject","valueString":"d0a59b97-c3ab-4028-9109-a31359a93c47"}]}],"extension":[{"url":"http://hl7.org/fhir/StructureDefinition/cqf-inputParameters","valueReference":{"reference":"#b92edbd9-90d5-47cc-8157-ae3b17b41a5c-parameters"}},{"url":"http://hl7.org/fhir/us/cqfmeasures/StructureDefinition/cqfm-testCaseDescription","valueMarkdown":"\"Patient receives antithrombotic before ED , (=0day)\nglobal.\"\"Hospitalization\"\" =(Ed+IP)\"\n"}],"modifierExtension":[{"url":"http://hl7.org/fhir/us/cqfmeasures/StructureDefinition/cqfm-isTestCase","valueBoolean":true}],"status":"complete","type":"individual","measure":"https://madie.cms.gov/Measure/CMS72FHIRSTKAntithromboticDay2","period":{"start":"2026-01-01","end":"2026-12-31"},"group":[{"id":"Group_1","population":[{"id":"InitialPopulation_1","code":{"coding":[{"system":"http://terminology.hl7.org/CodeSystem/measure-population","code":"initial-population","display":"Initial Population"}]},"count":1},{"id":"Denominator_1","code":{"coding":[{"system":"http://terminology.hl7.org/CodeSystem/measure-population","code":"denominator","display":"Denominator"}]},"count":1},{"id":"DenominatorExclusion_1","code":{"coding":[{"system":"http://terminology.hl7.org/CodeSystem/measure-population","code":"denominator-exclusion","display":"Denominator Exclusion"}]},"count":0},{"id":"Numerator_1","code":{"coding":[{"system":"http://terminology.hl7.org/CodeSystem/measure-population","code":"numerator","display":"Numerator"}]},"count":1},{"id":"DenominatorException_1","code":{"coding":[{"system":"http://terminology.hl7.org/CodeSystem/measure-population","code":"denominator-exception","display":"Denominator Exception"}]},"count":0}],"measureScore":{"value":0.0}}],"evaluatedResource":[{"reference":"Patient/d0a59b97-c3ab-4028-9109-a31359a93c47"},{"reference":"Encounter/206e9f40-8771-41a2-ab6f-06171d118869"},{"reference":"Encounter/9bd6930a-3d9c-4ad9-8e4d-79a2be4d83cb"},{"reference":"Claim/5ca62962b8484628b8de1ec5"},{"reference":"MedicationAdministration/861cacc0-2d0f-40a2-839d-2d6dd59bbc7f"},{"reference":"Coverage/5baef0a7-9db7-4c8d-8229-5ab17f1fe868"},{"reference":"Condition/d93c7ce3-f7f1-4988-9569-11899b5e7668"},{"reference":"Organization/97ff6030-5871-43b2-b736-71c4b42b1a43"},{"reference":"Practitioner/09cbea32-6cb4-469c-b5fa-0669ebf35595"}]},"request":{"method":"PUT","url":"MeasureReport/8b97eb71-06a6-4561-ae2b-5de01f094337"}}]},"request":{"method":"PUT","url":"Bundle/60f82c2e98086b570510e290"}},{"fullUrl":"Coverage/5baef0a7-9db7-4c8d-8229-5ab17f1fe868","resource":{"resourceType":"Coverage","id":"5baef0a7-9db7-4c8d-8229-5ab17f1fe868","status":"active","subscriberId":"523435","beneficiary":{"reference":"Patient/d0a59b97-c3ab-4028-9109-a31359a93c47"},"relationship":{"coding":[{"system":"http://terminology.hl7.org/CodeSystem/subscriber-relationship","code":"self"}]},"period":{"start":"1976-09-26T08:00:00Z"},"payor":[{"reference":"Organization/97ff6030-5871-43b2-b736-71c4b42b1a43"}]},"request":{"method":"PUT","url":"Coverage/5baef0a7-9db7-4c8d-8229-5ab17f1fe868"}},{"fullUrl":"Claim/5ca62962b8484628b8de1ec5","resource":{"resourceType":"Claim","id":"5ca62962b8484628b8de1ec5","meta":{"profile":["http://hl7.org/fhir/us/qicore/StructureDefinition/qicore-claim"]},"status":"active","type":{"coding":[{"system":"http://terminology.hl7.org/CodeSystem/claim-type","code":"institutional"}]},"use":"claim","patient":{"reference":"Patient/d170a0a8-b5ad-4303-b6df-e304dd5f92ad"},"created":"2026-12-01","provider":{"reference":"Practitioner/09cbea32-6cb4-469c-b5fa-0669ebf35595"},"priority":{"coding":[{"system":"http://terminology.hl7.org/CodeSystem/processpriority","code":"normal"}]},"diagnosis":[{"sequence":1,"diagnosisCodeableConcept":{"coding":[{"system":"http://hl7.org/fhir/sid/icd-10-cm","code":"I63.00"}]},"type":[{"coding":[{"system":"http://terminology.hl7.org/CodeSystem/ex-diagnosistype","code":"principal"}]}]}],"insurance":[{"sequence":1,"focal":true,"coverage":{"reference":"Coverage/5fa041661c76ba66d9959367"}}],"item":[{"sequence":1,"diagnosisSequence":[1],"productOrService":{"coding":[{"system":"http://terminology.hl7.org/CodeSystem/ex-USCLS","code":"99555"}]},"encounter":[{"reference":"Encounter/9bd6930a-3d9c-4ad9-8e4d-79a2be4d83cb"}]}]},"request":{"method":"PUT","url":"Claim/5ca62962b8484628b8de1ec5"}}]}