{"resourceType":"Bundle","id":"tests-29e634bc-c361-4e6b-a44e-444abb79b2de-bundle","type":"transaction","entry":[{"fullUrl":"MeasureReport/779a0697-cb1b-43c8-a0ea-d179d0d0f952","resource":{"resourceType":"MeasureReport","id":"779a0697-cb1b-43c8-a0ea-d179d0d0f952","meta":{"profile":["http://hl7.org/fhir/us/cqfmeasures/StructureDefinition/test-case-cqfm"]},"contained":[{"resourceType":"Parameters","id":"06f3b963-32a7-40c8-80ab-dee991868fb9-parameters","parameter":[{"name":"subject","valueString":"29e634bc-c361-4e6b-a44e-444abb79b2de"}]}],"extension":[{"url":"http://hl7.org/fhir/StructureDefinition/cqf-inputParameters","valueReference":{"reference":"#06f3b963-32a7-40c8-80ab-dee991868fb9-parameters"}},{"url":"http://hl7.org/fhir/us/cqfmeasures/StructureDefinition/cqfm-testCaseDescription","valueMarkdown":"\"LOS<2 days, Patient has ED end to Enc IP > 1 hour \nglobal.Hospitalization ( IP only)\"\n"}],"modifierExtension":[{"url":"http://hl7.org/fhir/us/cqfmeasures/StructureDefinition/cqfm-isTestCase","valueBoolean":true}],"status":"complete","type":"individual","measure":"https://madie.cms.gov/Measure/CMS72FHIRSTKAntithromboticDay2","period":{"start":"2026-01-01","end":"2026-12-31"},"group":[{"id":"Group_1","population":[{"id":"InitialPopulation_1","code":{"coding":[{"system":"http://terminology.hl7.org/CodeSystem/measure-population","code":"initial-population","display":"Initial Population"}]},"count":1},{"id":"Denominator_1","code":{"coding":[{"system":"http://terminology.hl7.org/CodeSystem/measure-population","code":"denominator","display":"Denominator"}]},"count":1},{"id":"DenominatorExclusion_1","code":{"coding":[{"system":"http://terminology.hl7.org/CodeSystem/measure-population","code":"denominator-exclusion","display":"Denominator Exclusion"}]},"count":1},{"id":"Numerator_1","code":{"coding":[{"system":"http://terminology.hl7.org/CodeSystem/measure-population","code":"numerator","display":"Numerator"}]},"count":0},{"id":"DenominatorException_1","code":{"coding":[{"system":"http://terminology.hl7.org/CodeSystem/measure-population","code":"denominator-exception","display":"Denominator Exception"}]},"count":0}],"measureScore":{"value":0.0}}],"evaluatedResource":[{"reference":"Patient/29e634bc-c361-4e6b-a44e-444abb79b2de"},{"reference":"Encounter/c81df81f-3001-471f-b0b4-9d09e77c4d16"},{"reference":"Encounter/75585d25-a033-49e5-b0dd-44aa71d1ff9d"},{"reference":"MedicationAdministration/7c30c9e8-2a0a-4656-b4eb-002e09be2f88"},{"reference":"Coverage/1bad415d-ab67-4ff5-a70a-611f9ab165bd"},{"reference":"Condition/e580c8e8-51c9-4745-b7e4-260c5fa5dd60"},{"reference":"Claim/5ca62962b8484628b8de1ec5"},{"reference":"Organization/47bdf24a-1560-461b-aca6-f6d7ad19d810"}]},"request":{"method":"PUT","url":"MeasureReport/779a0697-cb1b-43c8-a0ea-d179d0d0f952"}},{"fullUrl":"MedicationAdministration/7c30c9e8-2a0a-4656-b4eb-002e09be2f88","resource":{"resourceType":"MedicationAdministration","id":"7c30c9e8-2a0a-4656-b4eb-002e09be2f88","meta":{"profile":["http://hl7.org/fhir/us/qicore/StructureDefinition/qicore-medicationadministration"]},"status":"completed","medicationCodeableConcept":{"coding":[{"system":"http://www.nlm.nih.gov/research/umls/rxnorm","code":"198466"}]},"subject":{"reference":"Patient/29e634bc-c361-4e6b-a44e-444abb79b2de"},"effectivePeriod":{"start":"2026-10-10T06:00:00Z","end":"2026-10-10T07:15:00.000+00:00"}},"request":{"method":"PUT","url":"MedicationAdministration/7c30c9e8-2a0a-4656-b4eb-002e09be2f88"}},{"fullUrl":"Condition/e580c8e8-51c9-4745-b7e4-260c5fa5dd60","resource":{"resourceType":"Condition","id":"e580c8e8-51c9-4745-b7e4-260c5fa5dd60","meta":{"profile":["http://hl7.org/fhir/us/qicore/StructureDefinition/qicore-condition-encounter-diagnosis"]},"clinicalStatus":{"coding":[{"system":"http://terminology.hl7.org/CodeSystem/condition-clinical","code":"active"}]},"verificationStatus":{"coding":[{"system":"http://terminology.hl7.org/CodeSystem/condition-ver-status","code":"confirmed"}]},"category":[{"coding":[{"system":"http://terminology.hl7.org/CodeSystem/condition-category","code":"encounter-diagnosis","display":"Encounter Diagnosis"}]}],"code":{"coding":[{"system":"http://snomed.info/sct","version":"2020-09","code":"111297002","display":"Nonparalytic stroke (disorder)","userSelected":true}]},"subject":{"reference":"Patient/29e634bc-c361-4e6b-a44e-444abb79b2de"},"encounter":{"reference":"Encounter/75585d25-a033-49e5-b0dd-44aa71d1ff9d"},"recordedDate":"2026-08-13T08:00:00Z"},"request":{"method":"PUT","url":"Condition/e580c8e8-51c9-4745-b7e4-260c5fa5dd60"}},{"fullUrl":"Patient/29e634bc-c361-4e6b-a44e-444abb79b2de","resource":{"resourceType":"Patient","id":"29e634bc-c361-4e6b-a44e-444abb79b2de","meta":{"profile":["http://hl7.org/fhir/us/qicore/StructureDefinition/qicore-patient"]},"text":{"status":"generated","div":"<div xmlns=\"http://www.w3.org/1999/xhtml\"><div class=\"hapiHeaderText\">LOS&lt;2Days_ED_gt1hr_2 <b>DENEXPASS </b></div><table class=\"hapiPropertyTable\"><tbody><tr><td>Identifier</td><td>71a24a00126a8944cc0e0ccb3825c293</td></tr><tr><td>Date of birth</td><td><span>26 September 1975</span></td></tr></tbody></table></div>"},"extension":[{"url":"http://hl7.org/fhir/us/core/StructureDefinition/us-core-race","extension":[{"url":"ombCategory","valueCoding":{"system":"urn:oid:2.16.840.1.113883.6.238","code":"2054-5","display":"Black or African American","userSelected":true}},{"url":"text","valueString":"Black or African American"}]},{"url":"http://hl7.org/fhir/us/core/StructureDefinition/us-core-ethnicity","extension":[{"url":"ombCategory","valueCoding":{"system":"urn:oid:2.16.840.1.113883.6.238","code":"2186-5","display":"Not Hispanic or Latino","userSelected":true}},{"url":"text","valueString":"Not Hispanic or Latino"}]}],"identifier":[{"type":{"coding":[{"system":"http://terminology.hl7.org/CodeSystem/v2-0203","code":"MR"}]},"system":"https://bonnie-fhir.healthit.gov/","value":"60f82c2e98086b570510e27a"}],"active":true,"name":[{"use":"usual","family":"DENEXPass","given":["LOS<2DaysEDgt1hr2"]}],"gender":"female","birthDate":"1976-09-26"},"request":{"method":"PUT","url":"Patient/29e634bc-c361-4e6b-a44e-444abb79b2de"}},{"fullUrl":"Coverage/1bad415d-ab67-4ff5-a70a-611f9ab165bd","resource":{"resourceType":"Coverage","id":"1bad415d-ab67-4ff5-a70a-611f9ab165bd","status":"active","beneficiary":{"reference":"Patient/29e634bc-c361-4e6b-a44e-444abb79b2de"},"period":{"start":"1976-09-26T08:00:00Z"},"payor":[{"reference":"Organization/47bdf24a-1560-461b-aca6-f6d7ad19d810"}]},"request":{"method":"PUT","url":"Coverage/1bad415d-ab67-4ff5-a70a-611f9ab165bd"}},{"fullUrl":"Bundle/60f82c2e98086b570510e27a","resource":{"resourceType":"Bundle","id":"60f82c2e98086b570510e27a","type":"transaction","entry":[{"fullUrl":"https://madie.cms.gov/Patient/29e634bc-c361-4e6b-a44e-444abb79b2de","resource":{"resourceType":"Patient","id":"29e634bc-c361-4e6b-a44e-444abb79b2de","meta":{"profile":["http://hl7.org/fhir/us/qicore/StructureDefinition/qicore-patient"]},"text":{"status":"generated","div":"<div xmlns=\"http://www.w3.org/1999/xhtml\"><div class=\"hapiHeaderText\">LOS&lt;2Days_ED_gt1hr_2 <b>DENEXPASS </b></div><table class=\"hapiPropertyTable\"><tbody><tr><td>Identifier</td><td>71a24a00126a8944cc0e0ccb3825c293</td></tr><tr><td>Date of birth</td><td><span>26 September 1975</span></td></tr></tbody></table></div>"},"extension":[{"url":"http://hl7.org/fhir/us/core/StructureDefinition/us-core-race","extension":[{"url":"ombCategory","valueCoding":{"system":"urn:oid:2.16.840.1.113883.6.238","code":"2054-5","display":"Black or African American","userSelected":true}},{"url":"text","valueString":"Black or African American"}]},{"url":"http://hl7.org/fhir/us/core/StructureDefinition/us-core-ethnicity","extension":[{"url":"ombCategory","valueCoding":{"system":"urn:oid:2.16.840.1.113883.6.238","code":"2186-5","display":"Not Hispanic or Latino","userSelected":true}},{"url":"text","valueString":"Not Hispanic or Latino"}]}],"identifier":[{"type":{"coding":[{"system":"http://terminology.hl7.org/CodeSystem/v2-0203","code":"MR"}]},"system":"https://bonnie-fhir.healthit.gov/","value":"60f82c2e98086b570510e27a"}],"active":true,"name":[{"use":"usual","family":"DENEXPass","given":["LOS<2DaysEDgt1hr2"]}],"gender":"female","birthDate":"1976-09-26"},"request":{"method":"PUT","url":"Patient/29e634bc-c361-4e6b-a44e-444abb79b2de"}},{"fullUrl":"https://madie.cms.gov/Encounter/c81df81f-3001-471f-b0b4-9d09e77c4d16","resource":{"resourceType":"Encounter","id":"c81df81f-3001-471f-b0b4-9d09e77c4d16","meta":{"profile":["http://hl7.org/fhir/us/qicore/StructureDefinition/qicore-encounter"]},"status":"finished","class":{"system":"http://terminology.hl7.org/CodeSystem/v3-ActCode","code":"EMER","display":"emergency"},"type":[{"coding":[{"system":"http://snomed.info/sct","code":"4525004"}]}],"subject":{"reference":"Patient/29e634bc-c361-4e6b-a44e-444abb79b2de"},"period":{"start":"2026-10-09T06:00:00Z","end":"2026-10-10T07:15:00.000+00:00"},"length":{"value":1,"unit":"days"}},"request":{"method":"PUT","url":"Encounter/c81df81f-3001-471f-b0b4-9d09e77c4d16"}},{"fullUrl":"https://madie.cms.gov/Encounter/75585d25-a033-49e5-b0dd-44aa71d1ff9d","resource":{"resourceType":"Encounter","id":"75585d25-a033-49e5-b0dd-44aa71d1ff9d","meta":{"profile":["http://hl7.org/fhir/us/qicore/StructureDefinition/qicore-encounter"]},"status":"finished","class":{"system":"http://terminology.hl7.org/CodeSystem/v3-ActCode","code":"IMP","display":"inpatient encounter"},"type":[{"coding":[{"system":"http://snomed.info/sct","code":"32485007"}]}],"subject":{"reference":"Patient/29e634bc-c361-4e6b-a44e-444abb79b2de"},"period":{"start":"2026-10-10T09:00:00Z","end":"2026-10-11T11:30:00.000+00:00"},"length":{"value":1,"unit":"days"},"reasonReference":[{"reference":"Condition/e580c8e8-51c9-4745-b7e4-260c5fa5dd60"}]},"request":{"method":"PUT","url":"Encounter/75585d25-a033-49e5-b0dd-44aa71d1ff9d"}},{"fullUrl":"https://madie.cms.gov/MedicationAdministration/7c30c9e8-2a0a-4656-b4eb-002e09be2f88","resource":{"resourceType":"MedicationAdministration","id":"7c30c9e8-2a0a-4656-b4eb-002e09be2f88","meta":{"profile":["http://hl7.org/fhir/us/qicore/StructureDefinition/qicore-medicationadministration"]},"status":"completed","medicationCodeableConcept":{"coding":[{"system":"http://www.nlm.nih.gov/research/umls/rxnorm","code":"198466"}]},"subject":{"reference":"Patient/29e634bc-c361-4e6b-a44e-444abb79b2de"},"effectivePeriod":{"start":"2026-10-10T06:00:00Z","end":"2026-10-10T07:15:00.000+00:00"}},"request":{"method":"PUT","url":"MedicationAdministration/7c30c9e8-2a0a-4656-b4eb-002e09be2f88"}},{"fullUrl":"https://madie.cms.gov/Coverage/1bad415d-ab67-4ff5-a70a-611f9ab165bd","resource":{"resourceType":"Coverage","id":"1bad415d-ab67-4ff5-a70a-611f9ab165bd","status":"active","beneficiary":{"reference":"Patient/29e634bc-c361-4e6b-a44e-444abb79b2de"},"period":{"start":"1976-09-26T08:00:00Z"},"payor":[{"reference":"Organization/47bdf24a-1560-461b-aca6-f6d7ad19d810"}]},"request":{"method":"PUT","url":"Coverage/1bad415d-ab67-4ff5-a70a-611f9ab165bd"}},{"fullUrl":"https://madie.cms.gov/Condition/e580c8e8-51c9-4745-b7e4-260c5fa5dd60","resource":{"resourceType":"Condition","id":"e580c8e8-51c9-4745-b7e4-260c5fa5dd60","meta":{"profile":["http://hl7.org/fhir/us/qicore/StructureDefinition/qicore-condition-encounter-diagnosis"]},"clinicalStatus":{"coding":[{"system":"http://terminology.hl7.org/CodeSystem/condition-clinical","code":"active"}]},"verificationStatus":{"coding":[{"system":"http://terminology.hl7.org/CodeSystem/condition-ver-status","code":"confirmed"}]},"category":[{"coding":[{"system":"http://terminology.hl7.org/CodeSystem/condition-category","code":"encounter-diagnosis","display":"Encounter Diagnosis"}]}],"code":{"coding":[{"system":"http://snomed.info/sct","version":"2020-09","code":"111297002","display":"Nonparalytic stroke (disorder)","userSelected":true}]},"subject":{"reference":"Patient/29e634bc-c361-4e6b-a44e-444abb79b2de"},"encounter":{"reference":"Encounter/75585d25-a033-49e5-b0dd-44aa71d1ff9d"},"recordedDate":"2026-08-13T08:00:00Z"},"request":{"method":"PUT","url":"Condition/e580c8e8-51c9-4745-b7e4-260c5fa5dd60"}},{"fullUrl":"https://madie.cms.gov/claim/5ca62962b8484628b8de1ec5","resource":{"resourceType":"Claim","id":"5ca62962b8484628b8de1ec5","meta":{"profile":["http://hl7.org/fhir/us/qicore/StructureDefinition/qicore-claim"]},"status":"active","type":{"coding":[{"system":"http://terminology.hl7.org/CodeSystem/claim-type","code":"institutional"}]},"use":"claim","patient":{"reference":"Patient/29e634bc-c361-4e6b-a44e-444abb79b2de"},"created":"2026-12-01","provider":{"reference":"Practitioner/practitioner-123456"},"priority":{"coding":[{"system":"http://terminology.hl7.org/CodeSystem/processpriority","code":"normal"}]},"diagnosis":[{"sequence":1,"diagnosisCodeableConcept":{"coding":[{"system":"http://hl7.org/fhir/sid/icd-10-cm","code":"I63.00"}]},"type":[{"coding":[{"system":"http://terminology.hl7.org/CodeSystem/ex-diagnosistype","code":"principal"}]}]}],"insurance":[{"sequence":1,"focal":true,"coverage":{"reference":"Coverage/5fa041661c76ba66d9959367"}}],"item":[{"sequence":1,"diagnosisSequence":[1],"productOrService":{"coding":[{"system":"http://terminology.hl7.org/CodeSystem/ex-USCLS","code":"99555"}]},"encounter":[{"reference":"Encounter/75585d25-a033-49e5-b0dd-44aa71d1ff9d"}]}]},"request":{"method":"PUT","url":"Claim/5ca62962b8484628b8de1ec5"}},{"fullUrl":"https://madie.cms.gov/Organization/47bdf24a-1560-461b-aca6-f6d7ad19d810","resource":{"resourceType":"Organization","id":"47bdf24a-1560-461b-aca6-f6d7ad19d810","meta":{"profile":["http://hl7.org/fhir/us/qicore/StructureDefinition/qicore-organization"]},"identifier":[{"use":"temp","system":"urn:oid:2.16.840.1.113883.4.4","value":"21-3259825"}],"active":true,"type":[{"coding":[{"system":"http://terminology.hl7.org/CodeSystem/organization-type","code":"pay","display":"Payer"}]}],"name":"Blue Cross Blue Shield of Texas","telecom":[{"system":"phone","value":"(+1) 972-766-6900"}],"address":[{"use":"billing","type":"postal","line":["P.O. Box 660044"],"city":"Dallas","state":"TX","postalCode":"75266-0044","country":"USA"}]},"request":{"method":"PUT","url":"Organization/47bdf24a-1560-461b-aca6-f6d7ad19d810"}},{"fullUrl":"https://madie.cms.gov/MeasureReport/779a0697-cb1b-43c8-a0ea-d179d0d0f952","resource":{"resourceType":"MeasureReport","id":"779a0697-cb1b-43c8-a0ea-d179d0d0f952","meta":{"profile":["http://hl7.org/fhir/us/cqfmeasures/StructureDefinition/test-case-cqfm"]},"contained":[{"resourceType":"Parameters","id":"06f3b963-32a7-40c8-80ab-dee991868fb9-parameters","parameter":[{"name":"subject","valueString":"29e634bc-c361-4e6b-a44e-444abb79b2de"}]}],"extension":[{"url":"http://hl7.org/fhir/StructureDefinition/cqf-inputParameters","valueReference":{"reference":"#06f3b963-32a7-40c8-80ab-dee991868fb9-parameters"}},{"url":"http://hl7.org/fhir/us/cqfmeasures/StructureDefinition/cqfm-testCaseDescription","valueMarkdown":"\"LOS<2 days, Patient has ED end to Enc IP > 1 hour \nglobal.Hospitalization ( IP only)\"\n"}],"modifierExtension":[{"url":"http://hl7.org/fhir/us/cqfmeasures/StructureDefinition/cqfm-isTestCase","valueBoolean":true}],"status":"complete","type":"individual","measure":"https://madie.cms.gov/Measure/CMS72FHIRSTKAntithromboticDay2","period":{"start":"2026-01-01","end":"2026-12-31"},"group":[{"id":"Group_1","population":[{"id":"InitialPopulation_1","code":{"coding":[{"system":"http://terminology.hl7.org/CodeSystem/measure-population","code":"initial-population","display":"Initial Population"}]},"count":1},{"id":"Denominator_1","code":{"coding":[{"system":"http://terminology.hl7.org/CodeSystem/measure-population","code":"denominator","display":"Denominator"}]},"count":1},{"id":"DenominatorExclusion_1","code":{"coding":[{"system":"http://terminology.hl7.org/CodeSystem/measure-population","code":"denominator-exclusion","display":"Denominator Exclusion"}]},"count":1},{"id":"Numerator_1","code":{"coding":[{"system":"http://terminology.hl7.org/CodeSystem/measure-population","code":"numerator","display":"Numerator"}]},"count":0},{"id":"DenominatorException_1","code":{"coding":[{"system":"http://terminology.hl7.org/CodeSystem/measure-population","code":"denominator-exception","display":"Denominator Exception"}]},"count":0}],"measureScore":{"value":0.0}}],"evaluatedResource":[{"reference":"Patient/29e634bc-c361-4e6b-a44e-444abb79b2de"},{"reference":"Encounter/c81df81f-3001-471f-b0b4-9d09e77c4d16"},{"reference":"Encounter/75585d25-a033-49e5-b0dd-44aa71d1ff9d"},{"reference":"MedicationAdministration/7c30c9e8-2a0a-4656-b4eb-002e09be2f88"},{"reference":"Coverage/1bad415d-ab67-4ff5-a70a-611f9ab165bd"},{"reference":"Condition/e580c8e8-51c9-4745-b7e4-260c5fa5dd60"},{"reference":"Claim/5ca62962b8484628b8de1ec5"},{"reference":"Organization/47bdf24a-1560-461b-aca6-f6d7ad19d810"}]},"request":{"method":"PUT","url":"MeasureReport/779a0697-cb1b-43c8-a0ea-d179d0d0f952"}}]},"request":{"method":"PUT","url":"Bundle/60f82c2e98086b570510e27a"}},{"fullUrl":"Organization/47bdf24a-1560-461b-aca6-f6d7ad19d810","resource":{"resourceType":"Organization","id":"47bdf24a-1560-461b-aca6-f6d7ad19d810","meta":{"profile":["http://hl7.org/fhir/us/qicore/StructureDefinition/qicore-organization"]},"identifier":[{"use":"temp","system":"urn:oid:2.16.840.1.113883.4.4","value":"21-3259825"}],"active":true,"type":[{"coding":[{"system":"http://terminology.hl7.org/CodeSystem/organization-type","code":"pay","display":"Payer"}]}],"name":"Blue Cross Blue Shield of Texas","telecom":[{"system":"phone","value":"(+1) 972-766-6900"}],"address":[{"use":"billing","type":"postal","line":["P.O. Box 660044"],"city":"Dallas","state":"TX","postalCode":"75266-0044","country":"USA"}]},"request":{"method":"PUT","url":"Organization/47bdf24a-1560-461b-aca6-f6d7ad19d810"}},{"fullUrl":"Encounter/c81df81f-3001-471f-b0b4-9d09e77c4d16","resource":{"resourceType":"Encounter","id":"c81df81f-3001-471f-b0b4-9d09e77c4d16","meta":{"profile":["http://hl7.org/fhir/us/qicore/StructureDefinition/qicore-encounter"]},"status":"finished","class":{"system":"http://terminology.hl7.org/CodeSystem/v3-ActCode","code":"EMER","display":"emergency"},"type":[{"coding":[{"system":"http://snomed.info/sct","code":"4525004"}]}],"subject":{"reference":"Patient/29e634bc-c361-4e6b-a44e-444abb79b2de"},"period":{"start":"2026-10-09T06:00:00Z","end":"2026-10-10T07:15:00.000+00:00"},"length":{"value":1,"unit":"days"}},"request":{"method":"PUT","url":"Encounter/c81df81f-3001-471f-b0b4-9d09e77c4d16"}},{"fullUrl":"Encounter/75585d25-a033-49e5-b0dd-44aa71d1ff9d","resource":{"resourceType":"Encounter","id":"75585d25-a033-49e5-b0dd-44aa71d1ff9d","meta":{"profile":["http://hl7.org/fhir/us/qicore/StructureDefinition/qicore-encounter"]},"status":"finished","class":{"system":"http://terminology.hl7.org/CodeSystem/v3-ActCode","code":"IMP","display":"inpatient encounter"},"type":[{"coding":[{"system":"http://snomed.info/sct","code":"32485007"}]}],"subject":{"reference":"Patient/29e634bc-c361-4e6b-a44e-444abb79b2de"},"period":{"start":"2026-10-10T09:00:00Z","end":"2026-10-11T11:30:00.000+00:00"},"length":{"value":1,"unit":"days"},"reasonReference":[{"reference":"Condition/e580c8e8-51c9-4745-b7e4-260c5fa5dd60"}]},"request":{"method":"PUT","url":"Encounter/75585d25-a033-49e5-b0dd-44aa71d1ff9d"}},{"fullUrl":"Claim/5ca62962b8484628b8de1ec5","resource":{"resourceType":"Claim","id":"5ca62962b8484628b8de1ec5","meta":{"profile":["http://hl7.org/fhir/us/qicore/StructureDefinition/qicore-claim"]},"status":"active","type":{"coding":[{"system":"http://terminology.hl7.org/CodeSystem/claim-type","code":"institutional"}]},"use":"claim","patient":{"reference":"Patient/29e634bc-c361-4e6b-a44e-444abb79b2de"},"created":"2026-12-01","provider":{"reference":"Practitioner/practitioner-123456"},"priority":{"coding":[{"system":"http://terminology.hl7.org/CodeSystem/processpriority","code":"normal"}]},"diagnosis":[{"sequence":1,"diagnosisCodeableConcept":{"coding":[{"system":"http://hl7.org/fhir/sid/icd-10-cm","code":"I63.00"}]},"type":[{"coding":[{"system":"http://terminology.hl7.org/CodeSystem/ex-diagnosistype","code":"principal"}]}]}],"insurance":[{"sequence":1,"focal":true,"coverage":{"reference":"Coverage/5fa041661c76ba66d9959367"}}],"item":[{"sequence":1,"diagnosisSequence":[1],"productOrService":{"coding":[{"system":"http://terminology.hl7.org/CodeSystem/ex-USCLS","code":"99555"}]},"encounter":[{"reference":"Encounter/75585d25-a033-49e5-b0dd-44aa71d1ff9d"}]}]},"request":{"method":"PUT","url":"Claim/5ca62962b8484628b8de1ec5"}}]}