{"resourceType":"Bundle","id":"tests-7abd0282-c461-4c61-9669-f261a689f485-bundle","type":"transaction","entry":[{"fullUrl":"Encounter/0be2194c-2552-4a2a-bedd-0eb9a31e3a1d","resource":{"resourceType":"Encounter","id":"0be2194c-2552-4a2a-bedd-0eb9a31e3a1d","meta":{"profile":["http://hl7.org/fhir/us/qicore/StructureDefinition/qicore-encounter"]},"status":"finished","class":{"system":"http://terminology.hl7.org/CodeSystem/v3-ActCode","code":"EMER","display":"emergency"},"type":[{"coding":[{"system":"http://snomed.info/sct","code":"4525004"}]}],"subject":{"reference":"Patient/7abd0282-c461-4c61-9669-f261a689f485"},"period":{"start":"2026-11-18T07:00:00Z","end":"2026-11-18T08:01:00.000+00:00"},"diagnosis":[{"condition":{"reference":"Condition/324158f2-2be1-409e-8551-7af01cb1a9e2"},"use":{"coding":[{"system":"http://terminology.hl7.org/CodeSystem/diagnosis-role","code":"billing","display":"Billing"}]},"rank":1}]},"request":{"method":"PUT","url":"Encounter/0be2194c-2552-4a2a-bedd-0eb9a31e3a1d"}},{"fullUrl":"MeasureReport/f17bdd65-3a4d-44a0-8ab8-b1667d980d2d","resource":{"resourceType":"MeasureReport","id":"f17bdd65-3a4d-44a0-8ab8-b1667d980d2d","meta":{"profile":["http://hl7.org/fhir/us/cqfmeasures/StructureDefinition/test-case-cqfm"]},"contained":[{"resourceType":"Parameters","id":"72af3c74-2e32-46ee-bf92-02fdaecf3a2c-parameters","parameter":[{"name":"subject","valueString":"7abd0282-c461-4c61-9669-f261a689f485"}]}],"extension":[{"url":"http://hl7.org/fhir/StructureDefinition/cqf-inputParameters","valueReference":{"reference":"#72af3c74-2e32-46ee-bf92-02fdaecf3a2c-parameters"}},{"url":"http://hl7.org/fhir/us/cqfmeasures/StructureDefinition/cqfm-testCaseDescription","valueMarkdown":"Patient receives comfort measures performed on the day of hospital arrival, on the start of the ED start. ED ends less than 1 hour before Obs Start, Obs ends less than 1 hour before IP start.\n"}],"modifierExtension":[{"url":"http://hl7.org/fhir/us/cqfmeasures/StructureDefinition/cqfm-isTestCase","valueBoolean":true}],"status":"complete","type":"individual","measure":"https://madie.cms.gov/Measure/CMS72FHIRSTKAntithromboticDay2","period":{"start":"2026-01-01","end":"2026-12-31"},"group":[{"id":"Group_1","population":[{"id":"InitialPopulation_1","code":{"coding":[{"system":"http://terminology.hl7.org/CodeSystem/measure-population","code":"initial-population","display":"Initial Population"}]},"count":1},{"id":"Denominator_1","code":{"coding":[{"system":"http://terminology.hl7.org/CodeSystem/measure-population","code":"denominator","display":"Denominator"}]},"count":1},{"id":"DenominatorExclusion_1","code":{"coding":[{"system":"http://terminology.hl7.org/CodeSystem/measure-population","code":"denominator-exclusion","display":"Denominator Exclusion"}]},"count":1},{"id":"Numerator_1","code":{"coding":[{"system":"http://terminology.hl7.org/CodeSystem/measure-population","code":"numerator","display":"Numerator"}]},"count":0},{"id":"DenominatorException_1","code":{"coding":[{"system":"http://terminology.hl7.org/CodeSystem/measure-population","code":"denominator-exception","display":"Denominator Exception"}]},"count":0}],"measureScore":{"value":0.0}}],"evaluatedResource":[{"reference":"Patient/7abd0282-c461-4c61-9669-f261a689f485"},{"reference":"Encounter/0be2194c-2552-4a2a-bedd-0eb9a31e3a1d"},{"reference":"Encounter/09d2ba6c-6a3e-4be9-a062-66a8feb2d6cb"},{"reference":"Encounter/55c2f1a3-3ca0-46cc-af79-dcbe05811620"},{"reference":"Procedure/18ffe692-457a-4e0b-ad1f-9360d60d76cd"},{"reference":"Condition/324158f2-2be1-409e-8551-7af01cb1a9e2"},{"reference":"Claim/5ca62962b8484628b8de1ec5"},{"reference":"Coverage/331555f9-5e41-4c29-9a51-5fe6f23e8d7b"},{"reference":"Organization/56219ee6-80e7-4e57-ac50-bbe5bbf678ef"}]},"request":{"method":"PUT","url":"MeasureReport/f17bdd65-3a4d-44a0-8ab8-b1667d980d2d"}},{"fullUrl":"Condition/324158f2-2be1-409e-8551-7af01cb1a9e2","resource":{"resourceType":"Condition","id":"324158f2-2be1-409e-8551-7af01cb1a9e2","meta":{"profile":["http://hl7.org/fhir/us/qicore/StructureDefinition/qicore-condition-encounter-diagnosis"]},"clinicalStatus":{"coding":[{"system":"http://terminology.hl7.org/CodeSystem/condition-clinical","code":"active"}]},"verificationStatus":{"coding":[{"system":"http://terminology.hl7.org/CodeSystem/condition-ver-status","code":"confirmed"}]},"category":[{"coding":[{"system":"http://terminology.hl7.org/CodeSystem/condition-category","code":"encounter-diagnosis","display":"Encounter Diagnosis"}]}],"code":{"coding":[{"system":"http://snomed.info/sct","version":"2020-09","code":"111297002","display":"Nonparalytic stroke (disorder)","userSelected":true}]},"subject":{"reference":"Patient/7abd0282-c461-4c61-9669-f261a689f485"},"encounter":{"reference":"Encounter/55c2f1a3-3ca0-46cc-af79-dcbe05811620"},"recordedDate":"2026-08-13T08:00:00Z"},"request":{"method":"PUT","url":"Condition/324158f2-2be1-409e-8551-7af01cb1a9e2"}},{"fullUrl":"Patient/7abd0282-c461-4c61-9669-f261a689f485","resource":{"resourceType":"Patient","id":"7abd0282-c461-4c61-9669-f261a689f485","meta":{"profile":["http://hl7.org/fhir/us/qicore/StructureDefinition/qicore-patient"]},"text":{"status":"generated","div":"<div xmlns=\"http://www.w3.org/1999/xhtml\"><div class=\"hapiHeaderText\">CMP_DayOf_RelvDat_OnEDStart_EDEndLT1hrB4Obs_ObsEndLT1hrB4IP <b>DENEXPASS </b></div><table class=\"hapiPropertyTable\"><tbody><tr><td>Date of birth</td><td><span>01 January 1980</span></td></tr></tbody></table></div>"},"extension":[{"url":"http://hl7.org/fhir/us/core/StructureDefinition/us-core-race","extension":[{"url":"ombCategory","valueCoding":{"system":"urn:oid:2.16.840.1.113883.6.238","code":"2106-3","display":"White","userSelected":true}},{"url":"text","valueString":"White"}]},{"url":"http://hl7.org/fhir/us/core/StructureDefinition/us-core-ethnicity","extension":[{"url":"ombCategory","valueCoding":{"system":"urn:oid:2.16.840.1.113883.6.238","code":"2186-5","display":"Not Hispanic or Latino","userSelected":true}},{"url":"text","valueString":"Not Hispanic or Latino"}]}],"identifier":[{"type":{"coding":[{"system":"http://terminology.hl7.org/CodeSystem/v2-0203","code":"MR"}]},"system":"https://bonnie-fhir.healthit.gov/","value":"60f82c3098086b570510e2d5"}],"active":true,"name":[{"use":"usual","family":"DENEXPass","given":["CMPDayOfRelvDatOnEDStartEDEndLT1hrB4ObsObsEndLT1hrB4IP"]}],"gender":"female","birthDate":"1981-01-01"},"request":{"method":"PUT","url":"Patient/7abd0282-c461-4c61-9669-f261a689f485"}},{"fullUrl":"Procedure/18ffe692-457a-4e0b-ad1f-9360d60d76cd","resource":{"resourceType":"Procedure","id":"18ffe692-457a-4e0b-ad1f-9360d60d76cd","meta":{"profile":["http://hl7.org/fhir/us/qicore/StructureDefinition/qicore-procedure"]},"extension":[{"url":"http://hl7.org/fhir/us/qicore/StructureDefinition/qicore-recorded","valueDateTime":"2026-11-18T07:00:00Z"}],"status":"completed","code":{"coding":[{"system":"http://snomed.info/sct","code":"133918004"}]},"subject":{"reference":"Patient/7abd0282-c461-4c61-9669-f261a689f485"},"performedDateTime":"2026-11-18T07:00:00Z"},"request":{"method":"PUT","url":"Procedure/18ffe692-457a-4e0b-ad1f-9360d60d76cd"}},{"fullUrl":"Organization/56219ee6-80e7-4e57-ac50-bbe5bbf678ef","resource":{"resourceType":"Organization","id":"56219ee6-80e7-4e57-ac50-bbe5bbf678ef","meta":{"profile":["http://hl7.org/fhir/us/qicore/StructureDefinition/qicore-organization"]},"identifier":[{"use":"temp","system":"urn:oid:2.16.840.1.113883.4.4","value":"21-3259825"}],"active":true,"type":[{"coding":[{"system":"http://terminology.hl7.org/CodeSystem/organization-type","code":"pay","display":"Payer"}]}],"name":"Blue Cross Blue Shield of Texas","telecom":[{"system":"phone","value":"(+1) 972-766-6900"}],"address":[{"use":"billing","type":"postal","line":["P.O. Box 660044"],"city":"Dallas","state":"TX","postalCode":"75266-0044","country":"USA"}]},"request":{"method":"PUT","url":"Organization/56219ee6-80e7-4e57-ac50-bbe5bbf678ef"}},{"fullUrl":"Encounter/55c2f1a3-3ca0-46cc-af79-dcbe05811620","resource":{"resourceType":"Encounter","id":"55c2f1a3-3ca0-46cc-af79-dcbe05811620","meta":{"profile":["http://hl7.org/fhir/us/qicore/StructureDefinition/qicore-encounter"]},"status":"finished","class":{"system":"http://terminology.hl7.org/CodeSystem/v3-ActCode","code":"IMP","display":"inpatient encounter"},"type":[{"coding":[{"system":"http://snomed.info/sct","code":"183452005"}]}],"subject":{"reference":"Patient/7abd0282-c461-4c61-9669-f261a689f485"},"period":{"start":"2026-11-18T11:00:00Z","end":"2026-11-20T08:15:00.000+00:00"},"reasonReference":[{"reference":"Condition/324158f2-2be1-409e-8551-7af01cb1a9e2"}]},"request":{"method":"PUT","url":"Encounter/55c2f1a3-3ca0-46cc-af79-dcbe05811620"}},{"fullUrl":"Coverage/331555f9-5e41-4c29-9a51-5fe6f23e8d7b","resource":{"resourceType":"Coverage","id":"331555f9-5e41-4c29-9a51-5fe6f23e8d7b","meta":{"profile":["http://hl7.org/fhir/us/qicore/StructureDefinition/qicore-coverage"]},"status":"active","beneficiary":{"reference":"Patient/7abd0282-c461-4c61-9669-f261a689f485"},"payor":[{"reference":"Organization/56219ee6-80e7-4e57-ac50-bbe5bbf678ef"}]},"request":{"method":"PUT","url":"Coverage/331555f9-5e41-4c29-9a51-5fe6f23e8d7b"}},{"fullUrl":"Bundle/60f82c3098086b570510e2d5","resource":{"resourceType":"Bundle","id":"60f82c3098086b570510e2d5","type":"transaction","entry":[{"fullUrl":"https://madie.cms.gov/Patient/7abd0282-c461-4c61-9669-f261a689f485","resource":{"resourceType":"Patient","id":"7abd0282-c461-4c61-9669-f261a689f485","meta":{"profile":["http://hl7.org/fhir/us/qicore/StructureDefinition/qicore-patient"]},"text":{"status":"generated","div":"<div xmlns=\"http://www.w3.org/1999/xhtml\"><div class=\"hapiHeaderText\">CMP_DayOf_RelvDat_OnEDStart_EDEndLT1hrB4Obs_ObsEndLT1hrB4IP <b>DENEXPASS </b></div><table class=\"hapiPropertyTable\"><tbody><tr><td>Date of birth</td><td><span>01 January 1980</span></td></tr></tbody></table></div>"},"extension":[{"url":"http://hl7.org/fhir/us/core/StructureDefinition/us-core-race","extension":[{"url":"ombCategory","valueCoding":{"system":"urn:oid:2.16.840.1.113883.6.238","code":"2106-3","display":"White","userSelected":true}},{"url":"text","valueString":"White"}]},{"url":"http://hl7.org/fhir/us/core/StructureDefinition/us-core-ethnicity","extension":[{"url":"ombCategory","valueCoding":{"system":"urn:oid:2.16.840.1.113883.6.238","code":"2186-5","display":"Not Hispanic or Latino","userSelected":true}},{"url":"text","valueString":"Not Hispanic or Latino"}]}],"identifier":[{"type":{"coding":[{"system":"http://terminology.hl7.org/CodeSystem/v2-0203","code":"MR"}]},"system":"https://bonnie-fhir.healthit.gov/","value":"60f82c3098086b570510e2d5"}],"active":true,"name":[{"use":"usual","family":"DENEXPass","given":["CMPDayOfRelvDatOnEDStartEDEndLT1hrB4ObsObsEndLT1hrB4IP"]}],"gender":"female","birthDate":"1981-01-01"},"request":{"method":"PUT","url":"Patient/7abd0282-c461-4c61-9669-f261a689f485"}},{"fullUrl":"https://madie.cms.gov/Encounter/0be2194c-2552-4a2a-bedd-0eb9a31e3a1d","resource":{"resourceType":"Encounter","id":"0be2194c-2552-4a2a-bedd-0eb9a31e3a1d","meta":{"profile":["http://hl7.org/fhir/us/qicore/StructureDefinition/qicore-encounter"]},"status":"finished","class":{"system":"http://terminology.hl7.org/CodeSystem/v3-ActCode","code":"EMER","display":"emergency"},"type":[{"coding":[{"system":"http://snomed.info/sct","code":"4525004"}]}],"subject":{"reference":"Patient/7abd0282-c461-4c61-9669-f261a689f485"},"period":{"start":"2026-11-18T07:00:00Z","end":"2026-11-18T08:01:00.000+00:00"},"diagnosis":[{"condition":{"reference":"Condition/324158f2-2be1-409e-8551-7af01cb1a9e2"},"use":{"coding":[{"system":"http://terminology.hl7.org/CodeSystem/diagnosis-role","code":"billing","display":"Billing"}]},"rank":1}]},"request":{"method":"PUT","url":"Encounter/0be2194c-2552-4a2a-bedd-0eb9a31e3a1d"}},{"fullUrl":"https://madie.cms.gov/Encounter/09d2ba6c-6a3e-4be9-a062-66a8feb2d6cb","resource":{"resourceType":"Encounter","id":"09d2ba6c-6a3e-4be9-a062-66a8feb2d6cb","meta":{"profile":["http://hl7.org/fhir/us/qicore/StructureDefinition/qicore-encounter"]},"status":"finished","class":{"system":"http://terminology.hl7.org/CodeSystem/v3-ActCode","code":"OBSENC","display":"observation encounter"},"type":[{"coding":[{"system":"http://snomed.info/sct","code":"448951000124107"}]}],"subject":{"reference":"Patient/7abd0282-c461-4c61-9669-f261a689f485"},"period":{"start":"2026-11-18T09:00:00Z","end":"2026-11-18T10:01:00.000+00:00"}},"request":{"method":"PUT","url":"Encounter/09d2ba6c-6a3e-4be9-a062-66a8feb2d6cb"}},{"fullUrl":"https://madie.cms.gov/Encounter/55c2f1a3-3ca0-46cc-af79-dcbe05811620","resource":{"resourceType":"Encounter","id":"55c2f1a3-3ca0-46cc-af79-dcbe05811620","meta":{"profile":["http://hl7.org/fhir/us/qicore/StructureDefinition/qicore-encounter"]},"status":"finished","class":{"system":"http://terminology.hl7.org/CodeSystem/v3-ActCode","code":"IMP","display":"inpatient encounter"},"type":[{"coding":[{"system":"http://snomed.info/sct","code":"183452005"}]}],"subject":{"reference":"Patient/7abd0282-c461-4c61-9669-f261a689f485"},"period":{"start":"2026-11-18T11:00:00Z","end":"2026-11-20T08:15:00.000+00:00"},"reasonReference":[{"reference":"Condition/324158f2-2be1-409e-8551-7af01cb1a9e2"}]},"request":{"method":"PUT","url":"Encounter/55c2f1a3-3ca0-46cc-af79-dcbe05811620"}},{"fullUrl":"https://madie.cms.gov/Procedure/18ffe692-457a-4e0b-ad1f-9360d60d76cd","resource":{"resourceType":"Procedure","id":"18ffe692-457a-4e0b-ad1f-9360d60d76cd","meta":{"profile":["http://hl7.org/fhir/us/qicore/StructureDefinition/qicore-procedure"]},"extension":[{"url":"http://hl7.org/fhir/us/qicore/StructureDefinition/qicore-recorded","valueDateTime":"2026-11-18T07:00:00Z"}],"status":"completed","code":{"coding":[{"system":"http://snomed.info/sct","code":"133918004"}]},"subject":{"reference":"Patient/7abd0282-c461-4c61-9669-f261a689f485"},"performedDateTime":"2026-11-18T07:00:00Z"},"request":{"method":"PUT","url":"Procedure/18ffe692-457a-4e0b-ad1f-9360d60d76cd"}},{"fullUrl":"https://madie.cms.gov/Condition/324158f2-2be1-409e-8551-7af01cb1a9e2","resource":{"resourceType":"Condition","id":"324158f2-2be1-409e-8551-7af01cb1a9e2","meta":{"profile":["http://hl7.org/fhir/us/qicore/StructureDefinition/qicore-condition-encounter-diagnosis"]},"clinicalStatus":{"coding":[{"system":"http://terminology.hl7.org/CodeSystem/condition-clinical","code":"active"}]},"verificationStatus":{"coding":[{"system":"http://terminology.hl7.org/CodeSystem/condition-ver-status","code":"confirmed"}]},"category":[{"coding":[{"system":"http://terminology.hl7.org/CodeSystem/condition-category","code":"encounter-diagnosis","display":"Encounter Diagnosis"}]}],"code":{"coding":[{"system":"http://snomed.info/sct","version":"2020-09","code":"111297002","display":"Nonparalytic stroke (disorder)","userSelected":true}]},"subject":{"reference":"Patient/7abd0282-c461-4c61-9669-f261a689f485"},"encounter":{"reference":"Encounter/55c2f1a3-3ca0-46cc-af79-dcbe05811620"},"recordedDate":"2026-08-13T08:00:00Z"},"request":{"method":"PUT","url":"Condition/324158f2-2be1-409e-8551-7af01cb1a9e2"}},{"fullUrl":"https://madie.cms.gov/claim/5ca62962b8484628b8de1ec5","resource":{"resourceType":"Claim","id":"5ca62962b8484628b8de1ec5","meta":{"profile":["http://hl7.org/fhir/us/qicore/StructureDefinition/qicore-claim"]},"status":"active","type":{"coding":[{"system":"http://terminology.hl7.org/CodeSystem/claim-type","code":"institutional"}]},"use":"claim","patient":{"reference":"Patient/d170a0a8-b5ad-4303-b6df-e304dd5f92ad"},"created":"2026-12-01","provider":{"reference":"Practitioner/practitioner-123456"},"priority":{"coding":[{"system":"http://terminology.hl7.org/CodeSystem/processpriority","code":"normal"}]},"diagnosis":[{"sequence":1,"diagnosisCodeableConcept":{"coding":[{"system":"http://hl7.org/fhir/sid/icd-10-cm","code":"I63.00"}]},"type":[{"coding":[{"system":"http://terminology.hl7.org/CodeSystem/ex-diagnosistype","code":"principal"}]}]}],"insurance":[{"sequence":1,"focal":true,"coverage":{"reference":"Coverage/5fa041661c76ba66d9959367"}}],"item":[{"sequence":1,"diagnosisSequence":[1],"productOrService":{"coding":[{"system":"http://terminology.hl7.org/CodeSystem/ex-USCLS","code":"99555"}]},"encounter":[{"reference":"Encounter/55c2f1a3-3ca0-46cc-af79-dcbe05811620"}]}]},"request":{"method":"PUT","url":"Claim/5ca62962b8484628b8de1ec5"}},{"fullUrl":"https://madie.cms.gov/Coverage/331555f9-5e41-4c29-9a51-5fe6f23e8d7b","resource":{"resourceType":"Coverage","id":"331555f9-5e41-4c29-9a51-5fe6f23e8d7b","meta":{"profile":["http://hl7.org/fhir/us/qicore/StructureDefinition/qicore-coverage"]},"status":"active","beneficiary":{"reference":"Patient/7abd0282-c461-4c61-9669-f261a689f485"},"payor":[{"reference":"Organization/56219ee6-80e7-4e57-ac50-bbe5bbf678ef"}]},"request":{"method":"PUT","url":"Coverage/331555f9-5e41-4c29-9a51-5fe6f23e8d7b"}},{"fullUrl":"https://madie.cms.gov/Organization/56219ee6-80e7-4e57-ac50-bbe5bbf678ef","resource":{"resourceType":"Organization","id":"56219ee6-80e7-4e57-ac50-bbe5bbf678ef","meta":{"profile":["http://hl7.org/fhir/us/qicore/StructureDefinition/qicore-organization"]},"identifier":[{"use":"temp","system":"urn:oid:2.16.840.1.113883.4.4","value":"21-3259825"}],"active":true,"type":[{"coding":[{"system":"http://terminology.hl7.org/CodeSystem/organization-type","code":"pay","display":"Payer"}]}],"name":"Blue Cross Blue Shield of Texas","telecom":[{"system":"phone","value":"(+1) 972-766-6900"}],"address":[{"use":"billing","type":"postal","line":["P.O. Box 660044"],"city":"Dallas","state":"TX","postalCode":"75266-0044","country":"USA"}]},"request":{"method":"PUT","url":"Organization/56219ee6-80e7-4e57-ac50-bbe5bbf678ef"}},{"fullUrl":"https://madie.cms.gov/MeasureReport/f17bdd65-3a4d-44a0-8ab8-b1667d980d2d","resource":{"resourceType":"MeasureReport","id":"f17bdd65-3a4d-44a0-8ab8-b1667d980d2d","meta":{"profile":["http://hl7.org/fhir/us/cqfmeasures/StructureDefinition/test-case-cqfm"]},"contained":[{"resourceType":"Parameters","id":"72af3c74-2e32-46ee-bf92-02fdaecf3a2c-parameters","parameter":[{"name":"subject","valueString":"7abd0282-c461-4c61-9669-f261a689f485"}]}],"extension":[{"url":"http://hl7.org/fhir/StructureDefinition/cqf-inputParameters","valueReference":{"reference":"#72af3c74-2e32-46ee-bf92-02fdaecf3a2c-parameters"}},{"url":"http://hl7.org/fhir/us/cqfmeasures/StructureDefinition/cqfm-testCaseDescription","valueMarkdown":"Patient receives comfort measures performed on the day of hospital arrival, on the start of the ED start. ED ends less than 1 hour before Obs Start, Obs ends less than 1 hour before IP start.\n"}],"modifierExtension":[{"url":"http://hl7.org/fhir/us/cqfmeasures/StructureDefinition/cqfm-isTestCase","valueBoolean":true}],"status":"complete","type":"individual","measure":"https://madie.cms.gov/Measure/CMS72FHIRSTKAntithromboticDay2","period":{"start":"2026-01-01","end":"2026-12-31"},"group":[{"id":"Group_1","population":[{"id":"InitialPopulation_1","code":{"coding":[{"system":"http://terminology.hl7.org/CodeSystem/measure-population","code":"initial-population","display":"Initial Population"}]},"count":1},{"id":"Denominator_1","code":{"coding":[{"system":"http://terminology.hl7.org/CodeSystem/measure-population","code":"denominator","display":"Denominator"}]},"count":1},{"id":"DenominatorExclusion_1","code":{"coding":[{"system":"http://terminology.hl7.org/CodeSystem/measure-population","code":"denominator-exclusion","display":"Denominator Exclusion"}]},"count":1},{"id":"Numerator_1","code":{"coding":[{"system":"http://terminology.hl7.org/CodeSystem/measure-population","code":"numerator","display":"Numerator"}]},"count":0},{"id":"DenominatorException_1","code":{"coding":[{"system":"http://terminology.hl7.org/CodeSystem/measure-population","code":"denominator-exception","display":"Denominator Exception"}]},"count":0}],"measureScore":{"value":0.0}}],"evaluatedResource":[{"reference":"Patient/7abd0282-c461-4c61-9669-f261a689f485"},{"reference":"Encounter/0be2194c-2552-4a2a-bedd-0eb9a31e3a1d"},{"reference":"Encounter/09d2ba6c-6a3e-4be9-a062-66a8feb2d6cb"},{"reference":"Encounter/55c2f1a3-3ca0-46cc-af79-dcbe05811620"},{"reference":"Procedure/18ffe692-457a-4e0b-ad1f-9360d60d76cd"},{"reference":"Condition/324158f2-2be1-409e-8551-7af01cb1a9e2"},{"reference":"Claim/5ca62962b8484628b8de1ec5"},{"reference":"Coverage/331555f9-5e41-4c29-9a51-5fe6f23e8d7b"},{"reference":"Organization/56219ee6-80e7-4e57-ac50-bbe5bbf678ef"}]},"request":{"method":"PUT","url":"MeasureReport/f17bdd65-3a4d-44a0-8ab8-b1667d980d2d"}}]},"request":{"method":"PUT","url":"Bundle/60f82c3098086b570510e2d5"}},{"fullUrl":"Claim/5ca62962b8484628b8de1ec5","resource":{"resourceType":"Claim","id":"5ca62962b8484628b8de1ec5","meta":{"profile":["http://hl7.org/fhir/us/qicore/StructureDefinition/qicore-claim"]},"status":"active","type":{"coding":[{"system":"http://terminology.hl7.org/CodeSystem/claim-type","code":"institutional"}]},"use":"claim","patient":{"reference":"Patient/d170a0a8-b5ad-4303-b6df-e304dd5f92ad"},"created":"2026-12-01","provider":{"reference":"Practitioner/practitioner-123456"},"priority":{"coding":[{"system":"http://terminology.hl7.org/CodeSystem/processpriority","code":"normal"}]},"diagnosis":[{"sequence":1,"diagnosisCodeableConcept":{"coding":[{"system":"http://hl7.org/fhir/sid/icd-10-cm","code":"I63.00"}]},"type":[{"coding":[{"system":"http://terminology.hl7.org/CodeSystem/ex-diagnosistype","code":"principal"}]}]}],"insurance":[{"sequence":1,"focal":true,"coverage":{"reference":"Coverage/5fa041661c76ba66d9959367"}}],"item":[{"sequence":1,"diagnosisSequence":[1],"productOrService":{"coding":[{"system":"http://terminology.hl7.org/CodeSystem/ex-USCLS","code":"99555"}]},"encounter":[{"reference":"Encounter/55c2f1a3-3ca0-46cc-af79-dcbe05811620"}]}]},"request":{"method":"PUT","url":"Claim/5ca62962b8484628b8de1ec5"}},{"fullUrl":"Encounter/09d2ba6c-6a3e-4be9-a062-66a8feb2d6cb","resource":{"resourceType":"Encounter","id":"09d2ba6c-6a3e-4be9-a062-66a8feb2d6cb","meta":{"profile":["http://hl7.org/fhir/us/qicore/StructureDefinition/qicore-encounter"]},"status":"finished","class":{"system":"http://terminology.hl7.org/CodeSystem/v3-ActCode","code":"OBSENC","display":"observation encounter"},"type":[{"coding":[{"system":"http://snomed.info/sct","code":"448951000124107"}]}],"subject":{"reference":"Patient/7abd0282-c461-4c61-9669-f261a689f485"},"period":{"start":"2026-11-18T09:00:00Z","end":"2026-11-18T10:01:00.000+00:00"}},"request":{"method":"PUT","url":"Encounter/09d2ba6c-6a3e-4be9-a062-66a8feb2d6cb"}}]}