{"resourceType":"Bundle","id":"tests-f25baf5f-2980-416c-a8ef-3b9e42d751c3-bundle","type":"transaction","entry":[{"fullUrl":"MedicationAdministration/c7f2fb32-c669-429e-997f-f1c5f1af0b8e","resource":{"resourceType":"MedicationAdministration","id":"c7f2fb32-c669-429e-997f-f1c5f1af0b8e","meta":{"profile":["http://hl7.org/fhir/us/qicore/StructureDefinition/qicore-medicationadministration"]},"status":"completed","medicationCodeableConcept":{"coding":[{"system":"http://www.nlm.nih.gov/research/umls/rxnorm","code":"198466"}]},"subject":{"reference":"Patient/f25baf5f-2980-416c-a8ef-3b9e42d751c3"},"effectivePeriod":{"start":"2026-10-12T00:00:00Z"}},"request":{"method":"PUT","url":"MedicationAdministration/c7f2fb32-c669-429e-997f-f1c5f1af0b8e"}},{"fullUrl":"Practitioner/837a7d50-302b-4f5c-815a-728b4c695969","resource":{"resourceType":"Practitioner","id":"837a7d50-302b-4f5c-815a-728b4c695969","meta":{"profile":["http://hl7.org/fhir/us/qicore/StructureDefinition/qicore-practitioner"]},"identifier":[{"system":"http://hl7.org/fhir/sid/us-npi","value":"9999999896"}],"name":[{"family":"Evil","prefix":["Dr"]}]},"request":{"method":"PUT","url":"Practitioner/837a7d50-302b-4f5c-815a-728b4c695969"}},{"fullUrl":"Condition/8f849699-c0b8-4eb4-b7b8-a1fae9b7a9f3","resource":{"resourceType":"Condition","id":"8f849699-c0b8-4eb4-b7b8-a1fae9b7a9f3","meta":{"profile":["http://hl7.org/fhir/us/qicore/StructureDefinition/qicore-condition-problems-health-concerns"]},"clinicalStatus":{"coding":[{"system":"http://terminology.hl7.org/CodeSystem/condition-clinical","code":"active"}]},"verificationStatus":{"coding":[{"system":"http://terminology.hl7.org/CodeSystem/condition-ver-status","code":"confirmed"}]},"category":[{"coding":[{"system":"http://terminology.hl7.org/CodeSystem/condition-category","code":"encounter-diagnosis","display":"Encounter Diagnosis"}]}],"code":{"coding":[{"system":"http://snomed.info/sct","version":"2020-09","code":"111297002","display":"Nonparalytic stroke (disorder)","userSelected":true}]},"subject":{"reference":"Patient/f25baf5f-2980-416c-a8ef-3b9e42d751c3"},"recordedDate":"2026-08-16T08:00:00Z"},"request":{"method":"PUT","url":"Condition/8f849699-c0b8-4eb4-b7b8-a1fae9b7a9f3"}},{"fullUrl":"Bundle/60f82c2d98086b570510e25a","resource":{"resourceType":"Bundle","id":"60f82c2d98086b570510e25a","type":"transaction","entry":[{"fullUrl":"https://madie.cms.gov/Patient/f25baf5f-2980-416c-a8ef-3b9e42d751c3","resource":{"resourceType":"Patient","id":"f25baf5f-2980-416c-a8ef-3b9e42d751c3","meta":{"profile":["http://hl7.org/fhir/us/qicore/StructureDefinition/qicore-patient"]},"text":{"status":"generated","div":"<div xmlns=\"http://www.w3.org/1999/xhtml\"><div class=\"hapiHeaderText\">MedAntithromboticStart_gt1dayDuringEncIP <b>NUMERFAIL </b></div><table class=\"hapiPropertyTable\"><tbody><tr><td>Identifier</td><td>17d9cc11aebb5947545ea131f50a8a07</td></tr><tr><td>Date of birth</td><td><span>26 September 1975</span></td></tr></tbody></table></div>"},"extension":[{"url":"http://hl7.org/fhir/us/core/StructureDefinition/us-core-race","extension":[{"url":"ombCategory","valueCoding":{"system":"urn:oid:2.16.840.1.113883.6.238","code":"2054-5","display":"Black or African American","userSelected":true}},{"url":"text","valueString":"Black or African American"}]},{"url":"http://hl7.org/fhir/us/core/StructureDefinition/us-core-ethnicity","extension":[{"url":"ombCategory","valueCoding":{"system":"urn:oid:2.16.840.1.113883.6.238","code":"2186-5","display":"Not Hispanic or Latino","userSelected":true}},{"url":"text","valueString":"Not Hispanic or Latino"}]}],"identifier":[{"type":{"coding":[{"system":"http://terminology.hl7.org/CodeSystem/v2-0203","code":"MR"}]},"system":"https://bonnie-fhir.healthit.gov/","value":"60f82c2d98086b570510e25a"}],"active":true,"name":[{"use":"usual","family":"NUMERFail","given":["MedAntithromboticStart_gt1dayDuringEncIP"]}],"gender":"female","birthDate":"1976-09-26"},"request":{"method":"PUT","url":"Patient/f25baf5f-2980-416c-a8ef-3b9e42d751c3"}},{"fullUrl":"https://madie.cms.gov/Encounter/e0fbf62d-56d4-45ee-9a6f-8b222f0ec1d7","resource":{"resourceType":"Encounter","id":"e0fbf62d-56d4-45ee-9a6f-8b222f0ec1d7","meta":{"profile":["http://hl7.org/fhir/us/qicore/StructureDefinition/qicore-encounter"]},"status":"finished","class":{"system":"http://terminology.hl7.org/CodeSystem/v3-ActCode","code":"IMP","display":"inpatient encounter"},"type":[{"coding":[{"system":"http://snomed.info/sct","code":"32485007"}]}],"subject":{"reference":"Patient/f25baf5f-2980-416c-a8ef-3b9e42d751c3"},"period":{"start":"2026-10-10T09:00:00Z","end":"2026-10-12T11:15:00.000+00:00"},"length":{"value":2,"unit":"days"},"reasonReference":[{"reference":"Condition/8f849699-c0b8-4eb4-b7b8-a1fae9b7a9f3"}]},"request":{"method":"PUT","url":"Encounter/e0fbf62d-56d4-45ee-9a6f-8b222f0ec1d7"}},{"fullUrl":"https://madie.cms.gov/claim/5ca62962b8484628b8de1ec5","resource":{"resourceType":"Claim","id":"5ca62962b8484628b8de1ec5","meta":{"profile":["http://hl7.org/fhir/us/qicore/StructureDefinition/qicore-claim"]},"status":"active","type":{"coding":[{"system":"http://terminology.hl7.org/CodeSystem/claim-type","code":"institutional"}]},"use":"claim","patient":{"reference":"Patient/d170a0a8-b5ad-4303-b6df-e304dd5f92ad"},"created":"2026-12-01","provider":{"reference":"Practitioner/837a7d50-302b-4f5c-815a-728b4c695969"},"priority":{"coding":[{"system":"http://terminology.hl7.org/CodeSystem/processpriority","code":"normal"}]},"diagnosis":[{"sequence":1,"diagnosisCodeableConcept":{"coding":[{"system":"http://hl7.org/fhir/sid/icd-10-cm","code":"I63.00"}]},"type":[{"coding":[{"system":"http://terminology.hl7.org/CodeSystem/ex-diagnosistype","code":"principal"}]}]}],"insurance":[{"sequence":1,"focal":true,"coverage":{"reference":"Coverage/5fa041661c76ba66d9959367"}}],"item":[{"sequence":1,"diagnosisSequence":[1],"productOrService":{"coding":[{"system":"http://terminology.hl7.org/CodeSystem/ex-USCLS","code":"99555"}]},"encounter":[{"reference":"Encounter/e0fbf62d-56d4-45ee-9a6f-8b222f0ec1d7"}]}]},"request":{"method":"PUT","url":"Claim/5ca62962b8484628b8de1ec5"}},{"fullUrl":"https://madie.cms.gov/MedicationAdministration/c7f2fb32-c669-429e-997f-f1c5f1af0b8e","resource":{"resourceType":"MedicationAdministration","id":"c7f2fb32-c669-429e-997f-f1c5f1af0b8e","meta":{"profile":["http://hl7.org/fhir/us/qicore/StructureDefinition/qicore-medicationadministration"]},"status":"completed","medicationCodeableConcept":{"coding":[{"system":"http://www.nlm.nih.gov/research/umls/rxnorm","code":"198466"}]},"subject":{"reference":"Patient/f25baf5f-2980-416c-a8ef-3b9e42d751c3"},"effectivePeriod":{"start":"2026-10-12T00:00:00Z"}},"request":{"method":"PUT","url":"MedicationAdministration/c7f2fb32-c669-429e-997f-f1c5f1af0b8e"}},{"fullUrl":"https://madie.cms.gov/Coverage/ee8b6d67-6518-4159-9e5c-0f6d8baa46a2","resource":{"resourceType":"Coverage","id":"ee8b6d67-6518-4159-9e5c-0f6d8baa46a2","status":"active","subscriberId":"523435","beneficiary":{"reference":"Patient/f25baf5f-2980-416c-a8ef-3b9e42d751c3"},"relationship":{"coding":[{"system":"http://terminology.hl7.org/CodeSystem/subscriber-relationship","code":"self"}]},"period":{"start":"1976-09-26T08:00:00Z"},"payor":[{"reference":"Organization/7058eca7-b6eb-43a9-9b77-a7f912749b3d"}]},"request":{"method":"PUT","url":"Coverage/ee8b6d67-6518-4159-9e5c-0f6d8baa46a2"}},{"fullUrl":"https://madie.cms.gov/Condition/8f849699-c0b8-4eb4-b7b8-a1fae9b7a9f3","resource":{"resourceType":"Condition","id":"8f849699-c0b8-4eb4-b7b8-a1fae9b7a9f3","meta":{"profile":["http://hl7.org/fhir/us/qicore/StructureDefinition/qicore-condition-problems-health-concerns"]},"clinicalStatus":{"coding":[{"system":"http://terminology.hl7.org/CodeSystem/condition-clinical","code":"active"}]},"verificationStatus":{"coding":[{"system":"http://terminology.hl7.org/CodeSystem/condition-ver-status","code":"confirmed"}]},"category":[{"coding":[{"system":"http://terminology.hl7.org/CodeSystem/condition-category","code":"encounter-diagnosis","display":"Encounter Diagnosis"}]}],"code":{"coding":[{"system":"http://snomed.info/sct","version":"2020-09","code":"111297002","display":"Nonparalytic stroke (disorder)","userSelected":true}]},"subject":{"reference":"Patient/f25baf5f-2980-416c-a8ef-3b9e42d751c3"},"recordedDate":"2026-08-16T08:00:00Z"},"request":{"method":"PUT","url":"Condition/8f849699-c0b8-4eb4-b7b8-a1fae9b7a9f3"}},{"fullUrl":"https://madie.cms.gov/Organization/7058eca7-b6eb-43a9-9b77-a7f912749b3d","resource":{"resourceType":"Organization","id":"7058eca7-b6eb-43a9-9b77-a7f912749b3d","meta":{"profile":["http://hl7.org/fhir/us/qicore/StructureDefinition/qicore-organization"]},"identifier":[{"use":"temp","system":"urn:oid:2.16.840.1.113883.4.4","value":"21-3259825"}],"active":true,"type":[{"coding":[{"system":"http://terminology.hl7.org/CodeSystem/organization-type","code":"pay","display":"Payer"}]}],"name":"Blue Cross Blue Shield of Texas","telecom":[{"system":"phone","value":"(+1) 972-766-6900"}],"address":[{"use":"billing","type":"postal","line":["P.O. Box 660044"],"city":"Dallas","state":"TX","postalCode":"75266-0044","country":"USA"}]},"request":{"method":"PUT","url":"Organization/7058eca7-b6eb-43a9-9b77-a7f912749b3d"}},{"fullUrl":"https://madie.cms.gov/Practitioner/837a7d50-302b-4f5c-815a-728b4c695969","resource":{"resourceType":"Practitioner","id":"837a7d50-302b-4f5c-815a-728b4c695969","meta":{"profile":["http://hl7.org/fhir/us/qicore/StructureDefinition/qicore-practitioner"]},"identifier":[{"system":"http://hl7.org/fhir/sid/us-npi","value":"9999999896"}],"name":[{"family":"Evil","prefix":["Dr"]}]},"request":{"method":"PUT","url":"Practitioner/837a7d50-302b-4f5c-815a-728b4c695969"}},{"fullUrl":"https://madie.cms.gov/MeasureReport/ae58910b-1a13-45ce-8f36-8ea2cc43938e","resource":{"resourceType":"MeasureReport","id":"ae58910b-1a13-45ce-8f36-8ea2cc43938e","meta":{"profile":["http://hl7.org/fhir/us/cqfmeasures/StructureDefinition/test-case-cqfm"]},"contained":[{"resourceType":"Parameters","id":"5ee15944-b829-4bc0-a848-8c9b5310f429-parameters","parameter":[{"name":"subject","valueString":"f25baf5f-2980-416c-a8ef-3b9e42d751c3"}]}],"extension":[{"url":"http://hl7.org/fhir/StructureDefinition/cqf-inputParameters","valueReference":{"reference":"#5ee15944-b829-4bc0-a848-8c9b5310f429-parameters"}},{"url":"http://hl7.org/fhir/us/cqfmeasures/StructureDefinition/cqfm-testCaseDescription","valueMarkdown":"\"Patient receives antithrombotic in = 2 days after IP encounter starts.\nglobal.\"\"Hospitalization\"\" =(IP)\"\n"}],"modifierExtension":[{"url":"http://hl7.org/fhir/us/cqfmeasures/StructureDefinition/cqfm-isTestCase","valueBoolean":true}],"status":"complete","type":"individual","measure":"https://madie.cms.gov/Measure/CMS72FHIRSTKAntithromboticDay2","period":{"start":"2026-01-01","end":"2026-12-31"},"group":[{"id":"Group_1","population":[{"id":"InitialPopulation_1","code":{"coding":[{"system":"http://terminology.hl7.org/CodeSystem/measure-population","code":"initial-population","display":"Initial Population"}]},"count":1},{"id":"Denominator_1","code":{"coding":[{"system":"http://terminology.hl7.org/CodeSystem/measure-population","code":"denominator","display":"Denominator"}]},"count":1},{"id":"DenominatorExclusion_1","code":{"coding":[{"system":"http://terminology.hl7.org/CodeSystem/measure-population","code":"denominator-exclusion","display":"Denominator Exclusion"}]},"count":0},{"id":"Numerator_1","code":{"coding":[{"system":"http://terminology.hl7.org/CodeSystem/measure-population","code":"numerator","display":"Numerator"}]},"count":0},{"id":"DenominatorException_1","code":{"coding":[{"system":"http://terminology.hl7.org/CodeSystem/measure-population","code":"denominator-exception","display":"Denominator Exception"}]},"count":0}],"measureScore":{"value":0.0}}],"evaluatedResource":[{"reference":"Patient/f25baf5f-2980-416c-a8ef-3b9e42d751c3"},{"reference":"Encounter/e0fbf62d-56d4-45ee-9a6f-8b222f0ec1d7"},{"reference":"Claim/5ca62962b8484628b8de1ec5"},{"reference":"MedicationAdministration/c7f2fb32-c669-429e-997f-f1c5f1af0b8e"},{"reference":"Coverage/ee8b6d67-6518-4159-9e5c-0f6d8baa46a2"},{"reference":"Condition/8f849699-c0b8-4eb4-b7b8-a1fae9b7a9f3"},{"reference":"Organization/7058eca7-b6eb-43a9-9b77-a7f912749b3d"},{"reference":"Practitioner/837a7d50-302b-4f5c-815a-728b4c695969"}]},"request":{"method":"PUT","url":"MeasureReport/ae58910b-1a13-45ce-8f36-8ea2cc43938e"}}]},"request":{"method":"PUT","url":"Bundle/60f82c2d98086b570510e25a"}},{"fullUrl":"MeasureReport/ae58910b-1a13-45ce-8f36-8ea2cc43938e","resource":{"resourceType":"MeasureReport","id":"ae58910b-1a13-45ce-8f36-8ea2cc43938e","meta":{"profile":["http://hl7.org/fhir/us/cqfmeasures/StructureDefinition/test-case-cqfm"]},"contained":[{"resourceType":"Parameters","id":"5ee15944-b829-4bc0-a848-8c9b5310f429-parameters","parameter":[{"name":"subject","valueString":"f25baf5f-2980-416c-a8ef-3b9e42d751c3"}]}],"extension":[{"url":"http://hl7.org/fhir/StructureDefinition/cqf-inputParameters","valueReference":{"reference":"#5ee15944-b829-4bc0-a848-8c9b5310f429-parameters"}},{"url":"http://hl7.org/fhir/us/cqfmeasures/StructureDefinition/cqfm-testCaseDescription","valueMarkdown":"\"Patient receives antithrombotic in = 2 days after IP encounter starts.\nglobal.\"\"Hospitalization\"\" =(IP)\"\n"}],"modifierExtension":[{"url":"http://hl7.org/fhir/us/cqfmeasures/StructureDefinition/cqfm-isTestCase","valueBoolean":true}],"status":"complete","type":"individual","measure":"https://madie.cms.gov/Measure/CMS72FHIRSTKAntithromboticDay2","period":{"start":"2026-01-01","end":"2026-12-31"},"group":[{"id":"Group_1","population":[{"id":"InitialPopulation_1","code":{"coding":[{"system":"http://terminology.hl7.org/CodeSystem/measure-population","code":"initial-population","display":"Initial Population"}]},"count":1},{"id":"Denominator_1","code":{"coding":[{"system":"http://terminology.hl7.org/CodeSystem/measure-population","code":"denominator","display":"Denominator"}]},"count":1},{"id":"DenominatorExclusion_1","code":{"coding":[{"system":"http://terminology.hl7.org/CodeSystem/measure-population","code":"denominator-exclusion","display":"Denominator Exclusion"}]},"count":0},{"id":"Numerator_1","code":{"coding":[{"system":"http://terminology.hl7.org/CodeSystem/measure-population","code":"numerator","display":"Numerator"}]},"count":0},{"id":"DenominatorException_1","code":{"coding":[{"system":"http://terminology.hl7.org/CodeSystem/measure-population","code":"denominator-exception","display":"Denominator Exception"}]},"count":0}],"measureScore":{"value":0.0}}],"evaluatedResource":[{"reference":"Patient/f25baf5f-2980-416c-a8ef-3b9e42d751c3"},{"reference":"Encounter/e0fbf62d-56d4-45ee-9a6f-8b222f0ec1d7"},{"reference":"Claim/5ca62962b8484628b8de1ec5"},{"reference":"MedicationAdministration/c7f2fb32-c669-429e-997f-f1c5f1af0b8e"},{"reference":"Coverage/ee8b6d67-6518-4159-9e5c-0f6d8baa46a2"},{"reference":"Condition/8f849699-c0b8-4eb4-b7b8-a1fae9b7a9f3"},{"reference":"Organization/7058eca7-b6eb-43a9-9b77-a7f912749b3d"},{"reference":"Practitioner/837a7d50-302b-4f5c-815a-728b4c695969"}]},"request":{"method":"PUT","url":"MeasureReport/ae58910b-1a13-45ce-8f36-8ea2cc43938e"}},{"fullUrl":"Patient/f25baf5f-2980-416c-a8ef-3b9e42d751c3","resource":{"resourceType":"Patient","id":"f25baf5f-2980-416c-a8ef-3b9e42d751c3","meta":{"profile":["http://hl7.org/fhir/us/qicore/StructureDefinition/qicore-patient"]},"text":{"status":"generated","div":"<div xmlns=\"http://www.w3.org/1999/xhtml\"><div class=\"hapiHeaderText\">MedAntithromboticStart_gt1dayDuringEncIP <b>NUMERFAIL </b></div><table class=\"hapiPropertyTable\"><tbody><tr><td>Identifier</td><td>17d9cc11aebb5947545ea131f50a8a07</td></tr><tr><td>Date of birth</td><td><span>26 September 1975</span></td></tr></tbody></table></div>"},"extension":[{"url":"http://hl7.org/fhir/us/core/StructureDefinition/us-core-race","extension":[{"url":"ombCategory","valueCoding":{"system":"urn:oid:2.16.840.1.113883.6.238","code":"2054-5","display":"Black or African American","userSelected":true}},{"url":"text","valueString":"Black or African American"}]},{"url":"http://hl7.org/fhir/us/core/StructureDefinition/us-core-ethnicity","extension":[{"url":"ombCategory","valueCoding":{"system":"urn:oid:2.16.840.1.113883.6.238","code":"2186-5","display":"Not Hispanic or Latino","userSelected":true}},{"url":"text","valueString":"Not Hispanic or Latino"}]}],"identifier":[{"type":{"coding":[{"system":"http://terminology.hl7.org/CodeSystem/v2-0203","code":"MR"}]},"system":"https://bonnie-fhir.healthit.gov/","value":"60f82c2d98086b570510e25a"}],"active":true,"name":[{"use":"usual","family":"NUMERFail","given":["MedAntithromboticStart_gt1dayDuringEncIP"]}],"gender":"female","birthDate":"1976-09-26"},"request":{"method":"PUT","url":"Patient/f25baf5f-2980-416c-a8ef-3b9e42d751c3"}},{"fullUrl":"Coverage/ee8b6d67-6518-4159-9e5c-0f6d8baa46a2","resource":{"resourceType":"Coverage","id":"ee8b6d67-6518-4159-9e5c-0f6d8baa46a2","status":"active","subscriberId":"523435","beneficiary":{"reference":"Patient/f25baf5f-2980-416c-a8ef-3b9e42d751c3"},"relationship":{"coding":[{"system":"http://terminology.hl7.org/CodeSystem/subscriber-relationship","code":"self"}]},"period":{"start":"1976-09-26T08:00:00Z"},"payor":[{"reference":"Organization/7058eca7-b6eb-43a9-9b77-a7f912749b3d"}]},"request":{"method":"PUT","url":"Coverage/ee8b6d67-6518-4159-9e5c-0f6d8baa46a2"}},{"fullUrl":"Encounter/e0fbf62d-56d4-45ee-9a6f-8b222f0ec1d7","resource":{"resourceType":"Encounter","id":"e0fbf62d-56d4-45ee-9a6f-8b222f0ec1d7","meta":{"profile":["http://hl7.org/fhir/us/qicore/StructureDefinition/qicore-encounter"]},"status":"finished","class":{"system":"http://terminology.hl7.org/CodeSystem/v3-ActCode","code":"IMP","display":"inpatient encounter"},"type":[{"coding":[{"system":"http://snomed.info/sct","code":"32485007"}]}],"subject":{"reference":"Patient/f25baf5f-2980-416c-a8ef-3b9e42d751c3"},"period":{"start":"2026-10-10T09:00:00Z","end":"2026-10-12T11:15:00.000+00:00"},"length":{"value":2,"unit":"days"},"reasonReference":[{"reference":"Condition/8f849699-c0b8-4eb4-b7b8-a1fae9b7a9f3"}]},"request":{"method":"PUT","url":"Encounter/e0fbf62d-56d4-45ee-9a6f-8b222f0ec1d7"}},{"fullUrl":"Claim/5ca62962b8484628b8de1ec5","resource":{"resourceType":"Claim","id":"5ca62962b8484628b8de1ec5","meta":{"profile":["http://hl7.org/fhir/us/qicore/StructureDefinition/qicore-claim"]},"status":"active","type":{"coding":[{"system":"http://terminology.hl7.org/CodeSystem/claim-type","code":"institutional"}]},"use":"claim","patient":{"reference":"Patient/d170a0a8-b5ad-4303-b6df-e304dd5f92ad"},"created":"2026-12-01","provider":{"reference":"Practitioner/837a7d50-302b-4f5c-815a-728b4c695969"},"priority":{"coding":[{"system":"http://terminology.hl7.org/CodeSystem/processpriority","code":"normal"}]},"diagnosis":[{"sequence":1,"diagnosisCodeableConcept":{"coding":[{"system":"http://hl7.org/fhir/sid/icd-10-cm","code":"I63.00"}]},"type":[{"coding":[{"system":"http://terminology.hl7.org/CodeSystem/ex-diagnosistype","code":"principal"}]}]}],"insurance":[{"sequence":1,"focal":true,"coverage":{"reference":"Coverage/5fa041661c76ba66d9959367"}}],"item":[{"sequence":1,"diagnosisSequence":[1],"productOrService":{"coding":[{"system":"http://terminology.hl7.org/CodeSystem/ex-USCLS","code":"99555"}]},"encounter":[{"reference":"Encounter/e0fbf62d-56d4-45ee-9a6f-8b222f0ec1d7"}]}]},"request":{"method":"PUT","url":"Claim/5ca62962b8484628b8de1ec5"}},{"fullUrl":"Organization/7058eca7-b6eb-43a9-9b77-a7f912749b3d","resource":{"resourceType":"Organization","id":"7058eca7-b6eb-43a9-9b77-a7f912749b3d","meta":{"profile":["http://hl7.org/fhir/us/qicore/StructureDefinition/qicore-organization"]},"identifier":[{"use":"temp","system":"urn:oid:2.16.840.1.113883.4.4","value":"21-3259825"}],"active":true,"type":[{"coding":[{"system":"http://terminology.hl7.org/CodeSystem/organization-type","code":"pay","display":"Payer"}]}],"name":"Blue Cross Blue Shield of Texas","telecom":[{"system":"phone","value":"(+1) 972-766-6900"}],"address":[{"use":"billing","type":"postal","line":["P.O. Box 660044"],"city":"Dallas","state":"TX","postalCode":"75266-0044","country":"USA"}]},"request":{"method":"PUT","url":"Organization/7058eca7-b6eb-43a9-9b77-a7f912749b3d"}}]}