{"resourceType":"Bundle","id":"tests-072fc02e-93db-449c-a293-2e8525a49694-bundle","type":"transaction","entry":[{"fullUrl":"Observation/076da96c-a1b5-41e0-9a72-d63c01c41c8f","resource":{"resourceType":"Observation","id":"076da96c-a1b5-41e0-9a72-d63c01c41c8f","meta":{"profile":["http://hl7.org/fhir/us/qicore/StructureDefinition/qicore-observation-lab"]},"status":"final","category":[{"coding":[{"system":"http://terminology.hl7.org/CodeSystem/observation-category","code":"laboratory","display":"Laboratory"}]}],"code":{"coding":[{"system":"http://loinc.org","code":"34714-6"}]},"subject":{"reference":"Patient/072fc02e-93db-449c-a293-2e8525a49694"},"effectivePeriod":{"start":"2026-10-10T06:15:00Z"},"issued":"2026-10-10T06:31:00.000+00:00","valueQuantity":{"value":3.6}},"request":{"method":"PUT","url":"Observation/076da96c-a1b5-41e0-9a72-d63c01c41c8f"}},{"fullUrl":"MeasureReport/10cb12b9-fd2c-4498-b3f4-b450574de95d","resource":{"resourceType":"MeasureReport","id":"10cb12b9-fd2c-4498-b3f4-b450574de95d","meta":{"profile":["http://hl7.org/fhir/us/cqfmeasures/StructureDefinition/test-case-cqfm"]},"contained":[{"resourceType":"Parameters","id":"8178d3b1-9556-4d05-b2f4-70c52001c3e0-parameters","parameter":[{"name":"subject","valueString":"072fc02e-93db-449c-a293-2e8525a49694"}]}],"extension":[{"url":"http://hl7.org/fhir/StructureDefinition/cqf-inputParameters","valueReference":{"reference":"#8178d3b1-9556-4d05-b2f4-70c52001c3e0-parameters"}},{"url":"http://hl7.org/fhir/us/cqfmeasures/StructureDefinition/cqfm-testCaseDescription","valueMarkdown":"Patient receives INR of 3.6 the day of ED start. ED ends 60 minute before IP on the same day. No Obs. Testing Day of operator with HospitalizationWithObservation function.\n"}],"modifierExtension":[{"url":"http://hl7.org/fhir/us/cqfmeasures/StructureDefinition/cqfm-isTestCase","valueBoolean":true}],"status":"complete","type":"individual","measure":"https://madie.cms.gov/Measure/CMS72FHIRSTKAntithromboticDay2","period":{"start":"2026-01-01","end":"2026-12-31"},"group":[{"id":"Group_1","population":[{"id":"InitialPopulation_1","code":{"coding":[{"system":"http://terminology.hl7.org/CodeSystem/measure-population","code":"initial-population","display":"Initial Population"}]},"count":1},{"id":"Denominator_1","code":{"coding":[{"system":"http://terminology.hl7.org/CodeSystem/measure-population","code":"denominator","display":"Denominator"}]},"count":1},{"id":"DenominatorExclusion_1","code":{"coding":[{"system":"http://terminology.hl7.org/CodeSystem/measure-population","code":"denominator-exclusion","display":"Denominator Exclusion"}]},"count":0},{"id":"Numerator_1","code":{"coding":[{"system":"http://terminology.hl7.org/CodeSystem/measure-population","code":"numerator","display":"Numerator"}]},"count":0},{"id":"DenominatorException_1","code":{"coding":[{"system":"http://terminology.hl7.org/CodeSystem/measure-population","code":"denominator-exception","display":"Denominator Exception"}]},"count":1}],"measureScore":{"value":0.0}}],"evaluatedResource":[{"reference":"Patient/072fc02e-93db-449c-a293-2e8525a49694"},{"reference":"Encounter/b7a3e576-ea10-48b0-b9f2-d822fb15ce9c"},{"reference":"Encounter/1ac1148e-70cf-45b6-b700-f690b22e6b94"},{"reference":"Claim/5ca62962b8484628b8de1ec5"},{"reference":"Observation/076da96c-a1b5-41e0-9a72-d63c01c41c8f"},{"reference":"Coverage/f58328b0-48a3-4f7e-af1a-983632c0612a"},{"reference":"Condition/a7f47c06-845b-4939-8cc0-c350b8109d72"},{"reference":"Organization/186a1de5-528d-4a88-ad7e-2607e808e8ec"}]},"request":{"method":"PUT","url":"MeasureReport/10cb12b9-fd2c-4498-b3f4-b450574de95d"}},{"fullUrl":"Coverage/f58328b0-48a3-4f7e-af1a-983632c0612a","resource":{"resourceType":"Coverage","id":"f58328b0-48a3-4f7e-af1a-983632c0612a","status":"active","subscriberId":"523435","beneficiary":{"reference":"Patient/072fc02e-93db-449c-a293-2e8525a49694"},"relationship":{"coding":[{"system":"http://terminology.hl7.org/CodeSystem/subscriber-relationship","code":"self"}]},"period":{"start":"1976-09-26T08:00:00Z"},"payor":[{"reference":"Organization/186a1de5-528d-4a88-ad7e-2607e808e8ec"}]},"request":{"method":"PUT","url":"Coverage/f58328b0-48a3-4f7e-af1a-983632c0612a"}},{"fullUrl":"Organization/186a1de5-528d-4a88-ad7e-2607e808e8ec","resource":{"resourceType":"Organization","id":"186a1de5-528d-4a88-ad7e-2607e808e8ec","meta":{"profile":["http://hl7.org/fhir/us/qicore/StructureDefinition/qicore-organization"]},"identifier":[{"use":"temp","system":"urn:oid:2.16.840.1.113883.4.4","value":"21-3259825"}],"active":true,"type":[{"coding":[{"system":"http://terminology.hl7.org/CodeSystem/organization-type","code":"pay","display":"Payer"}]}],"name":"Blue Cross Blue Shield of Texas","telecom":[{"system":"phone","value":"(+1) 972-766-6900"}],"address":[{"use":"billing","type":"postal","line":["P.O. Box 660044"],"city":"Dallas","state":"TX","postalCode":"75266-0044","country":"USA"}]},"request":{"method":"PUT","url":"Organization/186a1de5-528d-4a88-ad7e-2607e808e8ec"}},{"fullUrl":"Patient/072fc02e-93db-449c-a293-2e8525a49694","resource":{"resourceType":"Patient","id":"072fc02e-93db-449c-a293-2e8525a49694","meta":{"profile":["http://hl7.org/fhir/us/qicore/StructureDefinition/qicore-patient"]},"text":{"status":"generated","div":"<div xmlns=\"http://www.w3.org/1999/xhtml\"><div class=\"hapiHeaderText\">INRdurED_ED=1hrNoObsBFEncDayOf <b>DENEXCEPASS </b></div><table class=\"hapiPropertyTable\"><tbody><tr><td>Identifier</td><td>b60c027f1b1c264b4ad909c1c0014b64a063a10a885e293b05b431fd30fe7c78</td></tr><tr><td>Date of birth</td><td><span>26 September 1975</span></td></tr></tbody></table></div>"},"extension":[{"url":"http://hl7.org/fhir/us/core/StructureDefinition/us-core-race","extension":[{"url":"ombCategory","valueCoding":{"system":"urn:oid:2.16.840.1.113883.6.238","code":"2054-5","display":"Black or African American","userSelected":true}},{"url":"text","valueString":"Black or African American"}]},{"url":"http://hl7.org/fhir/us/core/StructureDefinition/us-core-ethnicity","extension":[{"url":"ombCategory","valueCoding":{"system":"urn:oid:2.16.840.1.113883.6.238","code":"2186-5","display":"Not Hispanic or Latino","userSelected":true}},{"url":"text","valueString":"Not Hispanic or Latino"}]}],"identifier":[{"type":{"coding":[{"system":"http://terminology.hl7.org/CodeSystem/v2-0203","code":"MR"}]},"system":"https://bonnie-fhir.healthit.gov/","value":"60f82c2f98086b570510e2b2"}],"active":true,"name":[{"use":"usual","family":"DENEXCEPass","given":["INRdurED_ED=1hrNoObsBFEncDayOf"]}],"gender":"female","birthDate":"1976-09-26"},"request":{"method":"PUT","url":"Patient/072fc02e-93db-449c-a293-2e8525a49694"}},{"fullUrl":"Bundle/60f82c2f98086b570510e2b2","resource":{"resourceType":"Bundle","id":"60f82c2f98086b570510e2b2","type":"transaction","entry":[{"fullUrl":"https://madie.cms.gov/Patient/072fc02e-93db-449c-a293-2e8525a49694","resource":{"resourceType":"Patient","id":"072fc02e-93db-449c-a293-2e8525a49694","meta":{"profile":["http://hl7.org/fhir/us/qicore/StructureDefinition/qicore-patient"]},"text":{"status":"generated","div":"<div xmlns=\"http://www.w3.org/1999/xhtml\"><div class=\"hapiHeaderText\">INRdurED_ED=1hrNoObsBFEncDayOf <b>DENEXCEPASS </b></div><table class=\"hapiPropertyTable\"><tbody><tr><td>Identifier</td><td>b60c027f1b1c264b4ad909c1c0014b64a063a10a885e293b05b431fd30fe7c78</td></tr><tr><td>Date of birth</td><td><span>26 September 1975</span></td></tr></tbody></table></div>"},"extension":[{"url":"http://hl7.org/fhir/us/core/StructureDefinition/us-core-race","extension":[{"url":"ombCategory","valueCoding":{"system":"urn:oid:2.16.840.1.113883.6.238","code":"2054-5","display":"Black or African American","userSelected":true}},{"url":"text","valueString":"Black or African American"}]},{"url":"http://hl7.org/fhir/us/core/StructureDefinition/us-core-ethnicity","extension":[{"url":"ombCategory","valueCoding":{"system":"urn:oid:2.16.840.1.113883.6.238","code":"2186-5","display":"Not Hispanic or Latino","userSelected":true}},{"url":"text","valueString":"Not Hispanic or Latino"}]}],"identifier":[{"type":{"coding":[{"system":"http://terminology.hl7.org/CodeSystem/v2-0203","code":"MR"}]},"system":"https://bonnie-fhir.healthit.gov/","value":"60f82c2f98086b570510e2b2"}],"active":true,"name":[{"use":"usual","family":"DENEXCEPass","given":["INRdurED_ED=1hrNoObsBFEncDayOf"]}],"gender":"female","birthDate":"1976-09-26"},"request":{"method":"PUT","url":"Patient/072fc02e-93db-449c-a293-2e8525a49694"}},{"fullUrl":"https://madie.cms.gov/Encounter/b7a3e576-ea10-48b0-b9f2-d822fb15ce9c","resource":{"resourceType":"Encounter","id":"b7a3e576-ea10-48b0-b9f2-d822fb15ce9c","meta":{"profile":["http://hl7.org/fhir/us/qicore/StructureDefinition/qicore-encounter"]},"status":"finished","class":{"system":"http://terminology.hl7.org/CodeSystem/v3-ActCode","code":"EMER","display":"emergency","userSelected":true},"type":[{"coding":[{"system":"http://snomed.info/sct","code":"4525004"}]}],"subject":{"reference":"Patient/072fc02e-93db-449c-a293-2e8525a49694"},"period":{"start":"2026-10-10T06:15:00Z","end":"2026-10-10T06:31:00.000+00:00"},"length":{"value":0,"unit":"days"}},"request":{"method":"PUT","url":"Encounter/b7a3e576-ea10-48b0-b9f2-d822fb15ce9c"}},{"fullUrl":"https://madie.cms.gov/Encounter/1ac1148e-70cf-45b6-b700-f690b22e6b94","resource":{"resourceType":"Encounter","id":"1ac1148e-70cf-45b6-b700-f690b22e6b94","meta":{"profile":["http://hl7.org/fhir/us/qicore/StructureDefinition/qicore-encounter"]},"status":"finished","class":{"system":"http://terminology.hl7.org/CodeSystem/v3-ActCode","code":"IMP","display":"inpatient encounter","userSelected":true},"type":[{"coding":[{"system":"http://snomed.info/sct","code":"32485007"}]}],"subject":{"reference":"Patient/072fc02e-93db-449c-a293-2e8525a49694"},"period":{"start":"2026-10-10T07:31:00Z","end":"2026-10-15T11:30:00.000+00:00"},"length":{"value":5,"unit":"days"},"reasonReference":[{"reference":"Condition/a7f47c06-845b-4939-8cc0-c350b8109d72"}]},"request":{"method":"PUT","url":"Encounter/1ac1148e-70cf-45b6-b700-f690b22e6b94"}},{"fullUrl":"https://madie.cms.gov/claim/5ca62962b8484628b8de1ec5","resource":{"resourceType":"Claim","id":"5ca62962b8484628b8de1ec5","meta":{"profile":["http://hl7.org/fhir/us/qicore/StructureDefinition/qicore-claim"]},"status":"active","type":{"coding":[{"system":"http://terminology.hl7.org/CodeSystem/claim-type","code":"institutional"}]},"use":"claim","patient":{"reference":"Patient/d170a0a8-b5ad-4303-b6df-e304dd5f92ad"},"created":"2026-12-01","provider":{"reference":"Practitioner/practitioner-123456"},"priority":{"coding":[{"system":"http://terminology.hl7.org/CodeSystem/processpriority","code":"normal"}]},"diagnosis":[{"sequence":1,"diagnosisCodeableConcept":{"coding":[{"system":"http://hl7.org/fhir/sid/icd-10-cm","code":"I63.00"}]},"type":[{"coding":[{"system":"http://terminology.hl7.org/CodeSystem/ex-diagnosistype","code":"principal"}]}]}],"insurance":[{"sequence":1,"focal":true,"coverage":{"reference":"Coverage/5fa041661c76ba66d9959367"}}],"item":[{"sequence":1,"diagnosisSequence":[1],"productOrService":{"coding":[{"system":"http://terminology.hl7.org/CodeSystem/ex-USCLS","code":"99555"}]},"encounter":[{"reference":"Encounter/1ac1148e-70cf-45b6-b700-f690b22e6b94"}]}]},"request":{"method":"PUT","url":"Claim/5ca62962b8484628b8de1ec5"}},{"fullUrl":"https://madie.cms.gov/Observation/076da96c-a1b5-41e0-9a72-d63c01c41c8f","resource":{"resourceType":"Observation","id":"076da96c-a1b5-41e0-9a72-d63c01c41c8f","meta":{"profile":["http://hl7.org/fhir/us/qicore/StructureDefinition/qicore-observation-lab"]},"status":"final","category":[{"coding":[{"system":"http://terminology.hl7.org/CodeSystem/observation-category","code":"laboratory","display":"Laboratory"}]}],"code":{"coding":[{"system":"http://loinc.org","code":"34714-6"}]},"subject":{"reference":"Patient/072fc02e-93db-449c-a293-2e8525a49694"},"effectivePeriod":{"start":"2026-10-10T06:15:00Z"},"issued":"2026-10-10T06:31:00.000+00:00","valueQuantity":{"value":3.6}},"request":{"method":"PUT","url":"Observation/076da96c-a1b5-41e0-9a72-d63c01c41c8f"}},{"fullUrl":"https://madie.cms.gov/Coverage/f58328b0-48a3-4f7e-af1a-983632c0612a","resource":{"resourceType":"Coverage","id":"f58328b0-48a3-4f7e-af1a-983632c0612a","status":"active","subscriberId":"523435","beneficiary":{"reference":"Patient/072fc02e-93db-449c-a293-2e8525a49694"},"relationship":{"coding":[{"system":"http://terminology.hl7.org/CodeSystem/subscriber-relationship","code":"self"}]},"period":{"start":"1976-09-26T08:00:00Z"},"payor":[{"reference":"Organization/186a1de5-528d-4a88-ad7e-2607e808e8ec"}]},"request":{"method":"PUT","url":"Coverage/f58328b0-48a3-4f7e-af1a-983632c0612a"}},{"fullUrl":"https://madie.cms.gov/Condition/a7f47c06-845b-4939-8cc0-c350b8109d72","resource":{"resourceType":"Condition","id":"a7f47c06-845b-4939-8cc0-c350b8109d72","meta":{"profile":["http://hl7.org/fhir/us/qicore/StructureDefinition/qicore-condition-encounter-diagnosis"]},"clinicalStatus":{"coding":[{"system":"http://terminology.hl7.org/CodeSystem/condition-clinical","code":"active"}]},"verificationStatus":{"coding":[{"system":"http://terminology.hl7.org/CodeSystem/condition-ver-status","code":"confirmed"}]},"category":[{"coding":[{"system":"http://terminology.hl7.org/CodeSystem/condition-category","code":"encounter-diagnosis","display":"Encounter Diagnosis"}]}],"code":{"coding":[{"system":"http://snomed.info/sct","version":"2020-09","code":"111297002","display":"Nonparalytic stroke (disorder)","userSelected":true}]},"subject":{"reference":"Patient/072fc02e-93db-449c-a293-2e8525a49694"},"recordedDate":"2026-08-06T08:00:00Z"},"request":{"method":"PUT","url":"Condition/a7f47c06-845b-4939-8cc0-c350b8109d72"}},{"fullUrl":"https://madie.cms.gov/Organization/186a1de5-528d-4a88-ad7e-2607e808e8ec","resource":{"resourceType":"Organization","id":"186a1de5-528d-4a88-ad7e-2607e808e8ec","meta":{"profile":["http://hl7.org/fhir/us/qicore/StructureDefinition/qicore-organization"]},"identifier":[{"use":"temp","system":"urn:oid:2.16.840.1.113883.4.4","value":"21-3259825"}],"active":true,"type":[{"coding":[{"system":"http://terminology.hl7.org/CodeSystem/organization-type","code":"pay","display":"Payer"}]}],"name":"Blue Cross Blue Shield of Texas","telecom":[{"system":"phone","value":"(+1) 972-766-6900"}],"address":[{"use":"billing","type":"postal","line":["P.O. Box 660044"],"city":"Dallas","state":"TX","postalCode":"75266-0044","country":"USA"}]},"request":{"method":"PUT","url":"Organization/186a1de5-528d-4a88-ad7e-2607e808e8ec"}},{"fullUrl":"https://madie.cms.gov/MeasureReport/10cb12b9-fd2c-4498-b3f4-b450574de95d","resource":{"resourceType":"MeasureReport","id":"10cb12b9-fd2c-4498-b3f4-b450574de95d","meta":{"profile":["http://hl7.org/fhir/us/cqfmeasures/StructureDefinition/test-case-cqfm"]},"contained":[{"resourceType":"Parameters","id":"8178d3b1-9556-4d05-b2f4-70c52001c3e0-parameters","parameter":[{"name":"subject","valueString":"072fc02e-93db-449c-a293-2e8525a49694"}]}],"extension":[{"url":"http://hl7.org/fhir/StructureDefinition/cqf-inputParameters","valueReference":{"reference":"#8178d3b1-9556-4d05-b2f4-70c52001c3e0-parameters"}},{"url":"http://hl7.org/fhir/us/cqfmeasures/StructureDefinition/cqfm-testCaseDescription","valueMarkdown":"Patient receives INR of 3.6 the day of ED start. ED ends 60 minute before IP on the same day. No Obs. Testing Day of operator with HospitalizationWithObservation function.\n"}],"modifierExtension":[{"url":"http://hl7.org/fhir/us/cqfmeasures/StructureDefinition/cqfm-isTestCase","valueBoolean":true}],"status":"complete","type":"individual","measure":"https://madie.cms.gov/Measure/CMS72FHIRSTKAntithromboticDay2","period":{"start":"2026-01-01","end":"2026-12-31"},"group":[{"id":"Group_1","population":[{"id":"InitialPopulation_1","code":{"coding":[{"system":"http://terminology.hl7.org/CodeSystem/measure-population","code":"initial-population","display":"Initial Population"}]},"count":1},{"id":"Denominator_1","code":{"coding":[{"system":"http://terminology.hl7.org/CodeSystem/measure-population","code":"denominator","display":"Denominator"}]},"count":1},{"id":"DenominatorExclusion_1","code":{"coding":[{"system":"http://terminology.hl7.org/CodeSystem/measure-population","code":"denominator-exclusion","display":"Denominator Exclusion"}]},"count":0},{"id":"Numerator_1","code":{"coding":[{"system":"http://terminology.hl7.org/CodeSystem/measure-population","code":"numerator","display":"Numerator"}]},"count":0},{"id":"DenominatorException_1","code":{"coding":[{"system":"http://terminology.hl7.org/CodeSystem/measure-population","code":"denominator-exception","display":"Denominator Exception"}]},"count":1}],"measureScore":{"value":0.0}}],"evaluatedResource":[{"reference":"Patient/072fc02e-93db-449c-a293-2e8525a49694"},{"reference":"Encounter/b7a3e576-ea10-48b0-b9f2-d822fb15ce9c"},{"reference":"Encounter/1ac1148e-70cf-45b6-b700-f690b22e6b94"},{"reference":"Claim/5ca62962b8484628b8de1ec5"},{"reference":"Observation/076da96c-a1b5-41e0-9a72-d63c01c41c8f"},{"reference":"Coverage/f58328b0-48a3-4f7e-af1a-983632c0612a"},{"reference":"Condition/a7f47c06-845b-4939-8cc0-c350b8109d72"},{"reference":"Organization/186a1de5-528d-4a88-ad7e-2607e808e8ec"}]},"request":{"method":"PUT","url":"MeasureReport/10cb12b9-fd2c-4498-b3f4-b450574de95d"}}]},"request":{"method":"PUT","url":"Bundle/60f82c2f98086b570510e2b2"}},{"fullUrl":"Condition/a7f47c06-845b-4939-8cc0-c350b8109d72","resource":{"resourceType":"Condition","id":"a7f47c06-845b-4939-8cc0-c350b8109d72","meta":{"profile":["http://hl7.org/fhir/us/qicore/StructureDefinition/qicore-condition-encounter-diagnosis"]},"clinicalStatus":{"coding":[{"system":"http://terminology.hl7.org/CodeSystem/condition-clinical","code":"active"}]},"verificationStatus":{"coding":[{"system":"http://terminology.hl7.org/CodeSystem/condition-ver-status","code":"confirmed"}]},"category":[{"coding":[{"system":"http://terminology.hl7.org/CodeSystem/condition-category","code":"encounter-diagnosis","display":"Encounter Diagnosis"}]}],"code":{"coding":[{"system":"http://snomed.info/sct","version":"2020-09","code":"111297002","display":"Nonparalytic stroke (disorder)","userSelected":true}]},"subject":{"reference":"Patient/072fc02e-93db-449c-a293-2e8525a49694"},"recordedDate":"2026-08-06T08:00:00Z"},"request":{"method":"PUT","url":"Condition/a7f47c06-845b-4939-8cc0-c350b8109d72"}},{"fullUrl":"Encounter/b7a3e576-ea10-48b0-b9f2-d822fb15ce9c","resource":{"resourceType":"Encounter","id":"b7a3e576-ea10-48b0-b9f2-d822fb15ce9c","meta":{"profile":["http://hl7.org/fhir/us/qicore/StructureDefinition/qicore-encounter"]},"status":"finished","class":{"system":"http://terminology.hl7.org/CodeSystem/v3-ActCode","code":"EMER","display":"emergency","userSelected":true},"type":[{"coding":[{"system":"http://snomed.info/sct","code":"4525004"}]}],"subject":{"reference":"Patient/072fc02e-93db-449c-a293-2e8525a49694"},"period":{"start":"2026-10-10T06:15:00Z","end":"2026-10-10T06:31:00.000+00:00"},"length":{"value":0,"unit":"days"}},"request":{"method":"PUT","url":"Encounter/b7a3e576-ea10-48b0-b9f2-d822fb15ce9c"}},{"fullUrl":"Encounter/1ac1148e-70cf-45b6-b700-f690b22e6b94","resource":{"resourceType":"Encounter","id":"1ac1148e-70cf-45b6-b700-f690b22e6b94","meta":{"profile":["http://hl7.org/fhir/us/qicore/StructureDefinition/qicore-encounter"]},"status":"finished","class":{"system":"http://terminology.hl7.org/CodeSystem/v3-ActCode","code":"IMP","display":"inpatient encounter","userSelected":true},"type":[{"coding":[{"system":"http://snomed.info/sct","code":"32485007"}]}],"subject":{"reference":"Patient/072fc02e-93db-449c-a293-2e8525a49694"},"period":{"start":"2026-10-10T07:31:00Z","end":"2026-10-15T11:30:00.000+00:00"},"length":{"value":5,"unit":"days"},"reasonReference":[{"reference":"Condition/a7f47c06-845b-4939-8cc0-c350b8109d72"}]},"request":{"method":"PUT","url":"Encounter/1ac1148e-70cf-45b6-b700-f690b22e6b94"}},{"fullUrl":"Claim/5ca62962b8484628b8de1ec5","resource":{"resourceType":"Claim","id":"5ca62962b8484628b8de1ec5","meta":{"profile":["http://hl7.org/fhir/us/qicore/StructureDefinition/qicore-claim"]},"status":"active","type":{"coding":[{"system":"http://terminology.hl7.org/CodeSystem/claim-type","code":"institutional"}]},"use":"claim","patient":{"reference":"Patient/d170a0a8-b5ad-4303-b6df-e304dd5f92ad"},"created":"2026-12-01","provider":{"reference":"Practitioner/practitioner-123456"},"priority":{"coding":[{"system":"http://terminology.hl7.org/CodeSystem/processpriority","code":"normal"}]},"diagnosis":[{"sequence":1,"diagnosisCodeableConcept":{"coding":[{"system":"http://hl7.org/fhir/sid/icd-10-cm","code":"I63.00"}]},"type":[{"coding":[{"system":"http://terminology.hl7.org/CodeSystem/ex-diagnosistype","code":"principal"}]}]}],"insurance":[{"sequence":1,"focal":true,"coverage":{"reference":"Coverage/5fa041661c76ba66d9959367"}}],"item":[{"sequence":1,"diagnosisSequence":[1],"productOrService":{"coding":[{"system":"http://terminology.hl7.org/CodeSystem/ex-USCLS","code":"99555"}]},"encounter":[{"reference":"Encounter/1ac1148e-70cf-45b6-b700-f690b22e6b94"}]}]},"request":{"method":"PUT","url":"Claim/5ca62962b8484628b8de1ec5"}}]}