{"resourceType":"Bundle","id":"tests-82fd75d8-4816-4d24-b18c-0e454c430eb5-bundle","type":"transaction","entry":[{"resource":{"resourceType":"Encounter","id":"de9d65d1-289c-449f-90f6-dade39af3bf3","meta":{"profile":["http://hl7.org/fhir/us/qicore/StructureDefinition/qicore-encounter"]},"status":"finished","class":{"system":"http://terminology.hl7.org/CodeSystem/v3-ActCode","code":"IMP","display":"inpatient encounter","userSelected":true},"type":[{"coding":[{"system":"http://snomed.info/sct","code":"32485007"}]}],"subject":{"reference":"Patient/82fd75d8-4816-4d24-b18c-0e454c430eb5"},"period":{"start":"2026-10-10T06:32:00Z","end":"2026-10-15T11:30:00.000+00:00"},"length":{"value":5,"unit":"days"},"reasonReference":[{"reference":"Condition/1a47547b-cbcf-43e4-86ca-dfc1d8135ffc"}]},"request":{"method":"PUT","url":"Encounter/de9d65d1-289c-449f-90f6-dade39af3bf3"}},{"resource":{"resourceType":"Bundle","id":"60f82c2f98086b570510e2b0","type":"transaction","entry":[{"fullUrl":"https://madie.cms.gov/Patient/82fd75d8-4816-4d24-b18c-0e454c430eb5","resource":{"resourceType":"Patient","id":"82fd75d8-4816-4d24-b18c-0e454c430eb5","meta":{"profile":["http://hl7.org/fhir/us/qicore/StructureDefinition/qicore-patient"]},"text":{"status":"generated","div":"<div xmlns=\"http://www.w3.org/1999/xhtml\"><div class=\"hapiHeaderText\">INRdurED_ED&lt;1hrNoObsBFEncDayOf <b>DENEXCEPASS </b></div><table class=\"hapiPropertyTable\"><tbody><tr><td>Identifier</td><td>44c405eb45d9fc2297eae64da0d160d3e28aefa9526a796ba05a2ea4fcc08a26</td></tr><tr><td>Date of birth</td><td><span>26 September 1975</span></td></tr></tbody></table></div>"},"extension":[{"url":"http://hl7.org/fhir/us/core/StructureDefinition/us-core-race","extension":[{"url":"ombCategory","valueCoding":{"system":"urn:oid:2.16.840.1.113883.6.238","code":"2054-5","display":"Black or African American","userSelected":true}},{"url":"text","valueString":"Black or African American"}]},{"url":"http://hl7.org/fhir/us/core/StructureDefinition/us-core-ethnicity","extension":[{"url":"ombCategory","valueCoding":{"system":"urn:oid:2.16.840.1.113883.6.238","code":"2186-5","display":"Not Hispanic or Latino","userSelected":true}},{"url":"text","valueString":"Not Hispanic or Latino"}]}],"identifier":[{"type":{"coding":[{"system":"http://terminology.hl7.org/CodeSystem/v2-0203","code":"MR"}]},"system":"https://bonnie-fhir.healthit.gov/","value":"60f82c2f98086b570510e2b0"}],"active":true,"name":[{"use":"usual","family":"DENEXCEPass","given":["INRdurED_ED<1hrNoObsBFEncDayOf"]}],"gender":"female","birthDate":"1976-09-26"},"request":{"method":"PUT","url":"Patient/82fd75d8-4816-4d24-b18c-0e454c430eb5"}},{"fullUrl":"https://madie.cms.gov/Encounter/a6e93545-3f21-43cc-a3c5-9612152857a1","resource":{"resourceType":"Encounter","id":"a6e93545-3f21-43cc-a3c5-9612152857a1","meta":{"profile":["http://hl7.org/fhir/us/qicore/StructureDefinition/qicore-encounter"]},"status":"finished","class":{"system":"http://terminology.hl7.org/CodeSystem/v3-ActCode","code":"EMER","display":"emergency","userSelected":true},"type":[{"coding":[{"system":"http://snomed.info/sct","code":"4525004"}]}],"subject":{"reference":"Patient/82fd75d8-4816-4d24-b18c-0e454c430eb5"},"period":{"start":"2026-10-10T06:15:00Z","end":"2026-10-10T06:31:00.000+00:00"},"length":{"value":0,"unit":"days"}},"request":{"method":"PUT","url":"Encounter/a6e93545-3f21-43cc-a3c5-9612152857a1"}},{"fullUrl":"https://madie.cms.gov/Encounter/de9d65d1-289c-449f-90f6-dade39af3bf3","resource":{"resourceType":"Encounter","id":"de9d65d1-289c-449f-90f6-dade39af3bf3","meta":{"profile":["http://hl7.org/fhir/us/qicore/StructureDefinition/qicore-encounter"]},"status":"finished","class":{"system":"http://terminology.hl7.org/CodeSystem/v3-ActCode","code":"IMP","display":"inpatient encounter","userSelected":true},"type":[{"coding":[{"system":"http://snomed.info/sct","code":"32485007"}]}],"subject":{"reference":"Patient/82fd75d8-4816-4d24-b18c-0e454c430eb5"},"period":{"start":"2026-10-10T06:32:00Z","end":"2026-10-15T11:30:00.000+00:00"},"length":{"value":5,"unit":"days"},"reasonReference":[{"reference":"Condition/1a47547b-cbcf-43e4-86ca-dfc1d8135ffc"}]},"request":{"method":"PUT","url":"Encounter/de9d65d1-289c-449f-90f6-dade39af3bf3"}},{"fullUrl":"https://madie.cms.gov/claim/5ca62962b8484628b8de1ec5","resource":{"resourceType":"Claim","id":"5ca62962b8484628b8de1ec5","meta":{"profile":["http://hl7.org/fhir/us/qicore/StructureDefinition/qicore-claim"]},"status":"active","type":{"coding":[{"system":"http://terminology.hl7.org/CodeSystem/claim-type","code":"institutional"}]},"use":"claim","patient":{"reference":"Patient/d170a0a8-b5ad-4303-b6df-e304dd5f92ad"},"created":"2026-12-01","provider":{"reference":"Practitioner/practitioner-123456"},"priority":{"coding":[{"system":"http://terminology.hl7.org/CodeSystem/processpriority","code":"normal"}]},"diagnosis":[{"sequence":1,"diagnosisCodeableConcept":{"coding":[{"system":"http://hl7.org/fhir/sid/icd-10-cm","code":"I63.00"}]},"type":[{"coding":[{"system":"http://terminology.hl7.org/CodeSystem/ex-diagnosistype","code":"principal"}]}]}],"insurance":[{"sequence":1,"focal":true,"coverage":{"reference":"Coverage/5fa041661c76ba66d9959367"}}],"item":[{"sequence":1,"diagnosisSequence":[1],"productOrService":{"coding":[{"system":"http://terminology.hl7.org/CodeSystem/ex-USCLS","code":"99555"}]},"encounter":[{"reference":"Encounter/de9d65d1-289c-449f-90f6-dade39af3bf3"}]}]},"request":{"method":"PUT","url":"Claim/5ca62962b8484628b8de1ec5"}},{"fullUrl":"https://madie.cms.gov/Observation/049abd5f-eb3a-49d6-805c-3d91650ba98e","resource":{"resourceType":"Observation","id":"049abd5f-eb3a-49d6-805c-3d91650ba98e","meta":{"profile":["http://hl7.org/fhir/us/qicore/StructureDefinition/qicore-observation-lab"]},"status":"final","category":[{"coding":[{"system":"http://terminology.hl7.org/CodeSystem/observation-category","code":"laboratory","display":"Laboratory"}]}],"code":{"coding":[{"system":"http://loinc.org","code":"34714-6"}]},"subject":{"reference":"Patient/82fd75d8-4816-4d24-b18c-0e454c430eb5"},"effectivePeriod":{"start":"2026-10-10T06:15:00Z"},"issued":"2026-10-10T06:31:00.000+00:00","valueQuantity":{"value":3.6}},"request":{"method":"PUT","url":"Observation/049abd5f-eb3a-49d6-805c-3d91650ba98e"}},{"fullUrl":"https://madie.cms.gov/Coverage/8ece31b7-73e3-4e8b-9dae-3f3f38fbbab6","resource":{"resourceType":"Coverage","id":"8ece31b7-73e3-4e8b-9dae-3f3f38fbbab6","status":"active","subscriberId":"523435","beneficiary":{"reference":"Patient/82fd75d8-4816-4d24-b18c-0e454c430eb5"},"relationship":{"coding":[{"system":"http://terminology.hl7.org/CodeSystem/subscriber-relationship","code":"self"}]},"period":{"start":"1976-09-26T08:00:00Z"},"payor":[{"reference":"Organization/69fe2533-f20c-466f-b49b-3dcd2e9ec0a4"}]},"request":{"method":"PUT","url":"Coverage/8ece31b7-73e3-4e8b-9dae-3f3f38fbbab6"}},{"fullUrl":"https://madie.cms.gov/Condition/1a47547b-cbcf-43e4-86ca-dfc1d8135ffc","resource":{"resourceType":"Condition","id":"1a47547b-cbcf-43e4-86ca-dfc1d8135ffc","meta":{"profile":["http://hl7.org/fhir/us/qicore/StructureDefinition/qicore-condition-encounter-diagnosis"]},"clinicalStatus":{"coding":[{"system":"http://terminology.hl7.org/CodeSystem/condition-clinical","code":"active"}]},"verificationStatus":{"coding":[{"system":"http://terminology.hl7.org/CodeSystem/condition-ver-status","code":"confirmed"}]},"category":[{"coding":[{"system":"http://terminology.hl7.org/CodeSystem/condition-category","code":"encounter-diagnosis","display":"Encounter Diagnosis"}]}],"code":{"coding":[{"system":"http://snomed.info/sct","version":"2020-09","code":"111297002","display":"Nonparalytic stroke (disorder)","userSelected":true}]},"subject":{"reference":"Patient/82fd75d8-4816-4d24-b18c-0e454c430eb5"},"recordedDate":"2026-08-06T08:00:00Z"},"request":{"method":"PUT","url":"Condition/1a47547b-cbcf-43e4-86ca-dfc1d8135ffc"}},{"fullUrl":"https://madie.cms.gov/Organization/69fe2533-f20c-466f-b49b-3dcd2e9ec0a4","resource":{"resourceType":"Organization","id":"69fe2533-f20c-466f-b49b-3dcd2e9ec0a4","meta":{"profile":["http://hl7.org/fhir/us/qicore/StructureDefinition/qicore-organization"]},"identifier":[{"use":"temp","system":"urn:oid:2.16.840.1.113883.4.4","value":"21-3259825"}],"active":true,"type":[{"coding":[{"system":"http://terminology.hl7.org/CodeSystem/organization-type","code":"pay","display":"Payer"}]}],"name":"Blue Cross Blue Shield of Texas","telecom":[{"system":"phone","value":"(+1) 972-766-6900"}],"address":[{"use":"billing","type":"postal","line":["P.O. Box 660044"],"city":"Dallas","state":"TX","postalCode":"75266-0044","country":"USA"}]},"request":{"method":"PUT","url":"Organization/69fe2533-f20c-466f-b49b-3dcd2e9ec0a4"}},{"fullUrl":"https://madie.cms.gov/MeasureReport/0daa0651-9834-488a-b96f-6eec98b1850f","resource":{"resourceType":"MeasureReport","id":"0daa0651-9834-488a-b96f-6eec98b1850f","meta":{"profile":["http://hl7.org/fhir/us/cqfmeasures/StructureDefinition/test-case-cqfm"]},"contained":[{"resourceType":"Parameters","id":"055f3082-2aee-4647-816e-6f1f9bc8217f-parameters","parameter":[{"name":"subject","valueString":"82fd75d8-4816-4d24-b18c-0e454c430eb5"}]}],"extension":[{"url":"http://hl7.org/fhir/StructureDefinition/cqf-inputParameters","valueReference":{"reference":"#055f3082-2aee-4647-816e-6f1f9bc8217f-parameters"}},{"url":"http://hl7.org/fhir/us/cqfmeasures/StructureDefinition/cqfm-testCaseDescription","valueMarkdown":"Patient receives INR of 3.6 the day of ED start. ED ends 1 minute before IP on the same day. No Obs. Testing Day of operator with HospitalizationWithObservation function.\n"}],"modifierExtension":[{"url":"http://hl7.org/fhir/us/cqfmeasures/StructureDefinition/cqfm-isTestCase","valueBoolean":true}],"status":"complete","type":"individual","measure":"https://madie.cms.gov/Measure/CMS72FHIRSTKAntithromboticDay2","period":{"start":"2026-01-01","end":"2026-12-31"},"group":[{"id":"Group_1","population":[{"id":"InitialPopulation_1","code":{"coding":[{"system":"http://terminology.hl7.org/CodeSystem/measure-population","code":"initial-population","display":"Initial Population"}]},"count":1},{"id":"Denominator_1","code":{"coding":[{"system":"http://terminology.hl7.org/CodeSystem/measure-population","code":"denominator","display":"Denominator"}]},"count":1},{"id":"DenominatorExclusion_1","code":{"coding":[{"system":"http://terminology.hl7.org/CodeSystem/measure-population","code":"denominator-exclusion","display":"Denominator Exclusion"}]},"count":0},{"id":"Numerator_1","code":{"coding":[{"system":"http://terminology.hl7.org/CodeSystem/measure-population","code":"numerator","display":"Numerator"}]},"count":0},{"id":"DenominatorException_1","code":{"coding":[{"system":"http://terminology.hl7.org/CodeSystem/measure-population","code":"denominator-exception","display":"Denominator Exception"}]},"count":1}],"measureScore":{"value":0.0}}],"evaluatedResource":[{"reference":"Patient/82fd75d8-4816-4d24-b18c-0e454c430eb5"},{"reference":"Encounter/a6e93545-3f21-43cc-a3c5-9612152857a1"},{"reference":"Encounter/de9d65d1-289c-449f-90f6-dade39af3bf3"},{"reference":"Claim/5ca62962b8484628b8de1ec5"},{"reference":"Observation/049abd5f-eb3a-49d6-805c-3d91650ba98e"},{"reference":"Coverage/8ece31b7-73e3-4e8b-9dae-3f3f38fbbab6"},{"reference":"Condition/1a47547b-cbcf-43e4-86ca-dfc1d8135ffc"},{"reference":"Organization/69fe2533-f20c-466f-b49b-3dcd2e9ec0a4"}]},"request":{"method":"PUT","url":"MeasureReport/0daa0651-9834-488a-b96f-6eec98b1850f"}}]},"request":{"method":"PUT","url":"Bundle/60f82c2f98086b570510e2b0"}},{"resource":{"resourceType":"Observation","id":"049abd5f-eb3a-49d6-805c-3d91650ba98e","meta":{"profile":["http://hl7.org/fhir/us/qicore/StructureDefinition/qicore-observation-lab"]},"status":"final","category":[{"coding":[{"system":"http://terminology.hl7.org/CodeSystem/observation-category","code":"laboratory","display":"Laboratory"}]}],"code":{"coding":[{"system":"http://loinc.org","code":"34714-6"}]},"subject":{"reference":"Patient/82fd75d8-4816-4d24-b18c-0e454c430eb5"},"effectivePeriod":{"start":"2026-10-10T06:15:00Z"},"issued":"2026-10-10T06:31:00.000+00:00","valueQuantity":{"value":3.6}},"request":{"method":"PUT","url":"Observation/049abd5f-eb3a-49d6-805c-3d91650ba98e"}},{"resource":{"resourceType":"Encounter","id":"a6e93545-3f21-43cc-a3c5-9612152857a1","meta":{"profile":["http://hl7.org/fhir/us/qicore/StructureDefinition/qicore-encounter"]},"status":"finished","class":{"system":"http://terminology.hl7.org/CodeSystem/v3-ActCode","code":"EMER","display":"emergency","userSelected":true},"type":[{"coding":[{"system":"http://snomed.info/sct","code":"4525004"}]}],"subject":{"reference":"Patient/82fd75d8-4816-4d24-b18c-0e454c430eb5"},"period":{"start":"2026-10-10T06:15:00Z","end":"2026-10-10T06:31:00.000+00:00"},"length":{"value":0,"unit":"days"}},"request":{"method":"PUT","url":"Encounter/a6e93545-3f21-43cc-a3c5-9612152857a1"}},{"resource":{"resourceType":"Coverage","id":"8ece31b7-73e3-4e8b-9dae-3f3f38fbbab6","status":"active","subscriberId":"523435","beneficiary":{"reference":"Patient/82fd75d8-4816-4d24-b18c-0e454c430eb5"},"relationship":{"coding":[{"system":"http://terminology.hl7.org/CodeSystem/subscriber-relationship","code":"self"}]},"period":{"start":"1976-09-26T08:00:00Z"},"payor":[{"reference":"Organization/69fe2533-f20c-466f-b49b-3dcd2e9ec0a4"}]},"request":{"method":"PUT","url":"Coverage/8ece31b7-73e3-4e8b-9dae-3f3f38fbbab6"}},{"resource":{"resourceType":"Organization","id":"69fe2533-f20c-466f-b49b-3dcd2e9ec0a4","meta":{"profile":["http://hl7.org/fhir/us/qicore/StructureDefinition/qicore-organization"]},"identifier":[{"use":"temp","system":"urn:oid:2.16.840.1.113883.4.4","value":"21-3259825"}],"active":true,"type":[{"coding":[{"system":"http://terminology.hl7.org/CodeSystem/organization-type","code":"pay","display":"Payer"}]}],"name":"Blue Cross Blue Shield of Texas","telecom":[{"system":"phone","value":"(+1) 972-766-6900"}],"address":[{"use":"billing","type":"postal","line":["P.O. Box 660044"],"city":"Dallas","state":"TX","postalCode":"75266-0044","country":"USA"}]},"request":{"method":"PUT","url":"Organization/69fe2533-f20c-466f-b49b-3dcd2e9ec0a4"}},{"resource":{"resourceType":"Condition","id":"1a47547b-cbcf-43e4-86ca-dfc1d8135ffc","meta":{"profile":["http://hl7.org/fhir/us/qicore/StructureDefinition/qicore-condition-encounter-diagnosis"]},"clinicalStatus":{"coding":[{"system":"http://terminology.hl7.org/CodeSystem/condition-clinical","code":"active"}]},"verificationStatus":{"coding":[{"system":"http://terminology.hl7.org/CodeSystem/condition-ver-status","code":"confirmed"}]},"category":[{"coding":[{"system":"http://terminology.hl7.org/CodeSystem/condition-category","code":"encounter-diagnosis","display":"Encounter Diagnosis"}]}],"code":{"coding":[{"system":"http://snomed.info/sct","version":"2020-09","code":"111297002","display":"Nonparalytic stroke (disorder)","userSelected":true}]},"subject":{"reference":"Patient/82fd75d8-4816-4d24-b18c-0e454c430eb5"},"recordedDate":"2026-08-06T08:00:00Z"},"request":{"method":"PUT","url":"Condition/1a47547b-cbcf-43e4-86ca-dfc1d8135ffc"}},{"resource":{"resourceType":"MeasureReport","id":"0daa0651-9834-488a-b96f-6eec98b1850f","meta":{"profile":["http://hl7.org/fhir/us/cqfmeasures/StructureDefinition/test-case-cqfm"]},"contained":[{"resourceType":"Parameters","id":"055f3082-2aee-4647-816e-6f1f9bc8217f-parameters","parameter":[{"name":"subject","valueString":"82fd75d8-4816-4d24-b18c-0e454c430eb5"}]}],"extension":[{"url":"http://hl7.org/fhir/StructureDefinition/cqf-inputParameters","valueReference":{"reference":"#055f3082-2aee-4647-816e-6f1f9bc8217f-parameters"}},{"url":"http://hl7.org/fhir/us/cqfmeasures/StructureDefinition/cqfm-testCaseDescription","valueMarkdown":"Patient receives INR of 3.6 the day of ED start. ED ends 1 minute before IP on the same day. No Obs. Testing Day of operator with HospitalizationWithObservation function.\n"}],"modifierExtension":[{"url":"http://hl7.org/fhir/us/cqfmeasures/StructureDefinition/cqfm-isTestCase","valueBoolean":true}],"status":"complete","type":"individual","measure":"https://madie.cms.gov/Measure/CMS72FHIRSTKAntithromboticDay2","period":{"start":"2026-01-01","end":"2026-12-31"},"group":[{"id":"Group_1","population":[{"id":"InitialPopulation_1","code":{"coding":[{"system":"http://terminology.hl7.org/CodeSystem/measure-population","code":"initial-population","display":"Initial Population"}]},"count":1},{"id":"Denominator_1","code":{"coding":[{"system":"http://terminology.hl7.org/CodeSystem/measure-population","code":"denominator","display":"Denominator"}]},"count":1},{"id":"DenominatorExclusion_1","code":{"coding":[{"system":"http://terminology.hl7.org/CodeSystem/measure-population","code":"denominator-exclusion","display":"Denominator Exclusion"}]},"count":0},{"id":"Numerator_1","code":{"coding":[{"system":"http://terminology.hl7.org/CodeSystem/measure-population","code":"numerator","display":"Numerator"}]},"count":0},{"id":"DenominatorException_1","code":{"coding":[{"system":"http://terminology.hl7.org/CodeSystem/measure-population","code":"denominator-exception","display":"Denominator Exception"}]},"count":1}],"measureScore":{"value":0.0}}],"evaluatedResource":[{"reference":"Patient/82fd75d8-4816-4d24-b18c-0e454c430eb5"},{"reference":"Encounter/a6e93545-3f21-43cc-a3c5-9612152857a1"},{"reference":"Encounter/de9d65d1-289c-449f-90f6-dade39af3bf3"},{"reference":"Claim/5ca62962b8484628b8de1ec5"},{"reference":"Observation/049abd5f-eb3a-49d6-805c-3d91650ba98e"},{"reference":"Coverage/8ece31b7-73e3-4e8b-9dae-3f3f38fbbab6"},{"reference":"Condition/1a47547b-cbcf-43e4-86ca-dfc1d8135ffc"},{"reference":"Organization/69fe2533-f20c-466f-b49b-3dcd2e9ec0a4"}]},"request":{"method":"PUT","url":"MeasureReport/0daa0651-9834-488a-b96f-6eec98b1850f"}},{"resource":{"resourceType":"Patient","id":"82fd75d8-4816-4d24-b18c-0e454c430eb5","meta":{"profile":["http://hl7.org/fhir/us/qicore/StructureDefinition/qicore-patient"]},"text":{"status":"generated","div":"<div xmlns=\"http://www.w3.org/1999/xhtml\"><div class=\"hapiHeaderText\">INRdurED_ED&lt;1hrNoObsBFEncDayOf <b>DENEXCEPASS </b></div><table class=\"hapiPropertyTable\"><tbody><tr><td>Identifier</td><td>44c405eb45d9fc2297eae64da0d160d3e28aefa9526a796ba05a2ea4fcc08a26</td></tr><tr><td>Date of birth</td><td><span>26 September 1975</span></td></tr></tbody></table></div>"},"extension":[{"url":"http://hl7.org/fhir/us/core/StructureDefinition/us-core-race","extension":[{"url":"ombCategory","valueCoding":{"system":"urn:oid:2.16.840.1.113883.6.238","code":"2054-5","display":"Black or African American","userSelected":true}},{"url":"text","valueString":"Black or African American"}]},{"url":"http://hl7.org/fhir/us/core/StructureDefinition/us-core-ethnicity","extension":[{"url":"ombCategory","valueCoding":{"system":"urn:oid:2.16.840.1.113883.6.238","code":"2186-5","display":"Not Hispanic or Latino","userSelected":true}},{"url":"text","valueString":"Not Hispanic or Latino"}]}],"identifier":[{"type":{"coding":[{"system":"http://terminology.hl7.org/CodeSystem/v2-0203","code":"MR"}]},"system":"https://bonnie-fhir.healthit.gov/","value":"60f82c2f98086b570510e2b0"}],"active":true,"name":[{"use":"usual","family":"DENEXCEPass","given":["INRdurED_ED<1hrNoObsBFEncDayOf"]}],"gender":"female","birthDate":"1976-09-26"},"request":{"method":"PUT","url":"Patient/82fd75d8-4816-4d24-b18c-0e454c430eb5"}},{"resource":{"resourceType":"Claim","id":"5ca62962b8484628b8de1ec5","meta":{"profile":["http://hl7.org/fhir/us/qicore/StructureDefinition/qicore-claim"]},"status":"active","type":{"coding":[{"system":"http://terminology.hl7.org/CodeSystem/claim-type","code":"institutional"}]},"use":"claim","patient":{"reference":"Patient/d170a0a8-b5ad-4303-b6df-e304dd5f92ad"},"created":"2026-12-01","provider":{"reference":"Practitioner/practitioner-123456"},"priority":{"coding":[{"system":"http://terminology.hl7.org/CodeSystem/processpriority","code":"normal"}]},"diagnosis":[{"sequence":1,"diagnosisCodeableConcept":{"coding":[{"system":"http://hl7.org/fhir/sid/icd-10-cm","code":"I63.00"}]},"type":[{"coding":[{"system":"http://terminology.hl7.org/CodeSystem/ex-diagnosistype","code":"principal"}]}]}],"insurance":[{"sequence":1,"focal":true,"coverage":{"reference":"Coverage/5fa041661c76ba66d9959367"}}],"item":[{"sequence":1,"diagnosisSequence":[1],"productOrService":{"coding":[{"system":"http://terminology.hl7.org/CodeSystem/ex-USCLS","code":"99555"}]},"encounter":[{"reference":"Encounter/de9d65d1-289c-449f-90f6-dade39af3bf3"}]}]},"request":{"method":"PUT","url":"Claim/5ca62962b8484628b8de1ec5"}}]}