{"resourceType":"Bundle","id":"tests-c1ee2b07-f5a7-451c-8bc5-cb97b1cbcca2-bundle","type":"transaction","entry":[{"fullUrl":"Encounter/3bb7b606-875b-4199-beb5-f6edbffd45b5","resource":{"resourceType":"Encounter","id":"3bb7b606-875b-4199-beb5-f6edbffd45b5","meta":{"profile":["http://hl7.org/fhir/us/qicore/StructureDefinition/qicore-encounter"]},"status":"finished","class":{"system":"http://terminology.hl7.org/CodeSystem/v3-ActCode","code":"EMER","display":"emergency","userSelected":true},"type":[{"coding":[{"system":"http://snomed.info/sct","code":"4525004"}]}],"subject":{"reference":"Patient/c1ee2b07-f5a7-451c-8bc5-cb97b1cbcca2"},"period":{"start":"2026-10-10T08:00:00Z","end":"2026-10-10T08:15:00.000+00:00"},"length":{"value":0,"unit":"days"}},"request":{"method":"PUT","url":"Encounter/3bb7b606-875b-4199-beb5-f6edbffd45b5"}},{"fullUrl":"Patient/c1ee2b07-f5a7-451c-8bc5-cb97b1cbcca2","resource":{"resourceType":"Patient","id":"c1ee2b07-f5a7-451c-8bc5-cb97b1cbcca2","meta":{"profile":["http://hl7.org/fhir/us/qicore/StructureDefinition/qicore-patient"]},"text":{"status":"generated","div":"<div xmlns=\"http://www.w3.org/1999/xhtml\"><div class=\"hapiHeaderText\">MedOrdMedReason_gt1dayduringEncIPwEd <b>DENEXCEPFAIL </b></div><table class=\"hapiPropertyTable\"><tbody><tr><td>Identifier</td><td>d63fda8a0fb72cd195317700f701d509</td></tr><tr><td>Date of birth</td><td><span>26 September 1975</span></td></tr></tbody></table></div>"},"extension":[{"url":"http://hl7.org/fhir/us/core/StructureDefinition/us-core-race","extension":[{"url":"ombCategory","valueCoding":{"system":"urn:oid:2.16.840.1.113883.6.238","code":"2054-5","display":"Black or African American","userSelected":true}},{"url":"text","valueString":"Black or African American"}]},{"url":"http://hl7.org/fhir/us/core/StructureDefinition/us-core-ethnicity","extension":[{"url":"ombCategory","valueCoding":{"system":"urn:oid:2.16.840.1.113883.6.238","code":"2186-5","display":"Not Hispanic or Latino","userSelected":true}},{"url":"text","valueString":"Not Hispanic or Latino"}]}],"identifier":[{"type":{"coding":[{"system":"http://terminology.hl7.org/CodeSystem/v2-0203","code":"MR"}]},"system":"https://bonnie-fhir.healthit.gov/","value":"60f82c2e98086b570510e272"}],"name":[{"use":"usual","family":"DENEXCEPFail","given":["MedOrdMedReason_gt1dayduringEncIPwEd"]}],"gender":"female","birthDate":"1976-09-26"},"request":{"method":"PUT","url":"Patient/c1ee2b07-f5a7-451c-8bc5-cb97b1cbcca2"}},{"fullUrl":"Coverage/e2631023-e8bb-4470-b0a5-555f47dfe2d5","resource":{"resourceType":"Coverage","id":"e2631023-e8bb-4470-b0a5-555f47dfe2d5","status":"active","subscriberId":"523435","beneficiary":{"reference":"Patient/c1ee2b07-f5a7-451c-8bc5-cb97b1cbcca2"},"relationship":{"coding":[{"system":"http://terminology.hl7.org/CodeSystem/subscriber-relationship","code":"self"}]},"period":{"start":"1976-09-26T08:00:00Z"},"payor":[{"reference":"Organization/ca3d3e1f-3673-4636-8fa8-9254f3469486"}]},"request":{"method":"PUT","url":"Coverage/e2631023-e8bb-4470-b0a5-555f47dfe2d5"}},{"fullUrl":"MedicationRequest/b6fa808e-f453-4db0-b59d-e258a8b38c5f","resource":{"resourceType":"MedicationRequest","id":"b6fa808e-f453-4db0-b59d-e258a8b38c5f","meta":{"profile":["http://hl7.org/fhir/us/qicore/StructureDefinition/qicore-medicationnotrequested"]},"status":"completed","intent":"order","category":[{"coding":[{"system":"http://terminology.hl7.org/CodeSystem/medicationrequest-category","code":"community"}]}],"doNotPerform":true,"medicationCodeableConcept":{"coding":[{"system":"http://www.nlm.nih.gov/research/umls/rxnorm","code":"1037045"}]},"subject":{"reference":"Patient/c1ee2b07-f5a7-451c-8bc5-cb97b1cbcca2"},"authoredOn":"2026-10-12T11:00:00Z","requester":{"reference":"Practitioner/example"},"reasonCode":[{"coding":[{"system":"http://snomed.info/sct","code":"183932001","display":"Procedure contraindicated (situation)","userSelected":true}]}],"dosageInstruction":[{"timing":{"repeat":{"boundsPeriod":{"start":"2026-10-12T11:00:00Z"}}}}]},"request":{"method":"PUT","url":"MedicationRequest/b6fa808e-f453-4db0-b59d-e258a8b38c5f"}},{"fullUrl":"Encounter/e3a06f9a-ceee-48fd-a79d-10305c7a0bab","resource":{"resourceType":"Encounter","id":"e3a06f9a-ceee-48fd-a79d-10305c7a0bab","meta":{"profile":["http://hl7.org/fhir/us/qicore/StructureDefinition/qicore-encounter"]},"status":"finished","class":{"system":"http://terminology.hl7.org/CodeSystem/v3-ActCode","code":"IMP","display":"inpatient encounter","userSelected":true},"type":[{"coding":[{"system":"http://snomed.info/sct","code":"32485007"}]}],"subject":{"reference":"Patient/c1ee2b07-f5a7-451c-8bc5-cb97b1cbcca2"},"period":{"start":"2026-10-10T09:00:00Z","end":"2026-10-12T11:15:00.000+00:00"},"length":{"value":2,"unit":"days"},"reasonReference":[{"reference":"Condition/b2f62496-0f0f-4743-9653-ac5e11d6f82f"}]},"request":{"method":"PUT","url":"Encounter/e3a06f9a-ceee-48fd-a79d-10305c7a0bab"}},{"fullUrl":"Condition/b2f62496-0f0f-4743-9653-ac5e11d6f82f","resource":{"resourceType":"Condition","id":"b2f62496-0f0f-4743-9653-ac5e11d6f82f","meta":{"profile":["http://hl7.org/fhir/us/qicore/StructureDefinition/qicore-condition-encounter-diagnosis"]},"clinicalStatus":{"coding":[{"system":"http://terminology.hl7.org/CodeSystem/condition-clinical","code":"active"}]},"verificationStatus":{"coding":[{"system":"http://terminology.hl7.org/CodeSystem/condition-ver-status","code":"confirmed"}]},"category":[{"coding":[{"system":"http://terminology.hl7.org/CodeSystem/condition-category","code":"encounter-diagnosis","display":"Encounter Diagnosis"}]}],"code":{"coding":[{"system":"http://snomed.info/sct","version":"2020-09","code":"111297002","display":"Nonparalytic stroke (disorder)","userSelected":true}]},"subject":{"reference":"Patient/c1ee2b07-f5a7-451c-8bc5-cb97b1cbcca2"},"recordedDate":"2026-07-28T08:00:00Z"},"request":{"method":"PUT","url":"Condition/b2f62496-0f0f-4743-9653-ac5e11d6f82f"}},{"fullUrl":"Organization/ca3d3e1f-3673-4636-8fa8-9254f3469486","resource":{"resourceType":"Organization","id":"ca3d3e1f-3673-4636-8fa8-9254f3469486","meta":{"profile":["http://hl7.org/fhir/us/qicore/StructureDefinition/qicore-organization"]},"identifier":[{"use":"temp","system":"urn:oid:2.16.840.1.113883.4.4","value":"21-3259825"}],"active":true,"type":[{"coding":[{"system":"http://terminology.hl7.org/CodeSystem/organization-type","code":"pay","display":"Payer"}]}],"name":"Blue Cross Blue Shield of Texas","telecom":[{"system":"phone","value":"(+1) 972-766-6900"}],"address":[{"use":"billing","type":"postal","line":["P.O. Box 660044"],"city":"Dallas","state":"TX","postalCode":"75266-0044","country":"USA"}]},"request":{"method":"PUT","url":"Organization/ca3d3e1f-3673-4636-8fa8-9254f3469486"}},{"fullUrl":"Bundle/60f82c2e98086b570510e272","resource":{"resourceType":"Bundle","id":"60f82c2e98086b570510e272","type":"transaction","entry":[{"fullUrl":"https://madie.cms.gov/Patient/c1ee2b07-f5a7-451c-8bc5-cb97b1cbcca2","resource":{"resourceType":"Patient","id":"c1ee2b07-f5a7-451c-8bc5-cb97b1cbcca2","meta":{"profile":["http://hl7.org/fhir/us/qicore/StructureDefinition/qicore-patient"]},"text":{"status":"generated","div":"<div xmlns=\"http://www.w3.org/1999/xhtml\"><div class=\"hapiHeaderText\">MedOrdMedReason_gt1dayduringEncIPwEd <b>DENEXCEPFAIL </b></div><table class=\"hapiPropertyTable\"><tbody><tr><td>Identifier</td><td>d63fda8a0fb72cd195317700f701d509</td></tr><tr><td>Date of birth</td><td><span>26 September 1975</span></td></tr></tbody></table></div>"},"extension":[{"url":"http://hl7.org/fhir/us/core/StructureDefinition/us-core-race","extension":[{"url":"ombCategory","valueCoding":{"system":"urn:oid:2.16.840.1.113883.6.238","code":"2054-5","display":"Black or African American","userSelected":true}},{"url":"text","valueString":"Black or African American"}]},{"url":"http://hl7.org/fhir/us/core/StructureDefinition/us-core-ethnicity","extension":[{"url":"ombCategory","valueCoding":{"system":"urn:oid:2.16.840.1.113883.6.238","code":"2186-5","display":"Not Hispanic or Latino","userSelected":true}},{"url":"text","valueString":"Not Hispanic or Latino"}]}],"identifier":[{"type":{"coding":[{"system":"http://terminology.hl7.org/CodeSystem/v2-0203","code":"MR"}]},"system":"https://bonnie-fhir.healthit.gov/","value":"60f82c2e98086b570510e272"}],"name":[{"use":"usual","family":"DENEXCEPFail","given":["MedOrdMedReason_gt1dayduringEncIPwEd"]}],"gender":"female","birthDate":"1976-09-26"},"request":{"method":"PUT","url":"Patient/c1ee2b07-f5a7-451c-8bc5-cb97b1cbcca2"}},{"fullUrl":"https://madie.cms.gov/Encounter/3bb7b606-875b-4199-beb5-f6edbffd45b5","resource":{"resourceType":"Encounter","id":"3bb7b606-875b-4199-beb5-f6edbffd45b5","meta":{"profile":["http://hl7.org/fhir/us/qicore/StructureDefinition/qicore-encounter"]},"status":"finished","class":{"system":"http://terminology.hl7.org/CodeSystem/v3-ActCode","code":"EMER","display":"emergency","userSelected":true},"type":[{"coding":[{"system":"http://snomed.info/sct","code":"4525004"}]}],"subject":{"reference":"Patient/c1ee2b07-f5a7-451c-8bc5-cb97b1cbcca2"},"period":{"start":"2026-10-10T08:00:00Z","end":"2026-10-10T08:15:00.000+00:00"},"length":{"value":0,"unit":"days"}},"request":{"method":"PUT","url":"Encounter/3bb7b606-875b-4199-beb5-f6edbffd45b5"}},{"fullUrl":"https://madie.cms.gov/Encounter/e3a06f9a-ceee-48fd-a79d-10305c7a0bab","resource":{"resourceType":"Encounter","id":"e3a06f9a-ceee-48fd-a79d-10305c7a0bab","meta":{"profile":["http://hl7.org/fhir/us/qicore/StructureDefinition/qicore-encounter"]},"status":"finished","class":{"system":"http://terminology.hl7.org/CodeSystem/v3-ActCode","code":"IMP","display":"inpatient encounter","userSelected":true},"type":[{"coding":[{"system":"http://snomed.info/sct","code":"32485007"}]}],"subject":{"reference":"Patient/c1ee2b07-f5a7-451c-8bc5-cb97b1cbcca2"},"period":{"start":"2026-10-10T09:00:00Z","end":"2026-10-12T11:15:00.000+00:00"},"length":{"value":2,"unit":"days"},"reasonReference":[{"reference":"Condition/b2f62496-0f0f-4743-9653-ac5e11d6f82f"}]},"request":{"method":"PUT","url":"Encounter/e3a06f9a-ceee-48fd-a79d-10305c7a0bab"}},{"fullUrl":"https://madie.cms.gov/claim/5ca62962b8484628b8de1ec5","resource":{"resourceType":"Claim","id":"5ca62962b8484628b8de1ec5","meta":{"profile":["http://hl7.org/fhir/us/qicore/StructureDefinition/qicore-claim"]},"status":"active","type":{"coding":[{"system":"http://terminology.hl7.org/CodeSystem/claim-type","code":"institutional"}]},"use":"claim","patient":{"reference":"Patient/d170a0a8-b5ad-4303-b6df-e304dd5f92ad"},"created":"2026-12-01","provider":{"reference":"Practitioner/practitioner-123456"},"priority":{"coding":[{"system":"http://terminology.hl7.org/CodeSystem/processpriority","code":"normal"}]},"diagnosis":[{"sequence":1,"diagnosisCodeableConcept":{"coding":[{"system":"http://hl7.org/fhir/sid/icd-10-cm","code":"I63.00"}]},"type":[{"coding":[{"system":"http://terminology.hl7.org/CodeSystem/ex-diagnosistype","code":"principal"}]}]}],"insurance":[{"sequence":1,"focal":true,"coverage":{"reference":"Coverage/5fa041661c76ba66d9959367"}}],"item":[{"sequence":1,"diagnosisSequence":[1],"productOrService":{"coding":[{"system":"http://terminology.hl7.org/CodeSystem/ex-USCLS","code":"99555"}]},"encounter":[{"reference":"Encounter/e3a06f9a-ceee-48fd-a79d-10305c7a0bab"}]}]},"request":{"method":"PUT","url":"Claim/5ca62962b8484628b8de1ec5"}},{"fullUrl":"https://madie.cms.gov/MedicationRequest/b6fa808e-f453-4db0-b59d-e258a8b38c5f","resource":{"resourceType":"MedicationRequest","id":"b6fa808e-f453-4db0-b59d-e258a8b38c5f","meta":{"profile":["http://hl7.org/fhir/us/qicore/StructureDefinition/qicore-medicationnotrequested"]},"status":"completed","intent":"order","category":[{"coding":[{"system":"http://terminology.hl7.org/CodeSystem/medicationrequest-category","code":"community"}]}],"doNotPerform":true,"medicationCodeableConcept":{"coding":[{"system":"http://www.nlm.nih.gov/research/umls/rxnorm","code":"1037045"}]},"subject":{"reference":"Patient/c1ee2b07-f5a7-451c-8bc5-cb97b1cbcca2"},"authoredOn":"2026-10-12T11:00:00Z","requester":{"reference":"Practitioner/example"},"reasonCode":[{"coding":[{"system":"http://snomed.info/sct","code":"183932001","display":"Procedure contraindicated (situation)","userSelected":true}]}],"dosageInstruction":[{"timing":{"repeat":{"boundsPeriod":{"start":"2026-10-12T11:00:00Z"}}}}]},"request":{"method":"PUT","url":"MedicationRequest/b6fa808e-f453-4db0-b59d-e258a8b38c5f"}},{"fullUrl":"https://madie.cms.gov/Coverage/e2631023-e8bb-4470-b0a5-555f47dfe2d5","resource":{"resourceType":"Coverage","id":"e2631023-e8bb-4470-b0a5-555f47dfe2d5","status":"active","subscriberId":"523435","beneficiary":{"reference":"Patient/c1ee2b07-f5a7-451c-8bc5-cb97b1cbcca2"},"relationship":{"coding":[{"system":"http://terminology.hl7.org/CodeSystem/subscriber-relationship","code":"self"}]},"period":{"start":"1976-09-26T08:00:00Z"},"payor":[{"reference":"Organization/ca3d3e1f-3673-4636-8fa8-9254f3469486"}]},"request":{"method":"PUT","url":"Coverage/e2631023-e8bb-4470-b0a5-555f47dfe2d5"}},{"fullUrl":"https://madie.cms.gov/Condition/b2f62496-0f0f-4743-9653-ac5e11d6f82f","resource":{"resourceType":"Condition","id":"b2f62496-0f0f-4743-9653-ac5e11d6f82f","meta":{"profile":["http://hl7.org/fhir/us/qicore/StructureDefinition/qicore-condition-encounter-diagnosis"]},"clinicalStatus":{"coding":[{"system":"http://terminology.hl7.org/CodeSystem/condition-clinical","code":"active"}]},"verificationStatus":{"coding":[{"system":"http://terminology.hl7.org/CodeSystem/condition-ver-status","code":"confirmed"}]},"category":[{"coding":[{"system":"http://terminology.hl7.org/CodeSystem/condition-category","code":"encounter-diagnosis","display":"Encounter Diagnosis"}]}],"code":{"coding":[{"system":"http://snomed.info/sct","version":"2020-09","code":"111297002","display":"Nonparalytic stroke (disorder)","userSelected":true}]},"subject":{"reference":"Patient/c1ee2b07-f5a7-451c-8bc5-cb97b1cbcca2"},"recordedDate":"2026-07-28T08:00:00Z"},"request":{"method":"PUT","url":"Condition/b2f62496-0f0f-4743-9653-ac5e11d6f82f"}},{"fullUrl":"https://madie.cms.gov/Organization/ca3d3e1f-3673-4636-8fa8-9254f3469486","resource":{"resourceType":"Organization","id":"ca3d3e1f-3673-4636-8fa8-9254f3469486","meta":{"profile":["http://hl7.org/fhir/us/qicore/StructureDefinition/qicore-organization"]},"identifier":[{"use":"temp","system":"urn:oid:2.16.840.1.113883.4.4","value":"21-3259825"}],"active":true,"type":[{"coding":[{"system":"http://terminology.hl7.org/CodeSystem/organization-type","code":"pay","display":"Payer"}]}],"name":"Blue Cross Blue Shield of Texas","telecom":[{"system":"phone","value":"(+1) 972-766-6900"}],"address":[{"use":"billing","type":"postal","line":["P.O. Box 660044"],"city":"Dallas","state":"TX","postalCode":"75266-0044","country":"USA"}]},"request":{"method":"PUT","url":"Organization/ca3d3e1f-3673-4636-8fa8-9254f3469486"}},{"fullUrl":"https://madie.cms.gov/MeasureReport/d5c5470a-cf08-475f-942c-f818057b9ee0","resource":{"resourceType":"MeasureReport","id":"d5c5470a-cf08-475f-942c-f818057b9ee0","meta":{"profile":["http://hl7.org/fhir/us/cqfmeasures/StructureDefinition/test-case-cqfm"]},"contained":[{"resourceType":"Parameters","id":"7d073c41-5ca5-46f0-9a06-27d45b21421c-parameters","parameter":[{"name":"subject","valueString":"c1ee2b07-f5a7-451c-8bc5-cb97b1cbcca2"}]}],"extension":[{"url":"http://hl7.org/fhir/StructureDefinition/cqf-inputParameters","valueReference":{"reference":"#7d073c41-5ca5-46f0-9a06-27d45b21421c-parameters"}},{"url":"http://hl7.org/fhir/us/cqfmeasures/StructureDefinition/cqfm-testCaseDescription","valueMarkdown":"ED visit AND antithrombotic is not ordered due to medical reason but > 1 day after start of ED visit,  global.\"Hospitalization\" =(Ed+IP)\n"}],"modifierExtension":[{"url":"http://hl7.org/fhir/us/cqfmeasures/StructureDefinition/cqfm-isTestCase","valueBoolean":true}],"status":"complete","type":"individual","measure":"https://madie.cms.gov/Measure/CMS72FHIRSTKAntithromboticDay2","period":{"start":"2026-01-01","end":"2026-12-31"},"group":[{"id":"Group_1","population":[{"id":"InitialPopulation_1","code":{"coding":[{"system":"http://terminology.hl7.org/CodeSystem/measure-population","code":"initial-population","display":"Initial Population"}]},"count":1},{"id":"Denominator_1","code":{"coding":[{"system":"http://terminology.hl7.org/CodeSystem/measure-population","code":"denominator","display":"Denominator"}]},"count":1},{"id":"DenominatorExclusion_1","code":{"coding":[{"system":"http://terminology.hl7.org/CodeSystem/measure-population","code":"denominator-exclusion","display":"Denominator Exclusion"}]},"count":0},{"id":"Numerator_1","code":{"coding":[{"system":"http://terminology.hl7.org/CodeSystem/measure-population","code":"numerator","display":"Numerator"}]},"count":0},{"id":"DenominatorException_1","code":{"coding":[{"system":"http://terminology.hl7.org/CodeSystem/measure-population","code":"denominator-exception","display":"Denominator Exception"}]},"count":0}],"measureScore":{"value":0.0}}],"evaluatedResource":[{"reference":"Patient/c1ee2b07-f5a7-451c-8bc5-cb97b1cbcca2"},{"reference":"Encounter/3bb7b606-875b-4199-beb5-f6edbffd45b5"},{"reference":"Encounter/e3a06f9a-ceee-48fd-a79d-10305c7a0bab"},{"reference":"Claim/5ca62962b8484628b8de1ec5"},{"reference":"MedicationRequest/b6fa808e-f453-4db0-b59d-e258a8b38c5f"},{"reference":"Coverage/e2631023-e8bb-4470-b0a5-555f47dfe2d5"},{"reference":"Condition/b2f62496-0f0f-4743-9653-ac5e11d6f82f"},{"reference":"Organization/ca3d3e1f-3673-4636-8fa8-9254f3469486"}]},"request":{"method":"PUT","url":"MeasureReport/d5c5470a-cf08-475f-942c-f818057b9ee0"}}]},"request":{"method":"PUT","url":"Bundle/60f82c2e98086b570510e272"}},{"fullUrl":"Claim/5ca62962b8484628b8de1ec5","resource":{"resourceType":"Claim","id":"5ca62962b8484628b8de1ec5","meta":{"profile":["http://hl7.org/fhir/us/qicore/StructureDefinition/qicore-claim"]},"status":"active","type":{"coding":[{"system":"http://terminology.hl7.org/CodeSystem/claim-type","code":"institutional"}]},"use":"claim","patient":{"reference":"Patient/d170a0a8-b5ad-4303-b6df-e304dd5f92ad"},"created":"2026-12-01","provider":{"reference":"Practitioner/practitioner-123456"},"priority":{"coding":[{"system":"http://terminology.hl7.org/CodeSystem/processpriority","code":"normal"}]},"diagnosis":[{"sequence":1,"diagnosisCodeableConcept":{"coding":[{"system":"http://hl7.org/fhir/sid/icd-10-cm","code":"I63.00"}]},"type":[{"coding":[{"system":"http://terminology.hl7.org/CodeSystem/ex-diagnosistype","code":"principal"}]}]}],"insurance":[{"sequence":1,"focal":true,"coverage":{"reference":"Coverage/5fa041661c76ba66d9959367"}}],"item":[{"sequence":1,"diagnosisSequence":[1],"productOrService":{"coding":[{"system":"http://terminology.hl7.org/CodeSystem/ex-USCLS","code":"99555"}]},"encounter":[{"reference":"Encounter/e3a06f9a-ceee-48fd-a79d-10305c7a0bab"}]}]},"request":{"method":"PUT","url":"Claim/5ca62962b8484628b8de1ec5"}},{"fullUrl":"MeasureReport/d5c5470a-cf08-475f-942c-f818057b9ee0","resource":{"resourceType":"MeasureReport","id":"d5c5470a-cf08-475f-942c-f818057b9ee0","meta":{"profile":["http://hl7.org/fhir/us/cqfmeasures/StructureDefinition/test-case-cqfm"]},"contained":[{"resourceType":"Parameters","id":"7d073c41-5ca5-46f0-9a06-27d45b21421c-parameters","parameter":[{"name":"subject","valueString":"c1ee2b07-f5a7-451c-8bc5-cb97b1cbcca2"}]}],"extension":[{"url":"http://hl7.org/fhir/StructureDefinition/cqf-inputParameters","valueReference":{"reference":"#7d073c41-5ca5-46f0-9a06-27d45b21421c-parameters"}},{"url":"http://hl7.org/fhir/us/cqfmeasures/StructureDefinition/cqfm-testCaseDescription","valueMarkdown":"ED visit AND antithrombotic is not ordered due to medical reason but > 1 day after start of ED visit,  global.\"Hospitalization\" =(Ed+IP)\n"}],"modifierExtension":[{"url":"http://hl7.org/fhir/us/cqfmeasures/StructureDefinition/cqfm-isTestCase","valueBoolean":true}],"status":"complete","type":"individual","measure":"https://madie.cms.gov/Measure/CMS72FHIRSTKAntithromboticDay2","period":{"start":"2026-01-01","end":"2026-12-31"},"group":[{"id":"Group_1","population":[{"id":"InitialPopulation_1","code":{"coding":[{"system":"http://terminology.hl7.org/CodeSystem/measure-population","code":"initial-population","display":"Initial Population"}]},"count":1},{"id":"Denominator_1","code":{"coding":[{"system":"http://terminology.hl7.org/CodeSystem/measure-population","code":"denominator","display":"Denominator"}]},"count":1},{"id":"DenominatorExclusion_1","code":{"coding":[{"system":"http://terminology.hl7.org/CodeSystem/measure-population","code":"denominator-exclusion","display":"Denominator Exclusion"}]},"count":0},{"id":"Numerator_1","code":{"coding":[{"system":"http://terminology.hl7.org/CodeSystem/measure-population","code":"numerator","display":"Numerator"}]},"count":0},{"id":"DenominatorException_1","code":{"coding":[{"system":"http://terminology.hl7.org/CodeSystem/measure-population","code":"denominator-exception","display":"Denominator Exception"}]},"count":0}],"measureScore":{"value":0.0}}],"evaluatedResource":[{"reference":"Patient/c1ee2b07-f5a7-451c-8bc5-cb97b1cbcca2"},{"reference":"Encounter/3bb7b606-875b-4199-beb5-f6edbffd45b5"},{"reference":"Encounter/e3a06f9a-ceee-48fd-a79d-10305c7a0bab"},{"reference":"Claim/5ca62962b8484628b8de1ec5"},{"reference":"MedicationRequest/b6fa808e-f453-4db0-b59d-e258a8b38c5f"},{"reference":"Coverage/e2631023-e8bb-4470-b0a5-555f47dfe2d5"},{"reference":"Condition/b2f62496-0f0f-4743-9653-ac5e11d6f82f"},{"reference":"Organization/ca3d3e1f-3673-4636-8fa8-9254f3469486"}]},"request":{"method":"PUT","url":"MeasureReport/d5c5470a-cf08-475f-942c-f818057b9ee0"}}]}