{"resourceType":"Bundle","id":"tests-fed7bfb0-5746-4029-a64c-f40cc30ce946-bundle","type":"transaction","entry":[{"fullUrl":"Encounter/ef5244fb-46d4-40af-8046-4ce7644df62e","resource":{"resourceType":"Encounter","id":"ef5244fb-46d4-40af-8046-4ce7644df62e","meta":{"profile":["http://hl7.org/fhir/us/qicore/StructureDefinition/qicore-encounter"]},"status":"finished","class":{"system":"http://terminology.hl7.org/CodeSystem/v3-ActCode","code":"EMER","display":"emergency"},"type":[{"coding":[{"system":"http://snomed.info/sct","code":"4525004"}]}],"subject":{"reference":"Patient/fed7bfb0-5746-4029-a64c-f40cc30ce946"},"period":{"start":"2026-10-10T06:15:00Z","end":"2026-10-10T22:59:00.000+00:00"},"length":{"value":0,"unit":"days"}},"request":{"method":"PUT","url":"Encounter/ef5244fb-46d4-40af-8046-4ce7644df62e"}},{"fullUrl":"MeasureReport/167034d3-7532-426a-8187-95113bcca3ca","resource":{"resourceType":"MeasureReport","id":"167034d3-7532-426a-8187-95113bcca3ca","meta":{"profile":["http://hl7.org/fhir/us/cqfmeasures/StructureDefinition/test-case-cqfm"]},"contained":[{"resourceType":"Parameters","id":"5c21b109-1f09-48ff-86d1-3c4ad9aff231-parameters","parameter":[{"name":"subject","valueString":"fed7bfb0-5746-4029-a64c-f40cc30ce946"}]}],"extension":[{"url":"http://hl7.org/fhir/StructureDefinition/cqf-inputParameters","valueReference":{"reference":"#5c21b109-1f09-48ff-86d1-3c4ad9aff231-parameters"}},{"url":"http://hl7.org/fhir/us/cqfmeasures/StructureDefinition/cqfm-testCaseDescription","valueMarkdown":"Patient receives INR of 3.6 the day of ED. ED ends 1 minute before Obs, Obs ends 61 before IP the next day at midnight. Testing Day of operator with HospitalizationWithObservation function.\n"}],"modifierExtension":[{"url":"http://hl7.org/fhir/us/cqfmeasures/StructureDefinition/cqfm-isTestCase","valueBoolean":true}],"status":"complete","type":"individual","measure":"https://madie.cms.gov/Measure/CMS72FHIRSTKAntithromboticDay2","period":{"start":"2026-01-01","end":"2026-12-31"},"group":[{"id":"Group_1","population":[{"id":"InitialPopulation_1","code":{"coding":[{"system":"http://terminology.hl7.org/CodeSystem/measure-population","code":"initial-population","display":"Initial Population"}]},"count":1},{"id":"Denominator_1","code":{"coding":[{"system":"http://terminology.hl7.org/CodeSystem/measure-population","code":"denominator","display":"Denominator"}]},"count":1},{"id":"DenominatorExclusion_1","code":{"coding":[{"system":"http://terminology.hl7.org/CodeSystem/measure-population","code":"denominator-exclusion","display":"Denominator Exclusion"}]},"count":0},{"id":"Numerator_1","code":{"coding":[{"system":"http://terminology.hl7.org/CodeSystem/measure-population","code":"numerator","display":"Numerator"}]},"count":0},{"id":"DenominatorException_1","code":{"coding":[{"system":"http://terminology.hl7.org/CodeSystem/measure-population","code":"denominator-exception","display":"Denominator Exception"}]},"count":0}],"measureScore":{"value":0.0}}],"evaluatedResource":[{"reference":"Patient/fed7bfb0-5746-4029-a64c-f40cc30ce946"},{"reference":"Encounter/ef5244fb-46d4-40af-8046-4ce7644df62e"},{"reference":"Encounter/a3e55dcc-13a8-4c68-9023-fd4b49a03f5b"},{"reference":"Encounter/be726d16-c111-44df-8993-66345bc617f4"},{"reference":"Claim/5ca62962b8484628b8de1ec5"},{"reference":"Observation/cac8f886-e3ce-4b51-bd2f-34a9ce0c6d89"},{"reference":"Coverage/f82b72a0-dcad-4364-903b-ba1624c9f0b3"},{"reference":"Condition/8c5bd4e2-e2cc-40f1-81e8-3fd44bf778fa"},{"reference":"Organization/22653088-1a29-4988-95a7-6581dd38d525"}]},"request":{"method":"PUT","url":"MeasureReport/167034d3-7532-426a-8187-95113bcca3ca"}},{"fullUrl":"Encounter/be726d16-c111-44df-8993-66345bc617f4","resource":{"resourceType":"Encounter","id":"be726d16-c111-44df-8993-66345bc617f4","meta":{"profile":["http://hl7.org/fhir/us/qicore/StructureDefinition/qicore-encounter"]},"status":"finished","class":{"system":"http://terminology.hl7.org/CodeSystem/v3-ActCode","code":"IMP","display":"inpatient encounter","userSelected":true},"type":[{"coding":[{"system":"http://snomed.info/sct","code":"32485007"}]}],"subject":{"reference":"Patient/fed7bfb0-5746-4029-a64c-f40cc30ce946"},"period":{"start":"2026-10-11T02:00:00Z","end":"2026-10-15T11:30:00.000+00:00"},"length":{"value":4,"unit":"days"},"reasonReference":[{"reference":"Condition/8c5bd4e2-e2cc-40f1-81e8-3fd44bf778fa"}]},"request":{"method":"PUT","url":"Encounter/be726d16-c111-44df-8993-66345bc617f4"}},{"fullUrl":"Encounter/a3e55dcc-13a8-4c68-9023-fd4b49a03f5b","resource":{"resourceType":"Encounter","id":"a3e55dcc-13a8-4c68-9023-fd4b49a03f5b","meta":{"profile":["http://hl7.org/fhir/us/qicore/StructureDefinition/qicore-encounter"]},"status":"finished","class":{"system":"http://terminology.hl7.org/CodeSystem/v3-ActCode","code":"OBSENC","display":"observation encounter"},"type":[{"coding":[{"system":"http://snomed.info/sct","code":"448851000124103"}]}],"subject":{"reference":"Patient/fed7bfb0-5746-4029-a64c-f40cc30ce946"},"period":{"start":"2026-10-11T00:00:00Z","end":"2026-10-11T00:59:00.000+00:00"},"length":{"value":0,"unit":"days"}},"request":{"method":"PUT","url":"Encounter/a3e55dcc-13a8-4c68-9023-fd4b49a03f5b"}},{"fullUrl":"Observation/cac8f886-e3ce-4b51-bd2f-34a9ce0c6d89","resource":{"resourceType":"Observation","id":"cac8f886-e3ce-4b51-bd2f-34a9ce0c6d89","meta":{"profile":["http://hl7.org/fhir/us/qicore/StructureDefinition/qicore-observation-lab"]},"status":"final","category":[{"coding":[{"system":"http://terminology.hl7.org/CodeSystem/observation-category","code":"laboratory","display":"Laboratory"}]}],"code":{"coding":[{"system":"http://loinc.org","code":"34714-6"}]},"subject":{"reference":"Patient/fed7bfb0-5746-4029-a64c-f40cc30ce946"},"effectiveDateTime":"2026-10-10T06:15:00Z","issued":"2026-10-10T22:59:00.000+00:00","valueQuantity":{"value":3.6}},"request":{"method":"PUT","url":"Observation/cac8f886-e3ce-4b51-bd2f-34a9ce0c6d89"}},{"fullUrl":"Patient/fed7bfb0-5746-4029-a64c-f40cc30ce946","resource":{"resourceType":"Patient","id":"fed7bfb0-5746-4029-a64c-f40cc30ce946","meta":{"profile":["http://hl7.org/fhir/us/qicore/StructureDefinition/qicore-patient"]},"text":{"status":"generated","div":"<div xmlns=\"http://www.w3.org/1999/xhtml\"><div class=\"hapiHeaderText\">INRdurED_ED&lt;1hrDayOfObs&gt;1hrBFEncDayAft <b>DENEXCEPFAIL </b></div><table class=\"hapiPropertyTable\"><tbody><tr><td>Identifier</td><td>ecacb2fcf882076a0ba904ca23727e8c250c894a0d23c527fc388c89a7abc3cd</td></tr><tr><td>Date of birth</td><td><span>26 September 1975</span></td></tr></tbody></table></div>"},"extension":[{"url":"http://hl7.org/fhir/us/core/StructureDefinition/us-core-race","extension":[{"url":"ombCategory","valueCoding":{"system":"urn:oid:2.16.840.1.113883.6.238","code":"2054-5","display":"Black or African American","userSelected":true}},{"url":"text","valueString":"Black or African American"}]},{"url":"http://hl7.org/fhir/us/core/StructureDefinition/us-core-ethnicity","extension":[{"url":"ombCategory","valueCoding":{"system":"urn:oid:2.16.840.1.113883.6.238","code":"2186-5","display":"Not Hispanic or Latino","userSelected":true}},{"url":"text","valueString":"Not Hispanic or Latino"}]}],"identifier":[{"type":{"coding":[{"system":"http://terminology.hl7.org/CodeSystem/v2-0203","code":"MR"}]},"system":"https://bonnie-fhir.healthit.gov/","value":"60f82c2f98086b570510e2b5"}],"active":true,"name":[{"use":"usual","family":"DENEXCEPFail","given":["INRdurED_ED<1hrDayOfObs>1hrBFEncDayAft"]}],"gender":"female","birthDate":"1976-09-26"},"request":{"method":"PUT","url":"Patient/fed7bfb0-5746-4029-a64c-f40cc30ce946"}},{"fullUrl":"Coverage/f82b72a0-dcad-4364-903b-ba1624c9f0b3","resource":{"resourceType":"Coverage","id":"f82b72a0-dcad-4364-903b-ba1624c9f0b3","status":"active","subscriberId":"523435","beneficiary":{"reference":"Patient/fed7bfb0-5746-4029-a64c-f40cc30ce946"},"relationship":{"coding":[{"system":"http://terminology.hl7.org/CodeSystem/subscriber-relationship","code":"self"}]},"period":{"start":"1976-09-26T08:00:00Z"},"payor":[{"reference":"Organization/22653088-1a29-4988-95a7-6581dd38d525"}]},"request":{"method":"PUT","url":"Coverage/f82b72a0-dcad-4364-903b-ba1624c9f0b3"}},{"fullUrl":"Condition/8c5bd4e2-e2cc-40f1-81e8-3fd44bf778fa","resource":{"resourceType":"Condition","id":"8c5bd4e2-e2cc-40f1-81e8-3fd44bf778fa","meta":{"profile":["http://hl7.org/fhir/us/qicore/StructureDefinition/qicore-condition-encounter-diagnosis"]},"clinicalStatus":{"coding":[{"system":"http://terminology.hl7.org/CodeSystem/condition-clinical","code":"active"}]},"verificationStatus":{"coding":[{"system":"http://terminology.hl7.org/CodeSystem/condition-ver-status","code":"confirmed"}]},"category":[{"coding":[{"system":"http://terminology.hl7.org/CodeSystem/condition-category","code":"encounter-diagnosis","display":"Encounter Diagnosis"}]}],"code":{"coding":[{"system":"http://snomed.info/sct","version":"2020-09","code":"111297002","display":"Nonparalytic stroke (disorder)","userSelected":true}]},"subject":{"reference":"Patient/fed7bfb0-5746-4029-a64c-f40cc30ce946"},"recordedDate":"2026-07-28T08:00:00Z"},"request":{"method":"PUT","url":"Condition/8c5bd4e2-e2cc-40f1-81e8-3fd44bf778fa"}},{"fullUrl":"Bundle/60f82c2f98086b570510e2b5","resource":{"resourceType":"Bundle","id":"60f82c2f98086b570510e2b5","type":"transaction","entry":[{"fullUrl":"https://madie.cms.gov/Patient/fed7bfb0-5746-4029-a64c-f40cc30ce946","resource":{"resourceType":"Patient","id":"fed7bfb0-5746-4029-a64c-f40cc30ce946","meta":{"profile":["http://hl7.org/fhir/us/qicore/StructureDefinition/qicore-patient"]},"text":{"status":"generated","div":"<div xmlns=\"http://www.w3.org/1999/xhtml\"><div class=\"hapiHeaderText\">INRdurED_ED&lt;1hrDayOfObs&gt;1hrBFEncDayAft <b>DENEXCEPFAIL </b></div><table class=\"hapiPropertyTable\"><tbody><tr><td>Identifier</td><td>ecacb2fcf882076a0ba904ca23727e8c250c894a0d23c527fc388c89a7abc3cd</td></tr><tr><td>Date of birth</td><td><span>26 September 1975</span></td></tr></tbody></table></div>"},"extension":[{"url":"http://hl7.org/fhir/us/core/StructureDefinition/us-core-race","extension":[{"url":"ombCategory","valueCoding":{"system":"urn:oid:2.16.840.1.113883.6.238","code":"2054-5","display":"Black or African American","userSelected":true}},{"url":"text","valueString":"Black or African American"}]},{"url":"http://hl7.org/fhir/us/core/StructureDefinition/us-core-ethnicity","extension":[{"url":"ombCategory","valueCoding":{"system":"urn:oid:2.16.840.1.113883.6.238","code":"2186-5","display":"Not Hispanic or Latino","userSelected":true}},{"url":"text","valueString":"Not Hispanic or Latino"}]}],"identifier":[{"type":{"coding":[{"system":"http://terminology.hl7.org/CodeSystem/v2-0203","code":"MR"}]},"system":"https://bonnie-fhir.healthit.gov/","value":"60f82c2f98086b570510e2b5"}],"active":true,"name":[{"use":"usual","family":"DENEXCEPFail","given":["INRdurED_ED<1hrDayOfObs>1hrBFEncDayAft"]}],"gender":"female","birthDate":"1976-09-26"},"request":{"method":"PUT","url":"Patient/fed7bfb0-5746-4029-a64c-f40cc30ce946"}},{"fullUrl":"https://madie.cms.gov/Encounter/ef5244fb-46d4-40af-8046-4ce7644df62e","resource":{"resourceType":"Encounter","id":"ef5244fb-46d4-40af-8046-4ce7644df62e","meta":{"profile":["http://hl7.org/fhir/us/qicore/StructureDefinition/qicore-encounter"]},"status":"finished","class":{"system":"http://terminology.hl7.org/CodeSystem/v3-ActCode","code":"EMER","display":"emergency"},"type":[{"coding":[{"system":"http://snomed.info/sct","code":"4525004"}]}],"subject":{"reference":"Patient/fed7bfb0-5746-4029-a64c-f40cc30ce946"},"period":{"start":"2026-10-10T06:15:00Z","end":"2026-10-10T22:59:00.000+00:00"},"length":{"value":0,"unit":"days"}},"request":{"method":"PUT","url":"Encounter/ef5244fb-46d4-40af-8046-4ce7644df62e"}},{"fullUrl":"https://madie.cms.gov/Encounter/a3e55dcc-13a8-4c68-9023-fd4b49a03f5b","resource":{"resourceType":"Encounter","id":"a3e55dcc-13a8-4c68-9023-fd4b49a03f5b","meta":{"profile":["http://hl7.org/fhir/us/qicore/StructureDefinition/qicore-encounter"]},"status":"finished","class":{"system":"http://terminology.hl7.org/CodeSystem/v3-ActCode","code":"OBSENC","display":"observation encounter"},"type":[{"coding":[{"system":"http://snomed.info/sct","code":"448851000124103"}]}],"subject":{"reference":"Patient/fed7bfb0-5746-4029-a64c-f40cc30ce946"},"period":{"start":"2026-10-11T00:00:00Z","end":"2026-10-11T00:59:00.000+00:00"},"length":{"value":0,"unit":"days"}},"request":{"method":"PUT","url":"Encounter/a3e55dcc-13a8-4c68-9023-fd4b49a03f5b"}},{"fullUrl":"https://madie.cms.gov/Encounter/be726d16-c111-44df-8993-66345bc617f4","resource":{"resourceType":"Encounter","id":"be726d16-c111-44df-8993-66345bc617f4","meta":{"profile":["http://hl7.org/fhir/us/qicore/StructureDefinition/qicore-encounter"]},"status":"finished","class":{"system":"http://terminology.hl7.org/CodeSystem/v3-ActCode","code":"IMP","display":"inpatient encounter","userSelected":true},"type":[{"coding":[{"system":"http://snomed.info/sct","code":"32485007"}]}],"subject":{"reference":"Patient/fed7bfb0-5746-4029-a64c-f40cc30ce946"},"period":{"start":"2026-10-11T02:00:00Z","end":"2026-10-15T11:30:00.000+00:00"},"length":{"value":4,"unit":"days"},"reasonReference":[{"reference":"Condition/8c5bd4e2-e2cc-40f1-81e8-3fd44bf778fa"}]},"request":{"method":"PUT","url":"Encounter/be726d16-c111-44df-8993-66345bc617f4"}},{"fullUrl":"https://madie.cms.gov/claim/5ca62962b8484628b8de1ec5","resource":{"resourceType":"Claim","id":"5ca62962b8484628b8de1ec5","meta":{"profile":["http://hl7.org/fhir/us/qicore/StructureDefinition/qicore-claim"]},"status":"active","type":{"coding":[{"system":"http://terminology.hl7.org/CodeSystem/claim-type","code":"institutional"}]},"use":"claim","patient":{"reference":"Patient/d170a0a8-b5ad-4303-b6df-e304dd5f92ad"},"created":"2026-12-01","provider":{"reference":"Practitioner/practitioner-123456"},"priority":{"coding":[{"system":"http://terminology.hl7.org/CodeSystem/processpriority","code":"normal"}]},"diagnosis":[{"sequence":1,"diagnosisCodeableConcept":{"coding":[{"system":"http://hl7.org/fhir/sid/icd-10-cm","code":"I63.00"}]},"type":[{"coding":[{"system":"http://terminology.hl7.org/CodeSystem/ex-diagnosistype","code":"principal"}]}]}],"insurance":[{"sequence":1,"focal":true,"coverage":{"reference":"Coverage/5fa041661c76ba66d9959367"}}],"item":[{"sequence":1,"diagnosisSequence":[1],"productOrService":{"coding":[{"system":"http://terminology.hl7.org/CodeSystem/ex-USCLS","code":"99555"}]},"encounter":[{"reference":"Encounter/be726d16-c111-44df-8993-66345bc617f4"}]}]},"request":{"method":"PUT","url":"Claim/5ca62962b8484628b8de1ec5"}},{"fullUrl":"https://madie.cms.gov/Observation/cac8f886-e3ce-4b51-bd2f-34a9ce0c6d89","resource":{"resourceType":"Observation","id":"cac8f886-e3ce-4b51-bd2f-34a9ce0c6d89","meta":{"profile":["http://hl7.org/fhir/us/qicore/StructureDefinition/qicore-observation-lab"]},"status":"final","category":[{"coding":[{"system":"http://terminology.hl7.org/CodeSystem/observation-category","code":"laboratory","display":"Laboratory"}]}],"code":{"coding":[{"system":"http://loinc.org","code":"34714-6"}]},"subject":{"reference":"Patient/fed7bfb0-5746-4029-a64c-f40cc30ce946"},"effectiveDateTime":"2026-10-10T06:15:00Z","issued":"2026-10-10T22:59:00.000+00:00","valueQuantity":{"value":3.6}},"request":{"method":"PUT","url":"Observation/cac8f886-e3ce-4b51-bd2f-34a9ce0c6d89"}},{"fullUrl":"https://madie.cms.gov/Coverage/f82b72a0-dcad-4364-903b-ba1624c9f0b3","resource":{"resourceType":"Coverage","id":"f82b72a0-dcad-4364-903b-ba1624c9f0b3","status":"active","subscriberId":"523435","beneficiary":{"reference":"Patient/fed7bfb0-5746-4029-a64c-f40cc30ce946"},"relationship":{"coding":[{"system":"http://terminology.hl7.org/CodeSystem/subscriber-relationship","code":"self"}]},"period":{"start":"1976-09-26T08:00:00Z"},"payor":[{"reference":"Organization/22653088-1a29-4988-95a7-6581dd38d525"}]},"request":{"method":"PUT","url":"Coverage/f82b72a0-dcad-4364-903b-ba1624c9f0b3"}},{"fullUrl":"https://madie.cms.gov/Condition/8c5bd4e2-e2cc-40f1-81e8-3fd44bf778fa","resource":{"resourceType":"Condition","id":"8c5bd4e2-e2cc-40f1-81e8-3fd44bf778fa","meta":{"profile":["http://hl7.org/fhir/us/qicore/StructureDefinition/qicore-condition-encounter-diagnosis"]},"clinicalStatus":{"coding":[{"system":"http://terminology.hl7.org/CodeSystem/condition-clinical","code":"active"}]},"verificationStatus":{"coding":[{"system":"http://terminology.hl7.org/CodeSystem/condition-ver-status","code":"confirmed"}]},"category":[{"coding":[{"system":"http://terminology.hl7.org/CodeSystem/condition-category","code":"encounter-diagnosis","display":"Encounter Diagnosis"}]}],"code":{"coding":[{"system":"http://snomed.info/sct","version":"2020-09","code":"111297002","display":"Nonparalytic stroke (disorder)","userSelected":true}]},"subject":{"reference":"Patient/fed7bfb0-5746-4029-a64c-f40cc30ce946"},"recordedDate":"2026-07-28T08:00:00Z"},"request":{"method":"PUT","url":"Condition/8c5bd4e2-e2cc-40f1-81e8-3fd44bf778fa"}},{"fullUrl":"https://madie.cms.gov/Organization/22653088-1a29-4988-95a7-6581dd38d525","resource":{"resourceType":"Organization","id":"22653088-1a29-4988-95a7-6581dd38d525","meta":{"profile":["http://hl7.org/fhir/us/qicore/StructureDefinition/qicore-organization"]},"identifier":[{"use":"temp","system":"urn:oid:2.16.840.1.113883.4.4","value":"21-3259825"}],"active":true,"type":[{"coding":[{"system":"http://terminology.hl7.org/CodeSystem/organization-type","code":"pay","display":"Payer"}]}],"name":"Blue Cross Blue Shield of Texas","telecom":[{"system":"phone","value":"(+1) 972-766-6900"}],"address":[{"use":"billing","type":"postal","line":["P.O. Box 660044"],"city":"Dallas","state":"TX","postalCode":"75266-0044","country":"USA"}]},"request":{"method":"PUT","url":"Organization/22653088-1a29-4988-95a7-6581dd38d525"}},{"fullUrl":"https://madie.cms.gov/MeasureReport/167034d3-7532-426a-8187-95113bcca3ca","resource":{"resourceType":"MeasureReport","id":"167034d3-7532-426a-8187-95113bcca3ca","meta":{"profile":["http://hl7.org/fhir/us/cqfmeasures/StructureDefinition/test-case-cqfm"]},"contained":[{"resourceType":"Parameters","id":"5c21b109-1f09-48ff-86d1-3c4ad9aff231-parameters","parameter":[{"name":"subject","valueString":"fed7bfb0-5746-4029-a64c-f40cc30ce946"}]}],"extension":[{"url":"http://hl7.org/fhir/StructureDefinition/cqf-inputParameters","valueReference":{"reference":"#5c21b109-1f09-48ff-86d1-3c4ad9aff231-parameters"}},{"url":"http://hl7.org/fhir/us/cqfmeasures/StructureDefinition/cqfm-testCaseDescription","valueMarkdown":"Patient receives INR of 3.6 the day of ED. ED ends 1 minute before Obs, Obs ends 61 before IP the next day at midnight. Testing Day of operator with HospitalizationWithObservation function.\n"}],"modifierExtension":[{"url":"http://hl7.org/fhir/us/cqfmeasures/StructureDefinition/cqfm-isTestCase","valueBoolean":true}],"status":"complete","type":"individual","measure":"https://madie.cms.gov/Measure/CMS72FHIRSTKAntithromboticDay2","period":{"start":"2026-01-01","end":"2026-12-31"},"group":[{"id":"Group_1","population":[{"id":"InitialPopulation_1","code":{"coding":[{"system":"http://terminology.hl7.org/CodeSystem/measure-population","code":"initial-population","display":"Initial Population"}]},"count":1},{"id":"Denominator_1","code":{"coding":[{"system":"http://terminology.hl7.org/CodeSystem/measure-population","code":"denominator","display":"Denominator"}]},"count":1},{"id":"DenominatorExclusion_1","code":{"coding":[{"system":"http://terminology.hl7.org/CodeSystem/measure-population","code":"denominator-exclusion","display":"Denominator Exclusion"}]},"count":0},{"id":"Numerator_1","code":{"coding":[{"system":"http://terminology.hl7.org/CodeSystem/measure-population","code":"numerator","display":"Numerator"}]},"count":0},{"id":"DenominatorException_1","code":{"coding":[{"system":"http://terminology.hl7.org/CodeSystem/measure-population","code":"denominator-exception","display":"Denominator Exception"}]},"count":0}],"measureScore":{"value":0.0}}],"evaluatedResource":[{"reference":"Patient/fed7bfb0-5746-4029-a64c-f40cc30ce946"},{"reference":"Encounter/ef5244fb-46d4-40af-8046-4ce7644df62e"},{"reference":"Encounter/a3e55dcc-13a8-4c68-9023-fd4b49a03f5b"},{"reference":"Encounter/be726d16-c111-44df-8993-66345bc617f4"},{"reference":"Claim/5ca62962b8484628b8de1ec5"},{"reference":"Observation/cac8f886-e3ce-4b51-bd2f-34a9ce0c6d89"},{"reference":"Coverage/f82b72a0-dcad-4364-903b-ba1624c9f0b3"},{"reference":"Condition/8c5bd4e2-e2cc-40f1-81e8-3fd44bf778fa"},{"reference":"Organization/22653088-1a29-4988-95a7-6581dd38d525"}]},"request":{"method":"PUT","url":"MeasureReport/167034d3-7532-426a-8187-95113bcca3ca"}}]},"request":{"method":"PUT","url":"Bundle/60f82c2f98086b570510e2b5"}},{"fullUrl":"Claim/5ca62962b8484628b8de1ec5","resource":{"resourceType":"Claim","id":"5ca62962b8484628b8de1ec5","meta":{"profile":["http://hl7.org/fhir/us/qicore/StructureDefinition/qicore-claim"]},"status":"active","type":{"coding":[{"system":"http://terminology.hl7.org/CodeSystem/claim-type","code":"institutional"}]},"use":"claim","patient":{"reference":"Patient/d170a0a8-b5ad-4303-b6df-e304dd5f92ad"},"created":"2026-12-01","provider":{"reference":"Practitioner/practitioner-123456"},"priority":{"coding":[{"system":"http://terminology.hl7.org/CodeSystem/processpriority","code":"normal"}]},"diagnosis":[{"sequence":1,"diagnosisCodeableConcept":{"coding":[{"system":"http://hl7.org/fhir/sid/icd-10-cm","code":"I63.00"}]},"type":[{"coding":[{"system":"http://terminology.hl7.org/CodeSystem/ex-diagnosistype","code":"principal"}]}]}],"insurance":[{"sequence":1,"focal":true,"coverage":{"reference":"Coverage/5fa041661c76ba66d9959367"}}],"item":[{"sequence":1,"diagnosisSequence":[1],"productOrService":{"coding":[{"system":"http://terminology.hl7.org/CodeSystem/ex-USCLS","code":"99555"}]},"encounter":[{"reference":"Encounter/be726d16-c111-44df-8993-66345bc617f4"}]}]},"request":{"method":"PUT","url":"Claim/5ca62962b8484628b8de1ec5"}},{"fullUrl":"Organization/22653088-1a29-4988-95a7-6581dd38d525","resource":{"resourceType":"Organization","id":"22653088-1a29-4988-95a7-6581dd38d525","meta":{"profile":["http://hl7.org/fhir/us/qicore/StructureDefinition/qicore-organization"]},"identifier":[{"use":"temp","system":"urn:oid:2.16.840.1.113883.4.4","value":"21-3259825"}],"active":true,"type":[{"coding":[{"system":"http://terminology.hl7.org/CodeSystem/organization-type","code":"pay","display":"Payer"}]}],"name":"Blue Cross Blue Shield of Texas","telecom":[{"system":"phone","value":"(+1) 972-766-6900"}],"address":[{"use":"billing","type":"postal","line":["P.O. Box 660044"],"city":"Dallas","state":"TX","postalCode":"75266-0044","country":"USA"}]},"request":{"method":"PUT","url":"Organization/22653088-1a29-4988-95a7-6581dd38d525"}}]}