{"resourceType":"Bundle","id":"tests-20b51a78-5526-4bb9-8d97-a6f149c89182-bundle","type":"transaction","entry":[{"fullUrl":"Bundle/60f82c2e98086b570510e261","resource":{"resourceType":"Bundle","id":"60f82c2e98086b570510e261","type":"transaction","entry":[{"fullUrl":"https://madie.cms.gov/Patient/20b51a78-5526-4bb9-8d97-a6f149c89182","resource":{"resourceType":"Patient","id":"20b51a78-5526-4bb9-8d97-a6f149c89182","meta":{"profile":["http://hl7.org/fhir/us/qicore/StructureDefinition/qicore-patient"]},"text":{"status":"generated","div":"<div xmlns=\"http://www.w3.org/1999/xhtml\"><div class=\"hapiHeaderText\">MedTPA_EQ24hrB4_EncIP <b>DENEXPASS </b></div><table class=\"hapiPropertyTable\"><tbody><tr><td>Identifier</td><td>9603de4f7d5456ac92af8f8840850f2b</td></tr><tr><td>Date of birth</td><td><span>26 September 1975</span></td></tr></tbody></table></div>"},"extension":[{"url":"http://hl7.org/fhir/us/core/StructureDefinition/us-core-race","extension":[{"url":"ombCategory","valueCoding":{"system":"urn:oid:2.16.840.1.113883.6.238","code":"2054-5","display":"Black or African American","userSelected":true}},{"url":"text","valueString":"Black or African American"}]},{"url":"http://hl7.org/fhir/us/core/StructureDefinition/us-core-ethnicity","extension":[{"url":"ombCategory","valueCoding":{"system":"urn:oid:2.16.840.1.113883.6.238","code":"2186-5","display":"Not Hispanic or Latino","userSelected":true}},{"url":"text","valueString":"Not Hispanic or Latino"}]}],"identifier":[{"type":{"coding":[{"system":"http://terminology.hl7.org/CodeSystem/v2-0203","code":"MR"}]},"system":"https://bonnie-fhir.healthit.gov/","value":"60f82c2e98086b570510e261"}],"active":true,"name":[{"use":"usual","family":"DENEXPass","given":["MedTPAEQ24hrB4EncIP  "]}],"gender":"female","birthDate":"1976-09-26"},"request":{"method":"PUT","url":"Patient/20b51a78-5526-4bb9-8d97-a6f149c89182"}},{"fullUrl":"https://madie.cms.gov/Encounter/0ef526cf-7ece-4385-88dd-59aea43bd5da","resource":{"resourceType":"Encounter","id":"0ef526cf-7ece-4385-88dd-59aea43bd5da","meta":{"profile":["http://hl7.org/fhir/us/qicore/StructureDefinition/qicore-encounter"]},"status":"finished","class":{"system":"http://terminology.hl7.org/CodeSystem/v3-ActCode","code":"IMP","display":"inpatient encounter"},"type":[{"coding":[{"system":"http://snomed.info/sct","code":"32485007"}]}],"subject":{"reference":"Patient/20b51a78-5526-4bb9-8d97-a6f149c89182"},"period":{"start":"2026-10-10T09:00:00Z","end":"2026-10-12T11:15:00.000+00:00"},"length":{"value":2,"unit":"days"},"reasonReference":[{"reference":"Condition/b4b16295-d624-49bc-a7b5-30fa0eaaca42"}]},"request":{"method":"PUT","url":"Encounter/0ef526cf-7ece-4385-88dd-59aea43bd5da"}},{"fullUrl":"https://madie.cms.gov/MedicationAdministration/cb5c66b5-ec0d-4d2a-9dc4-2eebdb5907bf","resource":{"resourceType":"MedicationAdministration","id":"cb5c66b5-ec0d-4d2a-9dc4-2eebdb5907bf","meta":{"profile":["http://hl7.org/fhir/us/qicore/StructureDefinition/qicore-medicationadministration"]},"extension":[{"url":"http://hl7.org/fhir/us/qicore/StructureDefinition/qicore-recorded","valueDateTime":"2026-10-09T09:00:00Z"}],"status":"completed","medicationCodeableConcept":{"coding":[{"system":"http://www.nlm.nih.gov/research/umls/rxnorm","code":"1804799"}]},"subject":{"reference":"Patient/20b51a78-5526-4bb9-8d97-a6f149c89182"},"effectivePeriod":{"start":"2026-10-10T09:00:00Z","end":"2026-10-12T11:15:00.000+00:00"}},"request":{"method":"PUT","url":"MedicationAdministration/cb5c66b5-ec0d-4d2a-9dc4-2eebdb5907bf"}},{"fullUrl":"https://madie.cms.gov/Coverage/1a279965-add6-42d3-8335-9788c9c26647","resource":{"resourceType":"Coverage","id":"1a279965-add6-42d3-8335-9788c9c26647","status":"active","beneficiary":{"reference":"Patient/20b51a78-5526-4bb9-8d97-a6f149c89182"},"period":{"start":"1976-09-26T08:00:00Z"},"payor":[{"reference":"Organization/c0c9139f-025f-4ac5-8f32-a90f0ab8fa58"}]},"request":{"method":"PUT","url":"Coverage/1a279965-add6-42d3-8335-9788c9c26647"}},{"fullUrl":"https://madie.cms.gov/Condition/b4b16295-d624-49bc-a7b5-30fa0eaaca42","resource":{"resourceType":"Condition","id":"b4b16295-d624-49bc-a7b5-30fa0eaaca42","meta":{"profile":["http://hl7.org/fhir/us/qicore/StructureDefinition/qicore-condition-encounter-diagnosis"]},"clinicalStatus":{"coding":[{"system":"http://terminology.hl7.org/CodeSystem/condition-clinical","code":"active"}]},"verificationStatus":{"coding":[{"system":"http://terminology.hl7.org/CodeSystem/condition-ver-status","code":"confirmed"}]},"category":[{"coding":[{"system":"http://terminology.hl7.org/CodeSystem/condition-category","code":"encounter-diagnosis","display":"Encounter Diagnosis"}]}],"code":{"coding":[{"system":"http://snomed.info/sct","version":"2020-09","code":"111297002","display":"Nonparalytic stroke (disorder)","userSelected":true}]},"subject":{"reference":"Patient/20b51a78-5526-4bb9-8d97-a6f149c89182"},"encounter":{"reference":"Encounter/0ef526cf-7ece-4385-88dd-59aea43bd5da"},"recordedDate":"2026-08-13T08:00:00Z"},"request":{"method":"PUT","url":"Condition/b4b16295-d624-49bc-a7b5-30fa0eaaca42"}},{"fullUrl":"https://madie.cms.gov/claim/5ca62962b8484628b8de1ec5","resource":{"resourceType":"Claim","id":"5ca62962b8484628b8de1ec5","meta":{"profile":["http://hl7.org/fhir/us/qicore/StructureDefinition/qicore-claim"]},"status":"active","type":{"coding":[{"system":"http://terminology.hl7.org/CodeSystem/claim-type","code":"institutional"}]},"use":"claim","patient":{"reference":"Patient/20b51a78-5526-4bb9-8d97-a6f149c89182"},"created":"2026-12-01","provider":{"reference":"Practitioner/practitioner-123456"},"priority":{"coding":[{"system":"http://terminology.hl7.org/CodeSystem/processpriority","code":"normal"}]},"diagnosis":[{"sequence":1,"diagnosisCodeableConcept":{"coding":[{"system":"http://hl7.org/fhir/sid/icd-10-cm","code":"I63.00"}]},"type":[{"coding":[{"system":"http://terminology.hl7.org/CodeSystem/ex-diagnosistype","code":"principal"}]}]}],"insurance":[{"sequence":1,"focal":true,"coverage":{"reference":"Coverage/5fa041661c76ba66d9959367"}}],"item":[{"sequence":1,"diagnosisSequence":[1],"productOrService":{"coding":[{"system":"http://terminology.hl7.org/CodeSystem/ex-USCLS","code":"99555"}]},"encounter":[{"reference":"Encounter/0ef526cf-7ece-4385-88dd-59aea43bd5da"}]}]},"request":{"method":"PUT","url":"Claim/5ca62962b8484628b8de1ec5"}},{"fullUrl":"https://madie.cms.gov/Organization/c0c9139f-025f-4ac5-8f32-a90f0ab8fa58","resource":{"resourceType":"Organization","id":"c0c9139f-025f-4ac5-8f32-a90f0ab8fa58","meta":{"profile":["http://hl7.org/fhir/us/qicore/StructureDefinition/qicore-organization"]},"identifier":[{"use":"temp","system":"urn:oid:2.16.840.1.113883.4.4","value":"21-3259825"}],"active":true,"type":[{"coding":[{"system":"http://terminology.hl7.org/CodeSystem/organization-type","code":"pay","display":"Payer"}]}],"name":"Blue Cross Blue Shield of Texas","telecom":[{"system":"phone","value":"(+1) 972-766-6900"}],"address":[{"use":"billing","type":"postal","line":["P.O. Box 660044"],"city":"Dallas","state":"TX","postalCode":"75266-0044","country":"USA"}]},"request":{"method":"PUT","url":"Organization/c0c9139f-025f-4ac5-8f32-a90f0ab8fa58"}},{"fullUrl":"https://madie.cms.gov/MeasureReport/fa42bed2-8e4b-436e-81bb-b3ae1e4d1010","resource":{"resourceType":"MeasureReport","id":"fa42bed2-8e4b-436e-81bb-b3ae1e4d1010","meta":{"profile":["http://hl7.org/fhir/us/cqfmeasures/StructureDefinition/test-case-cqfm"]},"contained":[{"resourceType":"Parameters","id":"ce7424e0-61ba-4432-8832-c38f6ace1d12-parameters","parameter":[{"name":"subject","valueString":"20b51a78-5526-4bb9-8d97-a6f149c89182"}]}],"extension":[{"url":"http://hl7.org/fhir/StructureDefinition/cqf-inputParameters","valueReference":{"reference":"#ce7424e0-61ba-4432-8832-c38f6ace1d12-parameters"}},{"url":"http://hl7.org/fhir/us/cqfmeasures/StructureDefinition/cqfm-testCaseDescription","valueMarkdown":"Patient receives TPA =24 hours before IP encounter starts\n"}],"modifierExtension":[{"url":"http://hl7.org/fhir/us/cqfmeasures/StructureDefinition/cqfm-isTestCase","valueBoolean":true}],"status":"complete","type":"individual","measure":"https://madie.cms.gov/Measure/CMS72FHIRSTKAntithromboticDay2","period":{"start":"2026-01-01","end":"2026-12-31"},"group":[{"id":"Group_1","population":[{"id":"InitialPopulation_1","code":{"coding":[{"system":"http://terminology.hl7.org/CodeSystem/measure-population","code":"initial-population","display":"Initial Population"}]},"count":1},{"id":"Denominator_1","code":{"coding":[{"system":"http://terminology.hl7.org/CodeSystem/measure-population","code":"denominator","display":"Denominator"}]},"count":1},{"id":"DenominatorExclusion_1","code":{"coding":[{"system":"http://terminology.hl7.org/CodeSystem/measure-population","code":"denominator-exclusion","display":"Denominator Exclusion"}]},"count":1},{"id":"Numerator_1","code":{"coding":[{"system":"http://terminology.hl7.org/CodeSystem/measure-population","code":"numerator","display":"Numerator"}]},"count":0},{"id":"DenominatorException_1","code":{"coding":[{"system":"http://terminology.hl7.org/CodeSystem/measure-population","code":"denominator-exception","display":"Denominator Exception"}]},"count":0}],"measureScore":{"value":0.0}}],"evaluatedResource":[{"reference":"Patient/20b51a78-5526-4bb9-8d97-a6f149c89182"},{"reference":"Encounter/0ef526cf-7ece-4385-88dd-59aea43bd5da"},{"reference":"MedicationAdministration/cb5c66b5-ec0d-4d2a-9dc4-2eebdb5907bf"},{"reference":"Coverage/1a279965-add6-42d3-8335-9788c9c26647"},{"reference":"Condition/b4b16295-d624-49bc-a7b5-30fa0eaaca42"},{"reference":"Claim/5ca62962b8484628b8de1ec5"},{"reference":"Organization/c0c9139f-025f-4ac5-8f32-a90f0ab8fa58"}]},"request":{"method":"PUT","url":"MeasureReport/fa42bed2-8e4b-436e-81bb-b3ae1e4d1010"}}]},"request":{"method":"PUT","url":"Bundle/60f82c2e98086b570510e261"}},{"fullUrl":"Patient/20b51a78-5526-4bb9-8d97-a6f149c89182","resource":{"resourceType":"Patient","id":"20b51a78-5526-4bb9-8d97-a6f149c89182","meta":{"profile":["http://hl7.org/fhir/us/qicore/StructureDefinition/qicore-patient"]},"text":{"status":"generated","div":"<div xmlns=\"http://www.w3.org/1999/xhtml\"><div class=\"hapiHeaderText\">MedTPA_EQ24hrB4_EncIP <b>DENEXPASS </b></div><table class=\"hapiPropertyTable\"><tbody><tr><td>Identifier</td><td>9603de4f7d5456ac92af8f8840850f2b</td></tr><tr><td>Date of birth</td><td><span>26 September 1975</span></td></tr></tbody></table></div>"},"extension":[{"url":"http://hl7.org/fhir/us/core/StructureDefinition/us-core-race","extension":[{"url":"ombCategory","valueCoding":{"system":"urn:oid:2.16.840.1.113883.6.238","code":"2054-5","display":"Black or African American","userSelected":true}},{"url":"text","valueString":"Black or African American"}]},{"url":"http://hl7.org/fhir/us/core/StructureDefinition/us-core-ethnicity","extension":[{"url":"ombCategory","valueCoding":{"system":"urn:oid:2.16.840.1.113883.6.238","code":"2186-5","display":"Not Hispanic or Latino","userSelected":true}},{"url":"text","valueString":"Not Hispanic or Latino"}]}],"identifier":[{"type":{"coding":[{"system":"http://terminology.hl7.org/CodeSystem/v2-0203","code":"MR"}]},"system":"https://bonnie-fhir.healthit.gov/","value":"60f82c2e98086b570510e261"}],"active":true,"name":[{"use":"usual","family":"DENEXPass","given":["MedTPAEQ24hrB4EncIP  "]}],"gender":"female","birthDate":"1976-09-26"},"request":{"method":"PUT","url":"Patient/20b51a78-5526-4bb9-8d97-a6f149c89182"}},{"fullUrl":"Coverage/1a279965-add6-42d3-8335-9788c9c26647","resource":{"resourceType":"Coverage","id":"1a279965-add6-42d3-8335-9788c9c26647","status":"active","beneficiary":{"reference":"Patient/20b51a78-5526-4bb9-8d97-a6f149c89182"},"period":{"start":"1976-09-26T08:00:00Z"},"payor":[{"reference":"Organization/c0c9139f-025f-4ac5-8f32-a90f0ab8fa58"}]},"request":{"method":"PUT","url":"Coverage/1a279965-add6-42d3-8335-9788c9c26647"}},{"fullUrl":"Encounter/0ef526cf-7ece-4385-88dd-59aea43bd5da","resource":{"resourceType":"Encounter","id":"0ef526cf-7ece-4385-88dd-59aea43bd5da","meta":{"profile":["http://hl7.org/fhir/us/qicore/StructureDefinition/qicore-encounter"]},"status":"finished","class":{"system":"http://terminology.hl7.org/CodeSystem/v3-ActCode","code":"IMP","display":"inpatient encounter"},"type":[{"coding":[{"system":"http://snomed.info/sct","code":"32485007"}]}],"subject":{"reference":"Patient/20b51a78-5526-4bb9-8d97-a6f149c89182"},"period":{"start":"2026-10-10T09:00:00Z","end":"2026-10-12T11:15:00.000+00:00"},"length":{"value":2,"unit":"days"},"reasonReference":[{"reference":"Condition/b4b16295-d624-49bc-a7b5-30fa0eaaca42"}]},"request":{"method":"PUT","url":"Encounter/0ef526cf-7ece-4385-88dd-59aea43bd5da"}},{"fullUrl":"MeasureReport/fa42bed2-8e4b-436e-81bb-b3ae1e4d1010","resource":{"resourceType":"MeasureReport","id":"fa42bed2-8e4b-436e-81bb-b3ae1e4d1010","meta":{"profile":["http://hl7.org/fhir/us/cqfmeasures/StructureDefinition/test-case-cqfm"]},"contained":[{"resourceType":"Parameters","id":"ce7424e0-61ba-4432-8832-c38f6ace1d12-parameters","parameter":[{"name":"subject","valueString":"20b51a78-5526-4bb9-8d97-a6f149c89182"}]}],"extension":[{"url":"http://hl7.org/fhir/StructureDefinition/cqf-inputParameters","valueReference":{"reference":"#ce7424e0-61ba-4432-8832-c38f6ace1d12-parameters"}},{"url":"http://hl7.org/fhir/us/cqfmeasures/StructureDefinition/cqfm-testCaseDescription","valueMarkdown":"Patient receives TPA =24 hours before IP encounter starts\n"}],"modifierExtension":[{"url":"http://hl7.org/fhir/us/cqfmeasures/StructureDefinition/cqfm-isTestCase","valueBoolean":true}],"status":"complete","type":"individual","measure":"https://madie.cms.gov/Measure/CMS72FHIRSTKAntithromboticDay2","period":{"start":"2026-01-01","end":"2026-12-31"},"group":[{"id":"Group_1","population":[{"id":"InitialPopulation_1","code":{"coding":[{"system":"http://terminology.hl7.org/CodeSystem/measure-population","code":"initial-population","display":"Initial Population"}]},"count":1},{"id":"Denominator_1","code":{"coding":[{"system":"http://terminology.hl7.org/CodeSystem/measure-population","code":"denominator","display":"Denominator"}]},"count":1},{"id":"DenominatorExclusion_1","code":{"coding":[{"system":"http://terminology.hl7.org/CodeSystem/measure-population","code":"denominator-exclusion","display":"Denominator Exclusion"}]},"count":1},{"id":"Numerator_1","code":{"coding":[{"system":"http://terminology.hl7.org/CodeSystem/measure-population","code":"numerator","display":"Numerator"}]},"count":0},{"id":"DenominatorException_1","code":{"coding":[{"system":"http://terminology.hl7.org/CodeSystem/measure-population","code":"denominator-exception","display":"Denominator Exception"}]},"count":0}],"measureScore":{"value":0.0}}],"evaluatedResource":[{"reference":"Patient/20b51a78-5526-4bb9-8d97-a6f149c89182"},{"reference":"Encounter/0ef526cf-7ece-4385-88dd-59aea43bd5da"},{"reference":"MedicationAdministration/cb5c66b5-ec0d-4d2a-9dc4-2eebdb5907bf"},{"reference":"Coverage/1a279965-add6-42d3-8335-9788c9c26647"},{"reference":"Condition/b4b16295-d624-49bc-a7b5-30fa0eaaca42"},{"reference":"Claim/5ca62962b8484628b8de1ec5"},{"reference":"Organization/c0c9139f-025f-4ac5-8f32-a90f0ab8fa58"}]},"request":{"method":"PUT","url":"MeasureReport/fa42bed2-8e4b-436e-81bb-b3ae1e4d1010"}},{"fullUrl":"Condition/b4b16295-d624-49bc-a7b5-30fa0eaaca42","resource":{"resourceType":"Condition","id":"b4b16295-d624-49bc-a7b5-30fa0eaaca42","meta":{"profile":["http://hl7.org/fhir/us/qicore/StructureDefinition/qicore-condition-encounter-diagnosis"]},"clinicalStatus":{"coding":[{"system":"http://terminology.hl7.org/CodeSystem/condition-clinical","code":"active"}]},"verificationStatus":{"coding":[{"system":"http://terminology.hl7.org/CodeSystem/condition-ver-status","code":"confirmed"}]},"category":[{"coding":[{"system":"http://terminology.hl7.org/CodeSystem/condition-category","code":"encounter-diagnosis","display":"Encounter Diagnosis"}]}],"code":{"coding":[{"system":"http://snomed.info/sct","version":"2020-09","code":"111297002","display":"Nonparalytic stroke (disorder)","userSelected":true}]},"subject":{"reference":"Patient/20b51a78-5526-4bb9-8d97-a6f149c89182"},"encounter":{"reference":"Encounter/0ef526cf-7ece-4385-88dd-59aea43bd5da"},"recordedDate":"2026-08-13T08:00:00Z"},"request":{"method":"PUT","url":"Condition/b4b16295-d624-49bc-a7b5-30fa0eaaca42"}},{"fullUrl":"MedicationAdministration/cb5c66b5-ec0d-4d2a-9dc4-2eebdb5907bf","resource":{"resourceType":"MedicationAdministration","id":"cb5c66b5-ec0d-4d2a-9dc4-2eebdb5907bf","meta":{"profile":["http://hl7.org/fhir/us/qicore/StructureDefinition/qicore-medicationadministration"]},"extension":[{"url":"http://hl7.org/fhir/us/qicore/StructureDefinition/qicore-recorded","valueDateTime":"2026-10-09T09:00:00Z"}],"status":"completed","medicationCodeableConcept":{"coding":[{"system":"http://www.nlm.nih.gov/research/umls/rxnorm","code":"1804799"}]},"subject":{"reference":"Patient/20b51a78-5526-4bb9-8d97-a6f149c89182"},"effectivePeriod":{"start":"2026-10-10T09:00:00Z","end":"2026-10-12T11:15:00.000+00:00"}},"request":{"method":"PUT","url":"MedicationAdministration/cb5c66b5-ec0d-4d2a-9dc4-2eebdb5907bf"}},{"fullUrl":"Claim/5ca62962b8484628b8de1ec5","resource":{"resourceType":"Claim","id":"5ca62962b8484628b8de1ec5","meta":{"profile":["http://hl7.org/fhir/us/qicore/StructureDefinition/qicore-claim"]},"status":"active","type":{"coding":[{"system":"http://terminology.hl7.org/CodeSystem/claim-type","code":"institutional"}]},"use":"claim","patient":{"reference":"Patient/20b51a78-5526-4bb9-8d97-a6f149c89182"},"created":"2026-12-01","provider":{"reference":"Practitioner/practitioner-123456"},"priority":{"coding":[{"system":"http://terminology.hl7.org/CodeSystem/processpriority","code":"normal"}]},"diagnosis":[{"sequence":1,"diagnosisCodeableConcept":{"coding":[{"system":"http://hl7.org/fhir/sid/icd-10-cm","code":"I63.00"}]},"type":[{"coding":[{"system":"http://terminology.hl7.org/CodeSystem/ex-diagnosistype","code":"principal"}]}]}],"insurance":[{"sequence":1,"focal":true,"coverage":{"reference":"Coverage/5fa041661c76ba66d9959367"}}],"item":[{"sequence":1,"diagnosisSequence":[1],"productOrService":{"coding":[{"system":"http://terminology.hl7.org/CodeSystem/ex-USCLS","code":"99555"}]},"encounter":[{"reference":"Encounter/0ef526cf-7ece-4385-88dd-59aea43bd5da"}]}]},"request":{"method":"PUT","url":"Claim/5ca62962b8484628b8de1ec5"}},{"fullUrl":"Organization/c0c9139f-025f-4ac5-8f32-a90f0ab8fa58","resource":{"resourceType":"Organization","id":"c0c9139f-025f-4ac5-8f32-a90f0ab8fa58","meta":{"profile":["http://hl7.org/fhir/us/qicore/StructureDefinition/qicore-organization"]},"identifier":[{"use":"temp","system":"urn:oid:2.16.840.1.113883.4.4","value":"21-3259825"}],"active":true,"type":[{"coding":[{"system":"http://terminology.hl7.org/CodeSystem/organization-type","code":"pay","display":"Payer"}]}],"name":"Blue Cross Blue Shield of Texas","telecom":[{"system":"phone","value":"(+1) 972-766-6900"}],"address":[{"use":"billing","type":"postal","line":["P.O. Box 660044"],"city":"Dallas","state":"TX","postalCode":"75266-0044","country":"USA"}]},"request":{"method":"PUT","url":"Organization/c0c9139f-025f-4ac5-8f32-a90f0ab8fa58"}}]}