{"resourceType":"Bundle","id":"tests-deeafe68-b561-4d1c-9d73-5f343f809d8c-bundle","type":"transaction","entry":[{"resource":{"resourceType":"Condition","id":"a25b219a-cc45-4e32-841b-0ed160180e2b","meta":{"profile":["http://hl7.org/fhir/us/qicore/StructureDefinition/qicore-condition-encounter-diagnosis"]},"clinicalStatus":{"coding":[{"system":"http://terminology.hl7.org/CodeSystem/condition-clinical","code":"active"}]},"verificationStatus":{"coding":[{"system":"http://terminology.hl7.org/CodeSystem/condition-ver-status","code":"confirmed"}]},"category":[{"coding":[{"system":"http://terminology.hl7.org/CodeSystem/condition-category","code":"encounter-diagnosis","display":"Encounter Diagnosis"}]}],"code":{"coding":[{"system":"http://snomed.info/sct","version":"2020-09","code":"111297002","display":"Nonparalytic stroke (disorder)","userSelected":true}]},"subject":{"reference":"Patient/deeafe68-b561-4d1c-9d73-5f343f809d8c"},"recordedDate":"2026-08-13T08:00:00Z"},"request":{"method":"PUT","url":"Condition/a25b219a-cc45-4e32-841b-0ed160180e2b"}},{"resource":{"resourceType":"Procedure","id":"96de9675-b7cc-4ab7-85a8-39d9c1221d0f","meta":{"profile":["http://hl7.org/fhir/us/qicore/StructureDefinition/qicore-procedure"]},"extension":[{"url":"http://hl7.org/fhir/us/qicore/StructureDefinition/qicore-recorded","valueDateTime":"2026-11-18T08:02:00Z"}],"status":"completed","code":{"coding":[{"system":"http://snomed.info/sct","code":"133918004"}]},"subject":{"reference":"Patient/deeafe68-b561-4d1c-9d73-5f343f809d8c"},"performedPeriod":{"start":"2026-11-18T08:02:00Z","end":"2026-11-18T08:02:00.000+00:00"}},"request":{"method":"PUT","url":"Procedure/96de9675-b7cc-4ab7-85a8-39d9c1221d0f"}},{"resource":{"resourceType":"Encounter","id":"6da0cab5-e501-4be8-8040-2f4f5b2d3305","meta":{"profile":["http://hl7.org/fhir/us/qicore/StructureDefinition/qicore-encounter"]},"status":"finished","class":{"system":"http://terminology.hl7.org/CodeSystem/v3-ActCode","code":"EMER","display":"emergency"},"type":[{"coding":[{"system":"http://snomed.info/sct","code":"4525004"}]}],"subject":{"reference":"Patient/deeafe68-b561-4d1c-9d73-5f343f809d8c"},"period":{"start":"2026-11-18T07:00:00Z","end":"2026-11-18T08:01:00.000+00:00"},"diagnosis":[{"condition":{"reference":"Condition/a25b219a-cc45-4e32-841b-0ed160180e2b"},"use":{"coding":[{"system":"http://terminology.hl7.org/CodeSystem/diagnosis-role","code":"billing","display":"Billing"}]},"rank":1}]},"request":{"method":"PUT","url":"Encounter/6da0cab5-e501-4be8-8040-2f4f5b2d3305"}},{"resource":{"resourceType":"Encounter","id":"d32ce7ce-9747-4053-84e4-03a82c17d190","meta":{"profile":["http://hl7.org/fhir/us/qicore/StructureDefinition/qicore-encounter"]},"status":"finished","class":{"system":"http://terminology.hl7.org/CodeSystem/v3-ActCode","code":"IMP","display":"inpatient encounter"},"type":[{"coding":[{"system":"http://snomed.info/sct","code":"183452005"}]}],"subject":{"reference":"Patient/deeafe68-b561-4d1c-9d73-5f343f809d8c"},"period":{"start":"2026-11-18T11:00:00Z","end":"2026-11-20T08:15:00.000+00:00"},"reasonReference":[{"reference":"Condition/a25b219a-cc45-4e32-841b-0ed160180e2b"}]},"request":{"method":"PUT","url":"Encounter/d32ce7ce-9747-4053-84e4-03a82c17d190"}},{"resource":{"resourceType":"MeasureReport","id":"5c186508-1958-404c-a52a-fc6ea23773e8","meta":{"profile":["http://hl7.org/fhir/us/cqfmeasures/StructureDefinition/test-case-cqfm"]},"contained":[{"resourceType":"Parameters","id":"1d75e1a5-790b-4bd5-b75b-63a6fac4d031-parameters","parameter":[{"name":"subject","valueString":"deeafe68-b561-4d1c-9d73-5f343f809d8c"}]}],"extension":[{"url":"http://hl7.org/fhir/StructureDefinition/cqf-inputParameters","valueReference":{"reference":"#1d75e1a5-790b-4bd5-b75b-63a6fac4d031-parameters"}},{"url":"http://hl7.org/fhir/us/cqfmeasures/StructureDefinition/cqfm-testCaseDescription","valueMarkdown":"Patient receives comfort measures performed on the day of hospital arrival, 1 minute after the end of the ED end. ED ends less than 1 hour before Obs Start, Obs ends less than 1 hour before IP start.\n"}],"modifierExtension":[{"url":"http://hl7.org/fhir/us/cqfmeasures/StructureDefinition/cqfm-isTestCase","valueBoolean":true}],"status":"complete","type":"individual","measure":"https://madie.cms.gov/Measure/CMS72FHIRSTKAntithromboticDay2","period":{"start":"2026-01-01","end":"2026-12-31"},"group":[{"id":"Group_1","population":[{"id":"InitialPopulation_1","code":{"coding":[{"system":"http://terminology.hl7.org/CodeSystem/measure-population","code":"initial-population","display":"Initial Population"}]},"count":1},{"id":"Denominator_1","code":{"coding":[{"system":"http://terminology.hl7.org/CodeSystem/measure-population","code":"denominator","display":"Denominator"}]},"count":1},{"id":"DenominatorExclusion_1","code":{"coding":[{"system":"http://terminology.hl7.org/CodeSystem/measure-population","code":"denominator-exclusion","display":"Denominator Exclusion"}]},"count":1},{"id":"Numerator_1","code":{"coding":[{"system":"http://terminology.hl7.org/CodeSystem/measure-population","code":"numerator","display":"Numerator"}]},"count":0},{"id":"DenominatorException_1","code":{"coding":[{"system":"http://terminology.hl7.org/CodeSystem/measure-population","code":"denominator-exception","display":"Denominator Exception"}]},"count":0}],"measureScore":{"value":0.0}}],"evaluatedResource":[{"reference":"Patient/deeafe68-b561-4d1c-9d73-5f343f809d8c"},{"reference":"Encounter/6da0cab5-e501-4be8-8040-2f4f5b2d3305"},{"reference":"Encounter/8744c406-2496-4535-ae41-760a3f055b1c"},{"reference":"Encounter/d32ce7ce-9747-4053-84e4-03a82c17d190"},{"reference":"Claim/5ca62962b8484628b8de1ec5"},{"reference":"Procedure/96de9675-b7cc-4ab7-85a8-39d9c1221d0f"},{"reference":"Condition/a25b219a-cc45-4e32-841b-0ed160180e2b"},{"reference":"Coverage/e5492130-8393-4e7e-8fb7-a892c78a1162"},{"reference":"Organization/5a4a5b0f-affe-4202-a2d7-3b35c8fc2a7f"}]},"request":{"method":"PUT","url":"MeasureReport/5c186508-1958-404c-a52a-fc6ea23773e8"}},{"resource":{"resourceType":"Patient","id":"deeafe68-b561-4d1c-9d73-5f343f809d8c","meta":{"profile":["http://hl7.org/fhir/us/qicore/StructureDefinition/qicore-patient"]},"text":{"status":"generated","div":"<div xmlns=\"http://www.w3.org/1999/xhtml\"><div class=\"hapiHeaderText\">CMP_DayOf_RelvPerStart_1minAftEDEnd_EDEndLT1hrB4Obs_ObsEndLT1hrB4IP <b>DENEXPASS </b></div><table class=\"hapiPropertyTable\"><tbody><tr><td>Date of birth</td><td><span>01 January 1980</span></td></tr></tbody></table></div>"},"extension":[{"url":"http://hl7.org/fhir/us/core/StructureDefinition/us-core-race","extension":[{"url":"ombCategory","valueCoding":{"system":"urn:oid:2.16.840.1.113883.6.238","code":"2106-3","display":"White","userSelected":true}},{"url":"text","valueString":"White"}]},{"url":"http://hl7.org/fhir/us/core/StructureDefinition/us-core-ethnicity","extension":[{"url":"ombCategory","valueCoding":{"system":"urn:oid:2.16.840.1.113883.6.238","code":"2186-5","display":"Not Hispanic or Latino","userSelected":true}},{"url":"text","valueString":"Not Hispanic or Latino"}]}],"identifier":[{"type":{"coding":[{"system":"http://terminology.hl7.org/CodeSystem/v2-0203","code":"MR"}]},"system":"https://bonnie-fhir.healthit.gov/","value":"60f82c3098086b570510e2d3"}],"active":true,"name":[{"use":"usual","family":"DENEXPass","given":["CMP_DayOf_RelvPerStart_1minAftEDEnd_EDEndLT1hrB4Obs_ObsEndLT1hrB4IP"]}],"gender":"female","birthDate":"1981-01-01"},"request":{"method":"PUT","url":"Patient/deeafe68-b561-4d1c-9d73-5f343f809d8c"}},{"resource":{"resourceType":"Organization","id":"5a4a5b0f-affe-4202-a2d7-3b35c8fc2a7f","meta":{"profile":["http://hl7.org/fhir/us/qicore/StructureDefinition/qicore-organization"]},"identifier":[{"use":"temp","system":"urn:oid:2.16.840.1.113883.4.4","value":"21-3259825"}],"active":true,"type":[{"coding":[{"system":"http://terminology.hl7.org/CodeSystem/organization-type","code":"pay","display":"Payer"}]}],"name":"Blue Cross Blue Shield of Texas","telecom":[{"system":"phone","value":"(+1) 972-766-6900"}],"address":[{"use":"billing","type":"postal","line":["P.O. Box 660044"],"city":"Dallas","state":"TX","postalCode":"75266-0044","country":"USA"}]},"request":{"method":"PUT","url":"Organization/5a4a5b0f-affe-4202-a2d7-3b35c8fc2a7f"}},{"resource":{"resourceType":"Encounter","id":"8744c406-2496-4535-ae41-760a3f055b1c","meta":{"profile":["http://hl7.org/fhir/us/qicore/StructureDefinition/qicore-encounter"]},"status":"finished","class":{"system":"http://terminology.hl7.org/CodeSystem/v3-ActCode","code":"OBSENC","display":"observation encounter"},"type":[{"coding":[{"system":"http://snomed.info/sct","code":"448951000124107"}]}],"subject":{"reference":"Patient/deeafe68-b561-4d1c-9d73-5f343f809d8c"},"period":{"start":"2026-11-18T09:00:00Z","end":"2026-11-18T10:01:00.000+00:00"}},"request":{"method":"PUT","url":"Encounter/8744c406-2496-4535-ae41-760a3f055b1c"}},{"resource":{"resourceType":"Coverage","id":"e5492130-8393-4e7e-8fb7-a892c78a1162","meta":{"profile":["http://hl7.org/fhir/us/qicore/StructureDefinition/qicore-coverage"]},"status":"active","beneficiary":{"reference":"Patient/deeafe68-b561-4d1c-9d73-5f343f809d8c"},"payor":[{"reference":"Organization/5a4a5b0f-affe-4202-a2d7-3b35c8fc2a7f"}]},"request":{"method":"PUT","url":"Coverage/e5492130-8393-4e7e-8fb7-a892c78a1162"}},{"resource":{"resourceType":"Claim","id":"5ca62962b8484628b8de1ec5","meta":{"profile":["http://hl7.org/fhir/us/qicore/StructureDefinition/qicore-claim"]},"status":"active","type":{"coding":[{"system":"http://terminology.hl7.org/CodeSystem/claim-type","code":"institutional"}]},"use":"claim","patient":{"reference":"Patient/deeafe68-b561-4d1c-9d73-5f343f809d8c"},"created":"2026-12-01","provider":{"reference":"Practitioner/practitioner-123456"},"priority":{"coding":[{"system":"http://terminology.hl7.org/CodeSystem/processpriority","code":"normal"}]},"diagnosis":[{"sequence":1,"diagnosisCodeableConcept":{"coding":[{"system":"http://hl7.org/fhir/sid/icd-10-cm","code":"I63.00"}]},"type":[{"coding":[{"system":"http://terminology.hl7.org/CodeSystem/ex-diagnosistype","code":"principal"}]}]}],"insurance":[{"sequence":1,"focal":true,"coverage":{"reference":"Coverage/e5492130-8393-4e7e-8fb7-a892c78a1162"}}],"item":[{"sequence":1,"diagnosisSequence":[1],"productOrService":{"coding":[{"system":"http://terminology.hl7.org/CodeSystem/ex-USCLS","code":"99555"}]},"encounter":[{"reference":"Encounter/d32ce7ce-9747-4053-84e4-03a82c17d190"}]}]},"request":{"method":"PUT","url":"Claim/5ca62962b8484628b8de1ec5"}},{"resource":{"resourceType":"Bundle","id":"60f82c3098086b570510e2d3","type":"transaction","entry":[{"fullUrl":"https://madie.cms.gov/Patient/deeafe68-b561-4d1c-9d73-5f343f809d8c","resource":{"resourceType":"Patient","id":"deeafe68-b561-4d1c-9d73-5f343f809d8c","meta":{"profile":["http://hl7.org/fhir/us/qicore/StructureDefinition/qicore-patient"]},"text":{"status":"generated","div":"<div xmlns=\"http://www.w3.org/1999/xhtml\"><div class=\"hapiHeaderText\">CMP_DayOf_RelvPerStart_1minAftEDEnd_EDEndLT1hrB4Obs_ObsEndLT1hrB4IP <b>DENEXPASS </b></div><table class=\"hapiPropertyTable\"><tbody><tr><td>Date of birth</td><td><span>01 January 1980</span></td></tr></tbody></table></div>"},"extension":[{"url":"http://hl7.org/fhir/us/core/StructureDefinition/us-core-race","extension":[{"url":"ombCategory","valueCoding":{"system":"urn:oid:2.16.840.1.113883.6.238","code":"2106-3","display":"White","userSelected":true}},{"url":"text","valueString":"White"}]},{"url":"http://hl7.org/fhir/us/core/StructureDefinition/us-core-ethnicity","extension":[{"url":"ombCategory","valueCoding":{"system":"urn:oid:2.16.840.1.113883.6.238","code":"2186-5","display":"Not Hispanic or Latino","userSelected":true}},{"url":"text","valueString":"Not Hispanic or Latino"}]}],"identifier":[{"type":{"coding":[{"system":"http://terminology.hl7.org/CodeSystem/v2-0203","code":"MR"}]},"system":"https://bonnie-fhir.healthit.gov/","value":"60f82c3098086b570510e2d3"}],"active":true,"name":[{"use":"usual","family":"DENEXPass","given":["CMP_DayOf_RelvPerStart_1minAftEDEnd_EDEndLT1hrB4Obs_ObsEndLT1hrB4IP"]}],"gender":"female","birthDate":"1981-01-01"},"request":{"method":"PUT","url":"Patient/deeafe68-b561-4d1c-9d73-5f343f809d8c"}},{"fullUrl":"https://madie.cms.gov/Encounter/6da0cab5-e501-4be8-8040-2f4f5b2d3305","resource":{"resourceType":"Encounter","id":"6da0cab5-e501-4be8-8040-2f4f5b2d3305","meta":{"profile":["http://hl7.org/fhir/us/qicore/StructureDefinition/qicore-encounter"]},"status":"finished","class":{"system":"http://terminology.hl7.org/CodeSystem/v3-ActCode","code":"EMER","display":"emergency"},"type":[{"coding":[{"system":"http://snomed.info/sct","code":"4525004"}]}],"subject":{"reference":"Patient/deeafe68-b561-4d1c-9d73-5f343f809d8c"},"period":{"start":"2026-11-18T07:00:00Z","end":"2026-11-18T08:01:00.000+00:00"},"diagnosis":[{"condition":{"reference":"Condition/a25b219a-cc45-4e32-841b-0ed160180e2b"},"use":{"coding":[{"system":"http://terminology.hl7.org/CodeSystem/diagnosis-role","code":"billing","display":"Billing"}]},"rank":1}]},"request":{"method":"PUT","url":"Encounter/6da0cab5-e501-4be8-8040-2f4f5b2d3305"}},{"fullUrl":"https://madie.cms.gov/Encounter/8744c406-2496-4535-ae41-760a3f055b1c","resource":{"resourceType":"Encounter","id":"8744c406-2496-4535-ae41-760a3f055b1c","meta":{"profile":["http://hl7.org/fhir/us/qicore/StructureDefinition/qicore-encounter"]},"status":"finished","class":{"system":"http://terminology.hl7.org/CodeSystem/v3-ActCode","code":"OBSENC","display":"observation encounter"},"type":[{"coding":[{"system":"http://snomed.info/sct","code":"448951000124107"}]}],"subject":{"reference":"Patient/deeafe68-b561-4d1c-9d73-5f343f809d8c"},"period":{"start":"2026-11-18T09:00:00Z","end":"2026-11-18T10:01:00.000+00:00"}},"request":{"method":"PUT","url":"Encounter/8744c406-2496-4535-ae41-760a3f055b1c"}},{"fullUrl":"https://madie.cms.gov/Encounter/d32ce7ce-9747-4053-84e4-03a82c17d190","resource":{"resourceType":"Encounter","id":"d32ce7ce-9747-4053-84e4-03a82c17d190","meta":{"profile":["http://hl7.org/fhir/us/qicore/StructureDefinition/qicore-encounter"]},"status":"finished","class":{"system":"http://terminology.hl7.org/CodeSystem/v3-ActCode","code":"IMP","display":"inpatient encounter"},"type":[{"coding":[{"system":"http://snomed.info/sct","code":"183452005"}]}],"subject":{"reference":"Patient/deeafe68-b561-4d1c-9d73-5f343f809d8c"},"period":{"start":"2026-11-18T11:00:00Z","end":"2026-11-20T08:15:00.000+00:00"},"reasonReference":[{"reference":"Condition/a25b219a-cc45-4e32-841b-0ed160180e2b"}]},"request":{"method":"PUT","url":"Encounter/d32ce7ce-9747-4053-84e4-03a82c17d190"}},{"fullUrl":"https://madie.cms.gov/claim/5ca62962b8484628b8de1ec5","resource":{"resourceType":"Claim","id":"5ca62962b8484628b8de1ec5","meta":{"profile":["http://hl7.org/fhir/us/qicore/StructureDefinition/qicore-claim"]},"status":"active","type":{"coding":[{"system":"http://terminology.hl7.org/CodeSystem/claim-type","code":"institutional"}]},"use":"claim","patient":{"reference":"Patient/deeafe68-b561-4d1c-9d73-5f343f809d8c"},"created":"2026-12-01","provider":{"reference":"Practitioner/practitioner-123456"},"priority":{"coding":[{"system":"http://terminology.hl7.org/CodeSystem/processpriority","code":"normal"}]},"diagnosis":[{"sequence":1,"diagnosisCodeableConcept":{"coding":[{"system":"http://hl7.org/fhir/sid/icd-10-cm","code":"I63.00"}]},"type":[{"coding":[{"system":"http://terminology.hl7.org/CodeSystem/ex-diagnosistype","code":"principal"}]}]}],"insurance":[{"sequence":1,"focal":true,"coverage":{"reference":"Coverage/e5492130-8393-4e7e-8fb7-a892c78a1162"}}],"item":[{"sequence":1,"diagnosisSequence":[1],"productOrService":{"coding":[{"system":"http://terminology.hl7.org/CodeSystem/ex-USCLS","code":"99555"}]},"encounter":[{"reference":"Encounter/d32ce7ce-9747-4053-84e4-03a82c17d190"}]}]},"request":{"method":"PUT","url":"Claim/5ca62962b8484628b8de1ec5"}},{"fullUrl":"https://madie.cms.gov/Procedure/96de9675-b7cc-4ab7-85a8-39d9c1221d0f","resource":{"resourceType":"Procedure","id":"96de9675-b7cc-4ab7-85a8-39d9c1221d0f","meta":{"profile":["http://hl7.org/fhir/us/qicore/StructureDefinition/qicore-procedure"]},"extension":[{"url":"http://hl7.org/fhir/us/qicore/StructureDefinition/qicore-recorded","valueDateTime":"2026-11-18T08:02:00Z"}],"status":"completed","code":{"coding":[{"system":"http://snomed.info/sct","code":"133918004"}]},"subject":{"reference":"Patient/deeafe68-b561-4d1c-9d73-5f343f809d8c"},"performedPeriod":{"start":"2026-11-18T08:02:00Z","end":"2026-11-18T08:02:00.000+00:00"}},"request":{"method":"PUT","url":"Procedure/96de9675-b7cc-4ab7-85a8-39d9c1221d0f"}},{"fullUrl":"https://madie.cms.gov/Condition/a25b219a-cc45-4e32-841b-0ed160180e2b","resource":{"resourceType":"Condition","id":"a25b219a-cc45-4e32-841b-0ed160180e2b","meta":{"profile":["http://hl7.org/fhir/us/qicore/StructureDefinition/qicore-condition-encounter-diagnosis"]},"clinicalStatus":{"coding":[{"system":"http://terminology.hl7.org/CodeSystem/condition-clinical","code":"active"}]},"verificationStatus":{"coding":[{"system":"http://terminology.hl7.org/CodeSystem/condition-ver-status","code":"confirmed"}]},"category":[{"coding":[{"system":"http://terminology.hl7.org/CodeSystem/condition-category","code":"encounter-diagnosis","display":"Encounter Diagnosis"}]}],"code":{"coding":[{"system":"http://snomed.info/sct","version":"2020-09","code":"111297002","display":"Nonparalytic stroke (disorder)","userSelected":true}]},"subject":{"reference":"Patient/deeafe68-b561-4d1c-9d73-5f343f809d8c"},"recordedDate":"2026-08-13T08:00:00Z"},"request":{"method":"PUT","url":"Condition/a25b219a-cc45-4e32-841b-0ed160180e2b"}},{"fullUrl":"https://madie.cms.gov/Coverage/e5492130-8393-4e7e-8fb7-a892c78a1162","resource":{"resourceType":"Coverage","id":"e5492130-8393-4e7e-8fb7-a892c78a1162","meta":{"profile":["http://hl7.org/fhir/us/qicore/StructureDefinition/qicore-coverage"]},"status":"active","beneficiary":{"reference":"Patient/deeafe68-b561-4d1c-9d73-5f343f809d8c"},"payor":[{"reference":"Organization/5a4a5b0f-affe-4202-a2d7-3b35c8fc2a7f"}]},"request":{"method":"PUT","url":"Coverage/e5492130-8393-4e7e-8fb7-a892c78a1162"}},{"fullUrl":"https://madie.cms.gov/Organization/5a4a5b0f-affe-4202-a2d7-3b35c8fc2a7f","resource":{"resourceType":"Organization","id":"5a4a5b0f-affe-4202-a2d7-3b35c8fc2a7f","meta":{"profile":["http://hl7.org/fhir/us/qicore/StructureDefinition/qicore-organization"]},"identifier":[{"use":"temp","system":"urn:oid:2.16.840.1.113883.4.4","value":"21-3259825"}],"active":true,"type":[{"coding":[{"system":"http://terminology.hl7.org/CodeSystem/organization-type","code":"pay","display":"Payer"}]}],"name":"Blue Cross Blue Shield of Texas","telecom":[{"system":"phone","value":"(+1) 972-766-6900"}],"address":[{"use":"billing","type":"postal","line":["P.O. Box 660044"],"city":"Dallas","state":"TX","postalCode":"75266-0044","country":"USA"}]},"request":{"method":"PUT","url":"Organization/5a4a5b0f-affe-4202-a2d7-3b35c8fc2a7f"}},{"fullUrl":"https://madie.cms.gov/MeasureReport/5c186508-1958-404c-a52a-fc6ea23773e8","resource":{"resourceType":"MeasureReport","id":"5c186508-1958-404c-a52a-fc6ea23773e8","meta":{"profile":["http://hl7.org/fhir/us/cqfmeasures/StructureDefinition/test-case-cqfm"]},"contained":[{"resourceType":"Parameters","id":"1d75e1a5-790b-4bd5-b75b-63a6fac4d031-parameters","parameter":[{"name":"subject","valueString":"deeafe68-b561-4d1c-9d73-5f343f809d8c"}]}],"extension":[{"url":"http://hl7.org/fhir/StructureDefinition/cqf-inputParameters","valueReference":{"reference":"#1d75e1a5-790b-4bd5-b75b-63a6fac4d031-parameters"}},{"url":"http://hl7.org/fhir/us/cqfmeasures/StructureDefinition/cqfm-testCaseDescription","valueMarkdown":"Patient receives comfort measures performed on the day of hospital arrival, 1 minute after the end of the ED end. ED ends less than 1 hour before Obs Start, Obs ends less than 1 hour before IP start.\n"}],"modifierExtension":[{"url":"http://hl7.org/fhir/us/cqfmeasures/StructureDefinition/cqfm-isTestCase","valueBoolean":true}],"status":"complete","type":"individual","measure":"https://madie.cms.gov/Measure/CMS72FHIRSTKAntithromboticDay2","period":{"start":"2026-01-01","end":"2026-12-31"},"group":[{"id":"Group_1","population":[{"id":"InitialPopulation_1","code":{"coding":[{"system":"http://terminology.hl7.org/CodeSystem/measure-population","code":"initial-population","display":"Initial Population"}]},"count":1},{"id":"Denominator_1","code":{"coding":[{"system":"http://terminology.hl7.org/CodeSystem/measure-population","code":"denominator","display":"Denominator"}]},"count":1},{"id":"DenominatorExclusion_1","code":{"coding":[{"system":"http://terminology.hl7.org/CodeSystem/measure-population","code":"denominator-exclusion","display":"Denominator Exclusion"}]},"count":1},{"id":"Numerator_1","code":{"coding":[{"system":"http://terminology.hl7.org/CodeSystem/measure-population","code":"numerator","display":"Numerator"}]},"count":0},{"id":"DenominatorException_1","code":{"coding":[{"system":"http://terminology.hl7.org/CodeSystem/measure-population","code":"denominator-exception","display":"Denominator Exception"}]},"count":0}],"measureScore":{"value":0.0}}],"evaluatedResource":[{"reference":"Patient/deeafe68-b561-4d1c-9d73-5f343f809d8c"},{"reference":"Encounter/6da0cab5-e501-4be8-8040-2f4f5b2d3305"},{"reference":"Encounter/8744c406-2496-4535-ae41-760a3f055b1c"},{"reference":"Encounter/d32ce7ce-9747-4053-84e4-03a82c17d190"},{"reference":"Claim/5ca62962b8484628b8de1ec5"},{"reference":"Procedure/96de9675-b7cc-4ab7-85a8-39d9c1221d0f"},{"reference":"Condition/a25b219a-cc45-4e32-841b-0ed160180e2b"},{"reference":"Coverage/e5492130-8393-4e7e-8fb7-a892c78a1162"},{"reference":"Organization/5a4a5b0f-affe-4202-a2d7-3b35c8fc2a7f"}]},"request":{"method":"PUT","url":"MeasureReport/5c186508-1958-404c-a52a-fc6ea23773e8"}}]},"request":{"method":"PUT","url":"Bundle/60f82c3098086b570510e2d3"}}]}