{"resourceType":"Bundle","id":"tests-5450abfd-a667-4eb9-9b59-e85feed4865c-bundle","type":"transaction","entry":[{"resource":{"resourceType":"Coverage","id":"cc5e07bd-3693-4dfb-a5d2-edf81fb725cd","meta":{"profile":["http://hl7.org/fhir/us/qicore/StructureDefinition/qicore-coverage"]},"status":"active","beneficiary":{"reference":"Patient/5450abfd-a667-4eb9-9b59-e85feed4865c"},"payor":[{"reference":"Organization/f691452f-28ad-4c7a-ba29-999b5cfbc809"}]},"request":{"method":"PUT","url":"Coverage/cc5e07bd-3693-4dfb-a5d2-edf81fb725cd"}},{"resource":{"resourceType":"Bundle","id":"60f82c3098086b570510e2cf","type":"transaction","entry":[{"fullUrl":"https://madie.cms.gov/Patient/5450abfd-a667-4eb9-9b59-e85feed4865c","resource":{"resourceType":"Patient","id":"5450abfd-a667-4eb9-9b59-e85feed4865c","meta":{"profile":["http://hl7.org/fhir/us/qicore/StructureDefinition/qicore-patient"]},"text":{"status":"generated","div":"<div xmlns=\"http://www.w3.org/1999/xhtml\"><div class=\"hapiHeaderText\">ProcTPA&lt;24hrB4_ED_Test_Interval <b>DENEXPASS </b></div><table class=\"hapiPropertyTable\"><tbody><tr><td>Date of birth</td><td><span>05 April 1979</span></td></tr></tbody></table></div>"},"extension":[{"url":"http://hl7.org/fhir/us/core/StructureDefinition/us-core-race","extension":[{"url":"ombCategory","valueCoding":{"system":"urn:oid:2.16.840.1.113883.6.238","code":"2106-3","display":"White","userSelected":true}},{"url":"text","valueString":"White"}]},{"url":"http://hl7.org/fhir/us/core/StructureDefinition/us-core-ethnicity","extension":[{"url":"ombCategory","valueCoding":{"system":"urn:oid:2.16.840.1.113883.6.238","code":"2186-5","display":"Not Hispanic or Latino","userSelected":true}},{"url":"text","valueString":"Not Hispanic or Latino"}]}],"identifier":[{"type":{"coding":[{"system":"http://terminology.hl7.org/CodeSystem/v2-0203","code":"MR"}]},"system":"https://bonnie-fhir.healthit.gov/","value":"60f82c3098086b570510e2cf"}],"active":true,"name":[{"use":"usual","family":"DENEXPass","given":["ProcTPALT24hrB4ED"]}],"gender":"male","birthDate":"1980-04-05"},"request":{"method":"PUT","url":"Patient/5450abfd-a667-4eb9-9b59-e85feed4865c"}},{"fullUrl":"https://madie.cms.gov/Encounter/93374dd1-1c81-4c0a-860e-2ee2c88e310f","resource":{"resourceType":"Encounter","id":"93374dd1-1c81-4c0a-860e-2ee2c88e310f","meta":{"profile":["http://hl7.org/fhir/us/qicore/StructureDefinition/qicore-encounter"]},"status":"finished","class":{"system":"http://terminology.hl7.org/CodeSystem/v3-ActCode","code":"IMP","display":"inpatient encounter"},"type":[{"coding":[{"system":"http://snomed.info/sct","code":"183452005"}]}],"subject":{"reference":"Patient/5450abfd-a667-4eb9-9b59-e85feed4865c"},"period":{"start":"2026-03-23T08:00:00Z","end":"2026-03-30T07:15:00.000+00:00"},"reasonReference":[{"reference":"Condition/05773743-1e9d-4d3f-970a-5f5bebfa5e9c"}]},"request":{"method":"PUT","url":"Encounter/93374dd1-1c81-4c0a-860e-2ee2c88e310f"}},{"fullUrl":"https://madie.cms.gov/Encounter/dfa8a4ff-ead7-4d95-95dd-5ebba2ab54f1","resource":{"resourceType":"Encounter","id":"dfa8a4ff-ead7-4d95-95dd-5ebba2ab54f1","meta":{"profile":["http://hl7.org/fhir/us/qicore/StructureDefinition/qicore-encounter"]},"status":"finished","class":{"system":"http://terminology.hl7.org/CodeSystem/v3-ActCode","code":"EMER","display":"emergency"},"type":[{"coding":[{"system":"http://snomed.info/sct","code":"4525004"}]}],"subject":{"reference":"Patient/5450abfd-a667-4eb9-9b59-e85feed4865c"},"period":{"start":"2026-03-22T06:00:00Z","end":"2026-03-23T07:15:00.000+00:00"}},"request":{"method":"PUT","url":"Encounter/dfa8a4ff-ead7-4d95-95dd-5ebba2ab54f1"}},{"fullUrl":"https://madie.cms.gov/MedicationAdministration/15688739-2b90-40a4-899a-74f87acc1b79","resource":{"resourceType":"MedicationAdministration","id":"15688739-2b90-40a4-899a-74f87acc1b79","meta":{"profile":["http://hl7.org/fhir/us/qicore/StructureDefinition/qicore-medicationadministration"]},"status":"completed","medicationCodeableConcept":{"coding":[{"system":"http://www.nlm.nih.gov/research/umls/rxnorm","code":"1804799"}]},"subject":{"reference":"Patient/5450abfd-a667-4eb9-9b59-e85feed4865c"},"effectivePeriod":{"start":"2026-03-21T06:00:00Z","end":"2026-03-22T06:15:00.000+00:00"}},"request":{"method":"PUT","url":"MedicationAdministration/15688739-2b90-40a4-899a-74f87acc1b79"}},{"fullUrl":"https://madie.cms.gov/MedicationRequest/aead9f66-8592-4554-a883-6417ee155be1","resource":{"resourceType":"MedicationRequest","id":"aead9f66-8592-4554-a883-6417ee155be1","meta":{"profile":["http://hl7.org/fhir/us/qicore/StructureDefinition/qicore-medicationrequest"]},"status":"completed","intent":"order","medicationCodeableConcept":{"coding":[{"system":"http://www.nlm.nih.gov/research/umls/rxnorm","code":"1037045"}]},"subject":{"reference":"Patient/5450abfd-a667-4eb9-9b59-e85feed4865c"},"authoredOn":"2026-03-23T08:00:00Z","requester":{"reference":"Practitioner/example"},"dosageInstruction":[{"timing":{"repeat":{"boundsPeriod":{"start":"2026-03-23T08:00:00Z","end":"2026-03-24T07:15:00.000+00:00"}}}}]},"request":{"method":"PUT","url":"MedicationRequest/aead9f66-8592-4554-a883-6417ee155be1"}},{"fullUrl":"https://madie.cms.gov/Condition/05773743-1e9d-4d3f-970a-5f5bebfa5e9c","resource":{"resourceType":"Condition","id":"05773743-1e9d-4d3f-970a-5f5bebfa5e9c","meta":{"profile":["http://hl7.org/fhir/us/qicore/StructureDefinition/qicore-condition-problems-health-concerns"]},"clinicalStatus":{"coding":[{"system":"http://terminology.hl7.org/CodeSystem/condition-clinical","code":"active"}]},"verificationStatus":{"coding":[{"system":"http://terminology.hl7.org/CodeSystem/condition-ver-status","code":"confirmed"}]},"category":[{"coding":[{"system":"http://terminology.hl7.org/CodeSystem/condition-category","code":"encounter-diagnosis","display":"Encounter Diagnosis"}]}],"code":{"coding":[{"system":"http://snomed.info/sct","version":"2020-09","code":"111297002","display":"Nonparalytic stroke (disorder)","userSelected":true}]},"subject":{"reference":"Patient/5450abfd-a667-4eb9-9b59-e85feed4865c"},"encounter":{"reference":"Encounter/5ca6295db8484628b8de1d45"},"recordedDate":"2026-08-13T08:00:00Z"},"request":{"method":"PUT","url":"Condition/05773743-1e9d-4d3f-970a-5f5bebfa5e9c"}},{"fullUrl":"https://madie.cms.gov/claim/5ca62962b8484628b8de1ec5","resource":{"resourceType":"Claim","id":"5ca62962b8484628b8de1ec5","meta":{"profile":["http://hl7.org/fhir/us/qicore/StructureDefinition/qicore-claim"]},"status":"active","type":{"coding":[{"system":"http://terminology.hl7.org/CodeSystem/claim-type","code":"institutional"}]},"use":"claim","patient":{"reference":"Patient/5450abfd-a667-4eb9-9b59-e85feed4865c"},"created":"2026-12-01","provider":{"reference":"Practitioner/practitioner-123456"},"priority":{"coding":[{"system":"http://terminology.hl7.org/CodeSystem/processpriority","code":"normal"}]},"diagnosis":[{"sequence":1,"diagnosisCodeableConcept":{"coding":[{"system":"http://hl7.org/fhir/sid/icd-10-cm","code":"I63.00"}]},"type":[{"coding":[{"system":"http://terminology.hl7.org/CodeSystem/ex-diagnosistype","code":"principal"}]}]}],"insurance":[{"sequence":1,"focal":true,"coverage":{"reference":"Coverage/5fa041661c76ba66d9959367"}}],"item":[{"sequence":1,"diagnosisSequence":[1],"productOrService":{"coding":[{"system":"http://terminology.hl7.org/CodeSystem/ex-USCLS","code":"99555"}]},"encounter":[{"reference":"Encounter/93374dd1-1c81-4c0a-860e-2ee2c88e310f"}]}]},"request":{"method":"PUT","url":"Claim/5ca62962b8484628b8de1ec5"}},{"fullUrl":"https://madie.cms.gov/Coverage/cc5e07bd-3693-4dfb-a5d2-edf81fb725cd","resource":{"resourceType":"Coverage","id":"cc5e07bd-3693-4dfb-a5d2-edf81fb725cd","meta":{"profile":["http://hl7.org/fhir/us/qicore/StructureDefinition/qicore-coverage"]},"status":"active","beneficiary":{"reference":"Patient/5450abfd-a667-4eb9-9b59-e85feed4865c"},"payor":[{"reference":"Organization/f691452f-28ad-4c7a-ba29-999b5cfbc809"}]},"request":{"method":"PUT","url":"Coverage/cc5e07bd-3693-4dfb-a5d2-edf81fb725cd"}},{"fullUrl":"https://madie.cms.gov/Organization/f691452f-28ad-4c7a-ba29-999b5cfbc809","resource":{"resourceType":"Organization","id":"f691452f-28ad-4c7a-ba29-999b5cfbc809","meta":{"profile":["http://hl7.org/fhir/us/qicore/StructureDefinition/qicore-organization"]},"identifier":[{"use":"temp","system":"urn:oid:2.16.840.1.113883.4.4","value":"21-3259825"}],"active":true,"type":[{"coding":[{"system":"http://terminology.hl7.org/CodeSystem/organization-type","code":"pay","display":"Payer"}]}],"name":"Blue Cross Blue Shield of Texas","telecom":[{"system":"phone","value":"(+1) 972-766-6900"}],"address":[{"use":"billing","type":"postal","line":["P.O. Box 660044"],"city":"Dallas","state":"TX","postalCode":"75266-0044","country":"USA"}]},"request":{"method":"PUT","url":"Organization/f691452f-28ad-4c7a-ba29-999b5cfbc809"}},{"fullUrl":"https://madie.cms.gov/MeasureReport/ffb8ebb4-3a3c-44f3-a04c-011ddd46bf1e","resource":{"resourceType":"MeasureReport","id":"ffb8ebb4-3a3c-44f3-a04c-011ddd46bf1e","meta":{"profile":["http://hl7.org/fhir/us/cqfmeasures/StructureDefinition/test-case-cqfm"]},"contained":[{"resourceType":"Parameters","id":"f58125bd-6d4d-49d2-af5a-47b1b7c20f57-parameters","parameter":[{"name":"subject","valueString":"5450abfd-a667-4eb9-9b59-e85feed4865c"}]}],"extension":[{"url":"http://hl7.org/fhir/StructureDefinition/cqf-inputParameters","valueReference":{"reference":"#f58125bd-6d4d-49d2-af5a-47b1b7c20f57-parameters"}},{"url":"http://hl7.org/fhir/us/cqfmeasures/StructureDefinition/cqfm-testCaseDescription","valueMarkdown":"Patient has ED visit <=1hour before IP encounter AND receives IV or IA TPA 59 min before ED visit  (ProcTPA  <    24hr   before ED)\n"}],"modifierExtension":[{"url":"http://hl7.org/fhir/us/cqfmeasures/StructureDefinition/cqfm-isTestCase","valueBoolean":true}],"status":"complete","type":"individual","measure":"https://madie.cms.gov/Measure/CMS72FHIRSTKAntithromboticDay2","period":{"start":"2026-01-01","end":"2026-12-31"},"group":[{"id":"Group_1","population":[{"id":"InitialPopulation_1","code":{"coding":[{"system":"http://terminology.hl7.org/CodeSystem/measure-population","code":"initial-population","display":"Initial Population"}]},"count":1},{"id":"Denominator_1","code":{"coding":[{"system":"http://terminology.hl7.org/CodeSystem/measure-population","code":"denominator","display":"Denominator"}]},"count":1},{"id":"DenominatorExclusion_1","code":{"coding":[{"system":"http://terminology.hl7.org/CodeSystem/measure-population","code":"denominator-exclusion","display":"Denominator Exclusion"}]},"count":1},{"id":"Numerator_1","code":{"coding":[{"system":"http://terminology.hl7.org/CodeSystem/measure-population","code":"numerator","display":"Numerator"}]},"count":0},{"id":"DenominatorException_1","code":{"coding":[{"system":"http://terminology.hl7.org/CodeSystem/measure-population","code":"denominator-exception","display":"Denominator Exception"}]},"count":0}],"measureScore":{"value":0.0}}],"evaluatedResource":[{"reference":"Patient/5450abfd-a667-4eb9-9b59-e85feed4865c"},{"reference":"Encounter/93374dd1-1c81-4c0a-860e-2ee2c88e310f"},{"reference":"Encounter/dfa8a4ff-ead7-4d95-95dd-5ebba2ab54f1"},{"reference":"MedicationAdministration/15688739-2b90-40a4-899a-74f87acc1b79"},{"reference":"MedicationRequest/aead9f66-8592-4554-a883-6417ee155be1"},{"reference":"Condition/05773743-1e9d-4d3f-970a-5f5bebfa5e9c"},{"reference":"Claim/5ca62962b8484628b8de1ec5"},{"reference":"Coverage/cc5e07bd-3693-4dfb-a5d2-edf81fb725cd"},{"reference":"Organization/f691452f-28ad-4c7a-ba29-999b5cfbc809"}]},"request":{"method":"PUT","url":"MeasureReport/ffb8ebb4-3a3c-44f3-a04c-011ddd46bf1e"}}]},"request":{"method":"PUT","url":"Bundle/60f82c3098086b570510e2cf"}},{"resource":{"resourceType":"MedicationRequest","id":"aead9f66-8592-4554-a883-6417ee155be1","meta":{"profile":["http://hl7.org/fhir/us/qicore/StructureDefinition/qicore-medicationrequest"]},"status":"completed","intent":"order","medicationCodeableConcept":{"coding":[{"system":"http://www.nlm.nih.gov/research/umls/rxnorm","code":"1037045"}]},"subject":{"reference":"Patient/5450abfd-a667-4eb9-9b59-e85feed4865c"},"authoredOn":"2026-03-23T08:00:00Z","requester":{"reference":"Practitioner/example"},"dosageInstruction":[{"timing":{"repeat":{"boundsPeriod":{"start":"2026-03-23T08:00:00Z","end":"2026-03-24T07:15:00.000+00:00"}}}}]},"request":{"method":"PUT","url":"MedicationRequest/aead9f66-8592-4554-a883-6417ee155be1"}},{"resource":{"resourceType":"Encounter","id":"dfa8a4ff-ead7-4d95-95dd-5ebba2ab54f1","meta":{"profile":["http://hl7.org/fhir/us/qicore/StructureDefinition/qicore-encounter"]},"status":"finished","class":{"system":"http://terminology.hl7.org/CodeSystem/v3-ActCode","code":"EMER","display":"emergency"},"type":[{"coding":[{"system":"http://snomed.info/sct","code":"4525004"}]}],"subject":{"reference":"Patient/5450abfd-a667-4eb9-9b59-e85feed4865c"},"period":{"start":"2026-03-22T06:00:00Z","end":"2026-03-23T07:15:00.000+00:00"}},"request":{"method":"PUT","url":"Encounter/dfa8a4ff-ead7-4d95-95dd-5ebba2ab54f1"}},{"resource":{"resourceType":"MedicationAdministration","id":"15688739-2b90-40a4-899a-74f87acc1b79","meta":{"profile":["http://hl7.org/fhir/us/qicore/StructureDefinition/qicore-medicationadministration"]},"status":"completed","medicationCodeableConcept":{"coding":[{"system":"http://www.nlm.nih.gov/research/umls/rxnorm","code":"1804799"}]},"subject":{"reference":"Patient/5450abfd-a667-4eb9-9b59-e85feed4865c"},"effectivePeriod":{"start":"2026-03-21T06:00:00Z","end":"2026-03-22T06:15:00.000+00:00"}},"request":{"method":"PUT","url":"MedicationAdministration/15688739-2b90-40a4-899a-74f87acc1b79"}},{"resource":{"resourceType":"Organization","id":"f691452f-28ad-4c7a-ba29-999b5cfbc809","meta":{"profile":["http://hl7.org/fhir/us/qicore/StructureDefinition/qicore-organization"]},"identifier":[{"use":"temp","system":"urn:oid:2.16.840.1.113883.4.4","value":"21-3259825"}],"active":true,"type":[{"coding":[{"system":"http://terminology.hl7.org/CodeSystem/organization-type","code":"pay","display":"Payer"}]}],"name":"Blue Cross Blue Shield of Texas","telecom":[{"system":"phone","value":"(+1) 972-766-6900"}],"address":[{"use":"billing","type":"postal","line":["P.O. Box 660044"],"city":"Dallas","state":"TX","postalCode":"75266-0044","country":"USA"}]},"request":{"method":"PUT","url":"Organization/f691452f-28ad-4c7a-ba29-999b5cfbc809"}},{"resource":{"resourceType":"Condition","id":"05773743-1e9d-4d3f-970a-5f5bebfa5e9c","meta":{"profile":["http://hl7.org/fhir/us/qicore/StructureDefinition/qicore-condition-problems-health-concerns"]},"clinicalStatus":{"coding":[{"system":"http://terminology.hl7.org/CodeSystem/condition-clinical","code":"active"}]},"verificationStatus":{"coding":[{"system":"http://terminology.hl7.org/CodeSystem/condition-ver-status","code":"confirmed"}]},"category":[{"coding":[{"system":"http://terminology.hl7.org/CodeSystem/condition-category","code":"encounter-diagnosis","display":"Encounter Diagnosis"}]}],"code":{"coding":[{"system":"http://snomed.info/sct","version":"2020-09","code":"111297002","display":"Nonparalytic stroke (disorder)","userSelected":true}]},"subject":{"reference":"Patient/5450abfd-a667-4eb9-9b59-e85feed4865c"},"encounter":{"reference":"Encounter/5ca6295db8484628b8de1d45"},"recordedDate":"2026-08-13T08:00:00Z"},"request":{"method":"PUT","url":"Condition/05773743-1e9d-4d3f-970a-5f5bebfa5e9c"}},{"resource":{"resourceType":"Encounter","id":"93374dd1-1c81-4c0a-860e-2ee2c88e310f","meta":{"profile":["http://hl7.org/fhir/us/qicore/StructureDefinition/qicore-encounter"]},"status":"finished","class":{"system":"http://terminology.hl7.org/CodeSystem/v3-ActCode","code":"IMP","display":"inpatient encounter"},"type":[{"coding":[{"system":"http://snomed.info/sct","code":"183452005"}]}],"subject":{"reference":"Patient/5450abfd-a667-4eb9-9b59-e85feed4865c"},"period":{"start":"2026-03-23T08:00:00Z","end":"2026-03-30T07:15:00.000+00:00"},"reasonReference":[{"reference":"Condition/05773743-1e9d-4d3f-970a-5f5bebfa5e9c"}]},"request":{"method":"PUT","url":"Encounter/93374dd1-1c81-4c0a-860e-2ee2c88e310f"}},{"resource":{"resourceType":"Patient","id":"5450abfd-a667-4eb9-9b59-e85feed4865c","meta":{"profile":["http://hl7.org/fhir/us/qicore/StructureDefinition/qicore-patient"]},"text":{"status":"generated","div":"<div xmlns=\"http://www.w3.org/1999/xhtml\"><div class=\"hapiHeaderText\">ProcTPA&lt;24hrB4_ED_Test_Interval <b>DENEXPASS </b></div><table class=\"hapiPropertyTable\"><tbody><tr><td>Date of birth</td><td><span>05 April 1979</span></td></tr></tbody></table></div>"},"extension":[{"url":"http://hl7.org/fhir/us/core/StructureDefinition/us-core-race","extension":[{"url":"ombCategory","valueCoding":{"system":"urn:oid:2.16.840.1.113883.6.238","code":"2106-3","display":"White","userSelected":true}},{"url":"text","valueString":"White"}]},{"url":"http://hl7.org/fhir/us/core/StructureDefinition/us-core-ethnicity","extension":[{"url":"ombCategory","valueCoding":{"system":"urn:oid:2.16.840.1.113883.6.238","code":"2186-5","display":"Not Hispanic or Latino","userSelected":true}},{"url":"text","valueString":"Not Hispanic or Latino"}]}],"identifier":[{"type":{"coding":[{"system":"http://terminology.hl7.org/CodeSystem/v2-0203","code":"MR"}]},"system":"https://bonnie-fhir.healthit.gov/","value":"60f82c3098086b570510e2cf"}],"active":true,"name":[{"use":"usual","family":"DENEXPass","given":["ProcTPALT24hrB4ED"]}],"gender":"male","birthDate":"1980-04-05"},"request":{"method":"PUT","url":"Patient/5450abfd-a667-4eb9-9b59-e85feed4865c"}},{"resource":{"resourceType":"MeasureReport","id":"ffb8ebb4-3a3c-44f3-a04c-011ddd46bf1e","meta":{"profile":["http://hl7.org/fhir/us/cqfmeasures/StructureDefinition/test-case-cqfm"]},"contained":[{"resourceType":"Parameters","id":"f58125bd-6d4d-49d2-af5a-47b1b7c20f57-parameters","parameter":[{"name":"subject","valueString":"5450abfd-a667-4eb9-9b59-e85feed4865c"}]}],"extension":[{"url":"http://hl7.org/fhir/StructureDefinition/cqf-inputParameters","valueReference":{"reference":"#f58125bd-6d4d-49d2-af5a-47b1b7c20f57-parameters"}},{"url":"http://hl7.org/fhir/us/cqfmeasures/StructureDefinition/cqfm-testCaseDescription","valueMarkdown":"Patient has ED visit <=1hour before IP encounter AND receives IV or IA TPA 59 min before ED visit  (ProcTPA  <    24hr   before ED)\n"}],"modifierExtension":[{"url":"http://hl7.org/fhir/us/cqfmeasures/StructureDefinition/cqfm-isTestCase","valueBoolean":true}],"status":"complete","type":"individual","measure":"https://madie.cms.gov/Measure/CMS72FHIRSTKAntithromboticDay2","period":{"start":"2026-01-01","end":"2026-12-31"},"group":[{"id":"Group_1","population":[{"id":"InitialPopulation_1","code":{"coding":[{"system":"http://terminology.hl7.org/CodeSystem/measure-population","code":"initial-population","display":"Initial Population"}]},"count":1},{"id":"Denominator_1","code":{"coding":[{"system":"http://terminology.hl7.org/CodeSystem/measure-population","code":"denominator","display":"Denominator"}]},"count":1},{"id":"DenominatorExclusion_1","code":{"coding":[{"system":"http://terminology.hl7.org/CodeSystem/measure-population","code":"denominator-exclusion","display":"Denominator Exclusion"}]},"count":1},{"id":"Numerator_1","code":{"coding":[{"system":"http://terminology.hl7.org/CodeSystem/measure-population","code":"numerator","display":"Numerator"}]},"count":0},{"id":"DenominatorException_1","code":{"coding":[{"system":"http://terminology.hl7.org/CodeSystem/measure-population","code":"denominator-exception","display":"Denominator Exception"}]},"count":0}],"measureScore":{"value":0.0}}],"evaluatedResource":[{"reference":"Patient/5450abfd-a667-4eb9-9b59-e85feed4865c"},{"reference":"Encounter/93374dd1-1c81-4c0a-860e-2ee2c88e310f"},{"reference":"Encounter/dfa8a4ff-ead7-4d95-95dd-5ebba2ab54f1"},{"reference":"MedicationAdministration/15688739-2b90-40a4-899a-74f87acc1b79"},{"reference":"MedicationRequest/aead9f66-8592-4554-a883-6417ee155be1"},{"reference":"Condition/05773743-1e9d-4d3f-970a-5f5bebfa5e9c"},{"reference":"Claim/5ca62962b8484628b8de1ec5"},{"reference":"Coverage/cc5e07bd-3693-4dfb-a5d2-edf81fb725cd"},{"reference":"Organization/f691452f-28ad-4c7a-ba29-999b5cfbc809"}]},"request":{"method":"PUT","url":"MeasureReport/ffb8ebb4-3a3c-44f3-a04c-011ddd46bf1e"}},{"resource":{"resourceType":"Claim","id":"5ca62962b8484628b8de1ec5","meta":{"profile":["http://hl7.org/fhir/us/qicore/StructureDefinition/qicore-claim"]},"status":"active","type":{"coding":[{"system":"http://terminology.hl7.org/CodeSystem/claim-type","code":"institutional"}]},"use":"claim","patient":{"reference":"Patient/5450abfd-a667-4eb9-9b59-e85feed4865c"},"created":"2026-12-01","provider":{"reference":"Practitioner/practitioner-123456"},"priority":{"coding":[{"system":"http://terminology.hl7.org/CodeSystem/processpriority","code":"normal"}]},"diagnosis":[{"sequence":1,"diagnosisCodeableConcept":{"coding":[{"system":"http://hl7.org/fhir/sid/icd-10-cm","code":"I63.00"}]},"type":[{"coding":[{"system":"http://terminology.hl7.org/CodeSystem/ex-diagnosistype","code":"principal"}]}]}],"insurance":[{"sequence":1,"focal":true,"coverage":{"reference":"Coverage/5fa041661c76ba66d9959367"}}],"item":[{"sequence":1,"diagnosisSequence":[1],"productOrService":{"coding":[{"system":"http://terminology.hl7.org/CodeSystem/ex-USCLS","code":"99555"}]},"encounter":[{"reference":"Encounter/93374dd1-1c81-4c0a-860e-2ee2c88e310f"}]}]},"request":{"method":"PUT","url":"Claim/5ca62962b8484628b8de1ec5"}}]}