{"resourceType":"Bundle","id":"tests-a2cb4956-d7e5-45a9-8007-80dcb893203c-bundle","type":"transaction","entry":[{"fullUrl":"Encounter/28804ddb-c1f2-43a0-bcb7-9d30690bbccf","resource":{"resourceType":"Encounter","id":"28804ddb-c1f2-43a0-bcb7-9d30690bbccf","meta":{"profile":["http://hl7.org/fhir/us/qicore/StructureDefinition/qicore-encounter"]},"status":"finished","class":{"system":"http://terminology.hl7.org/CodeSystem/v3-ActCode","code":"EMER","display":"emergency","userSelected":true},"type":[{"coding":[{"system":"http://snomed.info/sct","code":"4525004"}]}],"subject":{"reference":"Patient/a2cb4956-d7e5-45a9-8007-80dcb893203c"},"period":{"start":"2026-10-11T06:15:00Z","end":"2026-10-11T06:30:00.000+00:00"},"length":{"value":0,"unit":"days"}},"request":{"method":"PUT","url":"Encounter/28804ddb-c1f2-43a0-bcb7-9d30690bbccf"}},{"fullUrl":"Condition/37abaa06-984d-4679-9149-ab2e5389a422","resource":{"resourceType":"Condition","id":"37abaa06-984d-4679-9149-ab2e5389a422","meta":{"profile":["http://hl7.org/fhir/us/qicore/StructureDefinition/qicore-condition-encounter-diagnosis"]},"clinicalStatus":{"coding":[{"system":"http://terminology.hl7.org/CodeSystem/condition-clinical","code":"active"}]},"verificationStatus":{"coding":[{"system":"http://terminology.hl7.org/CodeSystem/condition-ver-status","code":"confirmed"}]},"category":[{"coding":[{"system":"http://terminology.hl7.org/CodeSystem/condition-category","code":"encounter-diagnosis","display":"Encounter Diagnosis"}]}],"code":{"coding":[{"system":"http://snomed.info/sct","version":"2020-09","code":"111297002","display":"Nonparalytic stroke (disorder)","userSelected":true}]},"subject":{"reference":"Patient/a2cb4956-d7e5-45a9-8007-80dcb893203c"},"encounter":{"reference":"Encounter/c37a8598-cd00-4a41-992d-0ef66711cb90"},"recordedDate":"2026-08-06T08:00:00Z"},"request":{"method":"PUT","url":"Condition/37abaa06-984d-4679-9149-ab2e5389a422"}},{"fullUrl":"Bundle/60f82c2f98086b570510e2a8","resource":{"resourceType":"Bundle","id":"60f82c2f98086b570510e2a8","type":"transaction","entry":[{"fullUrl":"https://madie.cms.gov/Patient/a2cb4956-d7e5-45a9-8007-80dcb893203c","resource":{"resourceType":"Patient","id":"a2cb4956-d7e5-45a9-8007-80dcb893203c","meta":{"profile":["http://hl7.org/fhir/us/qicore/StructureDefinition/qicore-patient"]},"text":{"status":"generated","div":"<div xmlns=\"http://www.w3.org/1999/xhtml\"><div class=\"hapiHeaderText\">INRDayAftEnc_ED&lt;1hrObs&lt;1hrBFEncDayOf <b>DENEXCEPASS </b></div><table class=\"hapiPropertyTable\"><tbody><tr><td>Identifier</td><td>eb0390ddf5cccfdde210d05452662b986f9c97b164102446c8fbef7016593c62</td></tr><tr><td>Date of birth</td><td><span>26 September 1975</span></td></tr></tbody></table></div>"},"extension":[{"url":"http://hl7.org/fhir/us/core/StructureDefinition/us-core-race","extension":[{"url":"ombCategory","valueCoding":{"system":"urn:oid:2.16.840.1.113883.6.238","code":"2054-5","display":"Black or African American","userSelected":true}},{"url":"text","valueString":"Black or African American"}]},{"url":"http://hl7.org/fhir/us/core/StructureDefinition/us-core-ethnicity","extension":[{"url":"ombCategory","valueCoding":{"system":"urn:oid:2.16.840.1.113883.6.238","code":"2186-5","display":"Not Hispanic or Latino","userSelected":true}},{"url":"text","valueString":"Not Hispanic or Latino"}]}],"identifier":[{"type":{"coding":[{"system":"http://terminology.hl7.org/CodeSystem/v2-0203","code":"MR"}]},"system":"https://bonnie-fhir.healthit.gov/","value":"60f82c2f98086b570510e2a8"}],"active":true,"name":[{"use":"usual","family":"DENEXCEPass","given":["INRDayAftEncEDLT1hrObsLT1hrBFEncDay"]}],"gender":"female","birthDate":"1976-09-26"},"request":{"method":"PUT","url":"Patient/a2cb4956-d7e5-45a9-8007-80dcb893203c"}},{"fullUrl":"https://madie.cms.gov/Encounter/28804ddb-c1f2-43a0-bcb7-9d30690bbccf","resource":{"resourceType":"Encounter","id":"28804ddb-c1f2-43a0-bcb7-9d30690bbccf","meta":{"profile":["http://hl7.org/fhir/us/qicore/StructureDefinition/qicore-encounter"]},"status":"finished","class":{"system":"http://terminology.hl7.org/CodeSystem/v3-ActCode","code":"EMER","display":"emergency","userSelected":true},"type":[{"coding":[{"system":"http://snomed.info/sct","code":"4525004"}]}],"subject":{"reference":"Patient/a2cb4956-d7e5-45a9-8007-80dcb893203c"},"period":{"start":"2026-10-11T06:15:00Z","end":"2026-10-11T06:30:00.000+00:00"},"length":{"value":0,"unit":"days"}},"request":{"method":"PUT","url":"Encounter/28804ddb-c1f2-43a0-bcb7-9d30690bbccf"}},{"fullUrl":"https://madie.cms.gov/Encounter/7dd6d5c5-c9e7-4d9b-ba16-46c9835f48f7","resource":{"resourceType":"Encounter","id":"7dd6d5c5-c9e7-4d9b-ba16-46c9835f48f7","meta":{"profile":["http://hl7.org/fhir/us/qicore/StructureDefinition/qicore-encounter"]},"status":"finished","class":{"system":"http://terminology.hl7.org/CodeSystem/v3-ActCode","code":"OBSENC","display":"observation encounter","userSelected":true},"type":[{"coding":[{"system":"http://snomed.info/sct","code":"448851000124103"}]}],"subject":{"reference":"Patient/a2cb4956-d7e5-45a9-8007-80dcb893203c"},"period":{"start":"2026-10-11T06:31:00Z","end":"2026-10-11T07:30:00.000+00:00"},"length":{"value":0,"unit":"days"}},"request":{"method":"PUT","url":"Encounter/7dd6d5c5-c9e7-4d9b-ba16-46c9835f48f7"}},{"fullUrl":"https://madie.cms.gov/Encounter/c37a8598-cd00-4a41-992d-0ef66711cb90","resource":{"resourceType":"Encounter","id":"c37a8598-cd00-4a41-992d-0ef66711cb90","meta":{"profile":["http://hl7.org/fhir/us/qicore/StructureDefinition/qicore-encounter"]},"status":"finished","class":{"system":"http://terminology.hl7.org/CodeSystem/v3-ActCode","code":"IMP","display":"inpatient encounter","userSelected":true},"type":[{"coding":[{"system":"http://snomed.info/sct","code":"32485007"}]}],"subject":{"reference":"Patient/a2cb4956-d7e5-45a9-8007-80dcb893203c"},"period":{"start":"2026-10-11T07:31:00Z","end":"2026-10-15T11:30:00.000+00:00"},"length":{"value":4,"unit":"days"},"reasonReference":[{"reference":"Condition/37abaa06-984d-4679-9149-ab2e5389a422"}]},"request":{"method":"PUT","url":"Encounter/c37a8598-cd00-4a41-992d-0ef66711cb90"}},{"fullUrl":"https://madie.cms.gov/Observation/7169d9a3-714f-4c5f-bd45-103a6e79df68","resource":{"resourceType":"Observation","id":"7169d9a3-714f-4c5f-bd45-103a6e79df68","meta":{"profile":["http://hl7.org/fhir/us/qicore/StructureDefinition/qicore-observation-lab"]},"status":"final","category":[{"coding":[{"system":"http://terminology.hl7.org/CodeSystem/observation-category","code":"laboratory","display":"Laboratory"}]}],"code":{"coding":[{"system":"http://loinc.org","code":"34714-6"}]},"subject":{"reference":"Patient/a2cb4956-d7e5-45a9-8007-80dcb893203c"},"effectivePeriod":{"start":"2026-10-10T06:14:00Z"},"issued":"2026-10-12T00:00:00.000+00:00","valueQuantity":{"value":3.6}},"request":{"method":"PUT","url":"Observation/7169d9a3-714f-4c5f-bd45-103a6e79df68"}},{"fullUrl":"https://madie.cms.gov/Coverage/d0a8211b-3a93-46d7-8863-9fc5a75bc73d","resource":{"resourceType":"Coverage","id":"d0a8211b-3a93-46d7-8863-9fc5a75bc73d","status":"active","beneficiary":{"reference":"Patient/a2cb4956-d7e5-45a9-8007-80dcb893203c"},"period":{"start":"1976-09-26T08:00:00Z"},"payor":[{"reference":"Organization/1cebeb7c-3f49-4a5c-a4ec-0ccf74019375"}]},"request":{"method":"PUT","url":"Coverage/d0a8211b-3a93-46d7-8863-9fc5a75bc73d"}},{"fullUrl":"https://madie.cms.gov/Condition/37abaa06-984d-4679-9149-ab2e5389a422","resource":{"resourceType":"Condition","id":"37abaa06-984d-4679-9149-ab2e5389a422","meta":{"profile":["http://hl7.org/fhir/us/qicore/StructureDefinition/qicore-condition-encounter-diagnosis"]},"clinicalStatus":{"coding":[{"system":"http://terminology.hl7.org/CodeSystem/condition-clinical","code":"active"}]},"verificationStatus":{"coding":[{"system":"http://terminology.hl7.org/CodeSystem/condition-ver-status","code":"confirmed"}]},"category":[{"coding":[{"system":"http://terminology.hl7.org/CodeSystem/condition-category","code":"encounter-diagnosis","display":"Encounter Diagnosis"}]}],"code":{"coding":[{"system":"http://snomed.info/sct","version":"2020-09","code":"111297002","display":"Nonparalytic stroke (disorder)","userSelected":true}]},"subject":{"reference":"Patient/a2cb4956-d7e5-45a9-8007-80dcb893203c"},"encounter":{"reference":"Encounter/c37a8598-cd00-4a41-992d-0ef66711cb90"},"recordedDate":"2026-08-06T08:00:00Z"},"request":{"method":"PUT","url":"Condition/37abaa06-984d-4679-9149-ab2e5389a422"}},{"fullUrl":"https://madie.cms.gov/claim/5ca62962b8484628b8de1ec5","resource":{"resourceType":"Claim","id":"5ca62962b8484628b8de1ec5","meta":{"profile":["http://hl7.org/fhir/us/qicore/StructureDefinition/qicore-claim"]},"status":"active","type":{"coding":[{"system":"http://terminology.hl7.org/CodeSystem/claim-type","code":"institutional"}]},"use":"claim","patient":{"reference":"Patient/5450abfd-a667-4eb9-9b59-e85feed4865c"},"created":"2026-12-01","provider":{"reference":"Practitioner/practitioner-123456"},"priority":{"coding":[{"system":"http://terminology.hl7.org/CodeSystem/processpriority","code":"normal"}]},"diagnosis":[{"sequence":1,"diagnosisCodeableConcept":{"coding":[{"system":"http://hl7.org/fhir/sid/icd-10-cm","code":"I63.00"}]},"type":[{"coding":[{"system":"http://terminology.hl7.org/CodeSystem/ex-diagnosistype","code":"principal"}]}]}],"insurance":[{"sequence":1,"focal":true,"coverage":{"reference":"Coverage/5fa041661c76ba66d9959367"}}],"item":[{"sequence":1,"diagnosisSequence":[1],"productOrService":{"coding":[{"system":"http://terminology.hl7.org/CodeSystem/ex-USCLS","code":"99555"}]},"encounter":[{"reference":"Encounter/c37a8598-cd00-4a41-992d-0ef66711cb90"}]}]},"request":{"method":"PUT","url":"Claim/5ca62962b8484628b8de1ec5"}},{"fullUrl":"https://madie.cms.gov/Organization/1cebeb7c-3f49-4a5c-a4ec-0ccf74019375","resource":{"resourceType":"Organization","id":"1cebeb7c-3f49-4a5c-a4ec-0ccf74019375","meta":{"profile":["http://hl7.org/fhir/us/qicore/StructureDefinition/qicore-organization"]},"identifier":[{"use":"temp","system":"urn:oid:2.16.840.1.113883.4.4","value":"21-3259825"}],"active":true,"type":[{"coding":[{"system":"http://terminology.hl7.org/CodeSystem/organization-type","code":"pay","display":"Payer"}]}],"name":"Blue Cross Blue Shield of Texas","telecom":[{"system":"phone","value":"(+1) 972-766-6900"}],"address":[{"use":"billing","type":"postal","line":["P.O. Box 660044"],"city":"Dallas","state":"TX","postalCode":"75266-0044","country":"USA"}]},"request":{"method":"PUT","url":"Organization/1cebeb7c-3f49-4a5c-a4ec-0ccf74019375"}},{"fullUrl":"https://madie.cms.gov/MeasureReport/27b99426-58f1-4fd4-b7c0-432879ae31d6","resource":{"resourceType":"MeasureReport","id":"27b99426-58f1-4fd4-b7c0-432879ae31d6","meta":{"profile":["http://hl7.org/fhir/us/cqfmeasures/StructureDefinition/test-case-cqfm"]},"contained":[{"resourceType":"Parameters","id":"d7368df2-45e5-46eb-b206-b187ebad7cca-parameters","parameter":[{"name":"subject","valueString":"a2cb4956-d7e5-45a9-8007-80dcb893203c"}]}],"extension":[{"url":"http://hl7.org/fhir/StructureDefinition/cqf-inputParameters","valueReference":{"reference":"#d7368df2-45e5-46eb-b206-b187ebad7cca-parameters"}},{"url":"http://hl7.org/fhir/us/cqfmeasures/StructureDefinition/cqfm-testCaseDescription","valueMarkdown":"Last ED ends less than 1 hour before OBS start, valid OBS, INR result date time equivalent ED start 2 days after IP start. Testing INR exclusion, valid OBS heading in scenario sheet. Vlaid INR result, outside window of day of or day after. \n"}],"modifierExtension":[{"url":"http://hl7.org/fhir/us/cqfmeasures/StructureDefinition/cqfm-isTestCase","valueBoolean":true}],"status":"complete","type":"individual","measure":"https://madie.cms.gov/Measure/CMS72FHIRSTKAntithromboticDay2","period":{"start":"2026-01-01","end":"2026-12-31"},"group":[{"id":"Group_1","population":[{"id":"InitialPopulation_1","code":{"coding":[{"system":"http://terminology.hl7.org/CodeSystem/measure-population","code":"initial-population","display":"Initial Population"}]},"count":1},{"id":"Denominator_1","code":{"coding":[{"system":"http://terminology.hl7.org/CodeSystem/measure-population","code":"denominator","display":"Denominator"}]},"count":1},{"id":"DenominatorExclusion_1","code":{"coding":[{"system":"http://terminology.hl7.org/CodeSystem/measure-population","code":"denominator-exclusion","display":"Denominator Exclusion"}]},"count":0},{"id":"Numerator_1","code":{"coding":[{"system":"http://terminology.hl7.org/CodeSystem/measure-population","code":"numerator","display":"Numerator"}]},"count":0},{"id":"DenominatorException_1","code":{"coding":[{"system":"http://terminology.hl7.org/CodeSystem/measure-population","code":"denominator-exception","display":"Denominator Exception"}]},"count":1}],"measureScore":{"value":0.0}}],"evaluatedResource":[{"reference":"Patient/a2cb4956-d7e5-45a9-8007-80dcb893203c"},{"reference":"Encounter/28804ddb-c1f2-43a0-bcb7-9d30690bbccf"},{"reference":"Encounter/7dd6d5c5-c9e7-4d9b-ba16-46c9835f48f7"},{"reference":"Encounter/c37a8598-cd00-4a41-992d-0ef66711cb90"},{"reference":"Observation/7169d9a3-714f-4c5f-bd45-103a6e79df68"},{"reference":"Coverage/d0a8211b-3a93-46d7-8863-9fc5a75bc73d"},{"reference":"Condition/37abaa06-984d-4679-9149-ab2e5389a422"},{"reference":"Claim/5ca62962b8484628b8de1ec5"},{"reference":"Organization/1cebeb7c-3f49-4a5c-a4ec-0ccf74019375"}]},"request":{"method":"PUT","url":"MeasureReport/27b99426-58f1-4fd4-b7c0-432879ae31d6"}}]},"request":{"method":"PUT","url":"Bundle/60f82c2f98086b570510e2a8"}},{"fullUrl":"Encounter/c37a8598-cd00-4a41-992d-0ef66711cb90","resource":{"resourceType":"Encounter","id":"c37a8598-cd00-4a41-992d-0ef66711cb90","meta":{"profile":["http://hl7.org/fhir/us/qicore/StructureDefinition/qicore-encounter"]},"status":"finished","class":{"system":"http://terminology.hl7.org/CodeSystem/v3-ActCode","code":"IMP","display":"inpatient encounter","userSelected":true},"type":[{"coding":[{"system":"http://snomed.info/sct","code":"32485007"}]}],"subject":{"reference":"Patient/a2cb4956-d7e5-45a9-8007-80dcb893203c"},"period":{"start":"2026-10-11T07:31:00Z","end":"2026-10-15T11:30:00.000+00:00"},"length":{"value":4,"unit":"days"},"reasonReference":[{"reference":"Condition/37abaa06-984d-4679-9149-ab2e5389a422"}]},"request":{"method":"PUT","url":"Encounter/c37a8598-cd00-4a41-992d-0ef66711cb90"}},{"fullUrl":"Encounter/7dd6d5c5-c9e7-4d9b-ba16-46c9835f48f7","resource":{"resourceType":"Encounter","id":"7dd6d5c5-c9e7-4d9b-ba16-46c9835f48f7","meta":{"profile":["http://hl7.org/fhir/us/qicore/StructureDefinition/qicore-encounter"]},"status":"finished","class":{"system":"http://terminology.hl7.org/CodeSystem/v3-ActCode","code":"OBSENC","display":"observation encounter","userSelected":true},"type":[{"coding":[{"system":"http://snomed.info/sct","code":"448851000124103"}]}],"subject":{"reference":"Patient/a2cb4956-d7e5-45a9-8007-80dcb893203c"},"period":{"start":"2026-10-11T06:31:00Z","end":"2026-10-11T07:30:00.000+00:00"},"length":{"value":0,"unit":"days"}},"request":{"method":"PUT","url":"Encounter/7dd6d5c5-c9e7-4d9b-ba16-46c9835f48f7"}},{"fullUrl":"Patient/a2cb4956-d7e5-45a9-8007-80dcb893203c","resource":{"resourceType":"Patient","id":"a2cb4956-d7e5-45a9-8007-80dcb893203c","meta":{"profile":["http://hl7.org/fhir/us/qicore/StructureDefinition/qicore-patient"]},"text":{"status":"generated","div":"<div xmlns=\"http://www.w3.org/1999/xhtml\"><div class=\"hapiHeaderText\">INRDayAftEnc_ED&lt;1hrObs&lt;1hrBFEncDayOf <b>DENEXCEPASS </b></div><table class=\"hapiPropertyTable\"><tbody><tr><td>Identifier</td><td>eb0390ddf5cccfdde210d05452662b986f9c97b164102446c8fbef7016593c62</td></tr><tr><td>Date of birth</td><td><span>26 September 1975</span></td></tr></tbody></table></div>"},"extension":[{"url":"http://hl7.org/fhir/us/core/StructureDefinition/us-core-race","extension":[{"url":"ombCategory","valueCoding":{"system":"urn:oid:2.16.840.1.113883.6.238","code":"2054-5","display":"Black or African American","userSelected":true}},{"url":"text","valueString":"Black or African American"}]},{"url":"http://hl7.org/fhir/us/core/StructureDefinition/us-core-ethnicity","extension":[{"url":"ombCategory","valueCoding":{"system":"urn:oid:2.16.840.1.113883.6.238","code":"2186-5","display":"Not Hispanic or Latino","userSelected":true}},{"url":"text","valueString":"Not Hispanic or Latino"}]}],"identifier":[{"type":{"coding":[{"system":"http://terminology.hl7.org/CodeSystem/v2-0203","code":"MR"}]},"system":"https://bonnie-fhir.healthit.gov/","value":"60f82c2f98086b570510e2a8"}],"active":true,"name":[{"use":"usual","family":"DENEXCEPass","given":["INRDayAftEncEDLT1hrObsLT1hrBFEncDay"]}],"gender":"female","birthDate":"1976-09-26"},"request":{"method":"PUT","url":"Patient/a2cb4956-d7e5-45a9-8007-80dcb893203c"}},{"fullUrl":"Observation/7169d9a3-714f-4c5f-bd45-103a6e79df68","resource":{"resourceType":"Observation","id":"7169d9a3-714f-4c5f-bd45-103a6e79df68","meta":{"profile":["http://hl7.org/fhir/us/qicore/StructureDefinition/qicore-observation-lab"]},"status":"final","category":[{"coding":[{"system":"http://terminology.hl7.org/CodeSystem/observation-category","code":"laboratory","display":"Laboratory"}]}],"code":{"coding":[{"system":"http://loinc.org","code":"34714-6"}]},"subject":{"reference":"Patient/a2cb4956-d7e5-45a9-8007-80dcb893203c"},"effectivePeriod":{"start":"2026-10-10T06:14:00Z"},"issued":"2026-10-12T00:00:00.000+00:00","valueQuantity":{"value":3.6}},"request":{"method":"PUT","url":"Observation/7169d9a3-714f-4c5f-bd45-103a6e79df68"}},{"fullUrl":"MeasureReport/27b99426-58f1-4fd4-b7c0-432879ae31d6","resource":{"resourceType":"MeasureReport","id":"27b99426-58f1-4fd4-b7c0-432879ae31d6","meta":{"profile":["http://hl7.org/fhir/us/cqfmeasures/StructureDefinition/test-case-cqfm"]},"contained":[{"resourceType":"Parameters","id":"d7368df2-45e5-46eb-b206-b187ebad7cca-parameters","parameter":[{"name":"subject","valueString":"a2cb4956-d7e5-45a9-8007-80dcb893203c"}]}],"extension":[{"url":"http://hl7.org/fhir/StructureDefinition/cqf-inputParameters","valueReference":{"reference":"#d7368df2-45e5-46eb-b206-b187ebad7cca-parameters"}},{"url":"http://hl7.org/fhir/us/cqfmeasures/StructureDefinition/cqfm-testCaseDescription","valueMarkdown":"Last ED ends less than 1 hour before OBS start, valid OBS, INR result date time equivalent ED start 2 days after IP start. Testing INR exclusion, valid OBS heading in scenario sheet. Vlaid INR result, outside window of day of or day after. \n"}],"modifierExtension":[{"url":"http://hl7.org/fhir/us/cqfmeasures/StructureDefinition/cqfm-isTestCase","valueBoolean":true}],"status":"complete","type":"individual","measure":"https://madie.cms.gov/Measure/CMS72FHIRSTKAntithromboticDay2","period":{"start":"2026-01-01","end":"2026-12-31"},"group":[{"id":"Group_1","population":[{"id":"InitialPopulation_1","code":{"coding":[{"system":"http://terminology.hl7.org/CodeSystem/measure-population","code":"initial-population","display":"Initial Population"}]},"count":1},{"id":"Denominator_1","code":{"coding":[{"system":"http://terminology.hl7.org/CodeSystem/measure-population","code":"denominator","display":"Denominator"}]},"count":1},{"id":"DenominatorExclusion_1","code":{"coding":[{"system":"http://terminology.hl7.org/CodeSystem/measure-population","code":"denominator-exclusion","display":"Denominator Exclusion"}]},"count":0},{"id":"Numerator_1","code":{"coding":[{"system":"http://terminology.hl7.org/CodeSystem/measure-population","code":"numerator","display":"Numerator"}]},"count":0},{"id":"DenominatorException_1","code":{"coding":[{"system":"http://terminology.hl7.org/CodeSystem/measure-population","code":"denominator-exception","display":"Denominator Exception"}]},"count":1}],"measureScore":{"value":0.0}}],"evaluatedResource":[{"reference":"Patient/a2cb4956-d7e5-45a9-8007-80dcb893203c"},{"reference":"Encounter/28804ddb-c1f2-43a0-bcb7-9d30690bbccf"},{"reference":"Encounter/7dd6d5c5-c9e7-4d9b-ba16-46c9835f48f7"},{"reference":"Encounter/c37a8598-cd00-4a41-992d-0ef66711cb90"},{"reference":"Observation/7169d9a3-714f-4c5f-bd45-103a6e79df68"},{"reference":"Coverage/d0a8211b-3a93-46d7-8863-9fc5a75bc73d"},{"reference":"Condition/37abaa06-984d-4679-9149-ab2e5389a422"},{"reference":"Claim/5ca62962b8484628b8de1ec5"},{"reference":"Organization/1cebeb7c-3f49-4a5c-a4ec-0ccf74019375"}]},"request":{"method":"PUT","url":"MeasureReport/27b99426-58f1-4fd4-b7c0-432879ae31d6"}},{"fullUrl":"Organization/1cebeb7c-3f49-4a5c-a4ec-0ccf74019375","resource":{"resourceType":"Organization","id":"1cebeb7c-3f49-4a5c-a4ec-0ccf74019375","meta":{"profile":["http://hl7.org/fhir/us/qicore/StructureDefinition/qicore-organization"]},"identifier":[{"use":"temp","system":"urn:oid:2.16.840.1.113883.4.4","value":"21-3259825"}],"active":true,"type":[{"coding":[{"system":"http://terminology.hl7.org/CodeSystem/organization-type","code":"pay","display":"Payer"}]}],"name":"Blue Cross Blue Shield of Texas","telecom":[{"system":"phone","value":"(+1) 972-766-6900"}],"address":[{"use":"billing","type":"postal","line":["P.O. Box 660044"],"city":"Dallas","state":"TX","postalCode":"75266-0044","country":"USA"}]},"request":{"method":"PUT","url":"Organization/1cebeb7c-3f49-4a5c-a4ec-0ccf74019375"}},{"fullUrl":"Coverage/d0a8211b-3a93-46d7-8863-9fc5a75bc73d","resource":{"resourceType":"Coverage","id":"d0a8211b-3a93-46d7-8863-9fc5a75bc73d","status":"active","beneficiary":{"reference":"Patient/a2cb4956-d7e5-45a9-8007-80dcb893203c"},"period":{"start":"1976-09-26T08:00:00Z"},"payor":[{"reference":"Organization/1cebeb7c-3f49-4a5c-a4ec-0ccf74019375"}]},"request":{"method":"PUT","url":"Coverage/d0a8211b-3a93-46d7-8863-9fc5a75bc73d"}},{"fullUrl":"Claim/5ca62962b8484628b8de1ec5","resource":{"resourceType":"Claim","id":"5ca62962b8484628b8de1ec5","meta":{"profile":["http://hl7.org/fhir/us/qicore/StructureDefinition/qicore-claim"]},"status":"active","type":{"coding":[{"system":"http://terminology.hl7.org/CodeSystem/claim-type","code":"institutional"}]},"use":"claim","patient":{"reference":"Patient/5450abfd-a667-4eb9-9b59-e85feed4865c"},"created":"2026-12-01","provider":{"reference":"Practitioner/practitioner-123456"},"priority":{"coding":[{"system":"http://terminology.hl7.org/CodeSystem/processpriority","code":"normal"}]},"diagnosis":[{"sequence":1,"diagnosisCodeableConcept":{"coding":[{"system":"http://hl7.org/fhir/sid/icd-10-cm","code":"I63.00"}]},"type":[{"coding":[{"system":"http://terminology.hl7.org/CodeSystem/ex-diagnosistype","code":"principal"}]}]}],"insurance":[{"sequence":1,"focal":true,"coverage":{"reference":"Coverage/5fa041661c76ba66d9959367"}}],"item":[{"sequence":1,"diagnosisSequence":[1],"productOrService":{"coding":[{"system":"http://terminology.hl7.org/CodeSystem/ex-USCLS","code":"99555"}]},"encounter":[{"reference":"Encounter/c37a8598-cd00-4a41-992d-0ef66711cb90"}]}]},"request":{"method":"PUT","url":"Claim/5ca62962b8484628b8de1ec5"}}]}