{"resourceType":"Bundle","id":"tests-3ae29ae5-1ae5-4eaf-ba7b-1e7b7780982a-bundle","type":"transaction","entry":[{"fullUrl":"Bundle/60f82c2e98086b570510e273","resource":{"resourceType":"Bundle","id":"60f82c2e98086b570510e273","type":"transaction","entry":[{"fullUrl":"https://madie.cms.gov/Patient/3ae29ae5-1ae5-4eaf-ba7b-1e7b7780982a","resource":{"resourceType":"Patient","id":"3ae29ae5-1ae5-4eaf-ba7b-1e7b7780982a","meta":{"profile":["http://hl7.org/fhir/us/qicore/StructureDefinition/qicore-patient"]},"text":{"status":"generated","div":"<div xmlns=\"http://www.w3.org/1999/xhtml\"><div class=\"hapiHeaderText\">PrincDxIschemicSTK <b>IPPPASS </b></div><table class=\"hapiPropertyTable\"><tbody><tr><td>Identifier</td><td>dc15ccbf61b2765eaaf76765161aee46</td></tr><tr><td>Date of birth</td><td><span>20 August 1994</span></td></tr></tbody></table></div>"},"extension":[{"url":"http://hl7.org/fhir/us/core/StructureDefinition/us-core-race","extension":[{"url":"ombCategory","valueCoding":{"system":"urn:oid:2.16.840.1.113883.6.238","code":"1002-5","display":"American Indian or Alaska Native","userSelected":true}},{"url":"text","valueString":"American Indian or Alaska Native"}]},{"url":"http://hl7.org/fhir/us/core/StructureDefinition/us-core-ethnicity","extension":[{"url":"ombCategory","valueCoding":{"system":"urn:oid:2.16.840.1.113883.6.238","code":"2186-5","display":"Not Hispanic or Latino","userSelected":true}},{"url":"text","valueString":"Not Hispanic or Latino"}]}],"identifier":[{"type":{"coding":[{"system":"http://terminology.hl7.org/CodeSystem/v2-0203","code":"MR"}]},"system":"https://bonnie-fhir.healthit.gov/","value":"60f82c2e98086b570510e273"}],"active":true,"name":[{"use":"usual","family":"IPPPass","given":["PrincDxIschemicSTK"]}],"gender":"male","birthDate":"1995-08-20"},"request":{"method":"PUT","url":"Patient/3ae29ae5-1ae5-4eaf-ba7b-1e7b7780982a"}},{"fullUrl":"https://madie.cms.gov/Encounter/6d1b64e6-849d-4226-b6ef-d5ece1a20255","resource":{"resourceType":"Encounter","id":"6d1b64e6-849d-4226-b6ef-d5ece1a20255","meta":{"profile":["http://hl7.org/fhir/us/qicore/StructureDefinition/qicore-encounter"]},"status":"finished","class":{"system":"http://terminology.hl7.org/CodeSystem/v3-ActCode","code":"IMP","display":"inpatient encounter"},"type":[{"coding":[{"system":"http://snomed.info/sct","code":"32485007"}]}],"subject":{"reference":"Patient/3ae29ae5-1ae5-4eaf-ba7b-1e7b7780982a"},"period":{"start":"2026-08-21T00:00:00Z","end":"2026-12-18T23:59:00.000+00:00"},"length":{"value":119,"unit":"days"},"reasonReference":[{"reference":"Condition/23d177ff-ce07-45a3-8ef5-d7b20f11ef37"}]},"request":{"method":"PUT","url":"Encounter/6d1b64e6-849d-4226-b6ef-d5ece1a20255"}},{"fullUrl":"https://madie.cms.gov/Coverage/756371b0-9ff7-4e18-ae73-c5619bb90c39","resource":{"resourceType":"Coverage","id":"756371b0-9ff7-4e18-ae73-c5619bb90c39","status":"active","beneficiary":{"reference":"Patient/3ae29ae5-1ae5-4eaf-ba7b-1e7b7780982a"},"period":{"start":"1995-08-20T07:00:00Z"},"payor":[{"reference":"Organization/95a4db6c-5eed-4cc9-bd91-a446fc966483"}]},"request":{"method":"PUT","url":"Coverage/756371b0-9ff7-4e18-ae73-c5619bb90c39"}},{"fullUrl":"https://madie.cms.gov/Condition/23d177ff-ce07-45a3-8ef5-d7b20f11ef37","resource":{"resourceType":"Condition","id":"23d177ff-ce07-45a3-8ef5-d7b20f11ef37","meta":{"profile":["http://hl7.org/fhir/us/qicore/StructureDefinition/qicore-condition-encounter-diagnosis"]},"clinicalStatus":{"coding":[{"system":"http://terminology.hl7.org/CodeSystem/condition-clinical","code":"active"}]},"verificationStatus":{"coding":[{"system":"http://terminology.hl7.org/CodeSystem/condition-ver-status","code":"confirmed"}]},"category":[{"coding":[{"system":"http://terminology.hl7.org/CodeSystem/condition-category","code":"encounter-diagnosis","display":"Encounter Diagnosis"}]}],"code":{"coding":[{"system":"http://snomed.info/sct","version":"2020-09","code":"111297002","display":"Nonparalytic stroke (disorder)","userSelected":true}]},"subject":{"reference":"Patient/3ae29ae5-1ae5-4eaf-ba7b-1e7b7780982a"},"encounter":{"reference":"Encounter/6d1b64e6-849d-4226-b6ef-d5ece1a20255"},"recordedDate":"2026-08-16T08:00:00Z"},"request":{"method":"PUT","url":"Condition/23d177ff-ce07-45a3-8ef5-d7b20f11ef37"}},{"fullUrl":"https://madie.cms.gov/claim/5ca62962b8484628b8de1ec5","resource":{"resourceType":"Claim","id":"5ca62962b8484628b8de1ec5","meta":{"profile":["http://hl7.org/fhir/us/qicore/StructureDefinition/qicore-claim"]},"status":"active","type":{"coding":[{"system":"http://terminology.hl7.org/CodeSystem/claim-type","code":"institutional"}]},"use":"claim","patient":{"reference":"Patient/3ae29ae5-1ae5-4eaf-ba7b-1e7b7780982a"},"created":"2026-12-01","provider":{"reference":"Practitioner/2aa10223-25a9-4099-a993-f16cc076732d"},"priority":{"coding":[{"system":"http://terminology.hl7.org/CodeSystem/processpriority","code":"normal"}]},"diagnosis":[{"sequence":1,"diagnosisCodeableConcept":{"coding":[{"system":"http://hl7.org/fhir/sid/icd-10-cm","code":"I63.00"}]},"type":[{"coding":[{"system":"http://terminology.hl7.org/CodeSystem/ex-diagnosistype","code":"principal"}]}]}],"insurance":[{"sequence":1,"focal":true,"coverage":{"reference":"Coverage/5fa041661c76ba66d9959367"}}],"item":[{"sequence":1,"diagnosisSequence":[1],"productOrService":{"coding":[{"system":"http://terminology.hl7.org/CodeSystem/ex-USCLS","code":"99555"}]},"encounter":[{"reference":"Encounter/6d1b64e6-849d-4226-b6ef-d5ece1a20255"}]}]},"request":{"method":"PUT","url":"Claim/5ca62962b8484628b8de1ec5"}},{"fullUrl":"https://madie.cms.gov/Organization/95a4db6c-5eed-4cc9-bd91-a446fc966483","resource":{"resourceType":"Organization","id":"95a4db6c-5eed-4cc9-bd91-a446fc966483","meta":{"profile":["http://hl7.org/fhir/us/qicore/StructureDefinition/qicore-organization"]},"identifier":[{"use":"temp","system":"urn:oid:2.16.840.1.113883.4.4","value":"21-3259825"}],"active":true,"type":[{"coding":[{"system":"http://terminology.hl7.org/CodeSystem/organization-type","code":"pay","display":"Payer"}]}],"name":"Blue Cross Blue Shield of Texas","telecom":[{"system":"phone","value":"(+1) 972-766-6900"}],"address":[{"use":"billing","type":"postal","line":["P.O. Box 660044"],"city":"Dallas","state":"TX","postalCode":"75266-0044","country":"USA"}]},"request":{"method":"PUT","url":"Organization/95a4db6c-5eed-4cc9-bd91-a446fc966483"}},{"fullUrl":"https://madie.cms.gov/Practitioner/2aa10223-25a9-4099-a993-f16cc076732d","resource":{"resourceType":"Practitioner","id":"2aa10223-25a9-4099-a993-f16cc076732d","identifier":[{"system":"http://hl7.org/fhir/sid/us-npi","value":"123456"}],"name":[{"family":"Evil","prefix":["Dr"]}]},"request":{"method":"PUT","url":"Practitioner/2aa10223-25a9-4099-a993-f16cc076732d"}},{"fullUrl":"https://madie.cms.gov/MeasureReport/2ed7a55b-579c-4757-abb4-a5458b223493","resource":{"resourceType":"MeasureReport","id":"2ed7a55b-579c-4757-abb4-a5458b223493","meta":{"profile":["http://hl7.org/fhir/us/cqfmeasures/StructureDefinition/test-case-cqfm"]},"contained":[{"resourceType":"Parameters","id":"513ff7e3-5ccc-444c-ae79-28f3fd1ffb19-parameters","parameter":[{"name":"subject","valueString":"3ae29ae5-1ae5-4eaf-ba7b-1e7b7780982a"}]}],"extension":[{"url":"http://hl7.org/fhir/StructureDefinition/cqf-inputParameters","valueReference":{"reference":"#513ff7e3-5ccc-444c-ae79-28f3fd1ffb19-parameters"}},{"url":"http://hl7.org/fhir/us/cqfmeasures/StructureDefinition/cqfm-testCaseDescription","valueMarkdown":"EncPrinDx=IschemicStroke LOS<120\n"}],"modifierExtension":[{"url":"http://hl7.org/fhir/us/cqfmeasures/StructureDefinition/cqfm-isTestCase","valueBoolean":true}],"status":"complete","type":"individual","measure":"https://madie.cms.gov/Measure/CMS72FHIRSTKAntithromboticDay2","period":{"start":"2026-01-01","end":"2026-12-31"},"group":[{"id":"Group_1","population":[{"id":"InitialPopulation_1","code":{"coding":[{"system":"http://terminology.hl7.org/CodeSystem/measure-population","code":"initial-population","display":"Initial Population"}]},"count":1},{"id":"Denominator_1","code":{"coding":[{"system":"http://terminology.hl7.org/CodeSystem/measure-population","code":"denominator","display":"Denominator"}]},"count":1},{"id":"DenominatorExclusion_1","code":{"coding":[{"system":"http://terminology.hl7.org/CodeSystem/measure-population","code":"denominator-exclusion","display":"Denominator Exclusion"}]},"count":0},{"id":"Numerator_1","code":{"coding":[{"system":"http://terminology.hl7.org/CodeSystem/measure-population","code":"numerator","display":"Numerator"}]},"count":0},{"id":"DenominatorException_1","code":{"coding":[{"system":"http://terminology.hl7.org/CodeSystem/measure-population","code":"denominator-exception","display":"Denominator Exception"}]},"count":0}],"measureScore":{"value":0.0}}],"evaluatedResource":[{"reference":"Patient/3ae29ae5-1ae5-4eaf-ba7b-1e7b7780982a"},{"reference":"Encounter/6d1b64e6-849d-4226-b6ef-d5ece1a20255"},{"reference":"Coverage/756371b0-9ff7-4e18-ae73-c5619bb90c39"},{"reference":"Condition/23d177ff-ce07-45a3-8ef5-d7b20f11ef37"},{"reference":"Claim/5ca62962b8484628b8de1ec5"},{"reference":"Organization/95a4db6c-5eed-4cc9-bd91-a446fc966483"},{"reference":"Practitioner/2aa10223-25a9-4099-a993-f16cc076732d"}]},"request":{"method":"PUT","url":"MeasureReport/2ed7a55b-579c-4757-abb4-a5458b223493"}}]},"request":{"method":"PUT","url":"Bundle/60f82c2e98086b570510e273"}},{"fullUrl":"Coverage/756371b0-9ff7-4e18-ae73-c5619bb90c39","resource":{"resourceType":"Coverage","id":"756371b0-9ff7-4e18-ae73-c5619bb90c39","status":"active","beneficiary":{"reference":"Patient/3ae29ae5-1ae5-4eaf-ba7b-1e7b7780982a"},"period":{"start":"1995-08-20T07:00:00Z"},"payor":[{"reference":"Organization/95a4db6c-5eed-4cc9-bd91-a446fc966483"}]},"request":{"method":"PUT","url":"Coverage/756371b0-9ff7-4e18-ae73-c5619bb90c39"}},{"fullUrl":"Organization/95a4db6c-5eed-4cc9-bd91-a446fc966483","resource":{"resourceType":"Organization","id":"95a4db6c-5eed-4cc9-bd91-a446fc966483","meta":{"profile":["http://hl7.org/fhir/us/qicore/StructureDefinition/qicore-organization"]},"identifier":[{"use":"temp","system":"urn:oid:2.16.840.1.113883.4.4","value":"21-3259825"}],"active":true,"type":[{"coding":[{"system":"http://terminology.hl7.org/CodeSystem/organization-type","code":"pay","display":"Payer"}]}],"name":"Blue Cross Blue Shield of Texas","telecom":[{"system":"phone","value":"(+1) 972-766-6900"}],"address":[{"use":"billing","type":"postal","line":["P.O. Box 660044"],"city":"Dallas","state":"TX","postalCode":"75266-0044","country":"USA"}]},"request":{"method":"PUT","url":"Organization/95a4db6c-5eed-4cc9-bd91-a446fc966483"}},{"fullUrl":"Practitioner/2aa10223-25a9-4099-a993-f16cc076732d","resource":{"resourceType":"Practitioner","id":"2aa10223-25a9-4099-a993-f16cc076732d","identifier":[{"system":"http://hl7.org/fhir/sid/us-npi","value":"123456"}],"name":[{"family":"Evil","prefix":["Dr"]}]},"request":{"method":"PUT","url":"Practitioner/2aa10223-25a9-4099-a993-f16cc076732d"}},{"fullUrl":"Patient/3ae29ae5-1ae5-4eaf-ba7b-1e7b7780982a","resource":{"resourceType":"Patient","id":"3ae29ae5-1ae5-4eaf-ba7b-1e7b7780982a","meta":{"profile":["http://hl7.org/fhir/us/qicore/StructureDefinition/qicore-patient"]},"text":{"status":"generated","div":"<div xmlns=\"http://www.w3.org/1999/xhtml\"><div class=\"hapiHeaderText\">PrincDxIschemicSTK <b>IPPPASS </b></div><table class=\"hapiPropertyTable\"><tbody><tr><td>Identifier</td><td>dc15ccbf61b2765eaaf76765161aee46</td></tr><tr><td>Date of birth</td><td><span>20 August 1994</span></td></tr></tbody></table></div>"},"extension":[{"url":"http://hl7.org/fhir/us/core/StructureDefinition/us-core-race","extension":[{"url":"ombCategory","valueCoding":{"system":"urn:oid:2.16.840.1.113883.6.238","code":"1002-5","display":"American Indian or Alaska Native","userSelected":true}},{"url":"text","valueString":"American Indian or Alaska Native"}]},{"url":"http://hl7.org/fhir/us/core/StructureDefinition/us-core-ethnicity","extension":[{"url":"ombCategory","valueCoding":{"system":"urn:oid:2.16.840.1.113883.6.238","code":"2186-5","display":"Not Hispanic or Latino","userSelected":true}},{"url":"text","valueString":"Not Hispanic or Latino"}]}],"identifier":[{"type":{"coding":[{"system":"http://terminology.hl7.org/CodeSystem/v2-0203","code":"MR"}]},"system":"https://bonnie-fhir.healthit.gov/","value":"60f82c2e98086b570510e273"}],"active":true,"name":[{"use":"usual","family":"IPPPass","given":["PrincDxIschemicSTK"]}],"gender":"male","birthDate":"1995-08-20"},"request":{"method":"PUT","url":"Patient/3ae29ae5-1ae5-4eaf-ba7b-1e7b7780982a"}},{"fullUrl":"MeasureReport/2ed7a55b-579c-4757-abb4-a5458b223493","resource":{"resourceType":"MeasureReport","id":"2ed7a55b-579c-4757-abb4-a5458b223493","meta":{"profile":["http://hl7.org/fhir/us/cqfmeasures/StructureDefinition/test-case-cqfm"]},"contained":[{"resourceType":"Parameters","id":"513ff7e3-5ccc-444c-ae79-28f3fd1ffb19-parameters","parameter":[{"name":"subject","valueString":"3ae29ae5-1ae5-4eaf-ba7b-1e7b7780982a"}]}],"extension":[{"url":"http://hl7.org/fhir/StructureDefinition/cqf-inputParameters","valueReference":{"reference":"#513ff7e3-5ccc-444c-ae79-28f3fd1ffb19-parameters"}},{"url":"http://hl7.org/fhir/us/cqfmeasures/StructureDefinition/cqfm-testCaseDescription","valueMarkdown":"EncPrinDx=IschemicStroke LOS<120\n"}],"modifierExtension":[{"url":"http://hl7.org/fhir/us/cqfmeasures/StructureDefinition/cqfm-isTestCase","valueBoolean":true}],"status":"complete","type":"individual","measure":"https://madie.cms.gov/Measure/CMS72FHIRSTKAntithromboticDay2","period":{"start":"2026-01-01","end":"2026-12-31"},"group":[{"id":"Group_1","population":[{"id":"InitialPopulation_1","code":{"coding":[{"system":"http://terminology.hl7.org/CodeSystem/measure-population","code":"initial-population","display":"Initial Population"}]},"count":1},{"id":"Denominator_1","code":{"coding":[{"system":"http://terminology.hl7.org/CodeSystem/measure-population","code":"denominator","display":"Denominator"}]},"count":1},{"id":"DenominatorExclusion_1","code":{"coding":[{"system":"http://terminology.hl7.org/CodeSystem/measure-population","code":"denominator-exclusion","display":"Denominator Exclusion"}]},"count":0},{"id":"Numerator_1","code":{"coding":[{"system":"http://terminology.hl7.org/CodeSystem/measure-population","code":"numerator","display":"Numerator"}]},"count":0},{"id":"DenominatorException_1","code":{"coding":[{"system":"http://terminology.hl7.org/CodeSystem/measure-population","code":"denominator-exception","display":"Denominator Exception"}]},"count":0}],"measureScore":{"value":0.0}}],"evaluatedResource":[{"reference":"Patient/3ae29ae5-1ae5-4eaf-ba7b-1e7b7780982a"},{"reference":"Encounter/6d1b64e6-849d-4226-b6ef-d5ece1a20255"},{"reference":"Coverage/756371b0-9ff7-4e18-ae73-c5619bb90c39"},{"reference":"Condition/23d177ff-ce07-45a3-8ef5-d7b20f11ef37"},{"reference":"Claim/5ca62962b8484628b8de1ec5"},{"reference":"Organization/95a4db6c-5eed-4cc9-bd91-a446fc966483"},{"reference":"Practitioner/2aa10223-25a9-4099-a993-f16cc076732d"}]},"request":{"method":"PUT","url":"MeasureReport/2ed7a55b-579c-4757-abb4-a5458b223493"}},{"fullUrl":"Condition/23d177ff-ce07-45a3-8ef5-d7b20f11ef37","resource":{"resourceType":"Condition","id":"23d177ff-ce07-45a3-8ef5-d7b20f11ef37","meta":{"profile":["http://hl7.org/fhir/us/qicore/StructureDefinition/qicore-condition-encounter-diagnosis"]},"clinicalStatus":{"coding":[{"system":"http://terminology.hl7.org/CodeSystem/condition-clinical","code":"active"}]},"verificationStatus":{"coding":[{"system":"http://terminology.hl7.org/CodeSystem/condition-ver-status","code":"confirmed"}]},"category":[{"coding":[{"system":"http://terminology.hl7.org/CodeSystem/condition-category","code":"encounter-diagnosis","display":"Encounter Diagnosis"}]}],"code":{"coding":[{"system":"http://snomed.info/sct","version":"2020-09","code":"111297002","display":"Nonparalytic stroke (disorder)","userSelected":true}]},"subject":{"reference":"Patient/3ae29ae5-1ae5-4eaf-ba7b-1e7b7780982a"},"encounter":{"reference":"Encounter/6d1b64e6-849d-4226-b6ef-d5ece1a20255"},"recordedDate":"2026-08-16T08:00:00Z"},"request":{"method":"PUT","url":"Condition/23d177ff-ce07-45a3-8ef5-d7b20f11ef37"}},{"fullUrl":"Encounter/6d1b64e6-849d-4226-b6ef-d5ece1a20255","resource":{"resourceType":"Encounter","id":"6d1b64e6-849d-4226-b6ef-d5ece1a20255","meta":{"profile":["http://hl7.org/fhir/us/qicore/StructureDefinition/qicore-encounter"]},"status":"finished","class":{"system":"http://terminology.hl7.org/CodeSystem/v3-ActCode","code":"IMP","display":"inpatient encounter"},"type":[{"coding":[{"system":"http://snomed.info/sct","code":"32485007"}]}],"subject":{"reference":"Patient/3ae29ae5-1ae5-4eaf-ba7b-1e7b7780982a"},"period":{"start":"2026-08-21T00:00:00Z","end":"2026-12-18T23:59:00.000+00:00"},"length":{"value":119,"unit":"days"},"reasonReference":[{"reference":"Condition/23d177ff-ce07-45a3-8ef5-d7b20f11ef37"}]},"request":{"method":"PUT","url":"Encounter/6d1b64e6-849d-4226-b6ef-d5ece1a20255"}},{"fullUrl":"Claim/5ca62962b8484628b8de1ec5","resource":{"resourceType":"Claim","id":"5ca62962b8484628b8de1ec5","meta":{"profile":["http://hl7.org/fhir/us/qicore/StructureDefinition/qicore-claim"]},"status":"active","type":{"coding":[{"system":"http://terminology.hl7.org/CodeSystem/claim-type","code":"institutional"}]},"use":"claim","patient":{"reference":"Patient/3ae29ae5-1ae5-4eaf-ba7b-1e7b7780982a"},"created":"2026-12-01","provider":{"reference":"Practitioner/2aa10223-25a9-4099-a993-f16cc076732d"},"priority":{"coding":[{"system":"http://terminology.hl7.org/CodeSystem/processpriority","code":"normal"}]},"diagnosis":[{"sequence":1,"diagnosisCodeableConcept":{"coding":[{"system":"http://hl7.org/fhir/sid/icd-10-cm","code":"I63.00"}]},"type":[{"coding":[{"system":"http://terminology.hl7.org/CodeSystem/ex-diagnosistype","code":"principal"}]}]}],"insurance":[{"sequence":1,"focal":true,"coverage":{"reference":"Coverage/5fa041661c76ba66d9959367"}}],"item":[{"sequence":1,"diagnosisSequence":[1],"productOrService":{"coding":[{"system":"http://terminology.hl7.org/CodeSystem/ex-USCLS","code":"99555"}]},"encounter":[{"reference":"Encounter/6d1b64e6-849d-4226-b6ef-d5ece1a20255"}]}]},"request":{"method":"PUT","url":"Claim/5ca62962b8484628b8de1ec5"}}]}