{"resourceType":"Bundle","id":"tests-a64c6f30-eb93-4973-8f79-b84ed1950962-bundle","type":"transaction","entry":[{"resource":{"resourceType":"Procedure","id":"9d0d92c0-047f-4bfb-9f8a-789f96293f07","meta":{"profile":["http://hl7.org/fhir/us/qicore/StructureDefinition/qicore-procedure"]},"extension":[{"url":"http://hl7.org/fhir/us/qicore/StructureDefinition/qicore-recorded","valueDateTime":"2026-11-19T13:35:00Z"}],"status":"completed","code":{"coding":[{"system":"http://snomed.info/sct","code":"133918004"}]},"subject":{"reference":"Patient/a64c6f30-eb93-4973-8f79-b84ed1950962"},"performedPeriod":{"start":"2026-10-10T06:14:00Z"}},"request":{"method":"PUT","url":"Procedure/9d0d92c0-047f-4bfb-9f8a-789f96293f07"}},{"resource":{"resourceType":"MeasureReport","id":"a5c090c0-a70a-4ae8-8c2f-ebffe88b0e63","meta":{"profile":["http://hl7.org/fhir/us/cqfmeasures/StructureDefinition/test-case-cqfm"]},"contained":[{"resourceType":"Parameters","id":"09c8c674-a345-4052-acc6-fa54b2d23e9e-parameters","parameter":[{"name":"subject","valueString":"a64c6f30-eb93-4973-8f79-b84ed1950962"}]}],"extension":[{"url":"http://hl7.org/fhir/StructureDefinition/cqf-inputParameters","valueReference":{"reference":"#09c8c674-a345-4052-acc6-fa54b2d23e9e-parameters"}},{"url":"http://hl7.org/fhir/us/cqfmeasures/StructureDefinition/cqfm-testCaseDescription","valueMarkdown":"Patient receives comfort measures performed 1 minute before ED Visit ends, CMP<1day,  global.\"Hospitalization\" =(Ed+IP)\n"}],"modifierExtension":[{"url":"http://hl7.org/fhir/us/cqfmeasures/StructureDefinition/cqfm-isTestCase","valueBoolean":true}],"status":"complete","type":"individual","measure":"https://madie.cms.gov/Measure/CMS72FHIRSTKAntithromboticDay2","period":{"start":"2026-01-01","end":"2026-12-31"},"group":[{"id":"Group_1","population":[{"id":"InitialPopulation_1","code":{"coding":[{"system":"http://terminology.hl7.org/CodeSystem/measure-population","code":"initial-population","display":"Initial Population"}]},"count":1},{"id":"Denominator_1","code":{"coding":[{"system":"http://terminology.hl7.org/CodeSystem/measure-population","code":"denominator","display":"Denominator"}]},"count":1},{"id":"DenominatorExclusion_1","code":{"coding":[{"system":"http://terminology.hl7.org/CodeSystem/measure-population","code":"denominator-exclusion","display":"Denominator Exclusion"}]},"count":1},{"id":"Numerator_1","code":{"coding":[{"system":"http://terminology.hl7.org/CodeSystem/measure-population","code":"numerator","display":"Numerator"}]},"count":0},{"id":"DenominatorException_1","code":{"coding":[{"system":"http://terminology.hl7.org/CodeSystem/measure-population","code":"denominator-exception","display":"Denominator Exception"}]},"count":0}],"measureScore":{"value":0.0}}],"evaluatedResource":[{"reference":"Patient/a64c6f30-eb93-4973-8f79-b84ed1950962"},{"reference":"Encounter/7c4e2d42-cb7d-4313-8f45-3645b52381f5"},{"reference":"Encounter/00ab530e-fded-4ccc-b227-bd3b07f40d46"},{"reference":"Claim/5ca62962b8484628b8de1ec5"},{"reference":"Procedure/9d0d92c0-047f-4bfb-9f8a-789f96293f07"},{"reference":"Coverage/534f2701-0c07-45fd-beeb-ad7fbd45936a"},{"reference":"Condition/cd7aa9e2-ede2-4953-bcaa-ac4e9c942eeb"},{"reference":"Organization/4e493cd4-befe-45fa-9434-bd12964b4d3d"}]},"request":{"method":"PUT","url":"MeasureReport/a5c090c0-a70a-4ae8-8c2f-ebffe88b0e63"}},{"resource":{"resourceType":"Patient","id":"a64c6f30-eb93-4973-8f79-b84ed1950962","meta":{"profile":["http://hl7.org/fhir/us/qicore/StructureDefinition/qicore-patient"]},"text":{"status":"generated","div":"<div xmlns=\"http://www.w3.org/1999/xhtml\"><div class=\"hapiHeaderText\">CMP&lt;1day_DuringEd_RelePer <b>DENEXPASS </b></div><table class=\"hapiPropertyTable\"><tbody><tr><td>Identifier</td><td>a4b5ca450b4d11ad50aba1ee99a95908</td></tr><tr><td>Date of birth</td><td><span>26 September 1975</span></td></tr></tbody></table></div>"},"extension":[{"url":"http://hl7.org/fhir/us/core/StructureDefinition/us-core-race","extension":[{"url":"ombCategory","valueCoding":{"system":"urn:oid:2.16.840.1.113883.6.238","code":"2054-5","display":"Black or African American","userSelected":true}},{"url":"text","valueString":"Black or African American"}]},{"url":"http://hl7.org/fhir/us/core/StructureDefinition/us-core-ethnicity","extension":[{"url":"ombCategory","valueCoding":{"system":"urn:oid:2.16.840.1.113883.6.238","code":"2186-5","display":"Not Hispanic or Latino","userSelected":true}},{"url":"text","valueString":"Not Hispanic or Latino"}]}],"identifier":[{"type":{"coding":[{"system":"http://terminology.hl7.org/CodeSystem/v2-0203","code":"MR"}]},"system":"https://bonnie-fhir.healthit.gov/","value":"60f82c3098086b570510e2d1"}],"active":true,"name":[{"use":"usual","family":"DENEXPass","given":["CMP<1dayDuringEdRelePer"]}],"gender":"female","birthDate":"1976-09-26"},"request":{"method":"PUT","url":"Patient/a64c6f30-eb93-4973-8f79-b84ed1950962"}},{"resource":{"resourceType":"Coverage","id":"534f2701-0c07-45fd-beeb-ad7fbd45936a","status":"active","beneficiary":{"reference":"Patient/a64c6f30-eb93-4973-8f79-b84ed1950962"},"period":{"start":"1976-09-26T08:00:00Z"},"payor":[{"reference":"Organization/4e493cd4-befe-45fa-9434-bd12964b4d3d"}]},"request":{"method":"PUT","url":"Coverage/534f2701-0c07-45fd-beeb-ad7fbd45936a"}},{"resource":{"resourceType":"Bundle","id":"60f82c3098086b570510e2d1","type":"transaction","entry":[{"fullUrl":"https://madie.cms.gov/Patient/a64c6f30-eb93-4973-8f79-b84ed1950962","resource":{"resourceType":"Patient","id":"a64c6f30-eb93-4973-8f79-b84ed1950962","meta":{"profile":["http://hl7.org/fhir/us/qicore/StructureDefinition/qicore-patient"]},"text":{"status":"generated","div":"<div xmlns=\"http://www.w3.org/1999/xhtml\"><div class=\"hapiHeaderText\">CMP&lt;1day_DuringEd_RelePer <b>DENEXPASS </b></div><table class=\"hapiPropertyTable\"><tbody><tr><td>Identifier</td><td>a4b5ca450b4d11ad50aba1ee99a95908</td></tr><tr><td>Date of birth</td><td><span>26 September 1975</span></td></tr></tbody></table></div>"},"extension":[{"url":"http://hl7.org/fhir/us/core/StructureDefinition/us-core-race","extension":[{"url":"ombCategory","valueCoding":{"system":"urn:oid:2.16.840.1.113883.6.238","code":"2054-5","display":"Black or African American","userSelected":true}},{"url":"text","valueString":"Black or African American"}]},{"url":"http://hl7.org/fhir/us/core/StructureDefinition/us-core-ethnicity","extension":[{"url":"ombCategory","valueCoding":{"system":"urn:oid:2.16.840.1.113883.6.238","code":"2186-5","display":"Not Hispanic or Latino","userSelected":true}},{"url":"text","valueString":"Not Hispanic or Latino"}]}],"identifier":[{"type":{"coding":[{"system":"http://terminology.hl7.org/CodeSystem/v2-0203","code":"MR"}]},"system":"https://bonnie-fhir.healthit.gov/","value":"60f82c3098086b570510e2d1"}],"active":true,"name":[{"use":"usual","family":"DENEXPass","given":["CMP<1dayDuringEdRelePer"]}],"gender":"female","birthDate":"1976-09-26"},"request":{"method":"PUT","url":"Patient/a64c6f30-eb93-4973-8f79-b84ed1950962"}},{"fullUrl":"https://madie.cms.gov/Encounter/7c4e2d42-cb7d-4313-8f45-3645b52381f5","resource":{"resourceType":"Encounter","id":"7c4e2d42-cb7d-4313-8f45-3645b52381f5","meta":{"profile":["http://hl7.org/fhir/us/qicore/StructureDefinition/qicore-encounter"]},"status":"finished","class":{"system":"http://terminology.hl7.org/CodeSystem/v3-ActCode","code":"EMER","display":"emergency","userSelected":true},"type":[{"coding":[{"system":"http://snomed.info/sct","code":"4525004"}]}],"subject":{"reference":"Patient/a64c6f30-eb93-4973-8f79-b84ed1950962"},"period":{"start":"2026-10-10T06:00:00Z","end":"2026-10-10T06:15:00.000+00:00"},"length":{"value":0,"unit":"days"}},"request":{"method":"PUT","url":"Encounter/7c4e2d42-cb7d-4313-8f45-3645b52381f5"}},{"fullUrl":"https://madie.cms.gov/Encounter/00ab530e-fded-4ccc-b227-bd3b07f40d46","resource":{"resourceType":"Encounter","id":"00ab530e-fded-4ccc-b227-bd3b07f40d46","meta":{"profile":["http://hl7.org/fhir/us/qicore/StructureDefinition/qicore-encounter"]},"status":"finished","class":{"system":"http://terminology.hl7.org/CodeSystem/v3-ActCode","code":"IMP","display":"inpatient encounter","userSelected":true},"type":[{"coding":[{"system":"http://snomed.info/sct","code":"32485007"}]}],"subject":{"reference":"Patient/a64c6f30-eb93-4973-8f79-b84ed1950962"},"period":{"start":"2026-10-10T06:15:00Z","end":"2026-10-11T11:15:00.000+00:00"},"length":{"value":1,"unit":"days"},"reasonReference":[{"reference":"Condition/cd7aa9e2-ede2-4953-bcaa-ac4e9c942eeb"}]},"request":{"method":"PUT","url":"Encounter/00ab530e-fded-4ccc-b227-bd3b07f40d46"}},{"fullUrl":"https://madie.cms.gov/claim/5ca62962b8484628b8de1ec5","resource":{"resourceType":"Claim","id":"5ca62962b8484628b8de1ec5","meta":{"profile":["http://hl7.org/fhir/us/qicore/StructureDefinition/qicore-claim"]},"status":"active","type":{"coding":[{"system":"http://terminology.hl7.org/CodeSystem/claim-type","code":"institutional"}]},"use":"claim","patient":{"reference":"Patient/a64c6f30-eb93-4973-8f79-b84ed1950962"},"created":"2026-12-01","provider":{"reference":"Practitioner/practitioner-123456"},"priority":{"coding":[{"system":"http://terminology.hl7.org/CodeSystem/processpriority","code":"normal"}]},"diagnosis":[{"sequence":1,"diagnosisCodeableConcept":{"coding":[{"system":"http://hl7.org/fhir/sid/icd-10-cm","code":"I63.00"}]},"type":[{"coding":[{"system":"http://terminology.hl7.org/CodeSystem/ex-diagnosistype","code":"principal"}]}]}],"insurance":[{"sequence":1,"focal":true,"coverage":{"reference":"Coverage/534f2701-0c07-45fd-beeb-ad7fbd45936a"}}],"item":[{"sequence":1,"diagnosisSequence":[1],"productOrService":{"coding":[{"system":"http://terminology.hl7.org/CodeSystem/ex-USCLS","code":"99555"}]},"encounter":[{"reference":"Encounter/00ab530e-fded-4ccc-b227-bd3b07f40d46"}]}]},"request":{"method":"PUT","url":"Claim/5ca62962b8484628b8de1ec5"}},{"fullUrl":"https://madie.cms.gov/Procedure/9d0d92c0-047f-4bfb-9f8a-789f96293f07","resource":{"resourceType":"Procedure","id":"9d0d92c0-047f-4bfb-9f8a-789f96293f07","meta":{"profile":["http://hl7.org/fhir/us/qicore/StructureDefinition/qicore-procedure"]},"extension":[{"url":"http://hl7.org/fhir/us/qicore/StructureDefinition/qicore-recorded","valueDateTime":"2026-11-19T13:35:00Z"}],"status":"completed","code":{"coding":[{"system":"http://snomed.info/sct","code":"133918004"}]},"subject":{"reference":"Patient/a64c6f30-eb93-4973-8f79-b84ed1950962"},"performedPeriod":{"start":"2026-10-10T06:14:00Z"}},"request":{"method":"PUT","url":"Procedure/9d0d92c0-047f-4bfb-9f8a-789f96293f07"}},{"fullUrl":"https://madie.cms.gov/Coverage/534f2701-0c07-45fd-beeb-ad7fbd45936a","resource":{"resourceType":"Coverage","id":"534f2701-0c07-45fd-beeb-ad7fbd45936a","status":"active","beneficiary":{"reference":"Patient/a64c6f30-eb93-4973-8f79-b84ed1950962"},"period":{"start":"1976-09-26T08:00:00Z"},"payor":[{"reference":"Organization/4e493cd4-befe-45fa-9434-bd12964b4d3d"}]},"request":{"method":"PUT","url":"Coverage/534f2701-0c07-45fd-beeb-ad7fbd45936a"}},{"fullUrl":"https://madie.cms.gov/Condition/cd7aa9e2-ede2-4953-bcaa-ac4e9c942eeb","resource":{"resourceType":"Condition","id":"cd7aa9e2-ede2-4953-bcaa-ac4e9c942eeb","meta":{"profile":["http://hl7.org/fhir/us/qicore/StructureDefinition/qicore-condition-encounter-diagnosis"]},"clinicalStatus":{"coding":[{"system":"http://terminology.hl7.org/CodeSystem/condition-clinical","code":"active"}]},"verificationStatus":{"coding":[{"system":"http://terminology.hl7.org/CodeSystem/condition-ver-status","code":"confirmed"}]},"category":[{"coding":[{"system":"http://terminology.hl7.org/CodeSystem/condition-category","code":"encounter-diagnosis","display":"Encounter Diagnosis"}]}],"code":{"coding":[{"system":"http://snomed.info/sct","version":"2020-09","code":"111297002","display":"Nonparalytic stroke (disorder)","userSelected":true}]},"subject":{"reference":"Patient/a64c6f30-eb93-4973-8f79-b84ed1950962"},"recordedDate":"2026-08-13T08:00:00Z"},"request":{"method":"PUT","url":"Condition/cd7aa9e2-ede2-4953-bcaa-ac4e9c942eeb"}},{"fullUrl":"https://madie.cms.gov/Organization/4e493cd4-befe-45fa-9434-bd12964b4d3d","resource":{"resourceType":"Organization","id":"4e493cd4-befe-45fa-9434-bd12964b4d3d","meta":{"profile":["http://hl7.org/fhir/us/qicore/StructureDefinition/qicore-organization"]},"identifier":[{"use":"temp","system":"urn:oid:2.16.840.1.113883.4.4","value":"21-3259825"}],"active":true,"type":[{"coding":[{"system":"http://terminology.hl7.org/CodeSystem/organization-type","code":"pay","display":"Payer"}]}],"name":"Blue Cross Blue Shield of Texas","telecom":[{"system":"phone","value":"(+1) 972-766-6900"}],"address":[{"use":"billing","type":"postal","line":["P.O. Box 660044"],"city":"Dallas","state":"TX","postalCode":"75266-0044","country":"USA"}]},"request":{"method":"PUT","url":"Organization/4e493cd4-befe-45fa-9434-bd12964b4d3d"}},{"fullUrl":"https://madie.cms.gov/MeasureReport/a5c090c0-a70a-4ae8-8c2f-ebffe88b0e63","resource":{"resourceType":"MeasureReport","id":"a5c090c0-a70a-4ae8-8c2f-ebffe88b0e63","meta":{"profile":["http://hl7.org/fhir/us/cqfmeasures/StructureDefinition/test-case-cqfm"]},"contained":[{"resourceType":"Parameters","id":"09c8c674-a345-4052-acc6-fa54b2d23e9e-parameters","parameter":[{"name":"subject","valueString":"a64c6f30-eb93-4973-8f79-b84ed1950962"}]}],"extension":[{"url":"http://hl7.org/fhir/StructureDefinition/cqf-inputParameters","valueReference":{"reference":"#09c8c674-a345-4052-acc6-fa54b2d23e9e-parameters"}},{"url":"http://hl7.org/fhir/us/cqfmeasures/StructureDefinition/cqfm-testCaseDescription","valueMarkdown":"Patient receives comfort measures performed 1 minute before ED Visit ends, CMP<1day,  global.\"Hospitalization\" =(Ed+IP)\n"}],"modifierExtension":[{"url":"http://hl7.org/fhir/us/cqfmeasures/StructureDefinition/cqfm-isTestCase","valueBoolean":true}],"status":"complete","type":"individual","measure":"https://madie.cms.gov/Measure/CMS72FHIRSTKAntithromboticDay2","period":{"start":"2026-01-01","end":"2026-12-31"},"group":[{"id":"Group_1","population":[{"id":"InitialPopulation_1","code":{"coding":[{"system":"http://terminology.hl7.org/CodeSystem/measure-population","code":"initial-population","display":"Initial Population"}]},"count":1},{"id":"Denominator_1","code":{"coding":[{"system":"http://terminology.hl7.org/CodeSystem/measure-population","code":"denominator","display":"Denominator"}]},"count":1},{"id":"DenominatorExclusion_1","code":{"coding":[{"system":"http://terminology.hl7.org/CodeSystem/measure-population","code":"denominator-exclusion","display":"Denominator Exclusion"}]},"count":1},{"id":"Numerator_1","code":{"coding":[{"system":"http://terminology.hl7.org/CodeSystem/measure-population","code":"numerator","display":"Numerator"}]},"count":0},{"id":"DenominatorException_1","code":{"coding":[{"system":"http://terminology.hl7.org/CodeSystem/measure-population","code":"denominator-exception","display":"Denominator Exception"}]},"count":0}],"measureScore":{"value":0.0}}],"evaluatedResource":[{"reference":"Patient/a64c6f30-eb93-4973-8f79-b84ed1950962"},{"reference":"Encounter/7c4e2d42-cb7d-4313-8f45-3645b52381f5"},{"reference":"Encounter/00ab530e-fded-4ccc-b227-bd3b07f40d46"},{"reference":"Claim/5ca62962b8484628b8de1ec5"},{"reference":"Procedure/9d0d92c0-047f-4bfb-9f8a-789f96293f07"},{"reference":"Coverage/534f2701-0c07-45fd-beeb-ad7fbd45936a"},{"reference":"Condition/cd7aa9e2-ede2-4953-bcaa-ac4e9c942eeb"},{"reference":"Organization/4e493cd4-befe-45fa-9434-bd12964b4d3d"}]},"request":{"method":"PUT","url":"MeasureReport/a5c090c0-a70a-4ae8-8c2f-ebffe88b0e63"}}]},"request":{"method":"PUT","url":"Bundle/60f82c3098086b570510e2d1"}},{"resource":{"resourceType":"Condition","id":"cd7aa9e2-ede2-4953-bcaa-ac4e9c942eeb","meta":{"profile":["http://hl7.org/fhir/us/qicore/StructureDefinition/qicore-condition-encounter-diagnosis"]},"clinicalStatus":{"coding":[{"system":"http://terminology.hl7.org/CodeSystem/condition-clinical","code":"active"}]},"verificationStatus":{"coding":[{"system":"http://terminology.hl7.org/CodeSystem/condition-ver-status","code":"confirmed"}]},"category":[{"coding":[{"system":"http://terminology.hl7.org/CodeSystem/condition-category","code":"encounter-diagnosis","display":"Encounter Diagnosis"}]}],"code":{"coding":[{"system":"http://snomed.info/sct","version":"2020-09","code":"111297002","display":"Nonparalytic stroke (disorder)","userSelected":true}]},"subject":{"reference":"Patient/a64c6f30-eb93-4973-8f79-b84ed1950962"},"recordedDate":"2026-08-13T08:00:00Z"},"request":{"method":"PUT","url":"Condition/cd7aa9e2-ede2-4953-bcaa-ac4e9c942eeb"}},{"resource":{"resourceType":"Organization","id":"4e493cd4-befe-45fa-9434-bd12964b4d3d","meta":{"profile":["http://hl7.org/fhir/us/qicore/StructureDefinition/qicore-organization"]},"identifier":[{"use":"temp","system":"urn:oid:2.16.840.1.113883.4.4","value":"21-3259825"}],"active":true,"type":[{"coding":[{"system":"http://terminology.hl7.org/CodeSystem/organization-type","code":"pay","display":"Payer"}]}],"name":"Blue Cross Blue Shield of Texas","telecom":[{"system":"phone","value":"(+1) 972-766-6900"}],"address":[{"use":"billing","type":"postal","line":["P.O. Box 660044"],"city":"Dallas","state":"TX","postalCode":"75266-0044","country":"USA"}]},"request":{"method":"PUT","url":"Organization/4e493cd4-befe-45fa-9434-bd12964b4d3d"}},{"resource":{"resourceType":"Encounter","id":"00ab530e-fded-4ccc-b227-bd3b07f40d46","meta":{"profile":["http://hl7.org/fhir/us/qicore/StructureDefinition/qicore-encounter"]},"status":"finished","class":{"system":"http://terminology.hl7.org/CodeSystem/v3-ActCode","code":"IMP","display":"inpatient encounter","userSelected":true},"type":[{"coding":[{"system":"http://snomed.info/sct","code":"32485007"}]}],"subject":{"reference":"Patient/a64c6f30-eb93-4973-8f79-b84ed1950962"},"period":{"start":"2026-10-10T06:15:00Z","end":"2026-10-11T11:15:00.000+00:00"},"length":{"value":1,"unit":"days"},"reasonReference":[{"reference":"Condition/cd7aa9e2-ede2-4953-bcaa-ac4e9c942eeb"}]},"request":{"method":"PUT","url":"Encounter/00ab530e-fded-4ccc-b227-bd3b07f40d46"}},{"resource":{"resourceType":"Claim","id":"5ca62962b8484628b8de1ec5","meta":{"profile":["http://hl7.org/fhir/us/qicore/StructureDefinition/qicore-claim"]},"status":"active","type":{"coding":[{"system":"http://terminology.hl7.org/CodeSystem/claim-type","code":"institutional"}]},"use":"claim","patient":{"reference":"Patient/a64c6f30-eb93-4973-8f79-b84ed1950962"},"created":"2026-12-01","provider":{"reference":"Practitioner/practitioner-123456"},"priority":{"coding":[{"system":"http://terminology.hl7.org/CodeSystem/processpriority","code":"normal"}]},"diagnosis":[{"sequence":1,"diagnosisCodeableConcept":{"coding":[{"system":"http://hl7.org/fhir/sid/icd-10-cm","code":"I63.00"}]},"type":[{"coding":[{"system":"http://terminology.hl7.org/CodeSystem/ex-diagnosistype","code":"principal"}]}]}],"insurance":[{"sequence":1,"focal":true,"coverage":{"reference":"Coverage/534f2701-0c07-45fd-beeb-ad7fbd45936a"}}],"item":[{"sequence":1,"diagnosisSequence":[1],"productOrService":{"coding":[{"system":"http://terminology.hl7.org/CodeSystem/ex-USCLS","code":"99555"}]},"encounter":[{"reference":"Encounter/00ab530e-fded-4ccc-b227-bd3b07f40d46"}]}]},"request":{"method":"PUT","url":"Claim/5ca62962b8484628b8de1ec5"}},{"resource":{"resourceType":"Encounter","id":"7c4e2d42-cb7d-4313-8f45-3645b52381f5","meta":{"profile":["http://hl7.org/fhir/us/qicore/StructureDefinition/qicore-encounter"]},"status":"finished","class":{"system":"http://terminology.hl7.org/CodeSystem/v3-ActCode","code":"EMER","display":"emergency","userSelected":true},"type":[{"coding":[{"system":"http://snomed.info/sct","code":"4525004"}]}],"subject":{"reference":"Patient/a64c6f30-eb93-4973-8f79-b84ed1950962"},"period":{"start":"2026-10-10T06:00:00Z","end":"2026-10-10T06:15:00.000+00:00"},"length":{"value":0,"unit":"days"}},"request":{"method":"PUT","url":"Encounter/7c4e2d42-cb7d-4313-8f45-3645b52381f5"}}]}