{"resourceType":"Bundle","id":"tests-f5f317c7-69f1-4a89-850a-8a58789c80f2-bundle","type":"transaction","entry":[{"fullUrl":"Coverage/634f9bcc-064c-4297-bd71-2fcafa0022fa","resource":{"resourceType":"Coverage","id":"634f9bcc-064c-4297-bd71-2fcafa0022fa","status":"active","beneficiary":{"reference":"Patient/f5f317c7-69f1-4a89-850a-8a58789c80f2"},"period":{"start":"1976-09-26T08:00:00Z"},"payor":[{"reference":"Organization/07e44b9a-8ab7-4343-9c84-bb6daa60e06d"}]},"request":{"method":"PUT","url":"Coverage/634f9bcc-064c-4297-bd71-2fcafa0022fa"}},{"fullUrl":"Encounter/2fd7333d-1049-4981-a0b0-20a6699256a1","resource":{"resourceType":"Encounter","id":"2fd7333d-1049-4981-a0b0-20a6699256a1","meta":{"profile":["http://hl7.org/fhir/us/qicore/StructureDefinition/qicore-encounter"]},"status":"finished","class":{"system":"http://terminology.hl7.org/CodeSystem/v3-ActCode","code":"IMP","display":"inpatient encounter","userSelected":true},"type":[{"coding":[{"system":"http://snomed.info/sct","code":"32485007"}]}],"subject":{"reference":"Patient/f5f317c7-69f1-4a89-850a-8a58789c80f2"},"period":{"start":"2026-10-10T09:00:00Z","end":"2026-10-12T11:15:00.000+00:00"},"length":{"value":2,"unit":"days"},"reasonReference":[{"reference":"Condition/925ccb2d-17a8-4a8d-a287-39756c684b3d"}]},"request":{"method":"PUT","url":"Encounter/2fd7333d-1049-4981-a0b0-20a6699256a1"}},{"fullUrl":"Patient/f5f317c7-69f1-4a89-850a-8a58789c80f2","resource":{"resourceType":"Patient","id":"f5f317c7-69f1-4a89-850a-8a58789c80f2","meta":{"profile":["http://hl7.org/fhir/us/qicore/StructureDefinition/qicore-patient"]},"text":{"status":"generated","div":"<div xmlns=\"http://www.w3.org/1999/xhtml\"><div class=\"hapiHeaderText\">PharmContra2DayAftEncStart_NoEDNoObsBFEnc <b>DENEXCEPFAIL </b></div><table class=\"hapiPropertyTable\"><tbody><tr><td>Identifier</td><td>3d4f026c9d3e0727d23e727b50bbdb562e833b85c97ee50ac776c0341f57a44d</td></tr><tr><td>Date of birth</td><td><span>26 September 1975</span></td></tr></tbody></table></div>"},"extension":[{"url":"http://hl7.org/fhir/us/core/StructureDefinition/us-core-race","extension":[{"url":"ombCategory","valueCoding":{"system":"urn:oid:2.16.840.1.113883.6.238","code":"2054-5","display":"Black or African American","userSelected":true}},{"url":"text","valueString":"Black or African American"}]},{"url":"http://hl7.org/fhir/us/core/StructureDefinition/us-core-ethnicity","extension":[{"url":"ombCategory","valueCoding":{"system":"urn:oid:2.16.840.1.113883.6.238","code":"2186-5","display":"Not Hispanic or Latino","userSelected":true}},{"url":"text","valueString":"Not Hispanic or Latino"}]}],"identifier":[{"type":{"coding":[{"system":"http://terminology.hl7.org/CodeSystem/v2-0203","code":"MR"}]},"system":"https://bonnie-fhir.healthit.gov/","value":"60f82c2f98086b570510e2a1"}],"active":true,"name":[{"use":"usual","family":"DENEXCEPFail","given":["PharmContra2DayAftEncStart_NoEDNoObsBFEnc"]}],"gender":"female","birthDate":"1976-09-26"},"request":{"method":"PUT","url":"Patient/f5f317c7-69f1-4a89-850a-8a58789c80f2"}},{"fullUrl":"Condition/925ccb2d-17a8-4a8d-a287-39756c684b3d","resource":{"resourceType":"Condition","id":"925ccb2d-17a8-4a8d-a287-39756c684b3d","meta":{"profile":["http://hl7.org/fhir/us/qicore/StructureDefinition/qicore-condition-encounter-diagnosis"]},"clinicalStatus":{"coding":[{"system":"http://terminology.hl7.org/CodeSystem/condition-clinical","code":"active"}]},"verificationStatus":{"coding":[{"system":"http://terminology.hl7.org/CodeSystem/condition-ver-status","code":"confirmed"}]},"category":[{"coding":[{"system":"http://terminology.hl7.org/CodeSystem/condition-category","code":"encounter-diagnosis","display":"Encounter Diagnosis"}]}],"code":{"coding":[{"system":"http://snomed.info/sct","version":"2020-09","code":"111297002","display":"Nonparalytic stroke (disorder)","userSelected":true}]},"subject":{"reference":"Patient/f5f317c7-69f1-4a89-850a-8a58789c80f2"},"recordedDate":"2026-07-28T08:00:00Z"},"request":{"method":"PUT","url":"Condition/925ccb2d-17a8-4a8d-a287-39756c684b3d"}},{"fullUrl":"Organization/07e44b9a-8ab7-4343-9c84-bb6daa60e06d","resource":{"resourceType":"Organization","id":"07e44b9a-8ab7-4343-9c84-bb6daa60e06d","meta":{"profile":["http://hl7.org/fhir/us/qicore/StructureDefinition/qicore-organization"]},"identifier":[{"use":"temp","system":"urn:oid:2.16.840.1.113883.4.4","value":"21-3259825"}],"active":true,"type":[{"coding":[{"system":"http://terminology.hl7.org/CodeSystem/organization-type","code":"pay","display":"Payer"}]}],"name":"Blue Cross Blue Shield of Texas","telecom":[{"system":"phone","value":"(+1) 972-766-6900"}],"address":[{"use":"billing","type":"postal","line":["P.O. Box 660044"],"city":"Dallas","state":"TX","postalCode":"75266-0044","country":"USA"}]},"request":{"method":"PUT","url":"Organization/07e44b9a-8ab7-4343-9c84-bb6daa60e06d"}},{"fullUrl":"Bundle/60f82c2f98086b570510e2a1","resource":{"resourceType":"Bundle","id":"60f82c2f98086b570510e2a1","type":"transaction","entry":[{"fullUrl":"https://madie.cms.gov/Patient/f5f317c7-69f1-4a89-850a-8a58789c80f2","resource":{"resourceType":"Patient","id":"f5f317c7-69f1-4a89-850a-8a58789c80f2","meta":{"profile":["http://hl7.org/fhir/us/qicore/StructureDefinition/qicore-patient"]},"text":{"status":"generated","div":"<div xmlns=\"http://www.w3.org/1999/xhtml\"><div class=\"hapiHeaderText\">PharmContra2DayAftEncStart_NoEDNoObsBFEnc <b>DENEXCEPFAIL </b></div><table class=\"hapiPropertyTable\"><tbody><tr><td>Identifier</td><td>3d4f026c9d3e0727d23e727b50bbdb562e833b85c97ee50ac776c0341f57a44d</td></tr><tr><td>Date of birth</td><td><span>26 September 1975</span></td></tr></tbody></table></div>"},"extension":[{"url":"http://hl7.org/fhir/us/core/StructureDefinition/us-core-race","extension":[{"url":"ombCategory","valueCoding":{"system":"urn:oid:2.16.840.1.113883.6.238","code":"2054-5","display":"Black or African American","userSelected":true}},{"url":"text","valueString":"Black or African American"}]},{"url":"http://hl7.org/fhir/us/core/StructureDefinition/us-core-ethnicity","extension":[{"url":"ombCategory","valueCoding":{"system":"urn:oid:2.16.840.1.113883.6.238","code":"2186-5","display":"Not Hispanic or Latino","userSelected":true}},{"url":"text","valueString":"Not Hispanic or Latino"}]}],"identifier":[{"type":{"coding":[{"system":"http://terminology.hl7.org/CodeSystem/v2-0203","code":"MR"}]},"system":"https://bonnie-fhir.healthit.gov/","value":"60f82c2f98086b570510e2a1"}],"active":true,"name":[{"use":"usual","family":"DENEXCEPFail","given":["PharmContra2DayAftEncStart_NoEDNoObsBFEnc"]}],"gender":"female","birthDate":"1976-09-26"},"request":{"method":"PUT","url":"Patient/f5f317c7-69f1-4a89-850a-8a58789c80f2"}},{"fullUrl":"https://madie.cms.gov/Encounter/2fd7333d-1049-4981-a0b0-20a6699256a1","resource":{"resourceType":"Encounter","id":"2fd7333d-1049-4981-a0b0-20a6699256a1","meta":{"profile":["http://hl7.org/fhir/us/qicore/StructureDefinition/qicore-encounter"]},"status":"finished","class":{"system":"http://terminology.hl7.org/CodeSystem/v3-ActCode","code":"IMP","display":"inpatient encounter","userSelected":true},"type":[{"coding":[{"system":"http://snomed.info/sct","code":"32485007"}]}],"subject":{"reference":"Patient/f5f317c7-69f1-4a89-850a-8a58789c80f2"},"period":{"start":"2026-10-10T09:00:00Z","end":"2026-10-12T11:15:00.000+00:00"},"length":{"value":2,"unit":"days"},"reasonReference":[{"reference":"Condition/925ccb2d-17a8-4a8d-a287-39756c684b3d"}]},"request":{"method":"PUT","url":"Encounter/2fd7333d-1049-4981-a0b0-20a6699256a1"}},{"fullUrl":"https://madie.cms.gov/claim/5ca62962b8484628b8de1ec5","resource":{"resourceType":"Claim","id":"5ca62962b8484628b8de1ec5","meta":{"profile":["http://hl7.org/fhir/us/qicore/StructureDefinition/qicore-claim"]},"status":"active","type":{"coding":[{"system":"http://terminology.hl7.org/CodeSystem/claim-type","code":"institutional"}]},"use":"claim","patient":{"reference":"Patient/d170a0a8-b5ad-4303-b6df-e304dd5f92ad"},"created":"2026-12-01","provider":{"reference":"Practitioner/practitioner-123456"},"priority":{"coding":[{"system":"http://terminology.hl7.org/CodeSystem/processpriority","code":"normal"}]},"diagnosis":[{"sequence":1,"diagnosisCodeableConcept":{"coding":[{"system":"http://hl7.org/fhir/sid/icd-10-cm","code":"I63.00"}]},"type":[{"coding":[{"system":"http://terminology.hl7.org/CodeSystem/ex-diagnosistype","code":"principal"}]}]}],"insurance":[{"sequence":1,"focal":true,"coverage":{"reference":"Coverage/5fa041661c76ba66d9959367"}}],"item":[{"sequence":1,"diagnosisSequence":[1],"productOrService":{"coding":[{"system":"http://terminology.hl7.org/CodeSystem/ex-USCLS","code":"99555"}]},"encounter":[{"reference":"Encounter/2fd7333d-1049-4981-a0b0-20a6699256a1"}]}]},"request":{"method":"PUT","url":"Claim/5ca62962b8484628b8de1ec5"}},{"fullUrl":"https://madie.cms.gov/MedicationAdministration/64665f83-95ea-44b2-b125-c1366770dff1","resource":{"resourceType":"MedicationAdministration","id":"64665f83-95ea-44b2-b125-c1366770dff1","meta":{"profile":["http://hl7.org/fhir/us/qicore/StructureDefinition/qicore-medicationadministration"]},"status":"completed","medicationCodeableConcept":{"coding":[{"system":"http://www.nlm.nih.gov/research/umls/rxnorm","code":"1116635"}]},"subject":{"reference":"Patient/f5f317c7-69f1-4a89-850a-8a58789c80f2"},"effectivePeriod":{"start":"2026-10-12T00:00:00Z"}},"request":{"method":"PUT","url":"MedicationAdministration/64665f83-95ea-44b2-b125-c1366770dff1"}},{"fullUrl":"https://madie.cms.gov/Coverage/634f9bcc-064c-4297-bd71-2fcafa0022fa","resource":{"resourceType":"Coverage","id":"634f9bcc-064c-4297-bd71-2fcafa0022fa","status":"active","beneficiary":{"reference":"Patient/f5f317c7-69f1-4a89-850a-8a58789c80f2"},"period":{"start":"1976-09-26T08:00:00Z"},"payor":[{"reference":"Organization/07e44b9a-8ab7-4343-9c84-bb6daa60e06d"}]},"request":{"method":"PUT","url":"Coverage/634f9bcc-064c-4297-bd71-2fcafa0022fa"}},{"fullUrl":"https://madie.cms.gov/Condition/925ccb2d-17a8-4a8d-a287-39756c684b3d","resource":{"resourceType":"Condition","id":"925ccb2d-17a8-4a8d-a287-39756c684b3d","meta":{"profile":["http://hl7.org/fhir/us/qicore/StructureDefinition/qicore-condition-encounter-diagnosis"]},"clinicalStatus":{"coding":[{"system":"http://terminology.hl7.org/CodeSystem/condition-clinical","code":"active"}]},"verificationStatus":{"coding":[{"system":"http://terminology.hl7.org/CodeSystem/condition-ver-status","code":"confirmed"}]},"category":[{"coding":[{"system":"http://terminology.hl7.org/CodeSystem/condition-category","code":"encounter-diagnosis","display":"Encounter Diagnosis"}]}],"code":{"coding":[{"system":"http://snomed.info/sct","version":"2020-09","code":"111297002","display":"Nonparalytic stroke (disorder)","userSelected":true}]},"subject":{"reference":"Patient/f5f317c7-69f1-4a89-850a-8a58789c80f2"},"recordedDate":"2026-07-28T08:00:00Z"},"request":{"method":"PUT","url":"Condition/925ccb2d-17a8-4a8d-a287-39756c684b3d"}},{"fullUrl":"https://madie.cms.gov/Organization/07e44b9a-8ab7-4343-9c84-bb6daa60e06d","resource":{"resourceType":"Organization","id":"07e44b9a-8ab7-4343-9c84-bb6daa60e06d","meta":{"profile":["http://hl7.org/fhir/us/qicore/StructureDefinition/qicore-organization"]},"identifier":[{"use":"temp","system":"urn:oid:2.16.840.1.113883.4.4","value":"21-3259825"}],"active":true,"type":[{"coding":[{"system":"http://terminology.hl7.org/CodeSystem/organization-type","code":"pay","display":"Payer"}]}],"name":"Blue Cross Blue Shield of Texas","telecom":[{"system":"phone","value":"(+1) 972-766-6900"}],"address":[{"use":"billing","type":"postal","line":["P.O. Box 660044"],"city":"Dallas","state":"TX","postalCode":"75266-0044","country":"USA"}]},"request":{"method":"PUT","url":"Organization/07e44b9a-8ab7-4343-9c84-bb6daa60e06d"}},{"fullUrl":"https://madie.cms.gov/MeasureReport/4527f1eb-40b8-4d2a-845e-0b4054fdd817","resource":{"resourceType":"MeasureReport","id":"4527f1eb-40b8-4d2a-845e-0b4054fdd817","meta":{"profile":["http://hl7.org/fhir/us/cqfmeasures/StructureDefinition/test-case-cqfm"]},"contained":[{"resourceType":"Parameters","id":"dae993cc-37a9-437f-a0c3-99b453142726-parameters","parameter":[{"name":"subject","valueString":"f5f317c7-69f1-4a89-850a-8a58789c80f2"}]}],"extension":[{"url":"http://hl7.org/fhir/StructureDefinition/cqf-inputParameters","valueReference":{"reference":"#dae993cc-37a9-437f-a0c3-99b453142726-parameters"}},{"url":"http://hl7.org/fhir/us/cqfmeasures/StructureDefinition/cqfm-testCaseDescription","valueMarkdown":"Patient receives Ticagrelor 2 days after IP start at midnight. No ED. No Obs. Testing Day of operator with HospitalizationWithObservation function.\n"}],"modifierExtension":[{"url":"http://hl7.org/fhir/us/cqfmeasures/StructureDefinition/cqfm-isTestCase","valueBoolean":true}],"status":"complete","type":"individual","measure":"https://madie.cms.gov/Measure/CMS72FHIRSTKAntithromboticDay2","period":{"start":"2026-01-01","end":"2026-12-31"},"group":[{"id":"Group_1","population":[{"id":"InitialPopulation_1","code":{"coding":[{"system":"http://terminology.hl7.org/CodeSystem/measure-population","code":"initial-population","display":"Initial Population"}]},"count":1},{"id":"Denominator_1","code":{"coding":[{"system":"http://terminology.hl7.org/CodeSystem/measure-population","code":"denominator","display":"Denominator"}]},"count":1},{"id":"DenominatorExclusion_1","code":{"coding":[{"system":"http://terminology.hl7.org/CodeSystem/measure-population","code":"denominator-exclusion","display":"Denominator Exclusion"}]},"count":0},{"id":"Numerator_1","code":{"coding":[{"system":"http://terminology.hl7.org/CodeSystem/measure-population","code":"numerator","display":"Numerator"}]},"count":0},{"id":"DenominatorException_1","code":{"coding":[{"system":"http://terminology.hl7.org/CodeSystem/measure-population","code":"denominator-exception","display":"Denominator Exception"}]},"count":0}],"measureScore":{"value":0.0}}],"evaluatedResource":[{"reference":"Patient/f5f317c7-69f1-4a89-850a-8a58789c80f2"},{"reference":"Encounter/2fd7333d-1049-4981-a0b0-20a6699256a1"},{"reference":"Claim/5ca62962b8484628b8de1ec5"},{"reference":"MedicationAdministration/64665f83-95ea-44b2-b125-c1366770dff1"},{"reference":"Coverage/634f9bcc-064c-4297-bd71-2fcafa0022fa"},{"reference":"Condition/925ccb2d-17a8-4a8d-a287-39756c684b3d"},{"reference":"Organization/07e44b9a-8ab7-4343-9c84-bb6daa60e06d"}]},"request":{"method":"PUT","url":"MeasureReport/4527f1eb-40b8-4d2a-845e-0b4054fdd817"}}]},"request":{"method":"PUT","url":"Bundle/60f82c2f98086b570510e2a1"}},{"fullUrl":"MedicationAdministration/64665f83-95ea-44b2-b125-c1366770dff1","resource":{"resourceType":"MedicationAdministration","id":"64665f83-95ea-44b2-b125-c1366770dff1","meta":{"profile":["http://hl7.org/fhir/us/qicore/StructureDefinition/qicore-medicationadministration"]},"status":"completed","medicationCodeableConcept":{"coding":[{"system":"http://www.nlm.nih.gov/research/umls/rxnorm","code":"1116635"}]},"subject":{"reference":"Patient/f5f317c7-69f1-4a89-850a-8a58789c80f2"},"effectivePeriod":{"start":"2026-10-12T00:00:00Z"}},"request":{"method":"PUT","url":"MedicationAdministration/64665f83-95ea-44b2-b125-c1366770dff1"}},{"fullUrl":"Claim/5ca62962b8484628b8de1ec5","resource":{"resourceType":"Claim","id":"5ca62962b8484628b8de1ec5","meta":{"profile":["http://hl7.org/fhir/us/qicore/StructureDefinition/qicore-claim"]},"status":"active","type":{"coding":[{"system":"http://terminology.hl7.org/CodeSystem/claim-type","code":"institutional"}]},"use":"claim","patient":{"reference":"Patient/d170a0a8-b5ad-4303-b6df-e304dd5f92ad"},"created":"2026-12-01","provider":{"reference":"Practitioner/practitioner-123456"},"priority":{"coding":[{"system":"http://terminology.hl7.org/CodeSystem/processpriority","code":"normal"}]},"diagnosis":[{"sequence":1,"diagnosisCodeableConcept":{"coding":[{"system":"http://hl7.org/fhir/sid/icd-10-cm","code":"I63.00"}]},"type":[{"coding":[{"system":"http://terminology.hl7.org/CodeSystem/ex-diagnosistype","code":"principal"}]}]}],"insurance":[{"sequence":1,"focal":true,"coverage":{"reference":"Coverage/5fa041661c76ba66d9959367"}}],"item":[{"sequence":1,"diagnosisSequence":[1],"productOrService":{"coding":[{"system":"http://terminology.hl7.org/CodeSystem/ex-USCLS","code":"99555"}]},"encounter":[{"reference":"Encounter/2fd7333d-1049-4981-a0b0-20a6699256a1"}]}]},"request":{"method":"PUT","url":"Claim/5ca62962b8484628b8de1ec5"}},{"fullUrl":"MeasureReport/4527f1eb-40b8-4d2a-845e-0b4054fdd817","resource":{"resourceType":"MeasureReport","id":"4527f1eb-40b8-4d2a-845e-0b4054fdd817","meta":{"profile":["http://hl7.org/fhir/us/cqfmeasures/StructureDefinition/test-case-cqfm"]},"contained":[{"resourceType":"Parameters","id":"dae993cc-37a9-437f-a0c3-99b453142726-parameters","parameter":[{"name":"subject","valueString":"f5f317c7-69f1-4a89-850a-8a58789c80f2"}]}],"extension":[{"url":"http://hl7.org/fhir/StructureDefinition/cqf-inputParameters","valueReference":{"reference":"#dae993cc-37a9-437f-a0c3-99b453142726-parameters"}},{"url":"http://hl7.org/fhir/us/cqfmeasures/StructureDefinition/cqfm-testCaseDescription","valueMarkdown":"Patient receives Ticagrelor 2 days after IP start at midnight. No ED. No Obs. Testing Day of operator with HospitalizationWithObservation function.\n"}],"modifierExtension":[{"url":"http://hl7.org/fhir/us/cqfmeasures/StructureDefinition/cqfm-isTestCase","valueBoolean":true}],"status":"complete","type":"individual","measure":"https://madie.cms.gov/Measure/CMS72FHIRSTKAntithromboticDay2","period":{"start":"2026-01-01","end":"2026-12-31"},"group":[{"id":"Group_1","population":[{"id":"InitialPopulation_1","code":{"coding":[{"system":"http://terminology.hl7.org/CodeSystem/measure-population","code":"initial-population","display":"Initial Population"}]},"count":1},{"id":"Denominator_1","code":{"coding":[{"system":"http://terminology.hl7.org/CodeSystem/measure-population","code":"denominator","display":"Denominator"}]},"count":1},{"id":"DenominatorExclusion_1","code":{"coding":[{"system":"http://terminology.hl7.org/CodeSystem/measure-population","code":"denominator-exclusion","display":"Denominator Exclusion"}]},"count":0},{"id":"Numerator_1","code":{"coding":[{"system":"http://terminology.hl7.org/CodeSystem/measure-population","code":"numerator","display":"Numerator"}]},"count":0},{"id":"DenominatorException_1","code":{"coding":[{"system":"http://terminology.hl7.org/CodeSystem/measure-population","code":"denominator-exception","display":"Denominator Exception"}]},"count":0}],"measureScore":{"value":0.0}}],"evaluatedResource":[{"reference":"Patient/f5f317c7-69f1-4a89-850a-8a58789c80f2"},{"reference":"Encounter/2fd7333d-1049-4981-a0b0-20a6699256a1"},{"reference":"Claim/5ca62962b8484628b8de1ec5"},{"reference":"MedicationAdministration/64665f83-95ea-44b2-b125-c1366770dff1"},{"reference":"Coverage/634f9bcc-064c-4297-bd71-2fcafa0022fa"},{"reference":"Condition/925ccb2d-17a8-4a8d-a287-39756c684b3d"},{"reference":"Organization/07e44b9a-8ab7-4343-9c84-bb6daa60e06d"}]},"request":{"method":"PUT","url":"MeasureReport/4527f1eb-40b8-4d2a-845e-0b4054fdd817"}}]}