{"resourceType":"Bundle","id":"tests-145ddce1-5ecd-4bcb-b58d-6c39b55e4f54-bundle","type":"transaction","entry":[{"fullUrl":"Organization/92d549fc-01b8-43f1-8013-a52c412430f5","resource":{"resourceType":"Organization","id":"92d549fc-01b8-43f1-8013-a52c412430f5","meta":{"profile":["http://hl7.org/fhir/us/qicore/StructureDefinition/qicore-organization"]},"identifier":[{"use":"temp","system":"urn:oid:2.16.840.1.113883.4.4","value":"21-3259825"}],"active":true,"type":[{"coding":[{"system":"http://terminology.hl7.org/CodeSystem/organization-type","code":"pay","display":"Payer"}]}],"name":"Blue Cross Blue Shield of Texas","telecom":[{"system":"phone","value":"(+1) 972-766-6900"}],"address":[{"use":"billing","type":"postal","line":["P.O. Box 660044"],"city":"Dallas","state":"TX","postalCode":"75266-0044","country":"USA"}]},"request":{"method":"PUT","url":"Organization/92d549fc-01b8-43f1-8013-a52c412430f5"}},{"fullUrl":"Coverage/a5f78aac-c4c9-4e5c-80e0-40e41478c033","resource":{"resourceType":"Coverage","id":"a5f78aac-c4c9-4e5c-80e0-40e41478c033","status":"active","beneficiary":{"reference":"Patient/145ddce1-5ecd-4bcb-b58d-6c39b55e4f54"},"period":{"start":"1994-08-21T07:00:00Z"},"payor":[{"reference":"Organization/92d549fc-01b8-43f1-8013-a52c412430f5"}]},"request":{"method":"PUT","url":"Coverage/a5f78aac-c4c9-4e5c-80e0-40e41478c033"}},{"fullUrl":"Patient/145ddce1-5ecd-4bcb-b58d-6c39b55e4f54","resource":{"resourceType":"Patient","id":"145ddce1-5ecd-4bcb-b58d-6c39b55e4f54","meta":{"profile":["http://hl7.org/fhir/us/qicore/StructureDefinition/qicore-patient"]},"text":{"status":"generated","div":"<div xmlns=\"http://www.w3.org/1999/xhtml\"><div class=\"hapiHeaderText\">EncB4MP <b>IPPFAIL </b></div><table class=\"hapiPropertyTable\"><tbody><tr><td>Identifier</td><td>7592b753ea9652ea4df9928763a65677</td></tr><tr><td>Date of birth</td><td><span>21 August 1993</span></td></tr></tbody></table></div>"},"extension":[{"url":"http://hl7.org/fhir/us/core/StructureDefinition/us-core-race","extension":[{"url":"ombCategory","valueCoding":{"system":"urn:oid:2.16.840.1.113883.6.238","code":"1002-5","display":"American Indian or Alaska Native","userSelected":true}},{"url":"text","valueString":"American Indian or Alaska Native"}]},{"url":"http://hl7.org/fhir/us/core/StructureDefinition/us-core-ethnicity","extension":[{"url":"ombCategory","valueCoding":{"system":"urn:oid:2.16.840.1.113883.6.238","code":"2186-5","display":"Not Hispanic or Latino","userSelected":true}},{"url":"text","valueString":"Not Hispanic or Latino"}]}],"identifier":[{"type":{"coding":[{"system":"http://terminology.hl7.org/CodeSystem/v2-0203","code":"MR"}]},"system":"https://bonnie-fhir.healthit.gov/","value":"60f82c2d98086b570510e250"}],"active":true,"name":[{"use":"usual","family":"IPPFail","given":["EncB4MP"]}],"gender":"male","birthDate":"1994-08-21"},"request":{"method":"PUT","url":"Patient/145ddce1-5ecd-4bcb-b58d-6c39b55e4f54"}},{"fullUrl":"MeasureReport/bcbbb172-6255-45da-be18-f730974c9dd9","resource":{"resourceType":"MeasureReport","id":"bcbbb172-6255-45da-be18-f730974c9dd9","meta":{"profile":["http://hl7.org/fhir/us/cqfmeasures/StructureDefinition/test-case-cqfm"]},"contained":[{"resourceType":"Parameters","id":"7953ba1c-3139-4fa9-9915-37d864872116-parameters","parameter":[{"name":"subject","valueString":"145ddce1-5ecd-4bcb-b58d-6c39b55e4f54"}]}],"extension":[{"url":"http://hl7.org/fhir/StructureDefinition/cqf-inputParameters","valueReference":{"reference":"#7953ba1c-3139-4fa9-9915-37d864872116-parameters"}},{"url":"http://hl7.org/fhir/us/cqfmeasures/StructureDefinition/cqfm-testCaseDescription","valueMarkdown":"encounter ends before MP \n"}],"modifierExtension":[{"url":"http://hl7.org/fhir/us/cqfmeasures/StructureDefinition/cqfm-isTestCase","valueBoolean":true}],"status":"complete","type":"individual","measure":"https://madie.cms.gov/Measure/CMS72FHIRSTKAntithromboticDay2","period":{"start":"2026-01-01","end":"2026-12-31"},"group":[{"id":"Group_1","population":[{"id":"InitialPopulation_1","code":{"coding":[{"system":"http://terminology.hl7.org/CodeSystem/measure-population","code":"initial-population","display":"Initial Population"}]},"count":0},{"id":"Denominator_1","code":{"coding":[{"system":"http://terminology.hl7.org/CodeSystem/measure-population","code":"denominator","display":"Denominator"}]},"count":0},{"id":"DenominatorExclusion_1","code":{"coding":[{"system":"http://terminology.hl7.org/CodeSystem/measure-population","code":"denominator-exclusion","display":"Denominator Exclusion"}]},"count":0},{"id":"Numerator_1","code":{"coding":[{"system":"http://terminology.hl7.org/CodeSystem/measure-population","code":"numerator","display":"Numerator"}]},"count":0},{"id":"DenominatorException_1","code":{"coding":[{"system":"http://terminology.hl7.org/CodeSystem/measure-population","code":"denominator-exception","display":"Denominator Exception"}]},"count":0}],"measureScore":{"value":0.0}}],"evaluatedResource":[{"reference":"Patient/145ddce1-5ecd-4bcb-b58d-6c39b55e4f54"},{"reference":"Encounter/08df9581-9c59-4d8c-935a-ce6cf9d40470"},{"reference":"Claim/5ca62962b8484628b8de1ec5"},{"reference":"Coverage/a5f78aac-c4c9-4e5c-80e0-40e41478c033"},{"reference":"Organization/92d549fc-01b8-43f1-8013-a52c412430f5"},{"reference":"Practitioner/6dc0842f-54fd-479c-bbfa-d13da54f190c"}]},"request":{"method":"PUT","url":"MeasureReport/bcbbb172-6255-45da-be18-f730974c9dd9"}},{"fullUrl":"Practitioner/6dc0842f-54fd-479c-bbfa-d13da54f190c","resource":{"resourceType":"Practitioner","id":"6dc0842f-54fd-479c-bbfa-d13da54f190c","identifier":[{"system":"http://hl7.org/fhir/sid/us-npi","value":"123456"}],"name":[{"family":"Evil","prefix":["Dr"]}]},"request":{"method":"PUT","url":"Practitioner/6dc0842f-54fd-479c-bbfa-d13da54f190c"}},{"fullUrl":"Bundle/60f82c2d98086b570510e250","resource":{"resourceType":"Bundle","id":"60f82c2d98086b570510e250","type":"transaction","entry":[{"fullUrl":"https://madie.cms.gov/Patient/145ddce1-5ecd-4bcb-b58d-6c39b55e4f54","resource":{"resourceType":"Patient","id":"145ddce1-5ecd-4bcb-b58d-6c39b55e4f54","meta":{"profile":["http://hl7.org/fhir/us/qicore/StructureDefinition/qicore-patient"]},"text":{"status":"generated","div":"<div xmlns=\"http://www.w3.org/1999/xhtml\"><div class=\"hapiHeaderText\">EncB4MP <b>IPPFAIL </b></div><table class=\"hapiPropertyTable\"><tbody><tr><td>Identifier</td><td>7592b753ea9652ea4df9928763a65677</td></tr><tr><td>Date of birth</td><td><span>21 August 1993</span></td></tr></tbody></table></div>"},"extension":[{"url":"http://hl7.org/fhir/us/core/StructureDefinition/us-core-race","extension":[{"url":"ombCategory","valueCoding":{"system":"urn:oid:2.16.840.1.113883.6.238","code":"1002-5","display":"American Indian or Alaska Native","userSelected":true}},{"url":"text","valueString":"American Indian or Alaska Native"}]},{"url":"http://hl7.org/fhir/us/core/StructureDefinition/us-core-ethnicity","extension":[{"url":"ombCategory","valueCoding":{"system":"urn:oid:2.16.840.1.113883.6.238","code":"2186-5","display":"Not Hispanic or Latino","userSelected":true}},{"url":"text","valueString":"Not Hispanic or Latino"}]}],"identifier":[{"type":{"coding":[{"system":"http://terminology.hl7.org/CodeSystem/v2-0203","code":"MR"}]},"system":"https://bonnie-fhir.healthit.gov/","value":"60f82c2d98086b570510e250"}],"active":true,"name":[{"use":"usual","family":"IPPFail","given":["EncB4MP"]}],"gender":"male","birthDate":"1994-08-21"},"request":{"method":"PUT","url":"Patient/145ddce1-5ecd-4bcb-b58d-6c39b55e4f54"}},{"fullUrl":"https://madie.cms.gov/Encounter/08df9581-9c59-4d8c-935a-ce6cf9d40470","resource":{"resourceType":"Encounter","id":"08df9581-9c59-4d8c-935a-ce6cf9d40470","meta":{"profile":["http://hl7.org/fhir/us/qicore/StructureDefinition/qicore-encounter"]},"status":"finished","class":{"system":"http://terminology.hl7.org/CodeSystem/v3-ActCode","code":"IMP","display":"inpatient encounter"},"type":[{"coding":[{"system":"http://snomed.info/sct","code":"32485007"}]}],"subject":{"reference":"Patient/145ddce1-5ecd-4bcb-b58d-6c39b55e4f54"},"period":{"start":"2024-08-21T09:30:00Z","end":"2024-12-19T10:30:00.000+00:00"},"length":{"value":120,"unit":"days"},"reasonReference":[{"reference":"Condition/ischemic-stroke-824c"}]},"request":{"method":"PUT","url":"Encounter/08df9581-9c59-4d8c-935a-ce6cf9d40470"}},{"fullUrl":"https://madie.cms.gov/claim/5ca62962b8484628b8de1ec5","resource":{"resourceType":"Claim","id":"5ca62962b8484628b8de1ec5","meta":{"profile":["http://hl7.org/fhir/us/qicore/StructureDefinition/qicore-claim"]},"status":"active","type":{"coding":[{"system":"http://terminology.hl7.org/CodeSystem/claim-type","code":"institutional"}]},"use":"claim","patient":{"reference":"Patient/145ddce1-5ecd-4bcb-b58d-6c39b55e4f54"},"created":"2026-12-01","provider":{"reference":"Practitioner/6dc0842f-54fd-479c-bbfa-d13da54f190c"},"priority":{"coding":[{"system":"http://terminology.hl7.org/CodeSystem/processpriority","code":"normal"}]},"diagnosis":[{"sequence":1,"diagnosisCodeableConcept":{"coding":[{"system":"http://hl7.org/fhir/sid/icd-10-cm","code":"I63.00"}]},"type":[{"coding":[{"system":"http://terminology.hl7.org/CodeSystem/ex-diagnosistype","code":"principal"}]}]}],"insurance":[{"sequence":1,"focal":true,"coverage":{"reference":"Coverage/5fa041661c76ba66d9959367"}}],"item":[{"sequence":1,"diagnosisSequence":[1],"productOrService":{"coding":[{"system":"http://terminology.hl7.org/CodeSystem/ex-USCLS","code":"99555"}]},"encounter":[{"reference":"Encounter/08df9581-9c59-4d8c-935a-ce6cf9d40470"}]}]},"request":{"method":"PUT","url":"Claim/5ca62962b8484628b8de1ec5"}},{"fullUrl":"https://madie.cms.gov/Coverage/a5f78aac-c4c9-4e5c-80e0-40e41478c033","resource":{"resourceType":"Coverage","id":"a5f78aac-c4c9-4e5c-80e0-40e41478c033","status":"active","beneficiary":{"reference":"Patient/145ddce1-5ecd-4bcb-b58d-6c39b55e4f54"},"period":{"start":"1994-08-21T07:00:00Z"},"payor":[{"reference":"Organization/92d549fc-01b8-43f1-8013-a52c412430f5"}]},"request":{"method":"PUT","url":"Coverage/a5f78aac-c4c9-4e5c-80e0-40e41478c033"}},{"fullUrl":"https://madie.cms.gov/Organization/92d549fc-01b8-43f1-8013-a52c412430f5","resource":{"resourceType":"Organization","id":"92d549fc-01b8-43f1-8013-a52c412430f5","meta":{"profile":["http://hl7.org/fhir/us/qicore/StructureDefinition/qicore-organization"]},"identifier":[{"use":"temp","system":"urn:oid:2.16.840.1.113883.4.4","value":"21-3259825"}],"active":true,"type":[{"coding":[{"system":"http://terminology.hl7.org/CodeSystem/organization-type","code":"pay","display":"Payer"}]}],"name":"Blue Cross Blue Shield of Texas","telecom":[{"system":"phone","value":"(+1) 972-766-6900"}],"address":[{"use":"billing","type":"postal","line":["P.O. Box 660044"],"city":"Dallas","state":"TX","postalCode":"75266-0044","country":"USA"}]},"request":{"method":"PUT","url":"Organization/92d549fc-01b8-43f1-8013-a52c412430f5"}},{"fullUrl":"https://madie.cms.gov/Practitioner/6dc0842f-54fd-479c-bbfa-d13da54f190c","resource":{"resourceType":"Practitioner","id":"6dc0842f-54fd-479c-bbfa-d13da54f190c","identifier":[{"system":"http://hl7.org/fhir/sid/us-npi","value":"123456"}],"name":[{"family":"Evil","prefix":["Dr"]}]},"request":{"method":"PUT","url":"Practitioner/6dc0842f-54fd-479c-bbfa-d13da54f190c"}},{"fullUrl":"https://madie.cms.gov/MeasureReport/bcbbb172-6255-45da-be18-f730974c9dd9","resource":{"resourceType":"MeasureReport","id":"bcbbb172-6255-45da-be18-f730974c9dd9","meta":{"profile":["http://hl7.org/fhir/us/cqfmeasures/StructureDefinition/test-case-cqfm"]},"contained":[{"resourceType":"Parameters","id":"7953ba1c-3139-4fa9-9915-37d864872116-parameters","parameter":[{"name":"subject","valueString":"145ddce1-5ecd-4bcb-b58d-6c39b55e4f54"}]}],"extension":[{"url":"http://hl7.org/fhir/StructureDefinition/cqf-inputParameters","valueReference":{"reference":"#7953ba1c-3139-4fa9-9915-37d864872116-parameters"}},{"url":"http://hl7.org/fhir/us/cqfmeasures/StructureDefinition/cqfm-testCaseDescription","valueMarkdown":"encounter ends before MP \n"}],"modifierExtension":[{"url":"http://hl7.org/fhir/us/cqfmeasures/StructureDefinition/cqfm-isTestCase","valueBoolean":true}],"status":"complete","type":"individual","measure":"https://madie.cms.gov/Measure/CMS72FHIRSTKAntithromboticDay2","period":{"start":"2026-01-01","end":"2026-12-31"},"group":[{"id":"Group_1","population":[{"id":"InitialPopulation_1","code":{"coding":[{"system":"http://terminology.hl7.org/CodeSystem/measure-population","code":"initial-population","display":"Initial Population"}]},"count":0},{"id":"Denominator_1","code":{"coding":[{"system":"http://terminology.hl7.org/CodeSystem/measure-population","code":"denominator","display":"Denominator"}]},"count":0},{"id":"DenominatorExclusion_1","code":{"coding":[{"system":"http://terminology.hl7.org/CodeSystem/measure-population","code":"denominator-exclusion","display":"Denominator Exclusion"}]},"count":0},{"id":"Numerator_1","code":{"coding":[{"system":"http://terminology.hl7.org/CodeSystem/measure-population","code":"numerator","display":"Numerator"}]},"count":0},{"id":"DenominatorException_1","code":{"coding":[{"system":"http://terminology.hl7.org/CodeSystem/measure-population","code":"denominator-exception","display":"Denominator Exception"}]},"count":0}],"measureScore":{"value":0.0}}],"evaluatedResource":[{"reference":"Patient/145ddce1-5ecd-4bcb-b58d-6c39b55e4f54"},{"reference":"Encounter/08df9581-9c59-4d8c-935a-ce6cf9d40470"},{"reference":"Claim/5ca62962b8484628b8de1ec5"},{"reference":"Coverage/a5f78aac-c4c9-4e5c-80e0-40e41478c033"},{"reference":"Organization/92d549fc-01b8-43f1-8013-a52c412430f5"},{"reference":"Practitioner/6dc0842f-54fd-479c-bbfa-d13da54f190c"}]},"request":{"method":"PUT","url":"MeasureReport/bcbbb172-6255-45da-be18-f730974c9dd9"}}]},"request":{"method":"PUT","url":"Bundle/60f82c2d98086b570510e250"}},{"fullUrl":"Encounter/08df9581-9c59-4d8c-935a-ce6cf9d40470","resource":{"resourceType":"Encounter","id":"08df9581-9c59-4d8c-935a-ce6cf9d40470","meta":{"profile":["http://hl7.org/fhir/us/qicore/StructureDefinition/qicore-encounter"]},"status":"finished","class":{"system":"http://terminology.hl7.org/CodeSystem/v3-ActCode","code":"IMP","display":"inpatient encounter"},"type":[{"coding":[{"system":"http://snomed.info/sct","code":"32485007"}]}],"subject":{"reference":"Patient/145ddce1-5ecd-4bcb-b58d-6c39b55e4f54"},"period":{"start":"2024-08-21T09:30:00Z","end":"2024-12-19T10:30:00.000+00:00"},"length":{"value":120,"unit":"days"},"reasonReference":[{"reference":"Condition/ischemic-stroke-824c"}]},"request":{"method":"PUT","url":"Encounter/08df9581-9c59-4d8c-935a-ce6cf9d40470"}},{"fullUrl":"Claim/5ca62962b8484628b8de1ec5","resource":{"resourceType":"Claim","id":"5ca62962b8484628b8de1ec5","meta":{"profile":["http://hl7.org/fhir/us/qicore/StructureDefinition/qicore-claim"]},"status":"active","type":{"coding":[{"system":"http://terminology.hl7.org/CodeSystem/claim-type","code":"institutional"}]},"use":"claim","patient":{"reference":"Patient/145ddce1-5ecd-4bcb-b58d-6c39b55e4f54"},"created":"2026-12-01","provider":{"reference":"Practitioner/6dc0842f-54fd-479c-bbfa-d13da54f190c"},"priority":{"coding":[{"system":"http://terminology.hl7.org/CodeSystem/processpriority","code":"normal"}]},"diagnosis":[{"sequence":1,"diagnosisCodeableConcept":{"coding":[{"system":"http://hl7.org/fhir/sid/icd-10-cm","code":"I63.00"}]},"type":[{"coding":[{"system":"http://terminology.hl7.org/CodeSystem/ex-diagnosistype","code":"principal"}]}]}],"insurance":[{"sequence":1,"focal":true,"coverage":{"reference":"Coverage/5fa041661c76ba66d9959367"}}],"item":[{"sequence":1,"diagnosisSequence":[1],"productOrService":{"coding":[{"system":"http://terminology.hl7.org/CodeSystem/ex-USCLS","code":"99555"}]},"encounter":[{"reference":"Encounter/08df9581-9c59-4d8c-935a-ce6cf9d40470"}]}]},"request":{"method":"PUT","url":"Claim/5ca62962b8484628b8de1ec5"}}]}