{"resourceType":"Bundle","id":"tests-d82d5f38-a1b7-4f28-a3db-25f42f7e64b2-bundle","type":"transaction","entry":[{"fullUrl":"Coverage/feffe27a-b554-4b9e-8692-a9fa9ccb9df3","resource":{"resourceType":"Coverage","id":"feffe27a-b554-4b9e-8692-a9fa9ccb9df3","status":"active","subscriberId":"523435","beneficiary":{"reference":"Patient/d82d5f38-a1b7-4f28-a3db-25f42f7e64b2"},"relationship":{"coding":[{"system":"http://terminology.hl7.org/CodeSystem/subscriber-relationship","code":"self"}]},"period":{"start":"1976-09-26T08:00:00Z"},"payor":[{"reference":"Organization/3ca1597e-11a2-41e9-b37b-2fcec66c7954"}]},"request":{"method":"PUT","url":"Coverage/feffe27a-b554-4b9e-8692-a9fa9ccb9df3"}},{"fullUrl":"Observation/614ca62e-07bb-4daf-9b2d-14897d6fa606","resource":{"resourceType":"Observation","id":"614ca62e-07bb-4daf-9b2d-14897d6fa606","meta":{"profile":["http://hl7.org/fhir/us/qicore/StructureDefinition/qicore-observation-lab"]},"status":"final","category":[{"coding":[{"system":"http://terminology.hl7.org/CodeSystem/observation-category","code":"laboratory","display":"Laboratory"}]}],"code":{"coding":[{"system":"http://loinc.org","code":"34714-6"}]},"subject":{"reference":"Patient/d82d5f38-a1b7-4f28-a3db-25f42f7e64b2"},"effectivePeriod":{"start":"2026-10-10T06:15:00Z"},"issued":"2026-10-10T06:30:00.000+00:00","valueQuantity":{"value":3.6}},"request":{"method":"PUT","url":"Observation/614ca62e-07bb-4daf-9b2d-14897d6fa606"}},{"fullUrl":"Condition/d6c3b795-28d0-419f-aa3d-e9970919ae5a","resource":{"resourceType":"Condition","id":"d6c3b795-28d0-419f-aa3d-e9970919ae5a","meta":{"profile":["http://hl7.org/fhir/us/qicore/StructureDefinition/qicore-condition-encounter-diagnosis"]},"clinicalStatus":{"coding":[{"system":"http://terminology.hl7.org/CodeSystem/condition-clinical","code":"active"}]},"verificationStatus":{"coding":[{"system":"http://terminology.hl7.org/CodeSystem/condition-ver-status","code":"confirmed"}]},"category":[{"coding":[{"system":"http://terminology.hl7.org/CodeSystem/condition-category","code":"encounter-diagnosis","display":"Encounter Diagnosis"}]}],"code":{"coding":[{"system":"http://snomed.info/sct","version":"2020-09","code":"111297002","display":"Nonparalytic stroke (disorder)","userSelected":true}]},"subject":{"reference":"Patient/d82d5f38-a1b7-4f28-a3db-25f42f7e64b2"},"recordedDate":"2026-08-13T08:00:00Z"},"request":{"method":"PUT","url":"Condition/d6c3b795-28d0-419f-aa3d-e9970919ae5a"}},{"fullUrl":"MeasureReport/2617ec40-b838-44b2-b0d5-b14786300313","resource":{"resourceType":"MeasureReport","id":"2617ec40-b838-44b2-b0d5-b14786300313","meta":{"profile":["http://hl7.org/fhir/us/cqfmeasures/StructureDefinition/test-case-cqfm"]},"contained":[{"resourceType":"Parameters","id":"0aea5206-0b6c-4b7e-bffb-34ad042ac263-parameters","parameter":[{"name":"subject","valueString":"d82d5f38-a1b7-4f28-a3db-25f42f7e64b2"}]}],"extension":[{"url":"http://hl7.org/fhir/StructureDefinition/cqf-inputParameters","valueReference":{"reference":"#0aea5206-0b6c-4b7e-bffb-34ad042ac263-parameters"}},{"url":"http://hl7.org/fhir/us/cqfmeasures/StructureDefinition/cqfm-testCaseDescription","valueMarkdown":"Patient receives INR of greater than 3.5 equal to the day of IP start. No ED. No Obs. INR value of 100.\n"}],"modifierExtension":[{"url":"http://hl7.org/fhir/us/cqfmeasures/StructureDefinition/cqfm-isTestCase","valueBoolean":true}],"status":"complete","type":"individual","measure":"https://madie.cms.gov/Measure/CMS72FHIRSTKAntithromboticDay2","period":{"start":"2026-01-01","end":"2026-12-31"},"group":[{"id":"Group_1","population":[{"id":"InitialPopulation_1","code":{"coding":[{"system":"http://terminology.hl7.org/CodeSystem/measure-population","code":"initial-population","display":"Initial Population"}]},"count":1},{"id":"Denominator_1","code":{"coding":[{"system":"http://terminology.hl7.org/CodeSystem/measure-population","code":"denominator","display":"Denominator"}]},"count":1},{"id":"DenominatorExclusion_1","code":{"coding":[{"system":"http://terminology.hl7.org/CodeSystem/measure-population","code":"denominator-exclusion","display":"Denominator Exclusion"}]},"count":0},{"id":"Numerator_1","code":{"coding":[{"system":"http://terminology.hl7.org/CodeSystem/measure-population","code":"numerator","display":"Numerator"}]},"count":0},{"id":"DenominatorException_1","code":{"coding":[{"system":"http://terminology.hl7.org/CodeSystem/measure-population","code":"denominator-exception","display":"Denominator Exception"}]},"count":1}],"measureScore":{"value":0.0}}],"evaluatedResource":[{"reference":"Patient/d82d5f38-a1b7-4f28-a3db-25f42f7e64b2"},{"reference":"Encounter/0a843e54-5f71-4704-b2c9-602d70a0211f"},{"reference":"Claim/5ca62962b8484628b8de1ec5"},{"reference":"Observation/614ca62e-07bb-4daf-9b2d-14897d6fa606"},{"reference":"Coverage/feffe27a-b554-4b9e-8692-a9fa9ccb9df3"},{"reference":"Condition/d6c3b795-28d0-419f-aa3d-e9970919ae5a"},{"reference":"Organization/3ca1597e-11a2-41e9-b37b-2fcec66c7954"}]},"request":{"method":"PUT","url":"MeasureReport/2617ec40-b838-44b2-b0d5-b14786300313"}},{"fullUrl":"Patient/d82d5f38-a1b7-4f28-a3db-25f42f7e64b2","resource":{"resourceType":"Patient","id":"d82d5f38-a1b7-4f28-a3db-25f42f7e64b2","meta":{"profile":["http://hl7.org/fhir/us/qicore/StructureDefinition/qicore-patient"]},"text":{"status":"generated","div":"<div xmlns=\"http://www.w3.org/1999/xhtml\"><div class=\"hapiHeaderText\">INRGT3.5.resultDatetime_EQHospEncStartday <b>DENEXPASS </b></div><table class=\"hapiPropertyTable\"><tbody><tr><td>Identifier</td><td>dfa8445af2775eb6d72ac78e5253d54ae4b88f8656f6a0b4bf81ce35b6315a00</td></tr><tr><td>Date of birth</td><td><span>26 September 1975</span></td></tr></tbody></table></div>"},"extension":[{"url":"http://hl7.org/fhir/us/core/StructureDefinition/us-core-race","extension":[{"url":"ombCategory","valueCoding":{"system":"urn:oid:2.16.840.1.113883.6.238","code":"2054-5","display":"Black or African American","userSelected":true}},{"url":"text","valueString":"Black or African American"}]},{"url":"http://hl7.org/fhir/us/core/StructureDefinition/us-core-ethnicity","extension":[{"url":"ombCategory","valueCoding":{"system":"urn:oid:2.16.840.1.113883.6.238","code":"2186-5","display":"Not Hispanic or Latino","userSelected":true}},{"url":"text","valueString":"Not Hispanic or Latino"}]}],"identifier":[{"type":{"coding":[{"system":"http://terminology.hl7.org/CodeSystem/v2-0203","code":"MR"}]},"system":"https://bonnie-fhir.healthit.gov/","value":"60f82c2f98086b570510e2c2"}],"active":true,"name":[{"use":"usual","family":"DENEXCEPPass","given":["INRGT3.5.resultDatetime_EQHospEncStartday"]}],"gender":"female","birthDate":"1976-09-26"},"request":{"method":"PUT","url":"Patient/d82d5f38-a1b7-4f28-a3db-25f42f7e64b2"}},{"fullUrl":"Encounter/0a843e54-5f71-4704-b2c9-602d70a0211f","resource":{"resourceType":"Encounter","id":"0a843e54-5f71-4704-b2c9-602d70a0211f","meta":{"profile":["http://hl7.org/fhir/us/qicore/StructureDefinition/qicore-encounter"]},"status":"finished","class":{"system":"http://terminology.hl7.org/CodeSystem/v3-ActCode","code":"IMP","display":"inpatient encounter"},"type":[{"coding":[{"system":"http://snomed.info/sct","code":"32485007"}]}],"subject":{"reference":"Patient/d82d5f38-a1b7-4f28-a3db-25f42f7e64b2"},"period":{"start":"2026-10-10T06:30:00Z","end":"2026-10-15T11:30:00.000+00:00"},"length":{"value":5,"unit":"days"},"reasonReference":[{"reference":"Condition/d6c3b795-28d0-419f-aa3d-e9970919ae5a"}]},"request":{"method":"PUT","url":"Encounter/0a843e54-5f71-4704-b2c9-602d70a0211f"}},{"fullUrl":"Organization/3ca1597e-11a2-41e9-b37b-2fcec66c7954","resource":{"resourceType":"Organization","id":"3ca1597e-11a2-41e9-b37b-2fcec66c7954","meta":{"profile":["http://hl7.org/fhir/us/qicore/StructureDefinition/qicore-organization"]},"identifier":[{"use":"temp","system":"urn:oid:2.16.840.1.113883.4.4","value":"21-3259825"}],"active":true,"type":[{"coding":[{"system":"http://terminology.hl7.org/CodeSystem/organization-type","code":"pay","display":"Payer"}]}],"name":"Blue Cross Blue Shield of Texas","telecom":[{"system":"phone","value":"(+1) 972-766-6900"}],"address":[{"use":"billing","type":"postal","line":["P.O. Box 660044"],"city":"Dallas","state":"TX","postalCode":"75266-0044","country":"USA"}]},"request":{"method":"PUT","url":"Organization/3ca1597e-11a2-41e9-b37b-2fcec66c7954"}},{"fullUrl":"Claim/5ca62962b8484628b8de1ec5","resource":{"resourceType":"Claim","id":"5ca62962b8484628b8de1ec5","meta":{"profile":["http://hl7.org/fhir/us/qicore/StructureDefinition/qicore-claim"]},"status":"active","type":{"coding":[{"system":"http://terminology.hl7.org/CodeSystem/claim-type","code":"institutional"}]},"use":"claim","patient":{"reference":"Patient/d170a0a8-b5ad-4303-b6df-e304dd5f92ad"},"created":"2026-12-01","provider":{"reference":"Practitioner/practitioner-123456"},"priority":{"coding":[{"system":"http://terminology.hl7.org/CodeSystem/processpriority","code":"normal"}]},"diagnosis":[{"sequence":1,"diagnosisCodeableConcept":{"coding":[{"system":"http://hl7.org/fhir/sid/icd-10-cm","code":"I63.00"}]},"type":[{"coding":[{"system":"http://terminology.hl7.org/CodeSystem/ex-diagnosistype","code":"principal"}]}]}],"insurance":[{"sequence":1,"focal":true,"coverage":{"reference":"Coverage/5fa041661c76ba66d9959367"}}],"item":[{"sequence":1,"diagnosisSequence":[1],"productOrService":{"coding":[{"system":"http://terminology.hl7.org/CodeSystem/ex-USCLS","code":"99555"}]},"encounter":[{"reference":"Encounter/0a843e54-5f71-4704-b2c9-602d70a0211f"}]}]},"request":{"method":"PUT","url":"Claim/5ca62962b8484628b8de1ec5"}},{"fullUrl":"Bundle/60f82c2f98086b570510e2c2","resource":{"resourceType":"Bundle","id":"60f82c2f98086b570510e2c2","type":"transaction","entry":[{"fullUrl":"https://madie.cms.gov/Patient/d82d5f38-a1b7-4f28-a3db-25f42f7e64b2","resource":{"resourceType":"Patient","id":"d82d5f38-a1b7-4f28-a3db-25f42f7e64b2","meta":{"profile":["http://hl7.org/fhir/us/qicore/StructureDefinition/qicore-patient"]},"text":{"status":"generated","div":"<div xmlns=\"http://www.w3.org/1999/xhtml\"><div class=\"hapiHeaderText\">INRGT3.5.resultDatetime_EQHospEncStartday <b>DENEXPASS </b></div><table class=\"hapiPropertyTable\"><tbody><tr><td>Identifier</td><td>dfa8445af2775eb6d72ac78e5253d54ae4b88f8656f6a0b4bf81ce35b6315a00</td></tr><tr><td>Date of birth</td><td><span>26 September 1975</span></td></tr></tbody></table></div>"},"extension":[{"url":"http://hl7.org/fhir/us/core/StructureDefinition/us-core-race","extension":[{"url":"ombCategory","valueCoding":{"system":"urn:oid:2.16.840.1.113883.6.238","code":"2054-5","display":"Black or African American","userSelected":true}},{"url":"text","valueString":"Black or African American"}]},{"url":"http://hl7.org/fhir/us/core/StructureDefinition/us-core-ethnicity","extension":[{"url":"ombCategory","valueCoding":{"system":"urn:oid:2.16.840.1.113883.6.238","code":"2186-5","display":"Not Hispanic or Latino","userSelected":true}},{"url":"text","valueString":"Not Hispanic or Latino"}]}],"identifier":[{"type":{"coding":[{"system":"http://terminology.hl7.org/CodeSystem/v2-0203","code":"MR"}]},"system":"https://bonnie-fhir.healthit.gov/","value":"60f82c2f98086b570510e2c2"}],"active":true,"name":[{"use":"usual","family":"DENEXCEPPass","given":["INRGT3.5.resultDatetime_EQHospEncStartday"]}],"gender":"female","birthDate":"1976-09-26"},"request":{"method":"PUT","url":"Patient/d82d5f38-a1b7-4f28-a3db-25f42f7e64b2"}},{"fullUrl":"https://madie.cms.gov/Encounter/0a843e54-5f71-4704-b2c9-602d70a0211f","resource":{"resourceType":"Encounter","id":"0a843e54-5f71-4704-b2c9-602d70a0211f","meta":{"profile":["http://hl7.org/fhir/us/qicore/StructureDefinition/qicore-encounter"]},"status":"finished","class":{"system":"http://terminology.hl7.org/CodeSystem/v3-ActCode","code":"IMP","display":"inpatient encounter"},"type":[{"coding":[{"system":"http://snomed.info/sct","code":"32485007"}]}],"subject":{"reference":"Patient/d82d5f38-a1b7-4f28-a3db-25f42f7e64b2"},"period":{"start":"2026-10-10T06:30:00Z","end":"2026-10-15T11:30:00.000+00:00"},"length":{"value":5,"unit":"days"},"reasonReference":[{"reference":"Condition/d6c3b795-28d0-419f-aa3d-e9970919ae5a"}]},"request":{"method":"PUT","url":"Encounter/0a843e54-5f71-4704-b2c9-602d70a0211f"}},{"fullUrl":"https://madie.cms.gov/claim/5ca62962b8484628b8de1ec5","resource":{"resourceType":"Claim","id":"5ca62962b8484628b8de1ec5","meta":{"profile":["http://hl7.org/fhir/us/qicore/StructureDefinition/qicore-claim"]},"status":"active","type":{"coding":[{"system":"http://terminology.hl7.org/CodeSystem/claim-type","code":"institutional"}]},"use":"claim","patient":{"reference":"Patient/d170a0a8-b5ad-4303-b6df-e304dd5f92ad"},"created":"2026-12-01","provider":{"reference":"Practitioner/practitioner-123456"},"priority":{"coding":[{"system":"http://terminology.hl7.org/CodeSystem/processpriority","code":"normal"}]},"diagnosis":[{"sequence":1,"diagnosisCodeableConcept":{"coding":[{"system":"http://hl7.org/fhir/sid/icd-10-cm","code":"I63.00"}]},"type":[{"coding":[{"system":"http://terminology.hl7.org/CodeSystem/ex-diagnosistype","code":"principal"}]}]}],"insurance":[{"sequence":1,"focal":true,"coverage":{"reference":"Coverage/5fa041661c76ba66d9959367"}}],"item":[{"sequence":1,"diagnosisSequence":[1],"productOrService":{"coding":[{"system":"http://terminology.hl7.org/CodeSystem/ex-USCLS","code":"99555"}]},"encounter":[{"reference":"Encounter/0a843e54-5f71-4704-b2c9-602d70a0211f"}]}]},"request":{"method":"PUT","url":"Claim/5ca62962b8484628b8de1ec5"}},{"fullUrl":"https://madie.cms.gov/Observation/614ca62e-07bb-4daf-9b2d-14897d6fa606","resource":{"resourceType":"Observation","id":"614ca62e-07bb-4daf-9b2d-14897d6fa606","meta":{"profile":["http://hl7.org/fhir/us/qicore/StructureDefinition/qicore-observation-lab"]},"status":"final","category":[{"coding":[{"system":"http://terminology.hl7.org/CodeSystem/observation-category","code":"laboratory","display":"Laboratory"}]}],"code":{"coding":[{"system":"http://loinc.org","code":"34714-6"}]},"subject":{"reference":"Patient/d82d5f38-a1b7-4f28-a3db-25f42f7e64b2"},"effectivePeriod":{"start":"2026-10-10T06:15:00Z"},"issued":"2026-10-10T06:30:00.000+00:00","valueQuantity":{"value":3.6}},"request":{"method":"PUT","url":"Observation/614ca62e-07bb-4daf-9b2d-14897d6fa606"}},{"fullUrl":"https://madie.cms.gov/Coverage/feffe27a-b554-4b9e-8692-a9fa9ccb9df3","resource":{"resourceType":"Coverage","id":"feffe27a-b554-4b9e-8692-a9fa9ccb9df3","status":"active","subscriberId":"523435","beneficiary":{"reference":"Patient/d82d5f38-a1b7-4f28-a3db-25f42f7e64b2"},"relationship":{"coding":[{"system":"http://terminology.hl7.org/CodeSystem/subscriber-relationship","code":"self"}]},"period":{"start":"1976-09-26T08:00:00Z"},"payor":[{"reference":"Organization/3ca1597e-11a2-41e9-b37b-2fcec66c7954"}]},"request":{"method":"PUT","url":"Coverage/feffe27a-b554-4b9e-8692-a9fa9ccb9df3"}},{"fullUrl":"https://madie.cms.gov/Condition/d6c3b795-28d0-419f-aa3d-e9970919ae5a","resource":{"resourceType":"Condition","id":"d6c3b795-28d0-419f-aa3d-e9970919ae5a","meta":{"profile":["http://hl7.org/fhir/us/qicore/StructureDefinition/qicore-condition-encounter-diagnosis"]},"clinicalStatus":{"coding":[{"system":"http://terminology.hl7.org/CodeSystem/condition-clinical","code":"active"}]},"verificationStatus":{"coding":[{"system":"http://terminology.hl7.org/CodeSystem/condition-ver-status","code":"confirmed"}]},"category":[{"coding":[{"system":"http://terminology.hl7.org/CodeSystem/condition-category","code":"encounter-diagnosis","display":"Encounter Diagnosis"}]}],"code":{"coding":[{"system":"http://snomed.info/sct","version":"2020-09","code":"111297002","display":"Nonparalytic stroke (disorder)","userSelected":true}]},"subject":{"reference":"Patient/d82d5f38-a1b7-4f28-a3db-25f42f7e64b2"},"recordedDate":"2026-08-13T08:00:00Z"},"request":{"method":"PUT","url":"Condition/d6c3b795-28d0-419f-aa3d-e9970919ae5a"}},{"fullUrl":"https://madie.cms.gov/Organization/3ca1597e-11a2-41e9-b37b-2fcec66c7954","resource":{"resourceType":"Organization","id":"3ca1597e-11a2-41e9-b37b-2fcec66c7954","meta":{"profile":["http://hl7.org/fhir/us/qicore/StructureDefinition/qicore-organization"]},"identifier":[{"use":"temp","system":"urn:oid:2.16.840.1.113883.4.4","value":"21-3259825"}],"active":true,"type":[{"coding":[{"system":"http://terminology.hl7.org/CodeSystem/organization-type","code":"pay","display":"Payer"}]}],"name":"Blue Cross Blue Shield of Texas","telecom":[{"system":"phone","value":"(+1) 972-766-6900"}],"address":[{"use":"billing","type":"postal","line":["P.O. Box 660044"],"city":"Dallas","state":"TX","postalCode":"75266-0044","country":"USA"}]},"request":{"method":"PUT","url":"Organization/3ca1597e-11a2-41e9-b37b-2fcec66c7954"}},{"fullUrl":"https://madie.cms.gov/MeasureReport/2617ec40-b838-44b2-b0d5-b14786300313","resource":{"resourceType":"MeasureReport","id":"2617ec40-b838-44b2-b0d5-b14786300313","meta":{"profile":["http://hl7.org/fhir/us/cqfmeasures/StructureDefinition/test-case-cqfm"]},"contained":[{"resourceType":"Parameters","id":"0aea5206-0b6c-4b7e-bffb-34ad042ac263-parameters","parameter":[{"name":"subject","valueString":"d82d5f38-a1b7-4f28-a3db-25f42f7e64b2"}]}],"extension":[{"url":"http://hl7.org/fhir/StructureDefinition/cqf-inputParameters","valueReference":{"reference":"#0aea5206-0b6c-4b7e-bffb-34ad042ac263-parameters"}},{"url":"http://hl7.org/fhir/us/cqfmeasures/StructureDefinition/cqfm-testCaseDescription","valueMarkdown":"Patient receives INR of greater than 3.5 equal to the day of IP start. No ED. No Obs. INR value of 100.\n"}],"modifierExtension":[{"url":"http://hl7.org/fhir/us/cqfmeasures/StructureDefinition/cqfm-isTestCase","valueBoolean":true}],"status":"complete","type":"individual","measure":"https://madie.cms.gov/Measure/CMS72FHIRSTKAntithromboticDay2","period":{"start":"2026-01-01","end":"2026-12-31"},"group":[{"id":"Group_1","population":[{"id":"InitialPopulation_1","code":{"coding":[{"system":"http://terminology.hl7.org/CodeSystem/measure-population","code":"initial-population","display":"Initial Population"}]},"count":1},{"id":"Denominator_1","code":{"coding":[{"system":"http://terminology.hl7.org/CodeSystem/measure-population","code":"denominator","display":"Denominator"}]},"count":1},{"id":"DenominatorExclusion_1","code":{"coding":[{"system":"http://terminology.hl7.org/CodeSystem/measure-population","code":"denominator-exclusion","display":"Denominator Exclusion"}]},"count":0},{"id":"Numerator_1","code":{"coding":[{"system":"http://terminology.hl7.org/CodeSystem/measure-population","code":"numerator","display":"Numerator"}]},"count":0},{"id":"DenominatorException_1","code":{"coding":[{"system":"http://terminology.hl7.org/CodeSystem/measure-population","code":"denominator-exception","display":"Denominator Exception"}]},"count":1}],"measureScore":{"value":0.0}}],"evaluatedResource":[{"reference":"Patient/d82d5f38-a1b7-4f28-a3db-25f42f7e64b2"},{"reference":"Encounter/0a843e54-5f71-4704-b2c9-602d70a0211f"},{"reference":"Claim/5ca62962b8484628b8de1ec5"},{"reference":"Observation/614ca62e-07bb-4daf-9b2d-14897d6fa606"},{"reference":"Coverage/feffe27a-b554-4b9e-8692-a9fa9ccb9df3"},{"reference":"Condition/d6c3b795-28d0-419f-aa3d-e9970919ae5a"},{"reference":"Organization/3ca1597e-11a2-41e9-b37b-2fcec66c7954"}]},"request":{"method":"PUT","url":"MeasureReport/2617ec40-b838-44b2-b0d5-b14786300313"}}]},"request":{"method":"PUT","url":"Bundle/60f82c2f98086b570510e2c2"}}]}