{"resourceType":"Bundle","id":"tests-05ec524f-1d2d-4f9e-8eaa-cc2662030fc6-bundle","type":"transaction","entry":[{"fullUrl":"Observation/76f691a2-2dbe-4e8c-a160-6a0ccf18ff92","resource":{"resourceType":"Observation","id":"76f691a2-2dbe-4e8c-a160-6a0ccf18ff92","meta":{"profile":["http://hl7.org/fhir/us/qicore/StructureDefinition/qicore-observation-lab"]},"status":"final","category":[{"coding":[{"system":"http://terminology.hl7.org/CodeSystem/observation-category","code":"laboratory","display":"Laboratory"}]}],"code":{"coding":[{"system":"http://loinc.org","code":"34714-6"}]},"subject":{"reference":"Patient/05ec524f-1d2d-4f9e-8eaa-cc2662030fc6"},"effectivePeriod":{"start":"2026-10-10T06:15:00Z"},"issued":"2026-10-10T06:30:00.000+00:00","valueQuantity":{"value":3.6}},"request":{"method":"PUT","url":"Observation/76f691a2-2dbe-4e8c-a160-6a0ccf18ff92"}},{"fullUrl":"Encounter/ae402636-27a6-4cb2-a2c6-582ba7c6d581","resource":{"resourceType":"Encounter","id":"ae402636-27a6-4cb2-a2c6-582ba7c6d581","meta":{"profile":["http://hl7.org/fhir/us/qicore/StructureDefinition/qicore-encounter"]},"status":"finished","class":{"system":"http://terminology.hl7.org/CodeSystem/v3-ActCode","code":"IMP","display":"inpatient encounter","userSelected":true},"type":[{"coding":[{"system":"http://snomed.info/sct","code":"32485007"}]}],"subject":{"reference":"Patient/05ec524f-1d2d-4f9e-8eaa-cc2662030fc6"},"period":{"start":"2026-10-11T00:00:00Z","end":"2026-10-15T11:30:00.000+00:00"},"length":{"value":4,"unit":"days"},"reasonReference":[{"reference":"Condition/c28fbc34-431a-47f9-9e3b-0b999084e70d"}]},"request":{"method":"PUT","url":"Encounter/ae402636-27a6-4cb2-a2c6-582ba7c6d581"}},{"fullUrl":"MeasureReport/2b5d1f9c-37e4-40a7-be58-19f72bc34ae0","resource":{"resourceType":"MeasureReport","id":"2b5d1f9c-37e4-40a7-be58-19f72bc34ae0","meta":{"profile":["http://hl7.org/fhir/us/cqfmeasures/StructureDefinition/test-case-cqfm"]},"contained":[{"resourceType":"Parameters","id":"84ef74fe-ca0a-4abe-8df7-22e82bb07743-parameters","parameter":[{"name":"subject","valueString":"05ec524f-1d2d-4f9e-8eaa-cc2662030fc6"}]}],"extension":[{"url":"http://hl7.org/fhir/StructureDefinition/cqf-inputParameters","valueReference":{"reference":"#84ef74fe-ca0a-4abe-8df7-22e82bb07743-parameters"}},{"url":"http://hl7.org/fhir/us/cqfmeasures/StructureDefinition/cqfm-testCaseDescription","valueMarkdown":"Patient receives INR of 3.6 the day of ED. ED ends 1 minute before Obs, Obs ends 1 min before IP the next day at midnight. Testing Day of operator with HospitalizationWithObservation function.\n"}],"modifierExtension":[{"url":"http://hl7.org/fhir/us/cqfmeasures/StructureDefinition/cqfm-isTestCase","valueBoolean":true}],"status":"complete","type":"individual","measure":"https://madie.cms.gov/Measure/CMS72FHIRSTKAntithromboticDay2","period":{"start":"2026-01-01","end":"2026-12-31"},"group":[{"id":"Group_1","population":[{"id":"InitialPopulation_1","code":{"coding":[{"system":"http://terminology.hl7.org/CodeSystem/measure-population","code":"initial-population","display":"Initial Population"}]},"count":1},{"id":"Denominator_1","code":{"coding":[{"system":"http://terminology.hl7.org/CodeSystem/measure-population","code":"denominator","display":"Denominator"}]},"count":1},{"id":"DenominatorExclusion_1","code":{"coding":[{"system":"http://terminology.hl7.org/CodeSystem/measure-population","code":"denominator-exclusion","display":"Denominator Exclusion"}]},"count":0},{"id":"Numerator_1","code":{"coding":[{"system":"http://terminology.hl7.org/CodeSystem/measure-population","code":"numerator","display":"Numerator"}]},"count":0},{"id":"DenominatorException_1","code":{"coding":[{"system":"http://terminology.hl7.org/CodeSystem/measure-population","code":"denominator-exception","display":"Denominator Exception"}]},"count":1}],"measureScore":{"value":0.0}}],"evaluatedResource":[{"reference":"Patient/05ec524f-1d2d-4f9e-8eaa-cc2662030fc6"},{"reference":"Encounter/7eebbe18-6c44-437d-8c5f-81c098dba2aa"},{"reference":"Encounter/98525478-6a86-4297-9065-3a1d15d9ff03"},{"reference":"Encounter/ae402636-27a6-4cb2-a2c6-582ba7c6d581"},{"reference":"Claim/5ca62962b8484628b8de1ec5"},{"reference":"Observation/76f691a2-2dbe-4e8c-a160-6a0ccf18ff92"},{"reference":"Coverage/5365ec4e-fd4c-423d-ac54-55d9c39054c9"},{"reference":"Condition/c28fbc34-431a-47f9-9e3b-0b999084e70d"},{"reference":"Organization/92b9ffd6-ca4e-44dd-a2b0-14187fa9242c"}]},"request":{"method":"PUT","url":"MeasureReport/2b5d1f9c-37e4-40a7-be58-19f72bc34ae0"}},{"fullUrl":"Coverage/5365ec4e-fd4c-423d-ac54-55d9c39054c9","resource":{"resourceType":"Coverage","id":"5365ec4e-fd4c-423d-ac54-55d9c39054c9","status":"active","subscriberId":"523435","beneficiary":{"reference":"Patient/05ec524f-1d2d-4f9e-8eaa-cc2662030fc6"},"relationship":{"coding":[{"system":"http://terminology.hl7.org/CodeSystem/subscriber-relationship","code":"self"}]},"period":{"start":"1976-09-26T08:00:00Z"},"payor":[{"reference":"Organization/92b9ffd6-ca4e-44dd-a2b0-14187fa9242c"}]},"request":{"method":"PUT","url":"Coverage/5365ec4e-fd4c-423d-ac54-55d9c39054c9"}},{"fullUrl":"Encounter/98525478-6a86-4297-9065-3a1d15d9ff03","resource":{"resourceType":"Encounter","id":"98525478-6a86-4297-9065-3a1d15d9ff03","meta":{"profile":["http://hl7.org/fhir/us/qicore/StructureDefinition/qicore-encounter"]},"status":"finished","class":{"system":"http://terminology.hl7.org/CodeSystem/v3-ActCode","code":"OBSENC","display":"observation encounter","userSelected":true},"type":[{"coding":[{"system":"http://snomed.info/sct","code":"448951000124107"}]}],"subject":{"reference":"Patient/05ec524f-1d2d-4f9e-8eaa-cc2662030fc6"},"period":{"start":"2026-10-10T06:31:00Z","end":"2026-10-10T23:59:00.000+00:00"},"length":{"value":0,"unit":"days"}},"request":{"method":"PUT","url":"Encounter/98525478-6a86-4297-9065-3a1d15d9ff03"}},{"fullUrl":"Organization/92b9ffd6-ca4e-44dd-a2b0-14187fa9242c","resource":{"resourceType":"Organization","id":"92b9ffd6-ca4e-44dd-a2b0-14187fa9242c","meta":{"profile":["http://hl7.org/fhir/us/qicore/StructureDefinition/qicore-organization"]},"identifier":[{"use":"temp","system":"urn:oid:2.16.840.1.113883.4.4","value":"21-3259825"}],"active":true,"type":[{"coding":[{"system":"http://terminology.hl7.org/CodeSystem/organization-type","code":"pay","display":"Payer"}]}],"name":"Blue Cross Blue Shield of Texas","telecom":[{"system":"phone","value":"(+1) 972-766-6900"}],"address":[{"use":"billing","type":"postal","line":["P.O. Box 660044"],"city":"Dallas","state":"TX","postalCode":"75266-0044","country":"USA"}]},"request":{"method":"PUT","url":"Organization/92b9ffd6-ca4e-44dd-a2b0-14187fa9242c"}},{"fullUrl":"Condition/c28fbc34-431a-47f9-9e3b-0b999084e70d","resource":{"resourceType":"Condition","id":"c28fbc34-431a-47f9-9e3b-0b999084e70d","meta":{"profile":["http://hl7.org/fhir/us/qicore/StructureDefinition/qicore-condition-encounter-diagnosis"]},"clinicalStatus":{"coding":[{"system":"http://terminology.hl7.org/CodeSystem/condition-clinical","code":"active"}]},"verificationStatus":{"coding":[{"system":"http://terminology.hl7.org/CodeSystem/condition-ver-status","code":"confirmed"}]},"category":[{"coding":[{"system":"http://terminology.hl7.org/CodeSystem/condition-category","code":"encounter-diagnosis","display":"Encounter Diagnosis"}]}],"code":{"coding":[{"system":"http://snomed.info/sct","version":"2020-09","code":"111297002","display":"Nonparalytic stroke (disorder)","userSelected":true}]},"subject":{"reference":"Patient/05ec524f-1d2d-4f9e-8eaa-cc2662030fc6"},"recordedDate":"2026-08-06T08:00:00Z"},"request":{"method":"PUT","url":"Condition/c28fbc34-431a-47f9-9e3b-0b999084e70d"}},{"fullUrl":"Encounter/7eebbe18-6c44-437d-8c5f-81c098dba2aa","resource":{"resourceType":"Encounter","id":"7eebbe18-6c44-437d-8c5f-81c098dba2aa","meta":{"profile":["http://hl7.org/fhir/us/qicore/StructureDefinition/qicore-encounter"]},"status":"finished","class":{"system":"http://terminology.hl7.org/CodeSystem/v3-ActCode","code":"EMER","display":"emergency","userSelected":true},"type":[{"coding":[{"system":"http://snomed.info/sct","code":"4525004"}]}],"subject":{"reference":"Patient/05ec524f-1d2d-4f9e-8eaa-cc2662030fc6"},"period":{"start":"2026-10-10T06:15:00Z","end":"2026-10-10T06:30:00.000+00:00"},"length":{"value":0,"unit":"days"}},"request":{"method":"PUT","url":"Encounter/7eebbe18-6c44-437d-8c5f-81c098dba2aa"}},{"fullUrl":"Bundle/60f82c2f98086b570510e2b6","resource":{"resourceType":"Bundle","id":"60f82c2f98086b570510e2b6","type":"transaction","entry":[{"fullUrl":"https://madie.cms.gov/Patient/05ec524f-1d2d-4f9e-8eaa-cc2662030fc6","resource":{"resourceType":"Patient","id":"05ec524f-1d2d-4f9e-8eaa-cc2662030fc6","meta":{"profile":["http://hl7.org/fhir/us/qicore/StructureDefinition/qicore-patient"]},"text":{"status":"generated","div":"<div xmlns=\"http://www.w3.org/1999/xhtml\"><div class=\"hapiHeaderText\">INRdurED_ED&lt;1hrObs&lt;1hrBFEncDayAft <b>DENEXCEPASS </b></div><table class=\"hapiPropertyTable\"><tbody><tr><td>Identifier</td><td>00e7688de4ce78bc9928efc7c58d050e4007772e7111560948ff30af68fe37ac</td></tr><tr><td>Date of birth</td><td><span>26 September 1975</span></td></tr></tbody></table></div>"},"extension":[{"url":"http://hl7.org/fhir/us/core/StructureDefinition/us-core-race","extension":[{"url":"ombCategory","valueCoding":{"system":"urn:oid:2.16.840.1.113883.6.238","code":"2054-5","display":"Black or African American","userSelected":true}},{"url":"text","valueString":"Black or African American"}]},{"url":"http://hl7.org/fhir/us/core/StructureDefinition/us-core-ethnicity","extension":[{"url":"ombCategory","valueCoding":{"system":"urn:oid:2.16.840.1.113883.6.238","code":"2186-5","display":"Not Hispanic or Latino","userSelected":true}},{"url":"text","valueString":"Not Hispanic or Latino"}]}],"identifier":[{"type":{"coding":[{"system":"http://terminology.hl7.org/CodeSystem/v2-0203","code":"MR"}]},"system":"https://bonnie-fhir.healthit.gov/","value":"60f82c2f98086b570510e2b6"}],"active":true,"name":[{"use":"usual","family":"DENEXCEPass","given":["INRdurED_ED<1hrObs<1hrBFEncDayAft"]}],"gender":"female","birthDate":"1976-09-26"},"request":{"method":"PUT","url":"Patient/05ec524f-1d2d-4f9e-8eaa-cc2662030fc6"}},{"fullUrl":"https://madie.cms.gov/Encounter/7eebbe18-6c44-437d-8c5f-81c098dba2aa","resource":{"resourceType":"Encounter","id":"7eebbe18-6c44-437d-8c5f-81c098dba2aa","meta":{"profile":["http://hl7.org/fhir/us/qicore/StructureDefinition/qicore-encounter"]},"status":"finished","class":{"system":"http://terminology.hl7.org/CodeSystem/v3-ActCode","code":"EMER","display":"emergency","userSelected":true},"type":[{"coding":[{"system":"http://snomed.info/sct","code":"4525004"}]}],"subject":{"reference":"Patient/05ec524f-1d2d-4f9e-8eaa-cc2662030fc6"},"period":{"start":"2026-10-10T06:15:00Z","end":"2026-10-10T06:30:00.000+00:00"},"length":{"value":0,"unit":"days"}},"request":{"method":"PUT","url":"Encounter/7eebbe18-6c44-437d-8c5f-81c098dba2aa"}},{"fullUrl":"https://madie.cms.gov/Encounter/98525478-6a86-4297-9065-3a1d15d9ff03","resource":{"resourceType":"Encounter","id":"98525478-6a86-4297-9065-3a1d15d9ff03","meta":{"profile":["http://hl7.org/fhir/us/qicore/StructureDefinition/qicore-encounter"]},"status":"finished","class":{"system":"http://terminology.hl7.org/CodeSystem/v3-ActCode","code":"OBSENC","display":"observation encounter","userSelected":true},"type":[{"coding":[{"system":"http://snomed.info/sct","code":"448951000124107"}]}],"subject":{"reference":"Patient/05ec524f-1d2d-4f9e-8eaa-cc2662030fc6"},"period":{"start":"2026-10-10T06:31:00Z","end":"2026-10-10T23:59:00.000+00:00"},"length":{"value":0,"unit":"days"}},"request":{"method":"PUT","url":"Encounter/98525478-6a86-4297-9065-3a1d15d9ff03"}},{"fullUrl":"https://madie.cms.gov/Encounter/ae402636-27a6-4cb2-a2c6-582ba7c6d581","resource":{"resourceType":"Encounter","id":"ae402636-27a6-4cb2-a2c6-582ba7c6d581","meta":{"profile":["http://hl7.org/fhir/us/qicore/StructureDefinition/qicore-encounter"]},"status":"finished","class":{"system":"http://terminology.hl7.org/CodeSystem/v3-ActCode","code":"IMP","display":"inpatient encounter","userSelected":true},"type":[{"coding":[{"system":"http://snomed.info/sct","code":"32485007"}]}],"subject":{"reference":"Patient/05ec524f-1d2d-4f9e-8eaa-cc2662030fc6"},"period":{"start":"2026-10-11T00:00:00Z","end":"2026-10-15T11:30:00.000+00:00"},"length":{"value":4,"unit":"days"},"reasonReference":[{"reference":"Condition/c28fbc34-431a-47f9-9e3b-0b999084e70d"}]},"request":{"method":"PUT","url":"Encounter/ae402636-27a6-4cb2-a2c6-582ba7c6d581"}},{"fullUrl":"https://madie.cms.gov/claim/5ca62962b8484628b8de1ec5","resource":{"resourceType":"Claim","id":"5ca62962b8484628b8de1ec5","meta":{"profile":["http://hl7.org/fhir/us/qicore/StructureDefinition/qicore-claim"]},"status":"active","type":{"coding":[{"system":"http://terminology.hl7.org/CodeSystem/claim-type","code":"institutional"}]},"use":"claim","patient":{"reference":"Patient/d170a0a8-b5ad-4303-b6df-e304dd5f92ad"},"created":"2026-12-01","provider":{"reference":"Practitioner/practitioner-123456"},"priority":{"coding":[{"system":"http://terminology.hl7.org/CodeSystem/processpriority","code":"normal"}]},"diagnosis":[{"sequence":1,"diagnosisCodeableConcept":{"coding":[{"system":"http://hl7.org/fhir/sid/icd-10-cm","code":"I63.00"}]},"type":[{"coding":[{"system":"http://terminology.hl7.org/CodeSystem/ex-diagnosistype","code":"principal"}]}]}],"insurance":[{"sequence":1,"focal":true,"coverage":{"reference":"Coverage/5fa041661c76ba66d9959367"}}],"item":[{"sequence":1,"diagnosisSequence":[1],"productOrService":{"coding":[{"system":"http://terminology.hl7.org/CodeSystem/ex-USCLS","code":"99555"}]},"encounter":[{"reference":"Encounter/ae402636-27a6-4cb2-a2c6-582ba7c6d581"}]}]},"request":{"method":"PUT","url":"Claim/5ca62962b8484628b8de1ec5"}},{"fullUrl":"https://madie.cms.gov/Observation/76f691a2-2dbe-4e8c-a160-6a0ccf18ff92","resource":{"resourceType":"Observation","id":"76f691a2-2dbe-4e8c-a160-6a0ccf18ff92","meta":{"profile":["http://hl7.org/fhir/us/qicore/StructureDefinition/qicore-observation-lab"]},"status":"final","category":[{"coding":[{"system":"http://terminology.hl7.org/CodeSystem/observation-category","code":"laboratory","display":"Laboratory"}]}],"code":{"coding":[{"system":"http://loinc.org","code":"34714-6"}]},"subject":{"reference":"Patient/05ec524f-1d2d-4f9e-8eaa-cc2662030fc6"},"effectivePeriod":{"start":"2026-10-10T06:15:00Z"},"issued":"2026-10-10T06:30:00.000+00:00","valueQuantity":{"value":3.6}},"request":{"method":"PUT","url":"Observation/76f691a2-2dbe-4e8c-a160-6a0ccf18ff92"}},{"fullUrl":"https://madie.cms.gov/Coverage/5365ec4e-fd4c-423d-ac54-55d9c39054c9","resource":{"resourceType":"Coverage","id":"5365ec4e-fd4c-423d-ac54-55d9c39054c9","status":"active","subscriberId":"523435","beneficiary":{"reference":"Patient/05ec524f-1d2d-4f9e-8eaa-cc2662030fc6"},"relationship":{"coding":[{"system":"http://terminology.hl7.org/CodeSystem/subscriber-relationship","code":"self"}]},"period":{"start":"1976-09-26T08:00:00Z"},"payor":[{"reference":"Organization/92b9ffd6-ca4e-44dd-a2b0-14187fa9242c"}]},"request":{"method":"PUT","url":"Coverage/5365ec4e-fd4c-423d-ac54-55d9c39054c9"}},{"fullUrl":"https://madie.cms.gov/Condition/c28fbc34-431a-47f9-9e3b-0b999084e70d","resource":{"resourceType":"Condition","id":"c28fbc34-431a-47f9-9e3b-0b999084e70d","meta":{"profile":["http://hl7.org/fhir/us/qicore/StructureDefinition/qicore-condition-encounter-diagnosis"]},"clinicalStatus":{"coding":[{"system":"http://terminology.hl7.org/CodeSystem/condition-clinical","code":"active"}]},"verificationStatus":{"coding":[{"system":"http://terminology.hl7.org/CodeSystem/condition-ver-status","code":"confirmed"}]},"category":[{"coding":[{"system":"http://terminology.hl7.org/CodeSystem/condition-category","code":"encounter-diagnosis","display":"Encounter Diagnosis"}]}],"code":{"coding":[{"system":"http://snomed.info/sct","version":"2020-09","code":"111297002","display":"Nonparalytic stroke (disorder)","userSelected":true}]},"subject":{"reference":"Patient/05ec524f-1d2d-4f9e-8eaa-cc2662030fc6"},"recordedDate":"2026-08-06T08:00:00Z"},"request":{"method":"PUT","url":"Condition/c28fbc34-431a-47f9-9e3b-0b999084e70d"}},{"fullUrl":"https://madie.cms.gov/Organization/92b9ffd6-ca4e-44dd-a2b0-14187fa9242c","resource":{"resourceType":"Organization","id":"92b9ffd6-ca4e-44dd-a2b0-14187fa9242c","meta":{"profile":["http://hl7.org/fhir/us/qicore/StructureDefinition/qicore-organization"]},"identifier":[{"use":"temp","system":"urn:oid:2.16.840.1.113883.4.4","value":"21-3259825"}],"active":true,"type":[{"coding":[{"system":"http://terminology.hl7.org/CodeSystem/organization-type","code":"pay","display":"Payer"}]}],"name":"Blue Cross Blue Shield of Texas","telecom":[{"system":"phone","value":"(+1) 972-766-6900"}],"address":[{"use":"billing","type":"postal","line":["P.O. Box 660044"],"city":"Dallas","state":"TX","postalCode":"75266-0044","country":"USA"}]},"request":{"method":"PUT","url":"Organization/92b9ffd6-ca4e-44dd-a2b0-14187fa9242c"}},{"fullUrl":"https://madie.cms.gov/MeasureReport/2b5d1f9c-37e4-40a7-be58-19f72bc34ae0","resource":{"resourceType":"MeasureReport","id":"2b5d1f9c-37e4-40a7-be58-19f72bc34ae0","meta":{"profile":["http://hl7.org/fhir/us/cqfmeasures/StructureDefinition/test-case-cqfm"]},"contained":[{"resourceType":"Parameters","id":"84ef74fe-ca0a-4abe-8df7-22e82bb07743-parameters","parameter":[{"name":"subject","valueString":"05ec524f-1d2d-4f9e-8eaa-cc2662030fc6"}]}],"extension":[{"url":"http://hl7.org/fhir/StructureDefinition/cqf-inputParameters","valueReference":{"reference":"#84ef74fe-ca0a-4abe-8df7-22e82bb07743-parameters"}},{"url":"http://hl7.org/fhir/us/cqfmeasures/StructureDefinition/cqfm-testCaseDescription","valueMarkdown":"Patient receives INR of 3.6 the day of ED. ED ends 1 minute before Obs, Obs ends 1 min before IP the next day at midnight. Testing Day of operator with HospitalizationWithObservation function.\n"}],"modifierExtension":[{"url":"http://hl7.org/fhir/us/cqfmeasures/StructureDefinition/cqfm-isTestCase","valueBoolean":true}],"status":"complete","type":"individual","measure":"https://madie.cms.gov/Measure/CMS72FHIRSTKAntithromboticDay2","period":{"start":"2026-01-01","end":"2026-12-31"},"group":[{"id":"Group_1","population":[{"id":"InitialPopulation_1","code":{"coding":[{"system":"http://terminology.hl7.org/CodeSystem/measure-population","code":"initial-population","display":"Initial Population"}]},"count":1},{"id":"Denominator_1","code":{"coding":[{"system":"http://terminology.hl7.org/CodeSystem/measure-population","code":"denominator","display":"Denominator"}]},"count":1},{"id":"DenominatorExclusion_1","code":{"coding":[{"system":"http://terminology.hl7.org/CodeSystem/measure-population","code":"denominator-exclusion","display":"Denominator Exclusion"}]},"count":0},{"id":"Numerator_1","code":{"coding":[{"system":"http://terminology.hl7.org/CodeSystem/measure-population","code":"numerator","display":"Numerator"}]},"count":0},{"id":"DenominatorException_1","code":{"coding":[{"system":"http://terminology.hl7.org/CodeSystem/measure-population","code":"denominator-exception","display":"Denominator Exception"}]},"count":1}],"measureScore":{"value":0.0}}],"evaluatedResource":[{"reference":"Patient/05ec524f-1d2d-4f9e-8eaa-cc2662030fc6"},{"reference":"Encounter/7eebbe18-6c44-437d-8c5f-81c098dba2aa"},{"reference":"Encounter/98525478-6a86-4297-9065-3a1d15d9ff03"},{"reference":"Encounter/ae402636-27a6-4cb2-a2c6-582ba7c6d581"},{"reference":"Claim/5ca62962b8484628b8de1ec5"},{"reference":"Observation/76f691a2-2dbe-4e8c-a160-6a0ccf18ff92"},{"reference":"Coverage/5365ec4e-fd4c-423d-ac54-55d9c39054c9"},{"reference":"Condition/c28fbc34-431a-47f9-9e3b-0b999084e70d"},{"reference":"Organization/92b9ffd6-ca4e-44dd-a2b0-14187fa9242c"}]},"request":{"method":"PUT","url":"MeasureReport/2b5d1f9c-37e4-40a7-be58-19f72bc34ae0"}}]},"request":{"method":"PUT","url":"Bundle/60f82c2f98086b570510e2b6"}},{"fullUrl":"Patient/05ec524f-1d2d-4f9e-8eaa-cc2662030fc6","resource":{"resourceType":"Patient","id":"05ec524f-1d2d-4f9e-8eaa-cc2662030fc6","meta":{"profile":["http://hl7.org/fhir/us/qicore/StructureDefinition/qicore-patient"]},"text":{"status":"generated","div":"<div xmlns=\"http://www.w3.org/1999/xhtml\"><div class=\"hapiHeaderText\">INRdurED_ED&lt;1hrObs&lt;1hrBFEncDayAft <b>DENEXCEPASS </b></div><table class=\"hapiPropertyTable\"><tbody><tr><td>Identifier</td><td>00e7688de4ce78bc9928efc7c58d050e4007772e7111560948ff30af68fe37ac</td></tr><tr><td>Date of birth</td><td><span>26 September 1975</span></td></tr></tbody></table></div>"},"extension":[{"url":"http://hl7.org/fhir/us/core/StructureDefinition/us-core-race","extension":[{"url":"ombCategory","valueCoding":{"system":"urn:oid:2.16.840.1.113883.6.238","code":"2054-5","display":"Black or African American","userSelected":true}},{"url":"text","valueString":"Black or African American"}]},{"url":"http://hl7.org/fhir/us/core/StructureDefinition/us-core-ethnicity","extension":[{"url":"ombCategory","valueCoding":{"system":"urn:oid:2.16.840.1.113883.6.238","code":"2186-5","display":"Not Hispanic or Latino","userSelected":true}},{"url":"text","valueString":"Not Hispanic or Latino"}]}],"identifier":[{"type":{"coding":[{"system":"http://terminology.hl7.org/CodeSystem/v2-0203","code":"MR"}]},"system":"https://bonnie-fhir.healthit.gov/","value":"60f82c2f98086b570510e2b6"}],"active":true,"name":[{"use":"usual","family":"DENEXCEPass","given":["INRdurED_ED<1hrObs<1hrBFEncDayAft"]}],"gender":"female","birthDate":"1976-09-26"},"request":{"method":"PUT","url":"Patient/05ec524f-1d2d-4f9e-8eaa-cc2662030fc6"}},{"fullUrl":"Claim/5ca62962b8484628b8de1ec5","resource":{"resourceType":"Claim","id":"5ca62962b8484628b8de1ec5","meta":{"profile":["http://hl7.org/fhir/us/qicore/StructureDefinition/qicore-claim"]},"status":"active","type":{"coding":[{"system":"http://terminology.hl7.org/CodeSystem/claim-type","code":"institutional"}]},"use":"claim","patient":{"reference":"Patient/d170a0a8-b5ad-4303-b6df-e304dd5f92ad"},"created":"2026-12-01","provider":{"reference":"Practitioner/practitioner-123456"},"priority":{"coding":[{"system":"http://terminology.hl7.org/CodeSystem/processpriority","code":"normal"}]},"diagnosis":[{"sequence":1,"diagnosisCodeableConcept":{"coding":[{"system":"http://hl7.org/fhir/sid/icd-10-cm","code":"I63.00"}]},"type":[{"coding":[{"system":"http://terminology.hl7.org/CodeSystem/ex-diagnosistype","code":"principal"}]}]}],"insurance":[{"sequence":1,"focal":true,"coverage":{"reference":"Coverage/5fa041661c76ba66d9959367"}}],"item":[{"sequence":1,"diagnosisSequence":[1],"productOrService":{"coding":[{"system":"http://terminology.hl7.org/CodeSystem/ex-USCLS","code":"99555"}]},"encounter":[{"reference":"Encounter/ae402636-27a6-4cb2-a2c6-582ba7c6d581"}]}]},"request":{"method":"PUT","url":"Claim/5ca62962b8484628b8de1ec5"}}]}