{"resourceType":"Bundle","id":"tests-144370a9-c9cf-43db-ba18-f92f4f8cec29-bundle","type":"transaction","entry":[{"resource":{"resourceType":"Observation","id":"2d83298a-5506-4a2b-a759-9e45dd561940","meta":{"profile":["http://hl7.org/fhir/us/qicore/StructureDefinition/qicore-observation-lab"]},"status":"final","category":[{"coding":[{"system":"http://terminology.hl7.org/CodeSystem/observation-category","code":"laboratory","display":"Laboratory"}]}],"code":{"coding":[{"system":"http://loinc.org","code":"34714-6"}]},"subject":{"reference":"Patient/144370a9-c9cf-43db-ba18-f92f4f8cec29"},"effectivePeriod":{"start":"2026-10-10T06:14:00Z"},"issued":"2026-10-12T00:00:00.000+00:00","valueQuantity":{"value":3.6}},"request":{"method":"PUT","url":"Observation/2d83298a-5506-4a2b-a759-9e45dd561940"}},{"resource":{"resourceType":"Condition","id":"69f9f5ea-2b1a-45ef-8621-1b7ea46e2c32","meta":{"profile":["http://hl7.org/fhir/us/qicore/StructureDefinition/qicore-condition-encounter-diagnosis"]},"clinicalStatus":{"coding":[{"system":"http://terminology.hl7.org/CodeSystem/condition-clinical","code":"active"}]},"verificationStatus":{"coding":[{"system":"http://terminology.hl7.org/CodeSystem/condition-ver-status","code":"confirmed"}]},"category":[{"coding":[{"system":"http://terminology.hl7.org/CodeSystem/condition-category","code":"encounter-diagnosis","display":"Encounter Diagnosis"}]}],"code":{"coding":[{"system":"http://snomed.info/sct","version":"2020-09","code":"111297002","display":"Nonparalytic stroke (disorder)","userSelected":true}]},"subject":{"reference":"Patient/144370a9-c9cf-43db-ba18-f92f4f8cec29"},"recordedDate":"2026-08-06T08:00:00Z"},"request":{"method":"PUT","url":"Condition/69f9f5ea-2b1a-45ef-8621-1b7ea46e2c32"}},{"resource":{"resourceType":"Coverage","id":"a28e603e-b770-4cde-974c-fb025d33a289","status":"active","subscriberId":"523435","beneficiary":{"reference":"Patient/144370a9-c9cf-43db-ba18-f92f4f8cec29"},"relationship":{"coding":[{"system":"http://terminology.hl7.org/CodeSystem/subscriber-relationship","code":"self"}]},"period":{"start":"1976-09-26T08:00:00Z"},"payor":[{"reference":"Organization/0ecf6337-a606-421e-9ad1-ded4361f146a"}]},"request":{"method":"PUT","url":"Coverage/a28e603e-b770-4cde-974c-fb025d33a289"}},{"resource":{"resourceType":"Encounter","id":"45d6486b-96ae-4f34-97f4-ffc8ff37ce10","meta":{"profile":["http://hl7.org/fhir/us/qicore/StructureDefinition/qicore-encounter"]},"status":"finished","class":{"system":"http://terminology.hl7.org/CodeSystem/v3-ActCode","code":"IMP","display":"inpatient encounter","userSelected":true},"type":[{"coding":[{"system":"http://snomed.info/sct","code":"32485007"}]}],"subject":{"reference":"Patient/144370a9-c9cf-43db-ba18-f92f4f8cec29"},"period":{"start":"2026-10-11T07:31:00Z","end":"2026-10-15T11:30:00.000+00:00"},"length":{"value":4,"unit":"days"},"reasonReference":[{"reference":"Condition/69f9f5ea-2b1a-45ef-8621-1b7ea46e2c32"}]},"request":{"method":"PUT","url":"Encounter/45d6486b-96ae-4f34-97f4-ffc8ff37ce10"}},{"resource":{"resourceType":"Bundle","id":"60f82c2f98086b570510e2a8","type":"transaction","entry":[{"fullUrl":"https://madie.cms.gov/Patient/144370a9-c9cf-43db-ba18-f92f4f8cec29","resource":{"resourceType":"Patient","id":"144370a9-c9cf-43db-ba18-f92f4f8cec29","meta":{"profile":["http://hl7.org/fhir/us/qicore/StructureDefinition/qicore-patient"]},"text":{"status":"generated","div":"<div xmlns=\"http://www.w3.org/1999/xhtml\"><div class=\"hapiHeaderText\">INRDayAftEnc_ED&lt;1hrObs&lt;1hrBFEncDayOf <b>DENEXCEPASS </b></div><table class=\"hapiPropertyTable\"><tbody><tr><td>Identifier</td><td>eb0390ddf5cccfdde210d05452662b986f9c97b164102446c8fbef7016593c62</td></tr><tr><td>Date of birth</td><td><span>26 September 1975</span></td></tr></tbody></table></div>"},"extension":[{"url":"http://hl7.org/fhir/us/core/StructureDefinition/us-core-race","extension":[{"url":"ombCategory","valueCoding":{"system":"urn:oid:2.16.840.1.113883.6.238","code":"2054-5","display":"Black or African American","userSelected":true}},{"url":"text","valueString":"Black or African American"}]},{"url":"http://hl7.org/fhir/us/core/StructureDefinition/us-core-ethnicity","extension":[{"url":"ombCategory","valueCoding":{"system":"urn:oid:2.16.840.1.113883.6.238","code":"2186-5","display":"Not Hispanic or Latino","userSelected":true}},{"url":"text","valueString":"Not Hispanic or Latino"}]}],"identifier":[{"type":{"coding":[{"system":"http://terminology.hl7.org/CodeSystem/v2-0203","code":"MR"}]},"system":"https://bonnie-fhir.healthit.gov/","value":"60f82c2f98086b570510e2a8"}],"active":true,"name":[{"use":"usual","family":"DENEXCEPass","given":["INRDayAftEnc_ED<1hrObs<1hrBFEncDayOf"]}],"gender":"female","birthDate":"1976-09-26"},"request":{"method":"PUT","url":"Patient/144370a9-c9cf-43db-ba18-f92f4f8cec29"}},{"fullUrl":"https://madie.cms.gov/Encounter/f552ad26-37f1-46de-a926-8430a33f4b78","resource":{"resourceType":"Encounter","id":"f552ad26-37f1-46de-a926-8430a33f4b78","meta":{"profile":["http://hl7.org/fhir/us/qicore/StructureDefinition/qicore-encounter"]},"status":"finished","class":{"system":"http://terminology.hl7.org/CodeSystem/v3-ActCode","code":"EMER","display":"emergency","userSelected":true},"type":[{"coding":[{"system":"http://snomed.info/sct","code":"4525004"}]}],"subject":{"reference":"Patient/144370a9-c9cf-43db-ba18-f92f4f8cec29"},"period":{"start":"2026-10-11T06:15:00Z","end":"2026-10-11T06:30:00.000+00:00"},"length":{"value":0,"unit":"days"}},"request":{"method":"PUT","url":"Encounter/f552ad26-37f1-46de-a926-8430a33f4b78"}},{"fullUrl":"https://madie.cms.gov/Encounter/19cb88ca-2ad9-464b-bd3f-7f0cbd17a2c8","resource":{"resourceType":"Encounter","id":"19cb88ca-2ad9-464b-bd3f-7f0cbd17a2c8","meta":{"profile":["http://hl7.org/fhir/us/qicore/StructureDefinition/qicore-encounter"]},"status":"finished","class":{"system":"http://terminology.hl7.org/CodeSystem/v3-ActCode","code":"OBSENC","display":"observation encounter","userSelected":true},"type":[{"coding":[{"system":"http://snomed.info/sct","code":"448851000124103"}]}],"subject":{"reference":"Patient/144370a9-c9cf-43db-ba18-f92f4f8cec29"},"period":{"start":"2026-10-11T06:31:00Z","end":"2026-10-11T07:30:00.000+00:00"},"length":{"value":0,"unit":"days"}},"request":{"method":"PUT","url":"Encounter/19cb88ca-2ad9-464b-bd3f-7f0cbd17a2c8"}},{"fullUrl":"https://madie.cms.gov/Encounter/45d6486b-96ae-4f34-97f4-ffc8ff37ce10","resource":{"resourceType":"Encounter","id":"45d6486b-96ae-4f34-97f4-ffc8ff37ce10","meta":{"profile":["http://hl7.org/fhir/us/qicore/StructureDefinition/qicore-encounter"]},"status":"finished","class":{"system":"http://terminology.hl7.org/CodeSystem/v3-ActCode","code":"IMP","display":"inpatient encounter","userSelected":true},"type":[{"coding":[{"system":"http://snomed.info/sct","code":"32485007"}]}],"subject":{"reference":"Patient/144370a9-c9cf-43db-ba18-f92f4f8cec29"},"period":{"start":"2026-10-11T07:31:00Z","end":"2026-10-15T11:30:00.000+00:00"},"length":{"value":4,"unit":"days"},"reasonReference":[{"reference":"Condition/69f9f5ea-2b1a-45ef-8621-1b7ea46e2c32"}]},"request":{"method":"PUT","url":"Encounter/45d6486b-96ae-4f34-97f4-ffc8ff37ce10"}},{"fullUrl":"https://madie.cms.gov/claim/5ca62962b8484628b8de1ec5","resource":{"resourceType":"Claim","id":"5ca62962b8484628b8de1ec5","meta":{"profile":["http://hl7.org/fhir/us/qicore/StructureDefinition/qicore-claim"]},"status":"active","type":{"coding":[{"system":"http://terminology.hl7.org/CodeSystem/claim-type","code":"institutional"}]},"use":"claim","patient":{"reference":"Patient/d170a0a8-b5ad-4303-b6df-e304dd5f92ad"},"created":"2026-12-01","provider":{"reference":"Practitioner/practitioner-123456"},"priority":{"coding":[{"system":"http://terminology.hl7.org/CodeSystem/processpriority","code":"normal"}]},"diagnosis":[{"sequence":1,"diagnosisCodeableConcept":{"coding":[{"system":"http://hl7.org/fhir/sid/icd-10-cm","code":"I63.00"}]},"type":[{"coding":[{"system":"http://terminology.hl7.org/CodeSystem/ex-diagnosistype","code":"principal"}]}]}],"insurance":[{"sequence":1,"focal":true,"coverage":{"reference":"Coverage/5fa041661c76ba66d9959367"}}],"item":[{"sequence":1,"diagnosisSequence":[1],"productOrService":{"coding":[{"system":"http://terminology.hl7.org/CodeSystem/ex-USCLS","code":"99555"}]},"encounter":[{"reference":"Encounter/45d6486b-96ae-4f34-97f4-ffc8ff37ce10"}]}]},"request":{"method":"PUT","url":"Claim/5ca62962b8484628b8de1ec5"}},{"fullUrl":"https://madie.cms.gov/Observation/2d83298a-5506-4a2b-a759-9e45dd561940","resource":{"resourceType":"Observation","id":"2d83298a-5506-4a2b-a759-9e45dd561940","meta":{"profile":["http://hl7.org/fhir/us/qicore/StructureDefinition/qicore-observation-lab"]},"status":"final","category":[{"coding":[{"system":"http://terminology.hl7.org/CodeSystem/observation-category","code":"laboratory","display":"Laboratory"}]}],"code":{"coding":[{"system":"http://loinc.org","code":"34714-6"}]},"subject":{"reference":"Patient/144370a9-c9cf-43db-ba18-f92f4f8cec29"},"effectivePeriod":{"start":"2026-10-10T06:14:00Z"},"issued":"2026-10-12T00:00:00.000+00:00","valueQuantity":{"value":3.6}},"request":{"method":"PUT","url":"Observation/2d83298a-5506-4a2b-a759-9e45dd561940"}},{"fullUrl":"https://madie.cms.gov/Coverage/a28e603e-b770-4cde-974c-fb025d33a289","resource":{"resourceType":"Coverage","id":"a28e603e-b770-4cde-974c-fb025d33a289","status":"active","subscriberId":"523435","beneficiary":{"reference":"Patient/144370a9-c9cf-43db-ba18-f92f4f8cec29"},"relationship":{"coding":[{"system":"http://terminology.hl7.org/CodeSystem/subscriber-relationship","code":"self"}]},"period":{"start":"1976-09-26T08:00:00Z"},"payor":[{"reference":"Organization/0ecf6337-a606-421e-9ad1-ded4361f146a"}]},"request":{"method":"PUT","url":"Coverage/a28e603e-b770-4cde-974c-fb025d33a289"}},{"fullUrl":"https://madie.cms.gov/Condition/69f9f5ea-2b1a-45ef-8621-1b7ea46e2c32","resource":{"resourceType":"Condition","id":"69f9f5ea-2b1a-45ef-8621-1b7ea46e2c32","meta":{"profile":["http://hl7.org/fhir/us/qicore/StructureDefinition/qicore-condition-encounter-diagnosis"]},"clinicalStatus":{"coding":[{"system":"http://terminology.hl7.org/CodeSystem/condition-clinical","code":"active"}]},"verificationStatus":{"coding":[{"system":"http://terminology.hl7.org/CodeSystem/condition-ver-status","code":"confirmed"}]},"category":[{"coding":[{"system":"http://terminology.hl7.org/CodeSystem/condition-category","code":"encounter-diagnosis","display":"Encounter Diagnosis"}]}],"code":{"coding":[{"system":"http://snomed.info/sct","version":"2020-09","code":"111297002","display":"Nonparalytic stroke (disorder)","userSelected":true}]},"subject":{"reference":"Patient/144370a9-c9cf-43db-ba18-f92f4f8cec29"},"recordedDate":"2026-08-06T08:00:00Z"},"request":{"method":"PUT","url":"Condition/69f9f5ea-2b1a-45ef-8621-1b7ea46e2c32"}},{"fullUrl":"https://madie.cms.gov/Organization/0ecf6337-a606-421e-9ad1-ded4361f146a","resource":{"resourceType":"Organization","id":"0ecf6337-a606-421e-9ad1-ded4361f146a","meta":{"profile":["http://hl7.org/fhir/us/qicore/StructureDefinition/qicore-organization"]},"identifier":[{"use":"temp","system":"urn:oid:2.16.840.1.113883.4.4","value":"21-3259825"}],"active":true,"type":[{"coding":[{"system":"http://terminology.hl7.org/CodeSystem/organization-type","code":"pay","display":"Payer"}]}],"name":"Blue Cross Blue Shield of Texas","telecom":[{"system":"phone","value":"(+1) 972-766-6900"}],"address":[{"use":"billing","type":"postal","line":["P.O. Box 660044"],"city":"Dallas","state":"TX","postalCode":"75266-0044","country":"USA"}]},"request":{"method":"PUT","url":"Organization/0ecf6337-a606-421e-9ad1-ded4361f146a"}},{"fullUrl":"https://madie.cms.gov/MeasureReport/2e2dbdd8-1986-423e-a2f3-74004e79e299","resource":{"resourceType":"MeasureReport","id":"2e2dbdd8-1986-423e-a2f3-74004e79e299","meta":{"profile":["http://hl7.org/fhir/us/cqfmeasures/StructureDefinition/test-case-cqfm"]},"contained":[{"resourceType":"Parameters","id":"d16ccb33-3c09-4382-a593-08d2e56631df-parameters","parameter":[{"name":"subject","valueString":"144370a9-c9cf-43db-ba18-f92f4f8cec29"}]}],"extension":[{"url":"http://hl7.org/fhir/StructureDefinition/cqf-inputParameters","valueReference":{"reference":"#d16ccb33-3c09-4382-a593-08d2e56631df-parameters"}},{"url":"http://hl7.org/fhir/us/cqfmeasures/StructureDefinition/cqfm-testCaseDescription","valueMarkdown":"Patient receives INR at midnight, 1 day after IP start. ED ends 1 min before observation, Obs ends 1 min before IP start on the same day. Testing Day of operator with HospitalizationWithObservation function.\n"}],"modifierExtension":[{"url":"http://hl7.org/fhir/us/cqfmeasures/StructureDefinition/cqfm-isTestCase","valueBoolean":true}],"status":"complete","type":"individual","measure":"https://madie.cms.gov/Measure/CMS72FHIRSTKAntithromboticDay2","period":{"start":"2026-01-01","end":"2026-12-31"},"group":[{"id":"Group_1","population":[{"id":"InitialPopulation_1","code":{"coding":[{"system":"http://terminology.hl7.org/CodeSystem/measure-population","code":"initial-population","display":"Initial Population"}]},"count":1},{"id":"Denominator_1","code":{"coding":[{"system":"http://terminology.hl7.org/CodeSystem/measure-population","code":"denominator","display":"Denominator"}]},"count":1},{"id":"DenominatorExclusion_1","code":{"coding":[{"system":"http://terminology.hl7.org/CodeSystem/measure-population","code":"denominator-exclusion","display":"Denominator Exclusion"}]},"count":0},{"id":"Numerator_1","code":{"coding":[{"system":"http://terminology.hl7.org/CodeSystem/measure-population","code":"numerator","display":"Numerator"}]},"count":0},{"id":"DenominatorException_1","code":{"coding":[{"system":"http://terminology.hl7.org/CodeSystem/measure-population","code":"denominator-exception","display":"Denominator Exception"}]},"count":1}],"measureScore":{"value":0.0}}],"evaluatedResource":[{"reference":"Patient/144370a9-c9cf-43db-ba18-f92f4f8cec29"},{"reference":"Encounter/f552ad26-37f1-46de-a926-8430a33f4b78"},{"reference":"Encounter/19cb88ca-2ad9-464b-bd3f-7f0cbd17a2c8"},{"reference":"Encounter/45d6486b-96ae-4f34-97f4-ffc8ff37ce10"},{"reference":"Claim/5ca62962b8484628b8de1ec5"},{"reference":"Observation/2d83298a-5506-4a2b-a759-9e45dd561940"},{"reference":"Coverage/a28e603e-b770-4cde-974c-fb025d33a289"},{"reference":"Condition/69f9f5ea-2b1a-45ef-8621-1b7ea46e2c32"},{"reference":"Organization/0ecf6337-a606-421e-9ad1-ded4361f146a"}]},"request":{"method":"PUT","url":"MeasureReport/2e2dbdd8-1986-423e-a2f3-74004e79e299"}}]},"request":{"method":"PUT","url":"Bundle/60f82c2f98086b570510e2a8"}},{"resource":{"resourceType":"Patient","id":"144370a9-c9cf-43db-ba18-f92f4f8cec29","meta":{"profile":["http://hl7.org/fhir/us/qicore/StructureDefinition/qicore-patient"]},"text":{"status":"generated","div":"<div xmlns=\"http://www.w3.org/1999/xhtml\"><div class=\"hapiHeaderText\">INRDayAftEnc_ED&lt;1hrObs&lt;1hrBFEncDayOf <b>DENEXCEPASS </b></div><table class=\"hapiPropertyTable\"><tbody><tr><td>Identifier</td><td>eb0390ddf5cccfdde210d05452662b986f9c97b164102446c8fbef7016593c62</td></tr><tr><td>Date of birth</td><td><span>26 September 1975</span></td></tr></tbody></table></div>"},"extension":[{"url":"http://hl7.org/fhir/us/core/StructureDefinition/us-core-race","extension":[{"url":"ombCategory","valueCoding":{"system":"urn:oid:2.16.840.1.113883.6.238","code":"2054-5","display":"Black or African American","userSelected":true}},{"url":"text","valueString":"Black or African American"}]},{"url":"http://hl7.org/fhir/us/core/StructureDefinition/us-core-ethnicity","extension":[{"url":"ombCategory","valueCoding":{"system":"urn:oid:2.16.840.1.113883.6.238","code":"2186-5","display":"Not Hispanic or Latino","userSelected":true}},{"url":"text","valueString":"Not Hispanic or Latino"}]}],"identifier":[{"type":{"coding":[{"system":"http://terminology.hl7.org/CodeSystem/v2-0203","code":"MR"}]},"system":"https://bonnie-fhir.healthit.gov/","value":"60f82c2f98086b570510e2a8"}],"active":true,"name":[{"use":"usual","family":"DENEXCEPass","given":["INRDayAftEnc_ED<1hrObs<1hrBFEncDayOf"]}],"gender":"female","birthDate":"1976-09-26"},"request":{"method":"PUT","url":"Patient/144370a9-c9cf-43db-ba18-f92f4f8cec29"}},{"resource":{"resourceType":"Encounter","id":"19cb88ca-2ad9-464b-bd3f-7f0cbd17a2c8","meta":{"profile":["http://hl7.org/fhir/us/qicore/StructureDefinition/qicore-encounter"]},"status":"finished","class":{"system":"http://terminology.hl7.org/CodeSystem/v3-ActCode","code":"OBSENC","display":"observation encounter","userSelected":true},"type":[{"coding":[{"system":"http://snomed.info/sct","code":"448851000124103"}]}],"subject":{"reference":"Patient/144370a9-c9cf-43db-ba18-f92f4f8cec29"},"period":{"start":"2026-10-11T06:31:00Z","end":"2026-10-11T07:30:00.000+00:00"},"length":{"value":0,"unit":"days"}},"request":{"method":"PUT","url":"Encounter/19cb88ca-2ad9-464b-bd3f-7f0cbd17a2c8"}},{"resource":{"resourceType":"Encounter","id":"f552ad26-37f1-46de-a926-8430a33f4b78","meta":{"profile":["http://hl7.org/fhir/us/qicore/StructureDefinition/qicore-encounter"]},"status":"finished","class":{"system":"http://terminology.hl7.org/CodeSystem/v3-ActCode","code":"EMER","display":"emergency","userSelected":true},"type":[{"coding":[{"system":"http://snomed.info/sct","code":"4525004"}]}],"subject":{"reference":"Patient/144370a9-c9cf-43db-ba18-f92f4f8cec29"},"period":{"start":"2026-10-11T06:15:00Z","end":"2026-10-11T06:30:00.000+00:00"},"length":{"value":0,"unit":"days"}},"request":{"method":"PUT","url":"Encounter/f552ad26-37f1-46de-a926-8430a33f4b78"}},{"resource":{"resourceType":"Claim","id":"5ca62962b8484628b8de1ec5","meta":{"profile":["http://hl7.org/fhir/us/qicore/StructureDefinition/qicore-claim"]},"status":"active","type":{"coding":[{"system":"http://terminology.hl7.org/CodeSystem/claim-type","code":"institutional"}]},"use":"claim","patient":{"reference":"Patient/d170a0a8-b5ad-4303-b6df-e304dd5f92ad"},"created":"2026-12-01","provider":{"reference":"Practitioner/practitioner-123456"},"priority":{"coding":[{"system":"http://terminology.hl7.org/CodeSystem/processpriority","code":"normal"}]},"diagnosis":[{"sequence":1,"diagnosisCodeableConcept":{"coding":[{"system":"http://hl7.org/fhir/sid/icd-10-cm","code":"I63.00"}]},"type":[{"coding":[{"system":"http://terminology.hl7.org/CodeSystem/ex-diagnosistype","code":"principal"}]}]}],"insurance":[{"sequence":1,"focal":true,"coverage":{"reference":"Coverage/5fa041661c76ba66d9959367"}}],"item":[{"sequence":1,"diagnosisSequence":[1],"productOrService":{"coding":[{"system":"http://terminology.hl7.org/CodeSystem/ex-USCLS","code":"99555"}]},"encounter":[{"reference":"Encounter/45d6486b-96ae-4f34-97f4-ffc8ff37ce10"}]}]},"request":{"method":"PUT","url":"Claim/5ca62962b8484628b8de1ec5"}},{"resource":{"resourceType":"MeasureReport","id":"2e2dbdd8-1986-423e-a2f3-74004e79e299","meta":{"profile":["http://hl7.org/fhir/us/cqfmeasures/StructureDefinition/test-case-cqfm"]},"contained":[{"resourceType":"Parameters","id":"d16ccb33-3c09-4382-a593-08d2e56631df-parameters","parameter":[{"name":"subject","valueString":"144370a9-c9cf-43db-ba18-f92f4f8cec29"}]}],"extension":[{"url":"http://hl7.org/fhir/StructureDefinition/cqf-inputParameters","valueReference":{"reference":"#d16ccb33-3c09-4382-a593-08d2e56631df-parameters"}},{"url":"http://hl7.org/fhir/us/cqfmeasures/StructureDefinition/cqfm-testCaseDescription","valueMarkdown":"Patient receives INR at midnight, 1 day after IP start. ED ends 1 min before observation, Obs ends 1 min before IP start on the same day. Testing Day of operator with HospitalizationWithObservation function.\n"}],"modifierExtension":[{"url":"http://hl7.org/fhir/us/cqfmeasures/StructureDefinition/cqfm-isTestCase","valueBoolean":true}],"status":"complete","type":"individual","measure":"https://madie.cms.gov/Measure/CMS72FHIRSTKAntithromboticDay2","period":{"start":"2026-01-01","end":"2026-12-31"},"group":[{"id":"Group_1","population":[{"id":"InitialPopulation_1","code":{"coding":[{"system":"http://terminology.hl7.org/CodeSystem/measure-population","code":"initial-population","display":"Initial Population"}]},"count":1},{"id":"Denominator_1","code":{"coding":[{"system":"http://terminology.hl7.org/CodeSystem/measure-population","code":"denominator","display":"Denominator"}]},"count":1},{"id":"DenominatorExclusion_1","code":{"coding":[{"system":"http://terminology.hl7.org/CodeSystem/measure-population","code":"denominator-exclusion","display":"Denominator Exclusion"}]},"count":0},{"id":"Numerator_1","code":{"coding":[{"system":"http://terminology.hl7.org/CodeSystem/measure-population","code":"numerator","display":"Numerator"}]},"count":0},{"id":"DenominatorException_1","code":{"coding":[{"system":"http://terminology.hl7.org/CodeSystem/measure-population","code":"denominator-exception","display":"Denominator Exception"}]},"count":1}],"measureScore":{"value":0.0}}],"evaluatedResource":[{"reference":"Patient/144370a9-c9cf-43db-ba18-f92f4f8cec29"},{"reference":"Encounter/f552ad26-37f1-46de-a926-8430a33f4b78"},{"reference":"Encounter/19cb88ca-2ad9-464b-bd3f-7f0cbd17a2c8"},{"reference":"Encounter/45d6486b-96ae-4f34-97f4-ffc8ff37ce10"},{"reference":"Claim/5ca62962b8484628b8de1ec5"},{"reference":"Observation/2d83298a-5506-4a2b-a759-9e45dd561940"},{"reference":"Coverage/a28e603e-b770-4cde-974c-fb025d33a289"},{"reference":"Condition/69f9f5ea-2b1a-45ef-8621-1b7ea46e2c32"},{"reference":"Organization/0ecf6337-a606-421e-9ad1-ded4361f146a"}]},"request":{"method":"PUT","url":"MeasureReport/2e2dbdd8-1986-423e-a2f3-74004e79e299"}},{"resource":{"resourceType":"Organization","id":"0ecf6337-a606-421e-9ad1-ded4361f146a","meta":{"profile":["http://hl7.org/fhir/us/qicore/StructureDefinition/qicore-organization"]},"identifier":[{"use":"temp","system":"urn:oid:2.16.840.1.113883.4.4","value":"21-3259825"}],"active":true,"type":[{"coding":[{"system":"http://terminology.hl7.org/CodeSystem/organization-type","code":"pay","display":"Payer"}]}],"name":"Blue Cross Blue Shield of Texas","telecom":[{"system":"phone","value":"(+1) 972-766-6900"}],"address":[{"use":"billing","type":"postal","line":["P.O. Box 660044"],"city":"Dallas","state":"TX","postalCode":"75266-0044","country":"USA"}]},"request":{"method":"PUT","url":"Organization/0ecf6337-a606-421e-9ad1-ded4361f146a"}}]}