{"resourceType":"Bundle","id":"tests-d496f08e-c55b-44b1-97a7-f86cf9ead1e2-bundle","type":"transaction","entry":[{"fullUrl":"MeasureReport/f7c41ead-1cb9-454f-a9ff-7d446076832f","resource":{"resourceType":"MeasureReport","id":"f7c41ead-1cb9-454f-a9ff-7d446076832f","meta":{"profile":["http://hl7.org/fhir/us/cqfmeasures/StructureDefinition/test-case-cqfm"]},"contained":[{"resourceType":"Parameters","id":"377771a9-7df1-4136-9ef4-f2a830aacd44-parameters","parameter":[{"name":"subject","valueString":"d496f08e-c55b-44b1-97a7-f86cf9ead1e2"}]}],"extension":[{"url":"http://hl7.org/fhir/StructureDefinition/cqf-inputParameters","valueReference":{"reference":"#377771a9-7df1-4136-9ef4-f2a830aacd44-parameters"}},{"url":"http://hl7.org/fhir/us/cqfmeasures/StructureDefinition/cqfm-testCaseDescription","valueMarkdown":"antithrombotic admin not done due to patient refusal = 1 day after IP encounter starts AND NOT ED visit\n"}],"modifierExtension":[{"url":"http://hl7.org/fhir/us/cqfmeasures/StructureDefinition/cqfm-isTestCase","valueBoolean":true}],"status":"complete","type":"individual","measure":"https://madie.cms.gov/Measure/CMS72FHIRSTKAntithromboticDay2","period":{"start":"2026-01-01","end":"2026-12-31"},"group":[{"id":"Group_1","population":[{"id":"InitialPopulation_1","code":{"coding":[{"system":"http://terminology.hl7.org/CodeSystem/measure-population","code":"initial-population","display":"Initial Population"}]},"count":1},{"id":"Denominator_1","code":{"coding":[{"system":"http://terminology.hl7.org/CodeSystem/measure-population","code":"denominator","display":"Denominator"}]},"count":1},{"id":"DenominatorExclusion_1","code":{"coding":[{"system":"http://terminology.hl7.org/CodeSystem/measure-population","code":"denominator-exclusion","display":"Denominator Exclusion"}]},"count":0},{"id":"Numerator_1","code":{"coding":[{"system":"http://terminology.hl7.org/CodeSystem/measure-population","code":"numerator","display":"Numerator"}]},"count":0},{"id":"DenominatorException_1","code":{"coding":[{"system":"http://terminology.hl7.org/CodeSystem/measure-population","code":"denominator-exception","display":"Denominator Exception"}]},"count":1}],"measureScore":{"value":0.0}}],"evaluatedResource":[{"reference":"Patient/d496f08e-c55b-44b1-97a7-f86cf9ead1e2"},{"reference":"Encounter/078733b9-f4bd-4201-8faf-e9f2239ec831"},{"reference":"Claim/5ca62962b8484628b8de1ec5"},{"reference":"MedicationAdministration/34603987-0d4c-41bd-ad4e-5472ace7be4b"},{"reference":"Coverage/7c210ed2-9181-46f4-9b17-0dc855c709dc"},{"reference":"Condition/2234d937-6e43-42d6-b3d4-b05138fe4ee3"},{"reference":"Organization/4496e543-4940-402f-b1fb-7b46f6f81982"}]},"request":{"method":"PUT","url":"MeasureReport/f7c41ead-1cb9-454f-a9ff-7d446076832f"}},{"fullUrl":"Patient/d496f08e-c55b-44b1-97a7-f86cf9ead1e2","resource":{"resourceType":"Patient","id":"d496f08e-c55b-44b1-97a7-f86cf9ead1e2","meta":{"profile":["http://hl7.org/fhir/us/qicore/StructureDefinition/qicore-patient"]},"text":{"status":"generated","div":"<div xmlns=\"http://www.w3.org/1999/xhtml\"><div class=\"hapiHeaderText\">PatientRefusal_NotGiven_IPEnc <b>DENEXCEPPASS </b></div><table class=\"hapiPropertyTable\"><tbody><tr><td>Identifier</td><td>349186d92a371efa8c142f2d9e0a4675</td></tr><tr><td>Date of birth</td><td><span>26 September 1975</span></td></tr></tbody></table></div>"},"extension":[{"url":"http://hl7.org/fhir/us/core/StructureDefinition/us-core-race","extension":[{"url":"ombCategory","valueCoding":{"system":"urn:oid:2.16.840.1.113883.6.238","code":"2054-5","display":"Black or African American","userSelected":true}},{"url":"text","valueString":"Black or African American"}]},{"url":"http://hl7.org/fhir/us/core/StructureDefinition/us-core-ethnicity","extension":[{"url":"ombCategory","valueCoding":{"system":"urn:oid:2.16.840.1.113883.6.238","code":"2186-5","display":"Not Hispanic or Latino","userSelected":true}},{"url":"text","valueString":"Not Hispanic or Latino"}]}],"identifier":[{"type":{"coding":[{"system":"http://terminology.hl7.org/CodeSystem/v2-0203","code":"MR"}]},"system":"https://bonnie-fhir.healthit.gov/","value":"60f82c2e98086b570510e270"}],"active":true,"name":[{"use":"usual","family":"DENEXCEPPass","given":["PatientRefusal_NotGiven_IPEnc"]}],"gender":"female","birthDate":"1976-09-26"},"request":{"method":"PUT","url":"Patient/d496f08e-c55b-44b1-97a7-f86cf9ead1e2"}},{"fullUrl":"Coverage/7c210ed2-9181-46f4-9b17-0dc855c709dc","resource":{"resourceType":"Coverage","id":"7c210ed2-9181-46f4-9b17-0dc855c709dc","status":"active","subscriberId":"523435","beneficiary":{"reference":"Patient/d496f08e-c55b-44b1-97a7-f86cf9ead1e2"},"relationship":{"coding":[{"system":"http://terminology.hl7.org/CodeSystem/subscriber-relationship","code":"self"}]},"period":{"start":"1976-09-26T08:00:00Z"},"payor":[{"reference":"Organization/4496e543-4940-402f-b1fb-7b46f6f81982"}]},"request":{"method":"PUT","url":"Coverage/7c210ed2-9181-46f4-9b17-0dc855c709dc"}},{"fullUrl":"Encounter/078733b9-f4bd-4201-8faf-e9f2239ec831","resource":{"resourceType":"Encounter","id":"078733b9-f4bd-4201-8faf-e9f2239ec831","meta":{"profile":["http://hl7.org/fhir/us/qicore/StructureDefinition/qicore-encounter"]},"status":"finished","class":{"system":"http://terminology.hl7.org/CodeSystem/v3-ActCode","code":"IMP","display":"inpatient encounter","userSelected":true},"type":[{"coding":[{"system":"http://snomed.info/sct","code":"32485007"}]}],"subject":{"reference":"Patient/d496f08e-c55b-44b1-97a7-f86cf9ead1e2"},"period":{"start":"2026-10-10T09:00:00Z","end":"2026-10-12T11:15:00.000+00:00"},"length":{"value":2,"unit":"days"},"reasonReference":[{"reference":"Condition/2234d937-6e43-42d6-b3d4-b05138fe4ee3"}]},"request":{"method":"PUT","url":"Encounter/078733b9-f4bd-4201-8faf-e9f2239ec831"}},{"fullUrl":"Bundle/60f82c2e98086b570510e270","resource":{"resourceType":"Bundle","id":"60f82c2e98086b570510e270","type":"transaction","entry":[{"fullUrl":"https://madie.cms.gov/Patient/d496f08e-c55b-44b1-97a7-f86cf9ead1e2","resource":{"resourceType":"Patient","id":"d496f08e-c55b-44b1-97a7-f86cf9ead1e2","meta":{"profile":["http://hl7.org/fhir/us/qicore/StructureDefinition/qicore-patient"]},"text":{"status":"generated","div":"<div xmlns=\"http://www.w3.org/1999/xhtml\"><div class=\"hapiHeaderText\">PatientRefusal_NotGiven_IPEnc <b>DENEXCEPPASS </b></div><table class=\"hapiPropertyTable\"><tbody><tr><td>Identifier</td><td>349186d92a371efa8c142f2d9e0a4675</td></tr><tr><td>Date of birth</td><td><span>26 September 1975</span></td></tr></tbody></table></div>"},"extension":[{"url":"http://hl7.org/fhir/us/core/StructureDefinition/us-core-race","extension":[{"url":"ombCategory","valueCoding":{"system":"urn:oid:2.16.840.1.113883.6.238","code":"2054-5","display":"Black or African American","userSelected":true}},{"url":"text","valueString":"Black or African American"}]},{"url":"http://hl7.org/fhir/us/core/StructureDefinition/us-core-ethnicity","extension":[{"url":"ombCategory","valueCoding":{"system":"urn:oid:2.16.840.1.113883.6.238","code":"2186-5","display":"Not Hispanic or Latino","userSelected":true}},{"url":"text","valueString":"Not Hispanic or Latino"}]}],"identifier":[{"type":{"coding":[{"system":"http://terminology.hl7.org/CodeSystem/v2-0203","code":"MR"}]},"system":"https://bonnie-fhir.healthit.gov/","value":"60f82c2e98086b570510e270"}],"active":true,"name":[{"use":"usual","family":"DENEXCEPPass","given":["PatientRefusal_NotGiven_IPEnc"]}],"gender":"female","birthDate":"1976-09-26"},"request":{"method":"PUT","url":"Patient/d496f08e-c55b-44b1-97a7-f86cf9ead1e2"}},{"fullUrl":"https://madie.cms.gov/Encounter/078733b9-f4bd-4201-8faf-e9f2239ec831","resource":{"resourceType":"Encounter","id":"078733b9-f4bd-4201-8faf-e9f2239ec831","meta":{"profile":["http://hl7.org/fhir/us/qicore/StructureDefinition/qicore-encounter"]},"status":"finished","class":{"system":"http://terminology.hl7.org/CodeSystem/v3-ActCode","code":"IMP","display":"inpatient encounter","userSelected":true},"type":[{"coding":[{"system":"http://snomed.info/sct","code":"32485007"}]}],"subject":{"reference":"Patient/d496f08e-c55b-44b1-97a7-f86cf9ead1e2"},"period":{"start":"2026-10-10T09:00:00Z","end":"2026-10-12T11:15:00.000+00:00"},"length":{"value":2,"unit":"days"},"reasonReference":[{"reference":"Condition/2234d937-6e43-42d6-b3d4-b05138fe4ee3"}]},"request":{"method":"PUT","url":"Encounter/078733b9-f4bd-4201-8faf-e9f2239ec831"}},{"fullUrl":"https://madie.cms.gov/claim/5ca62962b8484628b8de1ec5","resource":{"resourceType":"Claim","id":"5ca62962b8484628b8de1ec5","meta":{"profile":["http://hl7.org/fhir/us/qicore/StructureDefinition/qicore-claim"]},"status":"active","type":{"coding":[{"system":"http://terminology.hl7.org/CodeSystem/claim-type","code":"institutional"}]},"use":"claim","patient":{"reference":"Patient/d170a0a8-b5ad-4303-b6df-e304dd5f92ad"},"created":"2026-12-01","provider":{"reference":"Practitioner/practitioner-123456"},"priority":{"coding":[{"system":"http://terminology.hl7.org/CodeSystem/processpriority","code":"normal"}]},"diagnosis":[{"sequence":1,"diagnosisCodeableConcept":{"coding":[{"system":"http://hl7.org/fhir/sid/icd-10-cm","code":"I63.00"}]},"type":[{"coding":[{"system":"http://terminology.hl7.org/CodeSystem/ex-diagnosistype","code":"principal"}]}]}],"insurance":[{"sequence":1,"focal":true,"coverage":{"reference":"Coverage/5fa041661c76ba66d9959367"}}],"item":[{"sequence":1,"diagnosisSequence":[1],"productOrService":{"coding":[{"system":"http://terminology.hl7.org/CodeSystem/ex-USCLS","code":"99555"}]},"encounter":[{"reference":"Encounter/078733b9-f4bd-4201-8faf-e9f2239ec831"}]}]},"request":{"method":"PUT","url":"Claim/5ca62962b8484628b8de1ec5"}},{"fullUrl":"https://madie.cms.gov/MedicationAdministration/34603987-0d4c-41bd-ad4e-5472ace7be4b","resource":{"resourceType":"MedicationAdministration","id":"34603987-0d4c-41bd-ad4e-5472ace7be4b","meta":{"profile":["http://hl7.org/fhir/us/qicore/StructureDefinition/qicore-medicationadministrationnotdone"]},"extension":[{"url":"http://hl7.org/fhir/us/qicore/StructureDefinition/qicore-recorded","valueDateTime":"2026-10-11T09:00:00Z"}],"status":"not-done","statusReason":[{"coding":[{"system":"http://snomed.info/sct","code":"443390004","display":"Refused"}]}],"medicationCodeableConcept":{"coding":[{"system":"http://www.nlm.nih.gov/research/umls/rxnorm","code":"1037045"}]},"subject":{"reference":"Patient/d496f08e-c55b-44b1-97a7-f86cf9ead1e2"},"effectivePeriod":{"start":"2026-10-11T09:00:00Z"}},"request":{"method":"PUT","url":"MedicationAdministration/34603987-0d4c-41bd-ad4e-5472ace7be4b"}},{"fullUrl":"https://madie.cms.gov/Coverage/7c210ed2-9181-46f4-9b17-0dc855c709dc","resource":{"resourceType":"Coverage","id":"7c210ed2-9181-46f4-9b17-0dc855c709dc","status":"active","subscriberId":"523435","beneficiary":{"reference":"Patient/d496f08e-c55b-44b1-97a7-f86cf9ead1e2"},"relationship":{"coding":[{"system":"http://terminology.hl7.org/CodeSystem/subscriber-relationship","code":"self"}]},"period":{"start":"1976-09-26T08:00:00Z"},"payor":[{"reference":"Organization/4496e543-4940-402f-b1fb-7b46f6f81982"}]},"request":{"method":"PUT","url":"Coverage/7c210ed2-9181-46f4-9b17-0dc855c709dc"}},{"fullUrl":"https://madie.cms.gov/Condition/2234d937-6e43-42d6-b3d4-b05138fe4ee3","resource":{"resourceType":"Condition","id":"2234d937-6e43-42d6-b3d4-b05138fe4ee3","meta":{"profile":["http://hl7.org/fhir/us/qicore/StructureDefinition/qicore-condition-encounter-diagnosis"]},"clinicalStatus":{"coding":[{"system":"http://terminology.hl7.org/CodeSystem/condition-clinical","code":"active"}]},"verificationStatus":{"coding":[{"system":"http://terminology.hl7.org/CodeSystem/condition-ver-status","code":"confirmed"}]},"category":[{"coding":[{"system":"http://terminology.hl7.org/CodeSystem/condition-category","code":"encounter-diagnosis","display":"Encounter Diagnosis"}]}],"code":{"coding":[{"system":"http://snomed.info/sct","version":"2020-09","code":"111297002","display":"Nonparalytic stroke (disorder)","userSelected":true}]},"subject":{"reference":"Patient/d496f08e-c55b-44b1-97a7-f86cf9ead1e2"},"recordedDate":"2026-08-06T08:00:00Z"},"request":{"method":"PUT","url":"Condition/2234d937-6e43-42d6-b3d4-b05138fe4ee3"}},{"fullUrl":"https://madie.cms.gov/Organization/4496e543-4940-402f-b1fb-7b46f6f81982","resource":{"resourceType":"Organization","id":"4496e543-4940-402f-b1fb-7b46f6f81982","meta":{"profile":["http://hl7.org/fhir/us/qicore/StructureDefinition/qicore-organization"]},"identifier":[{"use":"temp","system":"urn:oid:2.16.840.1.113883.4.4","value":"21-3259825"}],"active":true,"type":[{"coding":[{"system":"http://terminology.hl7.org/CodeSystem/organization-type","code":"pay","display":"Payer"}]}],"name":"Blue Cross Blue Shield of Texas","telecom":[{"system":"phone","value":"(+1) 972-766-6900"}],"address":[{"use":"billing","type":"postal","line":["P.O. Box 660044"],"city":"Dallas","state":"TX","postalCode":"75266-0044","country":"USA"}]},"request":{"method":"PUT","url":"Organization/4496e543-4940-402f-b1fb-7b46f6f81982"}},{"fullUrl":"https://madie.cms.gov/MeasureReport/f7c41ead-1cb9-454f-a9ff-7d446076832f","resource":{"resourceType":"MeasureReport","id":"f7c41ead-1cb9-454f-a9ff-7d446076832f","meta":{"profile":["http://hl7.org/fhir/us/cqfmeasures/StructureDefinition/test-case-cqfm"]},"contained":[{"resourceType":"Parameters","id":"377771a9-7df1-4136-9ef4-f2a830aacd44-parameters","parameter":[{"name":"subject","valueString":"d496f08e-c55b-44b1-97a7-f86cf9ead1e2"}]}],"extension":[{"url":"http://hl7.org/fhir/StructureDefinition/cqf-inputParameters","valueReference":{"reference":"#377771a9-7df1-4136-9ef4-f2a830aacd44-parameters"}},{"url":"http://hl7.org/fhir/us/cqfmeasures/StructureDefinition/cqfm-testCaseDescription","valueMarkdown":"antithrombotic admin not done due to patient refusal = 1 day after IP encounter starts AND NOT ED visit\n"}],"modifierExtension":[{"url":"http://hl7.org/fhir/us/cqfmeasures/StructureDefinition/cqfm-isTestCase","valueBoolean":true}],"status":"complete","type":"individual","measure":"https://madie.cms.gov/Measure/CMS72FHIRSTKAntithromboticDay2","period":{"start":"2026-01-01","end":"2026-12-31"},"group":[{"id":"Group_1","population":[{"id":"InitialPopulation_1","code":{"coding":[{"system":"http://terminology.hl7.org/CodeSystem/measure-population","code":"initial-population","display":"Initial Population"}]},"count":1},{"id":"Denominator_1","code":{"coding":[{"system":"http://terminology.hl7.org/CodeSystem/measure-population","code":"denominator","display":"Denominator"}]},"count":1},{"id":"DenominatorExclusion_1","code":{"coding":[{"system":"http://terminology.hl7.org/CodeSystem/measure-population","code":"denominator-exclusion","display":"Denominator Exclusion"}]},"count":0},{"id":"Numerator_1","code":{"coding":[{"system":"http://terminology.hl7.org/CodeSystem/measure-population","code":"numerator","display":"Numerator"}]},"count":0},{"id":"DenominatorException_1","code":{"coding":[{"system":"http://terminology.hl7.org/CodeSystem/measure-population","code":"denominator-exception","display":"Denominator Exception"}]},"count":1}],"measureScore":{"value":0.0}}],"evaluatedResource":[{"reference":"Patient/d496f08e-c55b-44b1-97a7-f86cf9ead1e2"},{"reference":"Encounter/078733b9-f4bd-4201-8faf-e9f2239ec831"},{"reference":"Claim/5ca62962b8484628b8de1ec5"},{"reference":"MedicationAdministration/34603987-0d4c-41bd-ad4e-5472ace7be4b"},{"reference":"Coverage/7c210ed2-9181-46f4-9b17-0dc855c709dc"},{"reference":"Condition/2234d937-6e43-42d6-b3d4-b05138fe4ee3"},{"reference":"Organization/4496e543-4940-402f-b1fb-7b46f6f81982"}]},"request":{"method":"PUT","url":"MeasureReport/f7c41ead-1cb9-454f-a9ff-7d446076832f"}}]},"request":{"method":"PUT","url":"Bundle/60f82c2e98086b570510e270"}},{"fullUrl":"Organization/4496e543-4940-402f-b1fb-7b46f6f81982","resource":{"resourceType":"Organization","id":"4496e543-4940-402f-b1fb-7b46f6f81982","meta":{"profile":["http://hl7.org/fhir/us/qicore/StructureDefinition/qicore-organization"]},"identifier":[{"use":"temp","system":"urn:oid:2.16.840.1.113883.4.4","value":"21-3259825"}],"active":true,"type":[{"coding":[{"system":"http://terminology.hl7.org/CodeSystem/organization-type","code":"pay","display":"Payer"}]}],"name":"Blue Cross Blue Shield of Texas","telecom":[{"system":"phone","value":"(+1) 972-766-6900"}],"address":[{"use":"billing","type":"postal","line":["P.O. Box 660044"],"city":"Dallas","state":"TX","postalCode":"75266-0044","country":"USA"}]},"request":{"method":"PUT","url":"Organization/4496e543-4940-402f-b1fb-7b46f6f81982"}},{"fullUrl":"MedicationAdministration/34603987-0d4c-41bd-ad4e-5472ace7be4b","resource":{"resourceType":"MedicationAdministration","id":"34603987-0d4c-41bd-ad4e-5472ace7be4b","meta":{"profile":["http://hl7.org/fhir/us/qicore/StructureDefinition/qicore-medicationadministrationnotdone"]},"extension":[{"url":"http://hl7.org/fhir/us/qicore/StructureDefinition/qicore-recorded","valueDateTime":"2026-10-11T09:00:00Z"}],"status":"not-done","statusReason":[{"coding":[{"system":"http://snomed.info/sct","code":"443390004","display":"Refused"}]}],"medicationCodeableConcept":{"coding":[{"system":"http://www.nlm.nih.gov/research/umls/rxnorm","code":"1037045"}]},"subject":{"reference":"Patient/d496f08e-c55b-44b1-97a7-f86cf9ead1e2"},"effectivePeriod":{"start":"2026-10-11T09:00:00Z"}},"request":{"method":"PUT","url":"MedicationAdministration/34603987-0d4c-41bd-ad4e-5472ace7be4b"}},{"fullUrl":"Condition/2234d937-6e43-42d6-b3d4-b05138fe4ee3","resource":{"resourceType":"Condition","id":"2234d937-6e43-42d6-b3d4-b05138fe4ee3","meta":{"profile":["http://hl7.org/fhir/us/qicore/StructureDefinition/qicore-condition-encounter-diagnosis"]},"clinicalStatus":{"coding":[{"system":"http://terminology.hl7.org/CodeSystem/condition-clinical","code":"active"}]},"verificationStatus":{"coding":[{"system":"http://terminology.hl7.org/CodeSystem/condition-ver-status","code":"confirmed"}]},"category":[{"coding":[{"system":"http://terminology.hl7.org/CodeSystem/condition-category","code":"encounter-diagnosis","display":"Encounter Diagnosis"}]}],"code":{"coding":[{"system":"http://snomed.info/sct","version":"2020-09","code":"111297002","display":"Nonparalytic stroke (disorder)","userSelected":true}]},"subject":{"reference":"Patient/d496f08e-c55b-44b1-97a7-f86cf9ead1e2"},"recordedDate":"2026-08-06T08:00:00Z"},"request":{"method":"PUT","url":"Condition/2234d937-6e43-42d6-b3d4-b05138fe4ee3"}},{"fullUrl":"Claim/5ca62962b8484628b8de1ec5","resource":{"resourceType":"Claim","id":"5ca62962b8484628b8de1ec5","meta":{"profile":["http://hl7.org/fhir/us/qicore/StructureDefinition/qicore-claim"]},"status":"active","type":{"coding":[{"system":"http://terminology.hl7.org/CodeSystem/claim-type","code":"institutional"}]},"use":"claim","patient":{"reference":"Patient/d170a0a8-b5ad-4303-b6df-e304dd5f92ad"},"created":"2026-12-01","provider":{"reference":"Practitioner/practitioner-123456"},"priority":{"coding":[{"system":"http://terminology.hl7.org/CodeSystem/processpriority","code":"normal"}]},"diagnosis":[{"sequence":1,"diagnosisCodeableConcept":{"coding":[{"system":"http://hl7.org/fhir/sid/icd-10-cm","code":"I63.00"}]},"type":[{"coding":[{"system":"http://terminology.hl7.org/CodeSystem/ex-diagnosistype","code":"principal"}]}]}],"insurance":[{"sequence":1,"focal":true,"coverage":{"reference":"Coverage/5fa041661c76ba66d9959367"}}],"item":[{"sequence":1,"diagnosisSequence":[1],"productOrService":{"coding":[{"system":"http://terminology.hl7.org/CodeSystem/ex-USCLS","code":"99555"}]},"encounter":[{"reference":"Encounter/078733b9-f4bd-4201-8faf-e9f2239ec831"}]}]},"request":{"method":"PUT","url":"Claim/5ca62962b8484628b8de1ec5"}}]}