{"resourceType":"Bundle","id":"tests-edd8668f-d541-4869-9bb6-02e9e2c2509d-bundle","type":"transaction","entry":[{"fullUrl":"Encounter/a193830a-34ca-44fa-bae7-c4ecb38c7a33","resource":{"resourceType":"Encounter","id":"a193830a-34ca-44fa-bae7-c4ecb38c7a33","meta":{"profile":["http://hl7.org/fhir/us/qicore/StructureDefinition/qicore-encounter"]},"status":"finished","class":{"system":"http://terminology.hl7.org/CodeSystem/v3-ActCode","code":"EMER","display":"emergency","userSelected":true},"type":[{"coding":[{"system":"http://snomed.info/sct","code":"4525004"}]}],"subject":{"reference":"Patient/edd8668f-d541-4869-9bb6-02e9e2c2509d"},"period":{"start":"2026-10-11T23:59:00Z","end":"2026-10-12T00:06:00.000+00:00"}},"request":{"method":"PUT","url":"Encounter/a193830a-34ca-44fa-bae7-c4ecb38c7a33"}},{"fullUrl":"Patient/edd8668f-d541-4869-9bb6-02e9e2c2509d","resource":{"resourceType":"Patient","id":"edd8668f-d541-4869-9bb6-02e9e2c2509d","meta":{"profile":["http://hl7.org/fhir/us/qicore/StructureDefinition/qicore-patient"]},"text":{"status":"generated","div":"<div xmlns=\"http://www.w3.org/1999/xhtml\"><div class=\"hapiHeaderText\">CMPDuringDiffEDTestOccurr <b>DENEXPASS </b></div><table class=\"hapiPropertyTable\"><tbody><tr><td>Identifier</td><td>fcf1262e7fbb728ee91bb3f762114a06e0ac67ead4b8481c3330832671d831a7</td></tr><tr><td>Date of birth</td><td><span>26 September 1975</span></td></tr></tbody></table></div>"},"extension":[{"url":"http://hl7.org/fhir/us/core/StructureDefinition/us-core-race","extension":[{"url":"ombCategory","valueCoding":{"system":"urn:oid:2.16.840.1.113883.6.238","code":"2054-5","display":"Black or African American","userSelected":true}},{"url":"text","valueString":"Black or African American"}]},{"url":"http://hl7.org/fhir/us/core/StructureDefinition/us-core-ethnicity","extension":[{"url":"ombCategory","valueCoding":{"system":"urn:oid:2.16.840.1.113883.6.238","code":"2186-5","display":"Not Hispanic or Latino","userSelected":true}},{"url":"text","valueString":"Not Hispanic or Latino"}]}],"identifier":[{"type":{"coding":[{"system":"http://terminology.hl7.org/CodeSystem/v2-0203","code":"MR"}]},"system":"https://bonnie-fhir.healthit.gov/","value":"60f82c2f98086b570510e2bc"}],"active":true,"name":[{"use":"usual","family":"DENEXPass","given":["CMPDuringDiffEDTestOccurr"]}],"gender":"female","birthDate":"1976-09-26"},"request":{"method":"PUT","url":"Patient/edd8668f-d541-4869-9bb6-02e9e2c2509d"}},{"fullUrl":"Procedure/6b125df1-8d4e-495d-9ee2-dc4da88f2d3a","resource":{"resourceType":"Procedure","id":"6b125df1-8d4e-495d-9ee2-dc4da88f2d3a","meta":{"profile":["http://hl7.org/fhir/us/qicore/StructureDefinition/qicore-procedure"]},"extension":[{"url":"http://hl7.org/fhir/us/qicore/StructureDefinition/qicore-recorded","valueDateTime":"2026-11-19T13:35:00Z"}],"status":"completed","code":{"coding":[{"system":"http://snomed.info/sct","code":"133918004"}]},"subject":{"reference":"Patient/edd8668f-d541-4869-9bb6-02e9e2c2509d"},"performedPeriod":{"start":"2026-10-12T00:00:00Z"}},"request":{"method":"PUT","url":"Procedure/6b125df1-8d4e-495d-9ee2-dc4da88f2d3a"}},{"fullUrl":"Organization/8674c43b-7b90-4fce-9400-a8b975ee4769","resource":{"resourceType":"Organization","id":"8674c43b-7b90-4fce-9400-a8b975ee4769","meta":{"profile":["http://hl7.org/fhir/us/qicore/StructureDefinition/qicore-organization"]},"identifier":[{"use":"temp","system":"urn:oid:2.16.840.1.113883.4.4","value":"21-3259825"}],"active":true,"type":[{"coding":[{"system":"http://terminology.hl7.org/CodeSystem/organization-type","code":"pay","display":"Payer"}]}],"name":"Blue Cross Blue Shield of Texas","telecom":[{"system":"phone","value":"(+1) 972-766-6900"}],"address":[{"use":"billing","type":"postal","line":["P.O. Box 660044"],"city":"Dallas","state":"TX","postalCode":"75266-0044","country":"USA"}]},"request":{"method":"PUT","url":"Organization/8674c43b-7b90-4fce-9400-a8b975ee4769"}},{"fullUrl":"Encounter/a76cb4ee-b163-48e0-bb97-0b2a9a5c1ef0","resource":{"resourceType":"Encounter","id":"a76cb4ee-b163-48e0-bb97-0b2a9a5c1ef0","meta":{"profile":["http://hl7.org/fhir/us/qicore/StructureDefinition/qicore-encounter"]},"status":"finished","class":{"system":"http://terminology.hl7.org/CodeSystem/v3-ActCode","code":"IMP","display":"inpatient encounter","userSelected":true},"type":[{"coding":[{"system":"http://snomed.info/sct","code":"32485007"}]}],"subject":{"reference":"Patient/edd8668f-d541-4869-9bb6-02e9e2c2509d"},"period":{"start":"2026-10-12T06:16:00Z","end":"2026-10-16T06:31:00.000+00:00"},"length":{"value":4,"unit":"days"},"reasonReference":[{"reference":"Condition/62cf1cd1-c3f1-4c2f-948a-dca77ff798b2"}]},"request":{"method":"PUT","url":"Encounter/a76cb4ee-b163-48e0-bb97-0b2a9a5c1ef0"}},{"fullUrl":"Bundle/60f82c2f98086b570510e2bc","resource":{"resourceType":"Bundle","id":"60f82c2f98086b570510e2bc","type":"transaction","entry":[{"fullUrl":"https://madie.cms.gov/Patient/edd8668f-d541-4869-9bb6-02e9e2c2509d","resource":{"resourceType":"Patient","id":"edd8668f-d541-4869-9bb6-02e9e2c2509d","meta":{"profile":["http://hl7.org/fhir/us/qicore/StructureDefinition/qicore-patient"]},"text":{"status":"generated","div":"<div xmlns=\"http://www.w3.org/1999/xhtml\"><div class=\"hapiHeaderText\">CMPDuringDiffEDTestOccurr <b>DENEXPASS </b></div><table class=\"hapiPropertyTable\"><tbody><tr><td>Identifier</td><td>fcf1262e7fbb728ee91bb3f762114a06e0ac67ead4b8481c3330832671d831a7</td></tr><tr><td>Date of birth</td><td><span>26 September 1975</span></td></tr></tbody></table></div>"},"extension":[{"url":"http://hl7.org/fhir/us/core/StructureDefinition/us-core-race","extension":[{"url":"ombCategory","valueCoding":{"system":"urn:oid:2.16.840.1.113883.6.238","code":"2054-5","display":"Black or African American","userSelected":true}},{"url":"text","valueString":"Black or African American"}]},{"url":"http://hl7.org/fhir/us/core/StructureDefinition/us-core-ethnicity","extension":[{"url":"ombCategory","valueCoding":{"system":"urn:oid:2.16.840.1.113883.6.238","code":"2186-5","display":"Not Hispanic or Latino","userSelected":true}},{"url":"text","valueString":"Not Hispanic or Latino"}]}],"identifier":[{"type":{"coding":[{"system":"http://terminology.hl7.org/CodeSystem/v2-0203","code":"MR"}]},"system":"https://bonnie-fhir.healthit.gov/","value":"60f82c2f98086b570510e2bc"}],"active":true,"name":[{"use":"usual","family":"DENEXPass","given":["CMPDuringDiffEDTestOccurr"]}],"gender":"female","birthDate":"1976-09-26"},"request":{"method":"PUT","url":"Patient/edd8668f-d541-4869-9bb6-02e9e2c2509d"}},{"fullUrl":"https://madie.cms.gov/Encounter/a193830a-34ca-44fa-bae7-c4ecb38c7a33","resource":{"resourceType":"Encounter","id":"a193830a-34ca-44fa-bae7-c4ecb38c7a33","meta":{"profile":["http://hl7.org/fhir/us/qicore/StructureDefinition/qicore-encounter"]},"status":"finished","class":{"system":"http://terminology.hl7.org/CodeSystem/v3-ActCode","code":"EMER","display":"emergency","userSelected":true},"type":[{"coding":[{"system":"http://snomed.info/sct","code":"4525004"}]}],"subject":{"reference":"Patient/edd8668f-d541-4869-9bb6-02e9e2c2509d"},"period":{"start":"2026-10-11T23:59:00Z","end":"2026-10-12T00:06:00.000+00:00"}},"request":{"method":"PUT","url":"Encounter/a193830a-34ca-44fa-bae7-c4ecb38c7a33"}},{"fullUrl":"https://madie.cms.gov/Encounter/a76cb4ee-b163-48e0-bb97-0b2a9a5c1ef0","resource":{"resourceType":"Encounter","id":"a76cb4ee-b163-48e0-bb97-0b2a9a5c1ef0","meta":{"profile":["http://hl7.org/fhir/us/qicore/StructureDefinition/qicore-encounter"]},"status":"finished","class":{"system":"http://terminology.hl7.org/CodeSystem/v3-ActCode","code":"IMP","display":"inpatient encounter","userSelected":true},"type":[{"coding":[{"system":"http://snomed.info/sct","code":"32485007"}]}],"subject":{"reference":"Patient/edd8668f-d541-4869-9bb6-02e9e2c2509d"},"period":{"start":"2026-10-12T06:16:00Z","end":"2026-10-16T06:31:00.000+00:00"},"length":{"value":4,"unit":"days"},"reasonReference":[{"reference":"Condition/62cf1cd1-c3f1-4c2f-948a-dca77ff798b2"}]},"request":{"method":"PUT","url":"Encounter/a76cb4ee-b163-48e0-bb97-0b2a9a5c1ef0"}},{"fullUrl":"https://madie.cms.gov/Procedure/6b125df1-8d4e-495d-9ee2-dc4da88f2d3a","resource":{"resourceType":"Procedure","id":"6b125df1-8d4e-495d-9ee2-dc4da88f2d3a","meta":{"profile":["http://hl7.org/fhir/us/qicore/StructureDefinition/qicore-procedure"]},"extension":[{"url":"http://hl7.org/fhir/us/qicore/StructureDefinition/qicore-recorded","valueDateTime":"2026-11-19T13:35:00Z"}],"status":"completed","code":{"coding":[{"system":"http://snomed.info/sct","code":"133918004"}]},"subject":{"reference":"Patient/edd8668f-d541-4869-9bb6-02e9e2c2509d"},"performedPeriod":{"start":"2026-10-12T00:00:00Z"}},"request":{"method":"PUT","url":"Procedure/6b125df1-8d4e-495d-9ee2-dc4da88f2d3a"}},{"fullUrl":"https://madie.cms.gov/Coverage/02ac458f-1888-411a-a5e5-94e9823d46fd","resource":{"resourceType":"Coverage","id":"02ac458f-1888-411a-a5e5-94e9823d46fd","status":"active","beneficiary":{"reference":"Patient/edd8668f-d541-4869-9bb6-02e9e2c2509d"},"period":{"start":"1976-09-26T08:00:00Z"},"payor":[{"reference":"Organization/8674c43b-7b90-4fce-9400-a8b975ee4769"}]},"request":{"method":"PUT","url":"Coverage/02ac458f-1888-411a-a5e5-94e9823d46fd"}},{"fullUrl":"https://madie.cms.gov/Condition/62cf1cd1-c3f1-4c2f-948a-dca77ff798b2","resource":{"resourceType":"Condition","id":"62cf1cd1-c3f1-4c2f-948a-dca77ff798b2","meta":{"profile":["http://hl7.org/fhir/us/qicore/StructureDefinition/qicore-condition-encounter-diagnosis"]},"clinicalStatus":{"coding":[{"system":"http://terminology.hl7.org/CodeSystem/condition-clinical","code":"active"}]},"verificationStatus":{"coding":[{"system":"http://terminology.hl7.org/CodeSystem/condition-ver-status","code":"confirmed"}]},"category":[{"coding":[{"system":"http://terminology.hl7.org/CodeSystem/condition-category","code":"encounter-diagnosis","display":"Encounter Diagnosis"}]}],"code":{"coding":[{"system":"http://snomed.info/sct","version":"2020-09","code":"111297002","display":"Nonparalytic stroke (disorder)","userSelected":true}]},"subject":{"reference":"Patient/edd8668f-d541-4869-9bb6-02e9e2c2509d"},"encounter":{"reference":"Encounter/a76cb4ee-b163-48e0-bb97-0b2a9a5c1ef0"},"recordedDate":"2026-08-13T08:00:00Z"},"request":{"method":"PUT","url":"Condition/62cf1cd1-c3f1-4c2f-948a-dca77ff798b2"}},{"fullUrl":"https://madie.cms.gov/claim/5ca62962b8484628b8de1ec5","resource":{"resourceType":"Claim","id":"5ca62962b8484628b8de1ec5","meta":{"profile":["http://hl7.org/fhir/us/qicore/StructureDefinition/qicore-claim"]},"status":"active","type":{"coding":[{"system":"http://terminology.hl7.org/CodeSystem/claim-type","code":"institutional"}]},"use":"claim","patient":{"reference":"Patient/edd8668f-d541-4869-9bb6-02e9e2c2509d"},"created":"2026-12-01","provider":{"reference":"Practitioner/practitioner-123456"},"priority":{"coding":[{"system":"http://terminology.hl7.org/CodeSystem/processpriority","code":"normal"}]},"diagnosis":[{"sequence":1,"diagnosisCodeableConcept":{"coding":[{"system":"http://hl7.org/fhir/sid/icd-10-cm","code":"I63.00"}]},"type":[{"coding":[{"system":"http://terminology.hl7.org/CodeSystem/ex-diagnosistype","code":"principal"}]}]}],"insurance":[{"sequence":1,"focal":true,"coverage":{"reference":"Coverage/5fa041661c76ba66d9959367"}}],"item":[{"sequence":1,"diagnosisSequence":[1],"productOrService":{"coding":[{"system":"http://terminology.hl7.org/CodeSystem/ex-USCLS","code":"99555"}]},"encounter":[{"reference":"Encounter/a76cb4ee-b163-48e0-bb97-0b2a9a5c1ef0"}]}]},"request":{"method":"PUT","url":"Claim/5ca62962b8484628b8de1ec5"}},{"fullUrl":"https://madie.cms.gov/Organization/8674c43b-7b90-4fce-9400-a8b975ee4769","resource":{"resourceType":"Organization","id":"8674c43b-7b90-4fce-9400-a8b975ee4769","meta":{"profile":["http://hl7.org/fhir/us/qicore/StructureDefinition/qicore-organization"]},"identifier":[{"use":"temp","system":"urn:oid:2.16.840.1.113883.4.4","value":"21-3259825"}],"active":true,"type":[{"coding":[{"system":"http://terminology.hl7.org/CodeSystem/organization-type","code":"pay","display":"Payer"}]}],"name":"Blue Cross Blue Shield of Texas","telecom":[{"system":"phone","value":"(+1) 972-766-6900"}],"address":[{"use":"billing","type":"postal","line":["P.O. Box 660044"],"city":"Dallas","state":"TX","postalCode":"75266-0044","country":"USA"}]},"request":{"method":"PUT","url":"Organization/8674c43b-7b90-4fce-9400-a8b975ee4769"}},{"fullUrl":"https://madie.cms.gov/MeasureReport/7b26739a-ef11-44d3-9d64-42c78bdc64c4","resource":{"resourceType":"MeasureReport","id":"7b26739a-ef11-44d3-9d64-42c78bdc64c4","meta":{"profile":["http://hl7.org/fhir/us/cqfmeasures/StructureDefinition/test-case-cqfm"]},"contained":[{"resourceType":"Parameters","id":"74ae5717-577d-45f5-aabf-4add7ff41285-parameters","parameter":[{"name":"subject","valueString":"edd8668f-d541-4869-9bb6-02e9e2c2509d"}]}],"extension":[{"url":"http://hl7.org/fhir/StructureDefinition/cqf-inputParameters","valueReference":{"reference":"#74ae5717-577d-45f5-aabf-4add7ff41285-parameters"}},{"url":"http://hl7.org/fhir/us/cqfmeasures/StructureDefinition/cqfm-testCaseDescription","valueMarkdown":"Patient receives comfort measures performed during a different ED encounter from IP Encounter. Testing multiple occurrences.\n"}],"modifierExtension":[{"url":"http://hl7.org/fhir/us/cqfmeasures/StructureDefinition/cqfm-isTestCase","valueBoolean":true}],"status":"complete","type":"individual","measure":"https://madie.cms.gov/Measure/CMS72FHIRSTKAntithromboticDay2","period":{"start":"2026-01-01","end":"2026-12-31"},"group":[{"id":"Group_1","population":[{"id":"InitialPopulation_1","code":{"coding":[{"system":"http://terminology.hl7.org/CodeSystem/measure-population","code":"initial-population","display":"Initial Population"}]},"count":1},{"id":"Denominator_1","code":{"coding":[{"system":"http://terminology.hl7.org/CodeSystem/measure-population","code":"denominator","display":"Denominator"}]},"count":1},{"id":"DenominatorExclusion_1","code":{"coding":[{"system":"http://terminology.hl7.org/CodeSystem/measure-population","code":"denominator-exclusion","display":"Denominator Exclusion"}]},"count":1},{"id":"Numerator_1","code":{"coding":[{"system":"http://terminology.hl7.org/CodeSystem/measure-population","code":"numerator","display":"Numerator"}]},"count":0},{"id":"DenominatorException_1","code":{"coding":[{"system":"http://terminology.hl7.org/CodeSystem/measure-population","code":"denominator-exception","display":"Denominator Exception"}]},"count":0}],"measureScore":{"value":0.0}}],"evaluatedResource":[{"reference":"Patient/edd8668f-d541-4869-9bb6-02e9e2c2509d"},{"reference":"Encounter/a193830a-34ca-44fa-bae7-c4ecb38c7a33"},{"reference":"Encounter/a76cb4ee-b163-48e0-bb97-0b2a9a5c1ef0"},{"reference":"Procedure/6b125df1-8d4e-495d-9ee2-dc4da88f2d3a"},{"reference":"Coverage/02ac458f-1888-411a-a5e5-94e9823d46fd"},{"reference":"Condition/62cf1cd1-c3f1-4c2f-948a-dca77ff798b2"},{"reference":"Claim/5ca62962b8484628b8de1ec5"},{"reference":"Organization/8674c43b-7b90-4fce-9400-a8b975ee4769"}]},"request":{"method":"PUT","url":"MeasureReport/7b26739a-ef11-44d3-9d64-42c78bdc64c4"}}]},"request":{"method":"PUT","url":"Bundle/60f82c2f98086b570510e2bc"}},{"fullUrl":"MeasureReport/7b26739a-ef11-44d3-9d64-42c78bdc64c4","resource":{"resourceType":"MeasureReport","id":"7b26739a-ef11-44d3-9d64-42c78bdc64c4","meta":{"profile":["http://hl7.org/fhir/us/cqfmeasures/StructureDefinition/test-case-cqfm"]},"contained":[{"resourceType":"Parameters","id":"74ae5717-577d-45f5-aabf-4add7ff41285-parameters","parameter":[{"name":"subject","valueString":"edd8668f-d541-4869-9bb6-02e9e2c2509d"}]}],"extension":[{"url":"http://hl7.org/fhir/StructureDefinition/cqf-inputParameters","valueReference":{"reference":"#74ae5717-577d-45f5-aabf-4add7ff41285-parameters"}},{"url":"http://hl7.org/fhir/us/cqfmeasures/StructureDefinition/cqfm-testCaseDescription","valueMarkdown":"Patient receives comfort measures performed during a different ED encounter from IP Encounter. Testing multiple occurrences.\n"}],"modifierExtension":[{"url":"http://hl7.org/fhir/us/cqfmeasures/StructureDefinition/cqfm-isTestCase","valueBoolean":true}],"status":"complete","type":"individual","measure":"https://madie.cms.gov/Measure/CMS72FHIRSTKAntithromboticDay2","period":{"start":"2026-01-01","end":"2026-12-31"},"group":[{"id":"Group_1","population":[{"id":"InitialPopulation_1","code":{"coding":[{"system":"http://terminology.hl7.org/CodeSystem/measure-population","code":"initial-population","display":"Initial Population"}]},"count":1},{"id":"Denominator_1","code":{"coding":[{"system":"http://terminology.hl7.org/CodeSystem/measure-population","code":"denominator","display":"Denominator"}]},"count":1},{"id":"DenominatorExclusion_1","code":{"coding":[{"system":"http://terminology.hl7.org/CodeSystem/measure-population","code":"denominator-exclusion","display":"Denominator Exclusion"}]},"count":1},{"id":"Numerator_1","code":{"coding":[{"system":"http://terminology.hl7.org/CodeSystem/measure-population","code":"numerator","display":"Numerator"}]},"count":0},{"id":"DenominatorException_1","code":{"coding":[{"system":"http://terminology.hl7.org/CodeSystem/measure-population","code":"denominator-exception","display":"Denominator Exception"}]},"count":0}],"measureScore":{"value":0.0}}],"evaluatedResource":[{"reference":"Patient/edd8668f-d541-4869-9bb6-02e9e2c2509d"},{"reference":"Encounter/a193830a-34ca-44fa-bae7-c4ecb38c7a33"},{"reference":"Encounter/a76cb4ee-b163-48e0-bb97-0b2a9a5c1ef0"},{"reference":"Procedure/6b125df1-8d4e-495d-9ee2-dc4da88f2d3a"},{"reference":"Coverage/02ac458f-1888-411a-a5e5-94e9823d46fd"},{"reference":"Condition/62cf1cd1-c3f1-4c2f-948a-dca77ff798b2"},{"reference":"Claim/5ca62962b8484628b8de1ec5"},{"reference":"Organization/8674c43b-7b90-4fce-9400-a8b975ee4769"}]},"request":{"method":"PUT","url":"MeasureReport/7b26739a-ef11-44d3-9d64-42c78bdc64c4"}},{"fullUrl":"Condition/62cf1cd1-c3f1-4c2f-948a-dca77ff798b2","resource":{"resourceType":"Condition","id":"62cf1cd1-c3f1-4c2f-948a-dca77ff798b2","meta":{"profile":["http://hl7.org/fhir/us/qicore/StructureDefinition/qicore-condition-encounter-diagnosis"]},"clinicalStatus":{"coding":[{"system":"http://terminology.hl7.org/CodeSystem/condition-clinical","code":"active"}]},"verificationStatus":{"coding":[{"system":"http://terminology.hl7.org/CodeSystem/condition-ver-status","code":"confirmed"}]},"category":[{"coding":[{"system":"http://terminology.hl7.org/CodeSystem/condition-category","code":"encounter-diagnosis","display":"Encounter Diagnosis"}]}],"code":{"coding":[{"system":"http://snomed.info/sct","version":"2020-09","code":"111297002","display":"Nonparalytic stroke (disorder)","userSelected":true}]},"subject":{"reference":"Patient/edd8668f-d541-4869-9bb6-02e9e2c2509d"},"encounter":{"reference":"Encounter/a76cb4ee-b163-48e0-bb97-0b2a9a5c1ef0"},"recordedDate":"2026-08-13T08:00:00Z"},"request":{"method":"PUT","url":"Condition/62cf1cd1-c3f1-4c2f-948a-dca77ff798b2"}},{"fullUrl":"Coverage/02ac458f-1888-411a-a5e5-94e9823d46fd","resource":{"resourceType":"Coverage","id":"02ac458f-1888-411a-a5e5-94e9823d46fd","status":"active","beneficiary":{"reference":"Patient/edd8668f-d541-4869-9bb6-02e9e2c2509d"},"period":{"start":"1976-09-26T08:00:00Z"},"payor":[{"reference":"Organization/8674c43b-7b90-4fce-9400-a8b975ee4769"}]},"request":{"method":"PUT","url":"Coverage/02ac458f-1888-411a-a5e5-94e9823d46fd"}},{"fullUrl":"Claim/5ca62962b8484628b8de1ec5","resource":{"resourceType":"Claim","id":"5ca62962b8484628b8de1ec5","meta":{"profile":["http://hl7.org/fhir/us/qicore/StructureDefinition/qicore-claim"]},"status":"active","type":{"coding":[{"system":"http://terminology.hl7.org/CodeSystem/claim-type","code":"institutional"}]},"use":"claim","patient":{"reference":"Patient/edd8668f-d541-4869-9bb6-02e9e2c2509d"},"created":"2026-12-01","provider":{"reference":"Practitioner/practitioner-123456"},"priority":{"coding":[{"system":"http://terminology.hl7.org/CodeSystem/processpriority","code":"normal"}]},"diagnosis":[{"sequence":1,"diagnosisCodeableConcept":{"coding":[{"system":"http://hl7.org/fhir/sid/icd-10-cm","code":"I63.00"}]},"type":[{"coding":[{"system":"http://terminology.hl7.org/CodeSystem/ex-diagnosistype","code":"principal"}]}]}],"insurance":[{"sequence":1,"focal":true,"coverage":{"reference":"Coverage/5fa041661c76ba66d9959367"}}],"item":[{"sequence":1,"diagnosisSequence":[1],"productOrService":{"coding":[{"system":"http://terminology.hl7.org/CodeSystem/ex-USCLS","code":"99555"}]},"encounter":[{"reference":"Encounter/a76cb4ee-b163-48e0-bb97-0b2a9a5c1ef0"}]}]},"request":{"method":"PUT","url":"Claim/5ca62962b8484628b8de1ec5"}}]}