{"resourceType":"Bundle","id":"tests-09e893a2-26c7-4b6c-8686-7dec938a1c36-bundle","type":"transaction","entry":[{"fullUrl":"Encounter/9f025342-91a5-4f88-b7f0-7e1a3bee6739","resource":{"resourceType":"Encounter","id":"9f025342-91a5-4f88-b7f0-7e1a3bee6739","meta":{"profile":["http://hl7.org/fhir/us/qicore/StructureDefinition/qicore-encounter"]},"status":"finished","class":{"system":"http://terminology.hl7.org/CodeSystem/v3-ActCode","code":"IMP","display":"inpatient encounter"},"type":[{"coding":[{"system":"http://snomed.info/sct","code":"183452005"}]}],"subject":{"reference":"Patient/09e893a2-26c7-4b6c-8686-7dec938a1c36"},"period":{"start":"2026-11-18T11:00:00Z","end":"2026-11-20T08:15:00.000+00:00"},"reasonReference":[{"reference":"Condition/98dd8bb6-4834-4355-8f24-3731873bbf74"}]},"request":{"method":"PUT","url":"Encounter/9f025342-91a5-4f88-b7f0-7e1a3bee6739"}},{"fullUrl":"Organization/e4fa20be-d85d-4eb4-ac35-3e9554d7c8df","resource":{"resourceType":"Organization","id":"e4fa20be-d85d-4eb4-ac35-3e9554d7c8df","meta":{"profile":["http://hl7.org/fhir/us/qicore/StructureDefinition/qicore-organization"]},"identifier":[{"use":"temp","system":"urn:oid:2.16.840.1.113883.4.4","value":"21-3259825"}],"active":true,"type":[{"coding":[{"system":"http://terminology.hl7.org/CodeSystem/organization-type","code":"pay","display":"Payer"}]}],"name":"Blue Cross Blue Shield of Texas","telecom":[{"system":"phone","value":"(+1) 972-766-6900"}],"address":[{"use":"billing","type":"postal","line":["P.O. Box 660044"],"city":"Dallas","state":"TX","postalCode":"75266-0044","country":"USA"}]},"request":{"method":"PUT","url":"Organization/e4fa20be-d85d-4eb4-ac35-3e9554d7c8df"}},{"fullUrl":"Patient/09e893a2-26c7-4b6c-8686-7dec938a1c36","resource":{"resourceType":"Patient","id":"09e893a2-26c7-4b6c-8686-7dec938a1c36","meta":{"profile":["http://hl7.org/fhir/us/qicore/StructureDefinition/qicore-patient"]},"text":{"status":"generated","div":"<div xmlns=\"http://www.w3.org/1999/xhtml\"><div class=\"hapiHeaderText\">CMP_DayOf_RelvPerStart_1minAftIPStart_EDEndLT1hrB4Obs_ObsEndLT1hrB4IP <b>DENEXPASS </b></div><table class=\"hapiPropertyTable\"><tbody><tr><td>Date of birth</td><td><span>01 January 1980</span></td></tr></tbody></table></div>"},"extension":[{"url":"http://hl7.org/fhir/us/core/StructureDefinition/us-core-race","extension":[{"url":"ombCategory","valueCoding":{"system":"urn:oid:2.16.840.1.113883.6.238","code":"2106-3","display":"White","userSelected":true}},{"url":"text","valueString":"White"}]},{"url":"http://hl7.org/fhir/us/core/StructureDefinition/us-core-ethnicity","extension":[{"url":"ombCategory","valueCoding":{"system":"urn:oid:2.16.840.1.113883.6.238","code":"2186-5","display":"Not Hispanic or Latino","userSelected":true}},{"url":"text","valueString":"Not Hispanic or Latino"}]}],"identifier":[{"type":{"coding":[{"system":"http://terminology.hl7.org/CodeSystem/v2-0203","code":"MR"}]},"system":"https://bonnie-fhir.healthit.gov/","value":"60f82c3098086b570510e2f0"}],"active":true,"name":[{"use":"usual","family":"DENEXPass","given":["CMPDayOfRelvPerStart1minAftIPStartEDEndLT1hrB4ObsObsEndLT1hrB4IP"]}],"gender":"female","birthDate":"1981-01-01"},"request":{"method":"PUT","url":"Patient/09e893a2-26c7-4b6c-8686-7dec938a1c36"}},{"fullUrl":"Coverage/043a506e-7d65-4533-b062-910c5fde7f8d","resource":{"resourceType":"Coverage","id":"043a506e-7d65-4533-b062-910c5fde7f8d","meta":{"profile":["http://hl7.org/fhir/us/qicore/StructureDefinition/qicore-coverage"]},"status":"active","beneficiary":{"reference":"Patient/09e893a2-26c7-4b6c-8686-7dec938a1c36"},"payor":[{"reference":"Organization/e4fa20be-d85d-4eb4-ac35-3e9554d7c8df"}]},"request":{"method":"PUT","url":"Coverage/043a506e-7d65-4533-b062-910c5fde7f8d"}},{"fullUrl":"Bundle/60f82c3098086b570510e2f0","resource":{"resourceType":"Bundle","id":"60f82c3098086b570510e2f0","type":"transaction","entry":[{"fullUrl":"https://madie.cms.gov/Patient/09e893a2-26c7-4b6c-8686-7dec938a1c36","resource":{"resourceType":"Patient","id":"09e893a2-26c7-4b6c-8686-7dec938a1c36","meta":{"profile":["http://hl7.org/fhir/us/qicore/StructureDefinition/qicore-patient"]},"text":{"status":"generated","div":"<div xmlns=\"http://www.w3.org/1999/xhtml\"><div class=\"hapiHeaderText\">CMP_DayOf_RelvPerStart_1minAftIPStart_EDEndLT1hrB4Obs_ObsEndLT1hrB4IP <b>DENEXPASS </b></div><table class=\"hapiPropertyTable\"><tbody><tr><td>Date of birth</td><td><span>01 January 1980</span></td></tr></tbody></table></div>"},"extension":[{"url":"http://hl7.org/fhir/us/core/StructureDefinition/us-core-race","extension":[{"url":"ombCategory","valueCoding":{"system":"urn:oid:2.16.840.1.113883.6.238","code":"2106-3","display":"White","userSelected":true}},{"url":"text","valueString":"White"}]},{"url":"http://hl7.org/fhir/us/core/StructureDefinition/us-core-ethnicity","extension":[{"url":"ombCategory","valueCoding":{"system":"urn:oid:2.16.840.1.113883.6.238","code":"2186-5","display":"Not Hispanic or Latino","userSelected":true}},{"url":"text","valueString":"Not Hispanic or Latino"}]}],"identifier":[{"type":{"coding":[{"system":"http://terminology.hl7.org/CodeSystem/v2-0203","code":"MR"}]},"system":"https://bonnie-fhir.healthit.gov/","value":"60f82c3098086b570510e2f0"}],"active":true,"name":[{"use":"usual","family":"DENEXPass","given":["CMPDayOfRelvPerStart1minAftIPStartEDEndLT1hrB4ObsObsEndLT1hrB4IP"]}],"gender":"female","birthDate":"1981-01-01"},"request":{"method":"PUT","url":"Patient/09e893a2-26c7-4b6c-8686-7dec938a1c36"}},{"fullUrl":"https://madie.cms.gov/Encounter/fa5ac35f-1468-4075-a138-0e29b5bbf626","resource":{"resourceType":"Encounter","id":"fa5ac35f-1468-4075-a138-0e29b5bbf626","meta":{"profile":["http://hl7.org/fhir/us/qicore/StructureDefinition/qicore-encounter"]},"status":"finished","class":{"system":"http://terminology.hl7.org/CodeSystem/v3-ActCode","code":"EMER","display":"emergency"},"type":[{"coding":[{"system":"http://snomed.info/sct","code":"4525004"}]}],"subject":{"reference":"Patient/09e893a2-26c7-4b6c-8686-7dec938a1c36"},"period":{"start":"2026-11-18T07:00:00Z","end":"2026-11-18T08:01:00.000+00:00"}},"request":{"method":"PUT","url":"Encounter/fa5ac35f-1468-4075-a138-0e29b5bbf626"}},{"fullUrl":"https://madie.cms.gov/Encounter/01a6ac6e-4467-4ba3-b40f-bb48f6cdd70c","resource":{"resourceType":"Encounter","id":"01a6ac6e-4467-4ba3-b40f-bb48f6cdd70c","meta":{"profile":["http://hl7.org/fhir/us/qicore/StructureDefinition/qicore-encounter"]},"status":"finished","class":{"system":"http://terminology.hl7.org/CodeSystem/v3-ActCode","code":"OBSENC","display":"observation encounter"},"type":[{"coding":[{"system":"http://snomed.info/sct","code":"448951000124107"}]}],"subject":{"reference":"Patient/09e893a2-26c7-4b6c-8686-7dec938a1c36"},"period":{"start":"2026-11-18T09:00:00Z","end":"2026-11-18T10:01:00.000+00:00"}},"request":{"method":"PUT","url":"Encounter/01a6ac6e-4467-4ba3-b40f-bb48f6cdd70c"}},{"fullUrl":"https://madie.cms.gov/Encounter/9f025342-91a5-4f88-b7f0-7e1a3bee6739","resource":{"resourceType":"Encounter","id":"9f025342-91a5-4f88-b7f0-7e1a3bee6739","meta":{"profile":["http://hl7.org/fhir/us/qicore/StructureDefinition/qicore-encounter"]},"status":"finished","class":{"system":"http://terminology.hl7.org/CodeSystem/v3-ActCode","code":"IMP","display":"inpatient encounter"},"type":[{"coding":[{"system":"http://snomed.info/sct","code":"183452005"}]}],"subject":{"reference":"Patient/09e893a2-26c7-4b6c-8686-7dec938a1c36"},"period":{"start":"2026-11-18T11:00:00Z","end":"2026-11-20T08:15:00.000+00:00"},"reasonReference":[{"reference":"Condition/98dd8bb6-4834-4355-8f24-3731873bbf74"}]},"request":{"method":"PUT","url":"Encounter/9f025342-91a5-4f88-b7f0-7e1a3bee6739"}},{"fullUrl":"https://madie.cms.gov/claim/5ca62962b8484628b8de1ec5","resource":{"resourceType":"Claim","id":"5ca62962b8484628b8de1ec5","meta":{"profile":["http://hl7.org/fhir/us/qicore/StructureDefinition/qicore-claim"]},"status":"active","type":{"coding":[{"system":"http://terminology.hl7.org/CodeSystem/claim-type","code":"institutional"}]},"use":"claim","patient":{"reference":"Patient/09e893a2-26c7-4b6c-8686-7dec938a1c36"},"created":"2026-12-01","provider":{"reference":"Practitioner/practitioner-123456"},"priority":{"coding":[{"system":"http://terminology.hl7.org/CodeSystem/processpriority","code":"normal"}]},"diagnosis":[{"sequence":1,"diagnosisCodeableConcept":{"coding":[{"system":"http://hl7.org/fhir/sid/icd-10-cm","code":"I63.00"}]},"type":[{"coding":[{"system":"http://terminology.hl7.org/CodeSystem/ex-diagnosistype","code":"principal"}]}]}],"insurance":[{"sequence":1,"focal":true,"coverage":{"reference":"Coverage/043a506e-7d65-4533-b062-910c5fde7f8d"}}],"item":[{"sequence":1,"diagnosisSequence":[1],"productOrService":{"coding":[{"system":"http://terminology.hl7.org/CodeSystem/ex-USCLS","code":"99555"}]},"encounter":[{"reference":"Encounter/9f025342-91a5-4f88-b7f0-7e1a3bee6739"}]}]},"request":{"method":"PUT","url":"Claim/5ca62962b8484628b8de1ec5"}},{"fullUrl":"https://madie.cms.gov/Procedure/01a045f9-e817-4af8-bfef-b513dfc812bb","resource":{"resourceType":"Procedure","id":"01a045f9-e817-4af8-bfef-b513dfc812bb","meta":{"profile":["http://hl7.org/fhir/us/qicore/StructureDefinition/qicore-procedure"]},"extension":[{"url":"http://hl7.org/fhir/us/qicore/StructureDefinition/qicore-recorded","valueDateTime":"2026-11-19T13:35:00Z"}],"status":"completed","code":{"coding":[{"system":"http://snomed.info/sct","code":"133918004"}]},"subject":{"reference":"Patient/09e893a2-26c7-4b6c-8686-7dec938a1c36"},"performedPeriod":{"start":"2026-11-18T11:01:00Z","end":"2026-11-20T08:15:00.000+00:00"}},"request":{"method":"PUT","url":"Procedure/01a045f9-e817-4af8-bfef-b513dfc812bb"}},{"fullUrl":"https://madie.cms.gov/Condition/98dd8bb6-4834-4355-8f24-3731873bbf74","resource":{"resourceType":"Condition","id":"98dd8bb6-4834-4355-8f24-3731873bbf74","meta":{"profile":["http://hl7.org/fhir/us/qicore/StructureDefinition/qicore-condition-encounter-diagnosis"]},"clinicalStatus":{"coding":[{"system":"http://terminology.hl7.org/CodeSystem/condition-clinical","code":"active"}]},"verificationStatus":{"coding":[{"system":"http://terminology.hl7.org/CodeSystem/condition-ver-status","code":"confirmed"}]},"category":[{"coding":[{"system":"http://terminology.hl7.org/CodeSystem/condition-category","code":"encounter-diagnosis","display":"Encounter Diagnosis"}]}],"code":{"coding":[{"system":"http://snomed.info/sct","version":"2020-09","code":"111297002","display":"Nonparalytic stroke (disorder)","userSelected":true}]},"subject":{"reference":"Patient/09e893a2-26c7-4b6c-8686-7dec938a1c36"},"recordedDate":"2026-08-13T08:00:00Z"},"request":{"method":"PUT","url":"Condition/98dd8bb6-4834-4355-8f24-3731873bbf74"}},{"fullUrl":"https://madie.cms.gov/Coverage/043a506e-7d65-4533-b062-910c5fde7f8d","resource":{"resourceType":"Coverage","id":"043a506e-7d65-4533-b062-910c5fde7f8d","meta":{"profile":["http://hl7.org/fhir/us/qicore/StructureDefinition/qicore-coverage"]},"status":"active","beneficiary":{"reference":"Patient/09e893a2-26c7-4b6c-8686-7dec938a1c36"},"payor":[{"reference":"Organization/e4fa20be-d85d-4eb4-ac35-3e9554d7c8df"}]},"request":{"method":"PUT","url":"Coverage/043a506e-7d65-4533-b062-910c5fde7f8d"}},{"fullUrl":"https://madie.cms.gov/Organization/e4fa20be-d85d-4eb4-ac35-3e9554d7c8df","resource":{"resourceType":"Organization","id":"e4fa20be-d85d-4eb4-ac35-3e9554d7c8df","meta":{"profile":["http://hl7.org/fhir/us/qicore/StructureDefinition/qicore-organization"]},"identifier":[{"use":"temp","system":"urn:oid:2.16.840.1.113883.4.4","value":"21-3259825"}],"active":true,"type":[{"coding":[{"system":"http://terminology.hl7.org/CodeSystem/organization-type","code":"pay","display":"Payer"}]}],"name":"Blue Cross Blue Shield of Texas","telecom":[{"system":"phone","value":"(+1) 972-766-6900"}],"address":[{"use":"billing","type":"postal","line":["P.O. Box 660044"],"city":"Dallas","state":"TX","postalCode":"75266-0044","country":"USA"}]},"request":{"method":"PUT","url":"Organization/e4fa20be-d85d-4eb4-ac35-3e9554d7c8df"}},{"fullUrl":"https://madie.cms.gov/MeasureReport/1f610f7d-de7e-499e-93e9-9ea7e2945d61","resource":{"resourceType":"MeasureReport","id":"1f610f7d-de7e-499e-93e9-9ea7e2945d61","meta":{"profile":["http://hl7.org/fhir/us/cqfmeasures/StructureDefinition/test-case-cqfm"]},"contained":[{"resourceType":"Parameters","id":"1f6efd68-f972-428c-bc2c-539e83a2dc25-parameters","parameter":[{"name":"subject","valueString":"09e893a2-26c7-4b6c-8686-7dec938a1c36"}]}],"extension":[{"url":"http://hl7.org/fhir/StructureDefinition/cqf-inputParameters","valueReference":{"reference":"#1f6efd68-f972-428c-bc2c-539e83a2dc25-parameters"}},{"url":"http://hl7.org/fhir/us/cqfmeasures/StructureDefinition/cqfm-testCaseDescription","valueMarkdown":"Patient receives comfort measures performed on the day of hospital arrival, 1 min after IP start. ED ends less than 1 hour before Obs Start, Obs ends less than 1 hour before IP start.\n"}],"modifierExtension":[{"url":"http://hl7.org/fhir/us/cqfmeasures/StructureDefinition/cqfm-isTestCase","valueBoolean":true}],"status":"complete","type":"individual","measure":"https://madie.cms.gov/Measure/CMS72FHIRSTKAntithromboticDay2","period":{"start":"2026-01-01","end":"2026-12-31"},"group":[{"id":"Group_1","population":[{"id":"InitialPopulation_1","code":{"coding":[{"system":"http://terminology.hl7.org/CodeSystem/measure-population","code":"initial-population","display":"Initial Population"}]},"count":1},{"id":"Denominator_1","code":{"coding":[{"system":"http://terminology.hl7.org/CodeSystem/measure-population","code":"denominator","display":"Denominator"}]},"count":1},{"id":"DenominatorExclusion_1","code":{"coding":[{"system":"http://terminology.hl7.org/CodeSystem/measure-population","code":"denominator-exclusion","display":"Denominator Exclusion"}]},"count":1},{"id":"Numerator_1","code":{"coding":[{"system":"http://terminology.hl7.org/CodeSystem/measure-population","code":"numerator","display":"Numerator"}]},"count":0},{"id":"DenominatorException_1","code":{"coding":[{"system":"http://terminology.hl7.org/CodeSystem/measure-population","code":"denominator-exception","display":"Denominator Exception"}]},"count":0}],"measureScore":{"value":0.0}}],"evaluatedResource":[{"reference":"Patient/09e893a2-26c7-4b6c-8686-7dec938a1c36"},{"reference":"Encounter/fa5ac35f-1468-4075-a138-0e29b5bbf626"},{"reference":"Encounter/01a6ac6e-4467-4ba3-b40f-bb48f6cdd70c"},{"reference":"Encounter/9f025342-91a5-4f88-b7f0-7e1a3bee6739"},{"reference":"Claim/5ca62962b8484628b8de1ec5"},{"reference":"Procedure/01a045f9-e817-4af8-bfef-b513dfc812bb"},{"reference":"Condition/98dd8bb6-4834-4355-8f24-3731873bbf74"},{"reference":"Coverage/043a506e-7d65-4533-b062-910c5fde7f8d"},{"reference":"Organization/e4fa20be-d85d-4eb4-ac35-3e9554d7c8df"}]},"request":{"method":"PUT","url":"MeasureReport/1f610f7d-de7e-499e-93e9-9ea7e2945d61"}}]},"request":{"method":"PUT","url":"Bundle/60f82c3098086b570510e2f0"}},{"fullUrl":"MeasureReport/1f610f7d-de7e-499e-93e9-9ea7e2945d61","resource":{"resourceType":"MeasureReport","id":"1f610f7d-de7e-499e-93e9-9ea7e2945d61","meta":{"profile":["http://hl7.org/fhir/us/cqfmeasures/StructureDefinition/test-case-cqfm"]},"contained":[{"resourceType":"Parameters","id":"1f6efd68-f972-428c-bc2c-539e83a2dc25-parameters","parameter":[{"name":"subject","valueString":"09e893a2-26c7-4b6c-8686-7dec938a1c36"}]}],"extension":[{"url":"http://hl7.org/fhir/StructureDefinition/cqf-inputParameters","valueReference":{"reference":"#1f6efd68-f972-428c-bc2c-539e83a2dc25-parameters"}},{"url":"http://hl7.org/fhir/us/cqfmeasures/StructureDefinition/cqfm-testCaseDescription","valueMarkdown":"Patient receives comfort measures performed on the day of hospital arrival, 1 min after IP start. ED ends less than 1 hour before Obs Start, Obs ends less than 1 hour before IP start.\n"}],"modifierExtension":[{"url":"http://hl7.org/fhir/us/cqfmeasures/StructureDefinition/cqfm-isTestCase","valueBoolean":true}],"status":"complete","type":"individual","measure":"https://madie.cms.gov/Measure/CMS72FHIRSTKAntithromboticDay2","period":{"start":"2026-01-01","end":"2026-12-31"},"group":[{"id":"Group_1","population":[{"id":"InitialPopulation_1","code":{"coding":[{"system":"http://terminology.hl7.org/CodeSystem/measure-population","code":"initial-population","display":"Initial Population"}]},"count":1},{"id":"Denominator_1","code":{"coding":[{"system":"http://terminology.hl7.org/CodeSystem/measure-population","code":"denominator","display":"Denominator"}]},"count":1},{"id":"DenominatorExclusion_1","code":{"coding":[{"system":"http://terminology.hl7.org/CodeSystem/measure-population","code":"denominator-exclusion","display":"Denominator Exclusion"}]},"count":1},{"id":"Numerator_1","code":{"coding":[{"system":"http://terminology.hl7.org/CodeSystem/measure-population","code":"numerator","display":"Numerator"}]},"count":0},{"id":"DenominatorException_1","code":{"coding":[{"system":"http://terminology.hl7.org/CodeSystem/measure-population","code":"denominator-exception","display":"Denominator Exception"}]},"count":0}],"measureScore":{"value":0.0}}],"evaluatedResource":[{"reference":"Patient/09e893a2-26c7-4b6c-8686-7dec938a1c36"},{"reference":"Encounter/fa5ac35f-1468-4075-a138-0e29b5bbf626"},{"reference":"Encounter/01a6ac6e-4467-4ba3-b40f-bb48f6cdd70c"},{"reference":"Encounter/9f025342-91a5-4f88-b7f0-7e1a3bee6739"},{"reference":"Claim/5ca62962b8484628b8de1ec5"},{"reference":"Procedure/01a045f9-e817-4af8-bfef-b513dfc812bb"},{"reference":"Condition/98dd8bb6-4834-4355-8f24-3731873bbf74"},{"reference":"Coverage/043a506e-7d65-4533-b062-910c5fde7f8d"},{"reference":"Organization/e4fa20be-d85d-4eb4-ac35-3e9554d7c8df"}]},"request":{"method":"PUT","url":"MeasureReport/1f610f7d-de7e-499e-93e9-9ea7e2945d61"}},{"fullUrl":"Encounter/01a6ac6e-4467-4ba3-b40f-bb48f6cdd70c","resource":{"resourceType":"Encounter","id":"01a6ac6e-4467-4ba3-b40f-bb48f6cdd70c","meta":{"profile":["http://hl7.org/fhir/us/qicore/StructureDefinition/qicore-encounter"]},"status":"finished","class":{"system":"http://terminology.hl7.org/CodeSystem/v3-ActCode","code":"OBSENC","display":"observation encounter"},"type":[{"coding":[{"system":"http://snomed.info/sct","code":"448951000124107"}]}],"subject":{"reference":"Patient/09e893a2-26c7-4b6c-8686-7dec938a1c36"},"period":{"start":"2026-11-18T09:00:00Z","end":"2026-11-18T10:01:00.000+00:00"}},"request":{"method":"PUT","url":"Encounter/01a6ac6e-4467-4ba3-b40f-bb48f6cdd70c"}},{"fullUrl":"Condition/98dd8bb6-4834-4355-8f24-3731873bbf74","resource":{"resourceType":"Condition","id":"98dd8bb6-4834-4355-8f24-3731873bbf74","meta":{"profile":["http://hl7.org/fhir/us/qicore/StructureDefinition/qicore-condition-encounter-diagnosis"]},"clinicalStatus":{"coding":[{"system":"http://terminology.hl7.org/CodeSystem/condition-clinical","code":"active"}]},"verificationStatus":{"coding":[{"system":"http://terminology.hl7.org/CodeSystem/condition-ver-status","code":"confirmed"}]},"category":[{"coding":[{"system":"http://terminology.hl7.org/CodeSystem/condition-category","code":"encounter-diagnosis","display":"Encounter Diagnosis"}]}],"code":{"coding":[{"system":"http://snomed.info/sct","version":"2020-09","code":"111297002","display":"Nonparalytic stroke (disorder)","userSelected":true}]},"subject":{"reference":"Patient/09e893a2-26c7-4b6c-8686-7dec938a1c36"},"recordedDate":"2026-08-13T08:00:00Z"},"request":{"method":"PUT","url":"Condition/98dd8bb6-4834-4355-8f24-3731873bbf74"}},{"fullUrl":"Encounter/fa5ac35f-1468-4075-a138-0e29b5bbf626","resource":{"resourceType":"Encounter","id":"fa5ac35f-1468-4075-a138-0e29b5bbf626","meta":{"profile":["http://hl7.org/fhir/us/qicore/StructureDefinition/qicore-encounter"]},"status":"finished","class":{"system":"http://terminology.hl7.org/CodeSystem/v3-ActCode","code":"EMER","display":"emergency"},"type":[{"coding":[{"system":"http://snomed.info/sct","code":"4525004"}]}],"subject":{"reference":"Patient/09e893a2-26c7-4b6c-8686-7dec938a1c36"},"period":{"start":"2026-11-18T07:00:00Z","end":"2026-11-18T08:01:00.000+00:00"}},"request":{"method":"PUT","url":"Encounter/fa5ac35f-1468-4075-a138-0e29b5bbf626"}},{"fullUrl":"Procedure/01a045f9-e817-4af8-bfef-b513dfc812bb","resource":{"resourceType":"Procedure","id":"01a045f9-e817-4af8-bfef-b513dfc812bb","meta":{"profile":["http://hl7.org/fhir/us/qicore/StructureDefinition/qicore-procedure"]},"extension":[{"url":"http://hl7.org/fhir/us/qicore/StructureDefinition/qicore-recorded","valueDateTime":"2026-11-19T13:35:00Z"}],"status":"completed","code":{"coding":[{"system":"http://snomed.info/sct","code":"133918004"}]},"subject":{"reference":"Patient/09e893a2-26c7-4b6c-8686-7dec938a1c36"},"performedPeriod":{"start":"2026-11-18T11:01:00Z","end":"2026-11-20T08:15:00.000+00:00"}},"request":{"method":"PUT","url":"Procedure/01a045f9-e817-4af8-bfef-b513dfc812bb"}},{"fullUrl":"Claim/5ca62962b8484628b8de1ec5","resource":{"resourceType":"Claim","id":"5ca62962b8484628b8de1ec5","meta":{"profile":["http://hl7.org/fhir/us/qicore/StructureDefinition/qicore-claim"]},"status":"active","type":{"coding":[{"system":"http://terminology.hl7.org/CodeSystem/claim-type","code":"institutional"}]},"use":"claim","patient":{"reference":"Patient/09e893a2-26c7-4b6c-8686-7dec938a1c36"},"created":"2026-12-01","provider":{"reference":"Practitioner/practitioner-123456"},"priority":{"coding":[{"system":"http://terminology.hl7.org/CodeSystem/processpriority","code":"normal"}]},"diagnosis":[{"sequence":1,"diagnosisCodeableConcept":{"coding":[{"system":"http://hl7.org/fhir/sid/icd-10-cm","code":"I63.00"}]},"type":[{"coding":[{"system":"http://terminology.hl7.org/CodeSystem/ex-diagnosistype","code":"principal"}]}]}],"insurance":[{"sequence":1,"focal":true,"coverage":{"reference":"Coverage/043a506e-7d65-4533-b062-910c5fde7f8d"}}],"item":[{"sequence":1,"diagnosisSequence":[1],"productOrService":{"coding":[{"system":"http://terminology.hl7.org/CodeSystem/ex-USCLS","code":"99555"}]},"encounter":[{"reference":"Encounter/9f025342-91a5-4f88-b7f0-7e1a3bee6739"}]}]},"request":{"method":"PUT","url":"Claim/5ca62962b8484628b8de1ec5"}}]}