{"resourceType":"Bundle","id":"tests-036c2c6b-c5b7-4e1f-8a85-ac0787e3a15d-bundle","type":"transaction","entry":[{"fullUrl":"Condition/09e22b5e-eb9f-469a-92ec-5969b349e1b3","resource":{"resourceType":"Condition","id":"09e22b5e-eb9f-469a-92ec-5969b349e1b3","meta":{"profile":["http://hl7.org/fhir/us/qicore/StructureDefinition/qicore-condition-encounter-diagnosis"]},"clinicalStatus":{"coding":[{"system":"http://terminology.hl7.org/CodeSystem/condition-clinical","code":"active"}]},"verificationStatus":{"coding":[{"system":"http://terminology.hl7.org/CodeSystem/condition-ver-status","code":"confirmed"}]},"category":[{"coding":[{"system":"http://terminology.hl7.org/CodeSystem/condition-category","code":"encounter-diagnosis","display":"Encounter Diagnosis"}]}],"code":{"coding":[{"system":"http://snomed.info/sct","version":"2020-09","code":"111297002","display":"Nonparalytic stroke (disorder)","userSelected":true}]},"subject":{"reference":"Patient/036c2c6b-c5b7-4e1f-8a85-ac0787e3a15d"},"encounter":{"reference":"Encounter/25ae148e-0e44-4c7f-8613-11ba95cdaeeb"},"recordedDate":"2026-08-12T08:00:00Z"},"request":{"method":"PUT","url":"Condition/09e22b5e-eb9f-469a-92ec-5969b349e1b3"}},{"fullUrl":"Patient/036c2c6b-c5b7-4e1f-8a85-ac0787e3a15d","resource":{"resourceType":"Patient","id":"036c2c6b-c5b7-4e1f-8a85-ac0787e3a15d","meta":{"profile":["http://hl7.org/fhir/us/qicore/StructureDefinition/qicore-patient"]},"text":{"status":"generated","div":"<div xmlns=\"http://www.w3.org/1999/xhtml\"><div class=\"hapiHeaderText\">LowINRDayOfEncStart_NoEDNoObsBFEncDayOf <b>DENEXFAIL </b></div><table class=\"hapiPropertyTable\"><tbody><tr><td>Identifier</td><td>10c7f70e4cd70973731e86c309e8b6a062eba3f3b6c0ee06101848d8dd42fe3a</td></tr><tr><td>Date of birth</td><td><span>26 September 1975</span></td></tr></tbody></table></div>"},"extension":[{"url":"http://hl7.org/fhir/us/core/StructureDefinition/us-core-race","extension":[{"url":"ombCategory","valueCoding":{"system":"urn:oid:2.16.840.1.113883.6.238","code":"2054-5","display":"Black or African American","userSelected":true}},{"url":"text","valueString":"Black or African American"}]},{"url":"http://hl7.org/fhir/us/core/StructureDefinition/us-core-ethnicity","extension":[{"url":"ombCategory","valueCoding":{"system":"urn:oid:2.16.840.1.113883.6.238","code":"2186-5","display":"Not Hispanic or Latino","userSelected":true}},{"url":"text","valueString":"Not Hispanic or Latino"}]}],"identifier":[{"type":{"coding":[{"system":"http://terminology.hl7.org/CodeSystem/v2-0203","code":"MR"}]},"system":"https://bonnie-fhir.healthit.gov/","value":"60f82c2f98086b570510e2a6"}],"active":true,"name":[{"use":"usual","family":"DENEXFail","given":["LowINRDayOfEncStartNoEDNoObsBFEncDayOf"]}],"gender":"female","birthDate":"1976-09-26"},"request":{"method":"PUT","url":"Patient/036c2c6b-c5b7-4e1f-8a85-ac0787e3a15d"}},{"fullUrl":"Encounter/25ae148e-0e44-4c7f-8613-11ba95cdaeeb","resource":{"resourceType":"Encounter","id":"25ae148e-0e44-4c7f-8613-11ba95cdaeeb","meta":{"profile":["http://hl7.org/fhir/us/qicore/StructureDefinition/qicore-encounter"]},"status":"finished","class":{"system":"http://terminology.hl7.org/CodeSystem/v3-ActCode","code":"IMP","display":"inpatient encounter","userSelected":true},"type":[{"coding":[{"system":"http://snomed.info/sct","code":"32485007"}]}],"subject":{"reference":"Patient/036c2c6b-c5b7-4e1f-8a85-ac0787e3a15d"},"period":{"start":"2026-10-10T06:15:00Z","end":"2026-10-15T11:30:00.000+00:00"},"length":{"value":5,"unit":"days"},"reasonReference":[{"reference":"Condition/09e22b5e-eb9f-469a-92ec-5969b349e1b3"}]},"request":{"method":"PUT","url":"Encounter/25ae148e-0e44-4c7f-8613-11ba95cdaeeb"}},{"fullUrl":"Coverage/52ee5771-d47f-44ef-96ec-c8303c1b10a5","resource":{"resourceType":"Coverage","id":"52ee5771-d47f-44ef-96ec-c8303c1b10a5","status":"active","beneficiary":{"reference":"Patient/036c2c6b-c5b7-4e1f-8a85-ac0787e3a15d"},"period":{"start":"1976-09-26T08:00:00Z"},"payor":[{"reference":"Organization/466d318a-88a8-4e47-9a0c-b0534c945227"}]},"request":{"method":"PUT","url":"Coverage/52ee5771-d47f-44ef-96ec-c8303c1b10a5"}},{"fullUrl":"MeasureReport/cd5bf254-b436-4a76-bf2d-28d8207a1567","resource":{"resourceType":"MeasureReport","id":"cd5bf254-b436-4a76-bf2d-28d8207a1567","meta":{"profile":["http://hl7.org/fhir/us/cqfmeasures/StructureDefinition/test-case-cqfm"]},"contained":[{"resourceType":"Parameters","id":"fa5ce450-322c-4008-b417-a2be26479f24-parameters","parameter":[{"name":"subject","valueString":"036c2c6b-c5b7-4e1f-8a85-ac0787e3a15d"}]}],"extension":[{"url":"http://hl7.org/fhir/StructureDefinition/cqf-inputParameters","valueReference":{"reference":"#fa5ce450-322c-4008-b417-a2be26479f24-parameters"}},{"url":"http://hl7.org/fhir/us/cqfmeasures/StructureDefinition/cqfm-testCaseDescription","valueMarkdown":"Patient receives INR of 3.5 the day of IP start. No ED. No Obs. negative test for lab value.\n"}],"modifierExtension":[{"url":"http://hl7.org/fhir/us/cqfmeasures/StructureDefinition/cqfm-isTestCase","valueBoolean":true}],"status":"complete","type":"individual","measure":"https://madie.cms.gov/Measure/CMS72FHIRSTKAntithromboticDay2","period":{"start":"2026-01-01","end":"2026-12-31"},"group":[{"id":"Group_1","population":[{"id":"InitialPopulation_1","code":{"coding":[{"system":"http://terminology.hl7.org/CodeSystem/measure-population","code":"initial-population","display":"Initial Population"}]},"count":1},{"id":"Denominator_1","code":{"coding":[{"system":"http://terminology.hl7.org/CodeSystem/measure-population","code":"denominator","display":"Denominator"}]},"count":1},{"id":"DenominatorExclusion_1","code":{"coding":[{"system":"http://terminology.hl7.org/CodeSystem/measure-population","code":"denominator-exclusion","display":"Denominator Exclusion"}]},"count":0},{"id":"Numerator_1","code":{"coding":[{"system":"http://terminology.hl7.org/CodeSystem/measure-population","code":"numerator","display":"Numerator"}]},"count":0},{"id":"DenominatorException_1","code":{"coding":[{"system":"http://terminology.hl7.org/CodeSystem/measure-population","code":"denominator-exception","display":"Denominator Exception"}]},"count":0}],"measureScore":{"value":0.0}}],"evaluatedResource":[{"reference":"Patient/036c2c6b-c5b7-4e1f-8a85-ac0787e3a15d"},{"reference":"Encounter/25ae148e-0e44-4c7f-8613-11ba95cdaeeb"},{"reference":"Observation/1ba76af7-d9ce-415b-a4c5-573e4a959ff1"},{"reference":"Coverage/52ee5771-d47f-44ef-96ec-c8303c1b10a5"},{"reference":"Condition/09e22b5e-eb9f-469a-92ec-5969b349e1b3"},{"reference":"Claim/5ca62962b8484628b8de1ec5"},{"reference":"Organization/466d318a-88a8-4e47-9a0c-b0534c945227"}]},"request":{"method":"PUT","url":"MeasureReport/cd5bf254-b436-4a76-bf2d-28d8207a1567"}},{"fullUrl":"Bundle/60f82c2f98086b570510e2a6","resource":{"resourceType":"Bundle","id":"60f82c2f98086b570510e2a6","type":"transaction","entry":[{"fullUrl":"https://madie.cms.gov/Patient/036c2c6b-c5b7-4e1f-8a85-ac0787e3a15d","resource":{"resourceType":"Patient","id":"036c2c6b-c5b7-4e1f-8a85-ac0787e3a15d","meta":{"profile":["http://hl7.org/fhir/us/qicore/StructureDefinition/qicore-patient"]},"text":{"status":"generated","div":"<div xmlns=\"http://www.w3.org/1999/xhtml\"><div class=\"hapiHeaderText\">LowINRDayOfEncStart_NoEDNoObsBFEncDayOf <b>DENEXFAIL </b></div><table class=\"hapiPropertyTable\"><tbody><tr><td>Identifier</td><td>10c7f70e4cd70973731e86c309e8b6a062eba3f3b6c0ee06101848d8dd42fe3a</td></tr><tr><td>Date of birth</td><td><span>26 September 1975</span></td></tr></tbody></table></div>"},"extension":[{"url":"http://hl7.org/fhir/us/core/StructureDefinition/us-core-race","extension":[{"url":"ombCategory","valueCoding":{"system":"urn:oid:2.16.840.1.113883.6.238","code":"2054-5","display":"Black or African American","userSelected":true}},{"url":"text","valueString":"Black or African American"}]},{"url":"http://hl7.org/fhir/us/core/StructureDefinition/us-core-ethnicity","extension":[{"url":"ombCategory","valueCoding":{"system":"urn:oid:2.16.840.1.113883.6.238","code":"2186-5","display":"Not Hispanic or Latino","userSelected":true}},{"url":"text","valueString":"Not Hispanic or Latino"}]}],"identifier":[{"type":{"coding":[{"system":"http://terminology.hl7.org/CodeSystem/v2-0203","code":"MR"}]},"system":"https://bonnie-fhir.healthit.gov/","value":"60f82c2f98086b570510e2a6"}],"active":true,"name":[{"use":"usual","family":"DENEXFail","given":["LowINRDayOfEncStartNoEDNoObsBFEncDayOf"]}],"gender":"female","birthDate":"1976-09-26"},"request":{"method":"PUT","url":"Patient/036c2c6b-c5b7-4e1f-8a85-ac0787e3a15d"}},{"fullUrl":"https://madie.cms.gov/Encounter/25ae148e-0e44-4c7f-8613-11ba95cdaeeb","resource":{"resourceType":"Encounter","id":"25ae148e-0e44-4c7f-8613-11ba95cdaeeb","meta":{"profile":["http://hl7.org/fhir/us/qicore/StructureDefinition/qicore-encounter"]},"status":"finished","class":{"system":"http://terminology.hl7.org/CodeSystem/v3-ActCode","code":"IMP","display":"inpatient encounter","userSelected":true},"type":[{"coding":[{"system":"http://snomed.info/sct","code":"32485007"}]}],"subject":{"reference":"Patient/036c2c6b-c5b7-4e1f-8a85-ac0787e3a15d"},"period":{"start":"2026-10-10T06:15:00Z","end":"2026-10-15T11:30:00.000+00:00"},"length":{"value":5,"unit":"days"},"reasonReference":[{"reference":"Condition/09e22b5e-eb9f-469a-92ec-5969b349e1b3"}]},"request":{"method":"PUT","url":"Encounter/25ae148e-0e44-4c7f-8613-11ba95cdaeeb"}},{"fullUrl":"https://madie.cms.gov/Observation/1ba76af7-d9ce-415b-a4c5-573e4a959ff1","resource":{"resourceType":"Observation","id":"1ba76af7-d9ce-415b-a4c5-573e4a959ff1","meta":{"profile":["http://hl7.org/fhir/us/qicore/StructureDefinition/qicore-observation-lab"]},"status":"final","category":[{"coding":[{"system":"http://terminology.hl7.org/CodeSystem/observation-category","code":"laboratory","display":"Laboratory"}]}],"code":{"coding":[{"system":"http://loinc.org","code":"34714-6"}]},"subject":{"reference":"Patient/036c2c6b-c5b7-4e1f-8a85-ac0787e3a15d"},"effectivePeriod":{"start":"2026-10-10T06:15:00Z"},"issued":"2026-10-10T06:30:00.000+00:00","valueQuantity":{"value":3.5}},"request":{"method":"PUT","url":"Observation/1ba76af7-d9ce-415b-a4c5-573e4a959ff1"}},{"fullUrl":"https://madie.cms.gov/Coverage/52ee5771-d47f-44ef-96ec-c8303c1b10a5","resource":{"resourceType":"Coverage","id":"52ee5771-d47f-44ef-96ec-c8303c1b10a5","status":"active","beneficiary":{"reference":"Patient/036c2c6b-c5b7-4e1f-8a85-ac0787e3a15d"},"period":{"start":"1976-09-26T08:00:00Z"},"payor":[{"reference":"Organization/466d318a-88a8-4e47-9a0c-b0534c945227"}]},"request":{"method":"PUT","url":"Coverage/52ee5771-d47f-44ef-96ec-c8303c1b10a5"}},{"fullUrl":"https://madie.cms.gov/Condition/09e22b5e-eb9f-469a-92ec-5969b349e1b3","resource":{"resourceType":"Condition","id":"09e22b5e-eb9f-469a-92ec-5969b349e1b3","meta":{"profile":["http://hl7.org/fhir/us/qicore/StructureDefinition/qicore-condition-encounter-diagnosis"]},"clinicalStatus":{"coding":[{"system":"http://terminology.hl7.org/CodeSystem/condition-clinical","code":"active"}]},"verificationStatus":{"coding":[{"system":"http://terminology.hl7.org/CodeSystem/condition-ver-status","code":"confirmed"}]},"category":[{"coding":[{"system":"http://terminology.hl7.org/CodeSystem/condition-category","code":"encounter-diagnosis","display":"Encounter Diagnosis"}]}],"code":{"coding":[{"system":"http://snomed.info/sct","version":"2020-09","code":"111297002","display":"Nonparalytic stroke (disorder)","userSelected":true}]},"subject":{"reference":"Patient/036c2c6b-c5b7-4e1f-8a85-ac0787e3a15d"},"encounter":{"reference":"Encounter/25ae148e-0e44-4c7f-8613-11ba95cdaeeb"},"recordedDate":"2026-08-12T08:00:00Z"},"request":{"method":"PUT","url":"Condition/09e22b5e-eb9f-469a-92ec-5969b349e1b3"}},{"fullUrl":"https://madie.cms.gov/claim/5ca62962b8484628b8de1ec5","resource":{"resourceType":"Claim","id":"5ca62962b8484628b8de1ec5","meta":{"profile":["http://hl7.org/fhir/us/qicore/StructureDefinition/qicore-claim"]},"status":"active","type":{"coding":[{"system":"http://terminology.hl7.org/CodeSystem/claim-type","code":"institutional"}]},"use":"claim","patient":{"reference":"Patient/5450abfd-a667-4eb9-9b59-e85feed4865c"},"created":"2026-12-01","provider":{"reference":"Practitioner/practitioner-123456"},"priority":{"coding":[{"system":"http://terminology.hl7.org/CodeSystem/processpriority","code":"normal"}]},"diagnosis":[{"sequence":1,"diagnosisCodeableConcept":{"coding":[{"system":"http://hl7.org/fhir/sid/icd-10-cm","code":"I63.00"}]},"type":[{"coding":[{"system":"http://terminology.hl7.org/CodeSystem/ex-diagnosistype","code":"principal"}]}]}],"insurance":[{"sequence":1,"focal":true,"coverage":{"reference":"Coverage/5fa041661c76ba66d9959367"}}],"item":[{"sequence":1,"diagnosisSequence":[1],"productOrService":{"coding":[{"system":"http://terminology.hl7.org/CodeSystem/ex-USCLS","code":"99555"}]},"encounter":[{"reference":"Encounter/25ae148e-0e44-4c7f-8613-11ba95cdaeeb"}]}]},"request":{"method":"PUT","url":"Claim/5ca62962b8484628b8de1ec5"}},{"fullUrl":"https://madie.cms.gov/Organization/466d318a-88a8-4e47-9a0c-b0534c945227","resource":{"resourceType":"Organization","id":"466d318a-88a8-4e47-9a0c-b0534c945227","meta":{"profile":["http://hl7.org/fhir/us/qicore/StructureDefinition/qicore-organization"]},"identifier":[{"use":"temp","system":"urn:oid:2.16.840.1.113883.4.4","value":"21-3259825"}],"active":true,"type":[{"coding":[{"system":"http://terminology.hl7.org/CodeSystem/organization-type","code":"pay","display":"Payer"}]}],"name":"Blue Cross Blue Shield of Texas","telecom":[{"system":"phone","value":"(+1) 972-766-6900"}],"address":[{"use":"billing","type":"postal","line":["P.O. Box 660044"],"city":"Dallas","state":"TX","postalCode":"75266-0044","country":"USA"}]},"request":{"method":"PUT","url":"Organization/466d318a-88a8-4e47-9a0c-b0534c945227"}},{"fullUrl":"https://madie.cms.gov/MeasureReport/cd5bf254-b436-4a76-bf2d-28d8207a1567","resource":{"resourceType":"MeasureReport","id":"cd5bf254-b436-4a76-bf2d-28d8207a1567","meta":{"profile":["http://hl7.org/fhir/us/cqfmeasures/StructureDefinition/test-case-cqfm"]},"contained":[{"resourceType":"Parameters","id":"fa5ce450-322c-4008-b417-a2be26479f24-parameters","parameter":[{"name":"subject","valueString":"036c2c6b-c5b7-4e1f-8a85-ac0787e3a15d"}]}],"extension":[{"url":"http://hl7.org/fhir/StructureDefinition/cqf-inputParameters","valueReference":{"reference":"#fa5ce450-322c-4008-b417-a2be26479f24-parameters"}},{"url":"http://hl7.org/fhir/us/cqfmeasures/StructureDefinition/cqfm-testCaseDescription","valueMarkdown":"Patient receives INR of 3.5 the day of IP start. No ED. No Obs. negative test for lab value.\n"}],"modifierExtension":[{"url":"http://hl7.org/fhir/us/cqfmeasures/StructureDefinition/cqfm-isTestCase","valueBoolean":true}],"status":"complete","type":"individual","measure":"https://madie.cms.gov/Measure/CMS72FHIRSTKAntithromboticDay2","period":{"start":"2026-01-01","end":"2026-12-31"},"group":[{"id":"Group_1","population":[{"id":"InitialPopulation_1","code":{"coding":[{"system":"http://terminology.hl7.org/CodeSystem/measure-population","code":"initial-population","display":"Initial Population"}]},"count":1},{"id":"Denominator_1","code":{"coding":[{"system":"http://terminology.hl7.org/CodeSystem/measure-population","code":"denominator","display":"Denominator"}]},"count":1},{"id":"DenominatorExclusion_1","code":{"coding":[{"system":"http://terminology.hl7.org/CodeSystem/measure-population","code":"denominator-exclusion","display":"Denominator Exclusion"}]},"count":0},{"id":"Numerator_1","code":{"coding":[{"system":"http://terminology.hl7.org/CodeSystem/measure-population","code":"numerator","display":"Numerator"}]},"count":0},{"id":"DenominatorException_1","code":{"coding":[{"system":"http://terminology.hl7.org/CodeSystem/measure-population","code":"denominator-exception","display":"Denominator Exception"}]},"count":0}],"measureScore":{"value":0.0}}],"evaluatedResource":[{"reference":"Patient/036c2c6b-c5b7-4e1f-8a85-ac0787e3a15d"},{"reference":"Encounter/25ae148e-0e44-4c7f-8613-11ba95cdaeeb"},{"reference":"Observation/1ba76af7-d9ce-415b-a4c5-573e4a959ff1"},{"reference":"Coverage/52ee5771-d47f-44ef-96ec-c8303c1b10a5"},{"reference":"Condition/09e22b5e-eb9f-469a-92ec-5969b349e1b3"},{"reference":"Claim/5ca62962b8484628b8de1ec5"},{"reference":"Organization/466d318a-88a8-4e47-9a0c-b0534c945227"}]},"request":{"method":"PUT","url":"MeasureReport/cd5bf254-b436-4a76-bf2d-28d8207a1567"}}]},"request":{"method":"PUT","url":"Bundle/60f82c2f98086b570510e2a6"}},{"fullUrl":"Observation/1ba76af7-d9ce-415b-a4c5-573e4a959ff1","resource":{"resourceType":"Observation","id":"1ba76af7-d9ce-415b-a4c5-573e4a959ff1","meta":{"profile":["http://hl7.org/fhir/us/qicore/StructureDefinition/qicore-observation-lab"]},"status":"final","category":[{"coding":[{"system":"http://terminology.hl7.org/CodeSystem/observation-category","code":"laboratory","display":"Laboratory"}]}],"code":{"coding":[{"system":"http://loinc.org","code":"34714-6"}]},"subject":{"reference":"Patient/036c2c6b-c5b7-4e1f-8a85-ac0787e3a15d"},"effectivePeriod":{"start":"2026-10-10T06:15:00Z"},"issued":"2026-10-10T06:30:00.000+00:00","valueQuantity":{"value":3.5}},"request":{"method":"PUT","url":"Observation/1ba76af7-d9ce-415b-a4c5-573e4a959ff1"}},{"fullUrl":"Organization/466d318a-88a8-4e47-9a0c-b0534c945227","resource":{"resourceType":"Organization","id":"466d318a-88a8-4e47-9a0c-b0534c945227","meta":{"profile":["http://hl7.org/fhir/us/qicore/StructureDefinition/qicore-organization"]},"identifier":[{"use":"temp","system":"urn:oid:2.16.840.1.113883.4.4","value":"21-3259825"}],"active":true,"type":[{"coding":[{"system":"http://terminology.hl7.org/CodeSystem/organization-type","code":"pay","display":"Payer"}]}],"name":"Blue Cross Blue Shield of Texas","telecom":[{"system":"phone","value":"(+1) 972-766-6900"}],"address":[{"use":"billing","type":"postal","line":["P.O. Box 660044"],"city":"Dallas","state":"TX","postalCode":"75266-0044","country":"USA"}]},"request":{"method":"PUT","url":"Organization/466d318a-88a8-4e47-9a0c-b0534c945227"}},{"fullUrl":"Claim/5ca62962b8484628b8de1ec5","resource":{"resourceType":"Claim","id":"5ca62962b8484628b8de1ec5","meta":{"profile":["http://hl7.org/fhir/us/qicore/StructureDefinition/qicore-claim"]},"status":"active","type":{"coding":[{"system":"http://terminology.hl7.org/CodeSystem/claim-type","code":"institutional"}]},"use":"claim","patient":{"reference":"Patient/5450abfd-a667-4eb9-9b59-e85feed4865c"},"created":"2026-12-01","provider":{"reference":"Practitioner/practitioner-123456"},"priority":{"coding":[{"system":"http://terminology.hl7.org/CodeSystem/processpriority","code":"normal"}]},"diagnosis":[{"sequence":1,"diagnosisCodeableConcept":{"coding":[{"system":"http://hl7.org/fhir/sid/icd-10-cm","code":"I63.00"}]},"type":[{"coding":[{"system":"http://terminology.hl7.org/CodeSystem/ex-diagnosistype","code":"principal"}]}]}],"insurance":[{"sequence":1,"focal":true,"coverage":{"reference":"Coverage/5fa041661c76ba66d9959367"}}],"item":[{"sequence":1,"diagnosisSequence":[1],"productOrService":{"coding":[{"system":"http://terminology.hl7.org/CodeSystem/ex-USCLS","code":"99555"}]},"encounter":[{"reference":"Encounter/25ae148e-0e44-4c7f-8613-11ba95cdaeeb"}]}]},"request":{"method":"PUT","url":"Claim/5ca62962b8484628b8de1ec5"}}]}