{"resourceType":"Bundle","id":"tests-7ce35cc8-ed8f-46f0-9ba1-8421a760bdc8-bundle","type":"transaction","entry":[{"resource":{"resourceType":"Patient","id":"7ce35cc8-ed8f-46f0-9ba1-8421a760bdc8","meta":{"profile":["http://hl7.org/fhir/us/qicore/StructureDefinition/qicore-patient"]},"text":{"status":"generated","div":"<div xmlns=\"http://www.w3.org/1999/xhtml\"><div class=\"hapiHeaderText\">INRLT 3.5 <b>DENEXCEPFAIL </b></div><table class=\"hapiPropertyTable\"><tbody><tr><td>Identifier</td><td>36da7e23752b0599c01f365f64faeac2d8a3ce23e2fa8806ca95b596be410b21</td></tr><tr><td>Date of birth</td><td><span>26 September 1975</span></td></tr></tbody></table></div>"},"extension":[{"url":"http://hl7.org/fhir/us/core/StructureDefinition/us-core-race","extension":[{"url":"ombCategory","valueCoding":{"system":"urn:oid:2.16.840.1.113883.6.238","code":"2054-5","display":"Black or African American","userSelected":true}},{"url":"text","valueString":"Black or African American"}]},{"url":"http://hl7.org/fhir/us/core/StructureDefinition/us-core-ethnicity","extension":[{"url":"ombCategory","valueCoding":{"system":"urn:oid:2.16.840.1.113883.6.238","code":"2186-5","display":"Not Hispanic or Latino","userSelected":true}},{"url":"text","valueString":"Not Hispanic or Latino"}]}],"identifier":[{"type":{"coding":[{"system":"http://terminology.hl7.org/CodeSystem/v2-0203","code":"MR"}]},"system":"https://bonnie-fhir.healthit.gov/","value":"60f82c2f98086b570510e2c1"}],"active":true,"name":[{"use":"usual","family":"DENEXCEPFail","given":["INRLT 3.5"]}],"gender":"female","birthDate":"1976-09-26"},"request":{"method":"PUT","url":"Patient/7ce35cc8-ed8f-46f0-9ba1-8421a760bdc8"}},{"resource":{"resourceType":"MeasureReport","id":"4c008e63-5c93-4238-a510-a6de47fa0ce2","meta":{"profile":["http://hl7.org/fhir/us/cqfmeasures/StructureDefinition/test-case-cqfm"]},"contained":[{"resourceType":"Parameters","id":"75ed846b-8faf-4446-aefa-0694c1dd6c36-parameters","parameter":[{"name":"subject","valueString":"7ce35cc8-ed8f-46f0-9ba1-8421a760bdc8"}]}],"extension":[{"url":"http://hl7.org/fhir/StructureDefinition/cqf-inputParameters","valueReference":{"reference":"#75ed846b-8faf-4446-aefa-0694c1dd6c36-parameters"}},{"url":"http://hl7.org/fhir/us/cqfmeasures/StructureDefinition/cqfm-testCaseDescription","valueMarkdown":"Patient receives INR of less than 3.5 the day of IP start. No ED. No Obs. negative test for lab value.\n"}],"modifierExtension":[{"url":"http://hl7.org/fhir/us/cqfmeasures/StructureDefinition/cqfm-isTestCase","valueBoolean":true}],"status":"complete","type":"individual","measure":"https://madie.cms.gov/Measure/CMS72FHIRSTKAntithromboticDay2","period":{"start":"2026-01-01","end":"2026-12-31"},"group":[{"id":"Group_1","population":[{"id":"InitialPopulation_1","code":{"coding":[{"system":"http://terminology.hl7.org/CodeSystem/measure-population","code":"initial-population","display":"Initial Population"}]},"count":1},{"id":"Denominator_1","code":{"coding":[{"system":"http://terminology.hl7.org/CodeSystem/measure-population","code":"denominator","display":"Denominator"}]},"count":1},{"id":"DenominatorExclusion_1","code":{"coding":[{"system":"http://terminology.hl7.org/CodeSystem/measure-population","code":"denominator-exclusion","display":"Denominator Exclusion"}]},"count":0},{"id":"Numerator_1","code":{"coding":[{"system":"http://terminology.hl7.org/CodeSystem/measure-population","code":"numerator","display":"Numerator"}]},"count":0},{"id":"DenominatorException_1","code":{"coding":[{"system":"http://terminology.hl7.org/CodeSystem/measure-population","code":"denominator-exception","display":"Denominator Exception"}]},"count":0}],"measureScore":{"value":0.0}}],"evaluatedResource":[{"reference":"Patient/7ce35cc8-ed8f-46f0-9ba1-8421a760bdc8"},{"reference":"Encounter/51d4c9d9-c8b4-4848-979a-97a64553fbf1"},{"reference":"Claim/5ca62962b8484628b8de1ec5"},{"reference":"Observation/3fdf8f82-8bc8-4811-a5b2-f6505c930a93"},{"reference":"Coverage/b5b76b23-6697-4410-bbaa-b56e7611d2ee"},{"reference":"Condition/81a7789a-5f22-4015-98d2-def2396f815a"},{"reference":"Organization/25138b08-4308-40cc-9ad1-d2517d2c8e88"}]},"request":{"method":"PUT","url":"MeasureReport/4c008e63-5c93-4238-a510-a6de47fa0ce2"}},{"resource":{"resourceType":"Coverage","id":"b5b76b23-6697-4410-bbaa-b56e7611d2ee","status":"active","subscriberId":"523435","beneficiary":{"reference":"Patient/7ce35cc8-ed8f-46f0-9ba1-8421a760bdc8"},"relationship":{"coding":[{"system":"http://terminology.hl7.org/CodeSystem/subscriber-relationship","code":"self"}]},"period":{"start":"1976-09-26T08:00:00Z"},"payor":[{"reference":"Organization/25138b08-4308-40cc-9ad1-d2517d2c8e88"}]},"request":{"method":"PUT","url":"Coverage/b5b76b23-6697-4410-bbaa-b56e7611d2ee"}},{"resource":{"resourceType":"Condition","id":"81a7789a-5f22-4015-98d2-def2396f815a","meta":{"profile":["http://hl7.org/fhir/us/qicore/StructureDefinition/qicore-condition"]},"clinicalStatus":{"coding":[{"system":"http://terminology.hl7.org/CodeSystem/condition-clinical","code":"active"}]},"verificationStatus":{"coding":[{"system":"http://terminology.hl7.org/CodeSystem/condition-ver-status","code":"confirmed"}]},"category":[{"coding":[{"system":"http://terminology.hl7.org/CodeSystem/condition-category","code":"encounter-diagnosis","display":"Encounter Diagnosis"}]}],"code":{"coding":[{"system":"http://snomed.info/sct","version":"2020-09","code":"111297002","display":"Nonparalytic stroke (disorder)","userSelected":true}]},"subject":{"reference":"Patient/7ce35cc8-ed8f-46f0-9ba1-8421a760bdc8"},"recordedDate":"2026-07-28T08:00:00Z"},"request":{"method":"PUT","url":"Condition/81a7789a-5f22-4015-98d2-def2396f815a"}},{"resource":{"resourceType":"Encounter","id":"51d4c9d9-c8b4-4848-979a-97a64553fbf1","meta":{"profile":["http://hl7.org/fhir/us/qicore/StructureDefinition/qicore-encounter"]},"status":"finished","class":{"system":"http://terminology.hl7.org/CodeSystem/v3-ActCode","code":"IMP","display":"inpatient encounter","userSelected":true},"type":[{"coding":[{"system":"http://snomed.info/sct","code":"32485007"}]}],"subject":{"reference":"Patient/7ce35cc8-ed8f-46f0-9ba1-8421a760bdc8"},"period":{"start":"2026-10-10T06:15:00Z","end":"2026-10-15T11:30:00.000+00:00"},"length":{"value":5,"unit":"days"},"reasonReference":[{"reference":"Condition/81a7789a-5f22-4015-98d2-def2396f815a"}]},"request":{"method":"PUT","url":"Encounter/51d4c9d9-c8b4-4848-979a-97a64553fbf1"}},{"resource":{"resourceType":"Bundle","id":"60f82c2f98086b570510e2c1","type":"transaction","entry":[{"fullUrl":"https://madie.cms.gov/Patient/7ce35cc8-ed8f-46f0-9ba1-8421a760bdc8","resource":{"resourceType":"Patient","id":"7ce35cc8-ed8f-46f0-9ba1-8421a760bdc8","meta":{"profile":["http://hl7.org/fhir/us/qicore/StructureDefinition/qicore-patient"]},"text":{"status":"generated","div":"<div xmlns=\"http://www.w3.org/1999/xhtml\"><div class=\"hapiHeaderText\">INRLT 3.5 <b>DENEXCEPFAIL </b></div><table class=\"hapiPropertyTable\"><tbody><tr><td>Identifier</td><td>36da7e23752b0599c01f365f64faeac2d8a3ce23e2fa8806ca95b596be410b21</td></tr><tr><td>Date of birth</td><td><span>26 September 1975</span></td></tr></tbody></table></div>"},"extension":[{"url":"http://hl7.org/fhir/us/core/StructureDefinition/us-core-race","extension":[{"url":"ombCategory","valueCoding":{"system":"urn:oid:2.16.840.1.113883.6.238","code":"2054-5","display":"Black or African American","userSelected":true}},{"url":"text","valueString":"Black or African American"}]},{"url":"http://hl7.org/fhir/us/core/StructureDefinition/us-core-ethnicity","extension":[{"url":"ombCategory","valueCoding":{"system":"urn:oid:2.16.840.1.113883.6.238","code":"2186-5","display":"Not Hispanic or Latino","userSelected":true}},{"url":"text","valueString":"Not Hispanic or Latino"}]}],"identifier":[{"type":{"coding":[{"system":"http://terminology.hl7.org/CodeSystem/v2-0203","code":"MR"}]},"system":"https://bonnie-fhir.healthit.gov/","value":"60f82c2f98086b570510e2c1"}],"active":true,"name":[{"use":"usual","family":"DENEXCEPFail","given":["INRLT 3.5"]}],"gender":"female","birthDate":"1976-09-26"},"request":{"method":"PUT","url":"Patient/7ce35cc8-ed8f-46f0-9ba1-8421a760bdc8"}},{"fullUrl":"https://madie.cms.gov/Encounter/51d4c9d9-c8b4-4848-979a-97a64553fbf1","resource":{"resourceType":"Encounter","id":"51d4c9d9-c8b4-4848-979a-97a64553fbf1","meta":{"profile":["http://hl7.org/fhir/us/qicore/StructureDefinition/qicore-encounter"]},"status":"finished","class":{"system":"http://terminology.hl7.org/CodeSystem/v3-ActCode","code":"IMP","display":"inpatient encounter","userSelected":true},"type":[{"coding":[{"system":"http://snomed.info/sct","code":"32485007"}]}],"subject":{"reference":"Patient/7ce35cc8-ed8f-46f0-9ba1-8421a760bdc8"},"period":{"start":"2026-10-10T06:15:00Z","end":"2026-10-15T11:30:00.000+00:00"},"length":{"value":5,"unit":"days"},"reasonReference":[{"reference":"Condition/81a7789a-5f22-4015-98d2-def2396f815a"}]},"request":{"method":"PUT","url":"Encounter/51d4c9d9-c8b4-4848-979a-97a64553fbf1"}},{"fullUrl":"https://madie.cms.gov/claim/5ca62962b8484628b8de1ec5","resource":{"resourceType":"Claim","id":"5ca62962b8484628b8de1ec5","meta":{"profile":["http://hl7.org/fhir/us/qicore/StructureDefinition/qicore-claim"]},"status":"active","type":{"coding":[{"system":"http://terminology.hl7.org/CodeSystem/claim-type","code":"institutional"}]},"use":"claim","patient":{"reference":"Patient/d170a0a8-b5ad-4303-b6df-e304dd5f92ad"},"created":"2026-12-01","provider":{"reference":"Practitioner/practitioner-123456"},"priority":{"coding":[{"system":"http://terminology.hl7.org/CodeSystem/processpriority","code":"normal"}]},"diagnosis":[{"sequence":1,"diagnosisCodeableConcept":{"coding":[{"system":"http://hl7.org/fhir/sid/icd-10-cm","code":"I63.00"}]},"type":[{"coding":[{"system":"http://terminology.hl7.org/CodeSystem/ex-diagnosistype","code":"principal"}]}]}],"insurance":[{"sequence":1,"focal":true,"coverage":{"reference":"Coverage/5fa041661c76ba66d9959367"}}],"item":[{"sequence":1,"diagnosisSequence":[1],"productOrService":{"coding":[{"system":"http://terminology.hl7.org/CodeSystem/ex-USCLS","code":"99555"}]},"encounter":[{"reference":"Encounter/51d4c9d9-c8b4-4848-979a-97a64553fbf1"}]}]},"request":{"method":"PUT","url":"Claim/5ca62962b8484628b8de1ec5"}},{"fullUrl":"https://madie.cms.gov/Observation/3fdf8f82-8bc8-4811-a5b2-f6505c930a93","resource":{"resourceType":"Observation","id":"3fdf8f82-8bc8-4811-a5b2-f6505c930a93","meta":{"profile":["http://hl7.org/fhir/us/qicore/StructureDefinition/qicore-observation-lab"]},"status":"final","category":[{"coding":[{"system":"http://terminology.hl7.org/CodeSystem/observation-category","code":"laboratory","display":"Laboratory"}]}],"code":{"coding":[{"system":"http://loinc.org","code":"34714-6"}]},"subject":{"reference":"Patient/7ce35cc8-ed8f-46f0-9ba1-8421a760bdc8"},"effectiveDateTime":"2026-10-10T06:15:00Z","issued":"2026-10-10T06:30:00.000+00:00","valueQuantity":{"value":3.4}},"request":{"method":"PUT","url":"Observation/3fdf8f82-8bc8-4811-a5b2-f6505c930a93"}},{"fullUrl":"https://madie.cms.gov/Coverage/b5b76b23-6697-4410-bbaa-b56e7611d2ee","resource":{"resourceType":"Coverage","id":"b5b76b23-6697-4410-bbaa-b56e7611d2ee","status":"active","subscriberId":"523435","beneficiary":{"reference":"Patient/7ce35cc8-ed8f-46f0-9ba1-8421a760bdc8"},"relationship":{"coding":[{"system":"http://terminology.hl7.org/CodeSystem/subscriber-relationship","code":"self"}]},"period":{"start":"1976-09-26T08:00:00Z"},"payor":[{"reference":"Organization/25138b08-4308-40cc-9ad1-d2517d2c8e88"}]},"request":{"method":"PUT","url":"Coverage/b5b76b23-6697-4410-bbaa-b56e7611d2ee"}},{"fullUrl":"https://madie.cms.gov/Condition/81a7789a-5f22-4015-98d2-def2396f815a","resource":{"resourceType":"Condition","id":"81a7789a-5f22-4015-98d2-def2396f815a","meta":{"profile":["http://hl7.org/fhir/us/qicore/StructureDefinition/qicore-condition"]},"clinicalStatus":{"coding":[{"system":"http://terminology.hl7.org/CodeSystem/condition-clinical","code":"active"}]},"verificationStatus":{"coding":[{"system":"http://terminology.hl7.org/CodeSystem/condition-ver-status","code":"confirmed"}]},"category":[{"coding":[{"system":"http://terminology.hl7.org/CodeSystem/condition-category","code":"encounter-diagnosis","display":"Encounter Diagnosis"}]}],"code":{"coding":[{"system":"http://snomed.info/sct","version":"2020-09","code":"111297002","display":"Nonparalytic stroke (disorder)","userSelected":true}]},"subject":{"reference":"Patient/7ce35cc8-ed8f-46f0-9ba1-8421a760bdc8"},"recordedDate":"2026-07-28T08:00:00Z"},"request":{"method":"PUT","url":"Condition/81a7789a-5f22-4015-98d2-def2396f815a"}},{"fullUrl":"https://madie.cms.gov/Organization/25138b08-4308-40cc-9ad1-d2517d2c8e88","resource":{"resourceType":"Organization","id":"25138b08-4308-40cc-9ad1-d2517d2c8e88","meta":{"profile":["http://hl7.org/fhir/us/qicore/StructureDefinition/qicore-organization"]},"identifier":[{"use":"temp","system":"urn:oid:2.16.840.1.113883.4.4","value":"21-3259825"}],"active":true,"type":[{"coding":[{"system":"http://terminology.hl7.org/CodeSystem/organization-type","code":"pay","display":"Payer"}]}],"name":"Blue Cross Blue Shield of Texas","telecom":[{"system":"phone","value":"(+1) 972-766-6900"}],"address":[{"use":"billing","type":"postal","line":["P.O. Box 660044"],"city":"Dallas","state":"TX","postalCode":"75266-0044","country":"USA"}]},"request":{"method":"PUT","url":"Organization/25138b08-4308-40cc-9ad1-d2517d2c8e88"}},{"fullUrl":"https://madie.cms.gov/MeasureReport/4c008e63-5c93-4238-a510-a6de47fa0ce2","resource":{"resourceType":"MeasureReport","id":"4c008e63-5c93-4238-a510-a6de47fa0ce2","meta":{"profile":["http://hl7.org/fhir/us/cqfmeasures/StructureDefinition/test-case-cqfm"]},"contained":[{"resourceType":"Parameters","id":"75ed846b-8faf-4446-aefa-0694c1dd6c36-parameters","parameter":[{"name":"subject","valueString":"7ce35cc8-ed8f-46f0-9ba1-8421a760bdc8"}]}],"extension":[{"url":"http://hl7.org/fhir/StructureDefinition/cqf-inputParameters","valueReference":{"reference":"#75ed846b-8faf-4446-aefa-0694c1dd6c36-parameters"}},{"url":"http://hl7.org/fhir/us/cqfmeasures/StructureDefinition/cqfm-testCaseDescription","valueMarkdown":"Patient receives INR of less than 3.5 the day of IP start. No ED. No Obs. negative test for lab value.\n"}],"modifierExtension":[{"url":"http://hl7.org/fhir/us/cqfmeasures/StructureDefinition/cqfm-isTestCase","valueBoolean":true}],"status":"complete","type":"individual","measure":"https://madie.cms.gov/Measure/CMS72FHIRSTKAntithromboticDay2","period":{"start":"2026-01-01","end":"2026-12-31"},"group":[{"id":"Group_1","population":[{"id":"InitialPopulation_1","code":{"coding":[{"system":"http://terminology.hl7.org/CodeSystem/measure-population","code":"initial-population","display":"Initial Population"}]},"count":1},{"id":"Denominator_1","code":{"coding":[{"system":"http://terminology.hl7.org/CodeSystem/measure-population","code":"denominator","display":"Denominator"}]},"count":1},{"id":"DenominatorExclusion_1","code":{"coding":[{"system":"http://terminology.hl7.org/CodeSystem/measure-population","code":"denominator-exclusion","display":"Denominator Exclusion"}]},"count":0},{"id":"Numerator_1","code":{"coding":[{"system":"http://terminology.hl7.org/CodeSystem/measure-population","code":"numerator","display":"Numerator"}]},"count":0},{"id":"DenominatorException_1","code":{"coding":[{"system":"http://terminology.hl7.org/CodeSystem/measure-population","code":"denominator-exception","display":"Denominator Exception"}]},"count":0}],"measureScore":{"value":0.0}}],"evaluatedResource":[{"reference":"Patient/7ce35cc8-ed8f-46f0-9ba1-8421a760bdc8"},{"reference":"Encounter/51d4c9d9-c8b4-4848-979a-97a64553fbf1"},{"reference":"Claim/5ca62962b8484628b8de1ec5"},{"reference":"Observation/3fdf8f82-8bc8-4811-a5b2-f6505c930a93"},{"reference":"Coverage/b5b76b23-6697-4410-bbaa-b56e7611d2ee"},{"reference":"Condition/81a7789a-5f22-4015-98d2-def2396f815a"},{"reference":"Organization/25138b08-4308-40cc-9ad1-d2517d2c8e88"}]},"request":{"method":"PUT","url":"MeasureReport/4c008e63-5c93-4238-a510-a6de47fa0ce2"}}]},"request":{"method":"PUT","url":"Bundle/60f82c2f98086b570510e2c1"}},{"resource":{"resourceType":"Observation","id":"3fdf8f82-8bc8-4811-a5b2-f6505c930a93","meta":{"profile":["http://hl7.org/fhir/us/qicore/StructureDefinition/qicore-observation-lab"]},"status":"final","category":[{"coding":[{"system":"http://terminology.hl7.org/CodeSystem/observation-category","code":"laboratory","display":"Laboratory"}]}],"code":{"coding":[{"system":"http://loinc.org","code":"34714-6"}]},"subject":{"reference":"Patient/7ce35cc8-ed8f-46f0-9ba1-8421a760bdc8"},"effectiveDateTime":"2026-10-10T06:15:00Z","issued":"2026-10-10T06:30:00.000+00:00","valueQuantity":{"value":3.4}},"request":{"method":"PUT","url":"Observation/3fdf8f82-8bc8-4811-a5b2-f6505c930a93"}},{"resource":{"resourceType":"Organization","id":"25138b08-4308-40cc-9ad1-d2517d2c8e88","meta":{"profile":["http://hl7.org/fhir/us/qicore/StructureDefinition/qicore-organization"]},"identifier":[{"use":"temp","system":"urn:oid:2.16.840.1.113883.4.4","value":"21-3259825"}],"active":true,"type":[{"coding":[{"system":"http://terminology.hl7.org/CodeSystem/organization-type","code":"pay","display":"Payer"}]}],"name":"Blue Cross Blue Shield of Texas","telecom":[{"system":"phone","value":"(+1) 972-766-6900"}],"address":[{"use":"billing","type":"postal","line":["P.O. Box 660044"],"city":"Dallas","state":"TX","postalCode":"75266-0044","country":"USA"}]},"request":{"method":"PUT","url":"Organization/25138b08-4308-40cc-9ad1-d2517d2c8e88"}},{"resource":{"resourceType":"Claim","id":"5ca62962b8484628b8de1ec5","meta":{"profile":["http://hl7.org/fhir/us/qicore/StructureDefinition/qicore-claim"]},"status":"active","type":{"coding":[{"system":"http://terminology.hl7.org/CodeSystem/claim-type","code":"institutional"}]},"use":"claim","patient":{"reference":"Patient/d170a0a8-b5ad-4303-b6df-e304dd5f92ad"},"created":"2026-12-01","provider":{"reference":"Practitioner/practitioner-123456"},"priority":{"coding":[{"system":"http://terminology.hl7.org/CodeSystem/processpriority","code":"normal"}]},"diagnosis":[{"sequence":1,"diagnosisCodeableConcept":{"coding":[{"system":"http://hl7.org/fhir/sid/icd-10-cm","code":"I63.00"}]},"type":[{"coding":[{"system":"http://terminology.hl7.org/CodeSystem/ex-diagnosistype","code":"principal"}]}]}],"insurance":[{"sequence":1,"focal":true,"coverage":{"reference":"Coverage/5fa041661c76ba66d9959367"}}],"item":[{"sequence":1,"diagnosisSequence":[1],"productOrService":{"coding":[{"system":"http://terminology.hl7.org/CodeSystem/ex-USCLS","code":"99555"}]},"encounter":[{"reference":"Encounter/51d4c9d9-c8b4-4848-979a-97a64553fbf1"}]}]},"request":{"method":"PUT","url":"Claim/5ca62962b8484628b8de1ec5"}}]}