{"resourceType":"Bundle","id":"tests-9a8c51a0-bf53-42b6-927d-c1f90b81a31a-bundle","type":"transaction","entry":[{"fullUrl":"Organization/88484785-be4b-498a-90e0-ac41335ac74e","resource":{"resourceType":"Organization","id":"88484785-be4b-498a-90e0-ac41335ac74e","meta":{"profile":["http://hl7.org/fhir/us/qicore/StructureDefinition/qicore-organization"]},"identifier":[{"use":"temp","system":"urn:oid:2.16.840.1.113883.4.4","value":"21-3259825"}],"active":true,"type":[{"coding":[{"system":"http://terminology.hl7.org/CodeSystem/organization-type","code":"pay","display":"Payer"}]}],"name":"Blue Cross Blue Shield of Texas","telecom":[{"system":"phone","value":"(+1) 972-766-6900"}],"address":[{"use":"billing","type":"postal","line":["P.O. Box 660044"],"city":"Dallas","state":"TX","postalCode":"75266-0044","country":"USA"}]},"request":{"method":"PUT","url":"Organization/88484785-be4b-498a-90e0-ac41335ac74e"}},{"fullUrl":"MeasureReport/21a6224f-8f01-43f1-8fb6-d59ae8ee0fd6","resource":{"resourceType":"MeasureReport","id":"21a6224f-8f01-43f1-8fb6-d59ae8ee0fd6","meta":{"profile":["http://hl7.org/fhir/us/cqfmeasures/StructureDefinition/test-case-cqfm"]},"contained":[{"resourceType":"Parameters","id":"e223bdc0-c698-4b56-805c-6bc18a92512a-parameters","parameter":[{"name":"subject","valueString":"9a8c51a0-bf53-42b6-927d-c1f90b81a31a"}]}],"extension":[{"url":"http://hl7.org/fhir/StructureDefinition/cqf-inputParameters","valueReference":{"reference":"#e223bdc0-c698-4b56-805c-6bc18a92512a-parameters"}},{"url":"http://hl7.org/fhir/us/cqfmeasures/StructureDefinition/cqfm-testCaseDescription","valueMarkdown":"Patient has  ED Visit = 1 hour ends before IP encounter and starts = 2 days before end of IP , global.Hospitalization ( = Ed +IP)\n"}],"modifierExtension":[{"url":"http://hl7.org/fhir/us/cqfmeasures/StructureDefinition/cqfm-isTestCase","valueBoolean":true}],"status":"complete","type":"individual","measure":"https://madie.cms.gov/Measure/CMS72FHIRSTKAntithromboticDay2","period":{"start":"2026-01-01","end":"2026-12-31"},"group":[{"id":"Group_1","population":[{"id":"InitialPopulation_1","code":{"coding":[{"system":"http://terminology.hl7.org/CodeSystem/measure-population","code":"initial-population","display":"Initial Population"}]},"count":1},{"id":"Denominator_1","code":{"coding":[{"system":"http://terminology.hl7.org/CodeSystem/measure-population","code":"denominator","display":"Denominator"}]},"count":1},{"id":"DenominatorExclusion_1","code":{"coding":[{"system":"http://terminology.hl7.org/CodeSystem/measure-population","code":"denominator-exclusion","display":"Denominator Exclusion"}]},"count":0},{"id":"Numerator_1","code":{"coding":[{"system":"http://terminology.hl7.org/CodeSystem/measure-population","code":"numerator","display":"Numerator"}]},"count":0},{"id":"DenominatorException_1","code":{"coding":[{"system":"http://terminology.hl7.org/CodeSystem/measure-population","code":"denominator-exception","display":"Denominator Exception"}]},"count":0}],"measureScore":{"value":0.0}}],"evaluatedResource":[{"reference":"Patient/9a8c51a0-bf53-42b6-927d-c1f90b81a31a"},{"reference":"Encounter/38e4d1c8-43d4-4085-97c7-5b625685aeec"},{"reference":"Encounter/6a101965-5445-4da2-bbeb-529e8d82478b"},{"reference":"Coverage/73220265-801c-4994-8403-f140a802622e"},{"reference":"Condition/f3c7237e-2494-4f78-b140-658c9c57d12b"},{"reference":"Claim/5ca62962b8484628b8de1ec5"},{"reference":"Organization/88484785-be4b-498a-90e0-ac41335ac74e"}]},"request":{"method":"PUT","url":"MeasureReport/21a6224f-8f01-43f1-8fb6-d59ae8ee0fd6"}},{"fullUrl":"Bundle/60f82c2e98086b570510e27e","resource":{"resourceType":"Bundle","id":"60f82c2e98086b570510e27e","type":"transaction","entry":[{"fullUrl":"https://madie.cms.gov/Patient/9a8c51a0-bf53-42b6-927d-c1f90b81a31a","resource":{"resourceType":"Patient","id":"9a8c51a0-bf53-42b6-927d-c1f90b81a31a","meta":{"profile":["http://hl7.org/fhir/us/qicore/StructureDefinition/qicore-patient"]},"text":{"status":"generated","div":"<div xmlns=\"http://www.w3.org/1999/xhtml\"><div class=\"hapiHeaderText\">LOS=2Days_ED_EQ1hr <b>DENEXFAIL </b></div><table class=\"hapiPropertyTable\"><tbody><tr><td>Identifier</td><td>47952b1442c8dc3c6d8daf3fe023d33d</td></tr><tr><td>Date of birth</td><td><span>21 August 1993</span></td></tr></tbody></table></div>"},"extension":[{"url":"http://hl7.org/fhir/us/core/StructureDefinition/us-core-race","extension":[{"url":"ombCategory","valueCoding":{"system":"urn:oid:2.16.840.1.113883.6.238","code":"1002-5","display":"American Indian or Alaska Native","userSelected":true}},{"url":"text","valueString":"American Indian or Alaska Native"}]},{"url":"http://hl7.org/fhir/us/core/StructureDefinition/us-core-ethnicity","extension":[{"url":"ombCategory","valueCoding":{"system":"urn:oid:2.16.840.1.113883.6.238","code":"2135-2","display":"Hispanic or Latino","userSelected":true}},{"url":"text","valueString":"Hispanic or Latino"}]}],"identifier":[{"type":{"coding":[{"system":"http://terminology.hl7.org/CodeSystem/v2-0203","code":"MR"}]},"system":"https://bonnie-fhir.healthit.gov/","value":"60f82c2e98086b570510e27e"}],"active":true,"name":[{"use":"usual","family":"DENEXFail","given":["LOSEQ2DaysEDEQ1hr"]}],"gender":"male","birthDate":"1994-08-21"},"request":{"method":"PUT","url":"Patient/9a8c51a0-bf53-42b6-927d-c1f90b81a31a"}},{"fullUrl":"https://madie.cms.gov/Encounter/38e4d1c8-43d4-4085-97c7-5b625685aeec","resource":{"resourceType":"Encounter","id":"38e4d1c8-43d4-4085-97c7-5b625685aeec","meta":{"profile":["http://hl7.org/fhir/us/qicore/StructureDefinition/qicore-encounter"]},"status":"finished","class":{"system":"http://terminology.hl7.org/CodeSystem/v3-ActCode","code":"EMER","display":"emergency","userSelected":true},"type":[{"coding":[{"system":"http://snomed.info/sct","code":"4525004"}]}],"subject":{"reference":"Patient/9a8c51a0-bf53-42b6-927d-c1f90b81a31a"},"period":{"start":"2026-08-20T08:00:00Z","end":"2026-08-20T21:00:00.000+00:00"},"length":{"value":0,"unit":"days"}},"request":{"method":"PUT","url":"Encounter/38e4d1c8-43d4-4085-97c7-5b625685aeec"}},{"fullUrl":"https://madie.cms.gov/Encounter/6a101965-5445-4da2-bbeb-529e8d82478b","resource":{"resourceType":"Encounter","id":"6a101965-5445-4da2-bbeb-529e8d82478b","meta":{"profile":["http://hl7.org/fhir/us/qicore/StructureDefinition/qicore-encounter"]},"status":"finished","class":{"system":"http://terminology.hl7.org/CodeSystem/v3-ActCode","code":"IMP","display":"inpatient encounter","userSelected":true},"type":[{"coding":[{"system":"http://snomed.info/sct","code":"32485007"}]}],"subject":{"reference":"Patient/9a8c51a0-bf53-42b6-927d-c1f90b81a31a"},"period":{"start":"2026-08-20T22:00:00Z","end":"2026-08-22T12:00:00.000+00:00"},"length":{"value":2,"unit":"days"},"reasonReference":[{"reference":"Condition/f3c7237e-2494-4f78-b140-658c9c57d12b"}]},"request":{"method":"PUT","url":"Encounter/6a101965-5445-4da2-bbeb-529e8d82478b"}},{"fullUrl":"https://madie.cms.gov/Coverage/73220265-801c-4994-8403-f140a802622e","resource":{"resourceType":"Coverage","id":"73220265-801c-4994-8403-f140a802622e","status":"active","beneficiary":{"reference":"Patient/9a8c51a0-bf53-42b6-927d-c1f90b81a31a"},"period":{"start":"1994-08-21T07:00:00Z"},"payor":[{"reference":"Organization/88484785-be4b-498a-90e0-ac41335ac74e"}]},"request":{"method":"PUT","url":"Coverage/73220265-801c-4994-8403-f140a802622e"}},{"fullUrl":"https://madie.cms.gov/Condition/f3c7237e-2494-4f78-b140-658c9c57d12b","resource":{"resourceType":"Condition","id":"f3c7237e-2494-4f78-b140-658c9c57d12b","meta":{"profile":["http://hl7.org/fhir/us/qicore/StructureDefinition/qicore-condition-encounter-diagnosis"]},"clinicalStatus":{"coding":[{"system":"http://terminology.hl7.org/CodeSystem/condition-clinical","code":"active"}]},"verificationStatus":{"coding":[{"system":"http://terminology.hl7.org/CodeSystem/condition-ver-status","code":"confirmed"}]},"category":[{"coding":[{"system":"http://terminology.hl7.org/CodeSystem/condition-category","code":"encounter-diagnosis","display":"Encounter Diagnosis"}]}],"code":{"coding":[{"system":"http://snomed.info/sct","version":"2020-09","code":"111297002","display":"Nonparalytic stroke (disorder)","userSelected":true}]},"subject":{"reference":"Patient/9a8c51a0-bf53-42b6-927d-c1f90b81a31a"},"encounter":{"reference":"Encounter/6a101965-5445-4da2-bbeb-529e8d82478b"},"recordedDate":"2026-08-12T08:00:00Z"},"request":{"method":"PUT","url":"Condition/f3c7237e-2494-4f78-b140-658c9c57d12b"}},{"fullUrl":"https://madie.cms.gov/claim/5ca62962b8484628b8de1ec5","resource":{"resourceType":"Claim","id":"5ca62962b8484628b8de1ec5","meta":{"profile":["http://hl7.org/fhir/us/qicore/StructureDefinition/qicore-claim"]},"status":"active","type":{"coding":[{"system":"http://terminology.hl7.org/CodeSystem/claim-type","code":"institutional"}]},"use":"claim","patient":{"reference":"Patient/5450abfd-a667-4eb9-9b59-e85feed4865c"},"created":"2026-12-01","provider":{"reference":"Practitioner/practitioner-123456"},"priority":{"coding":[{"system":"http://terminology.hl7.org/CodeSystem/processpriority","code":"normal"}]},"diagnosis":[{"sequence":1,"diagnosisCodeableConcept":{"coding":[{"system":"http://hl7.org/fhir/sid/icd-10-cm","code":"I63.00"}]},"type":[{"coding":[{"system":"http://terminology.hl7.org/CodeSystem/ex-diagnosistype","code":"principal"}]}]}],"insurance":[{"sequence":1,"focal":true,"coverage":{"reference":"Coverage/5fa041661c76ba66d9959367"}}],"item":[{"sequence":1,"diagnosisSequence":[1],"productOrService":{"coding":[{"system":"http://terminology.hl7.org/CodeSystem/ex-USCLS","code":"99555"}]},"encounter":[{"reference":"Encounter/6a101965-5445-4da2-bbeb-529e8d82478b"}]}]},"request":{"method":"PUT","url":"Claim/5ca62962b8484628b8de1ec5"}},{"fullUrl":"https://madie.cms.gov/Organization/88484785-be4b-498a-90e0-ac41335ac74e","resource":{"resourceType":"Organization","id":"88484785-be4b-498a-90e0-ac41335ac74e","meta":{"profile":["http://hl7.org/fhir/us/qicore/StructureDefinition/qicore-organization"]},"identifier":[{"use":"temp","system":"urn:oid:2.16.840.1.113883.4.4","value":"21-3259825"}],"active":true,"type":[{"coding":[{"system":"http://terminology.hl7.org/CodeSystem/organization-type","code":"pay","display":"Payer"}]}],"name":"Blue Cross Blue Shield of Texas","telecom":[{"system":"phone","value":"(+1) 972-766-6900"}],"address":[{"use":"billing","type":"postal","line":["P.O. Box 660044"],"city":"Dallas","state":"TX","postalCode":"75266-0044","country":"USA"}]},"request":{"method":"PUT","url":"Organization/88484785-be4b-498a-90e0-ac41335ac74e"}},{"fullUrl":"https://madie.cms.gov/MeasureReport/21a6224f-8f01-43f1-8fb6-d59ae8ee0fd6","resource":{"resourceType":"MeasureReport","id":"21a6224f-8f01-43f1-8fb6-d59ae8ee0fd6","meta":{"profile":["http://hl7.org/fhir/us/cqfmeasures/StructureDefinition/test-case-cqfm"]},"contained":[{"resourceType":"Parameters","id":"e223bdc0-c698-4b56-805c-6bc18a92512a-parameters","parameter":[{"name":"subject","valueString":"9a8c51a0-bf53-42b6-927d-c1f90b81a31a"}]}],"extension":[{"url":"http://hl7.org/fhir/StructureDefinition/cqf-inputParameters","valueReference":{"reference":"#e223bdc0-c698-4b56-805c-6bc18a92512a-parameters"}},{"url":"http://hl7.org/fhir/us/cqfmeasures/StructureDefinition/cqfm-testCaseDescription","valueMarkdown":"Patient has  ED Visit = 1 hour ends before IP encounter and starts = 2 days before end of IP , global.Hospitalization ( = Ed +IP)\n"}],"modifierExtension":[{"url":"http://hl7.org/fhir/us/cqfmeasures/StructureDefinition/cqfm-isTestCase","valueBoolean":true}],"status":"complete","type":"individual","measure":"https://madie.cms.gov/Measure/CMS72FHIRSTKAntithromboticDay2","period":{"start":"2026-01-01","end":"2026-12-31"},"group":[{"id":"Group_1","population":[{"id":"InitialPopulation_1","code":{"coding":[{"system":"http://terminology.hl7.org/CodeSystem/measure-population","code":"initial-population","display":"Initial Population"}]},"count":1},{"id":"Denominator_1","code":{"coding":[{"system":"http://terminology.hl7.org/CodeSystem/measure-population","code":"denominator","display":"Denominator"}]},"count":1},{"id":"DenominatorExclusion_1","code":{"coding":[{"system":"http://terminology.hl7.org/CodeSystem/measure-population","code":"denominator-exclusion","display":"Denominator Exclusion"}]},"count":0},{"id":"Numerator_1","code":{"coding":[{"system":"http://terminology.hl7.org/CodeSystem/measure-population","code":"numerator","display":"Numerator"}]},"count":0},{"id":"DenominatorException_1","code":{"coding":[{"system":"http://terminology.hl7.org/CodeSystem/measure-population","code":"denominator-exception","display":"Denominator Exception"}]},"count":0}],"measureScore":{"value":0.0}}],"evaluatedResource":[{"reference":"Patient/9a8c51a0-bf53-42b6-927d-c1f90b81a31a"},{"reference":"Encounter/38e4d1c8-43d4-4085-97c7-5b625685aeec"},{"reference":"Encounter/6a101965-5445-4da2-bbeb-529e8d82478b"},{"reference":"Coverage/73220265-801c-4994-8403-f140a802622e"},{"reference":"Condition/f3c7237e-2494-4f78-b140-658c9c57d12b"},{"reference":"Claim/5ca62962b8484628b8de1ec5"},{"reference":"Organization/88484785-be4b-498a-90e0-ac41335ac74e"}]},"request":{"method":"PUT","url":"MeasureReport/21a6224f-8f01-43f1-8fb6-d59ae8ee0fd6"}}]},"request":{"method":"PUT","url":"Bundle/60f82c2e98086b570510e27e"}},{"fullUrl":"Encounter/38e4d1c8-43d4-4085-97c7-5b625685aeec","resource":{"resourceType":"Encounter","id":"38e4d1c8-43d4-4085-97c7-5b625685aeec","meta":{"profile":["http://hl7.org/fhir/us/qicore/StructureDefinition/qicore-encounter"]},"status":"finished","class":{"system":"http://terminology.hl7.org/CodeSystem/v3-ActCode","code":"EMER","display":"emergency","userSelected":true},"type":[{"coding":[{"system":"http://snomed.info/sct","code":"4525004"}]}],"subject":{"reference":"Patient/9a8c51a0-bf53-42b6-927d-c1f90b81a31a"},"period":{"start":"2026-08-20T08:00:00Z","end":"2026-08-20T21:00:00.000+00:00"},"length":{"value":0,"unit":"days"}},"request":{"method":"PUT","url":"Encounter/38e4d1c8-43d4-4085-97c7-5b625685aeec"}},{"fullUrl":"Encounter/6a101965-5445-4da2-bbeb-529e8d82478b","resource":{"resourceType":"Encounter","id":"6a101965-5445-4da2-bbeb-529e8d82478b","meta":{"profile":["http://hl7.org/fhir/us/qicore/StructureDefinition/qicore-encounter"]},"status":"finished","class":{"system":"http://terminology.hl7.org/CodeSystem/v3-ActCode","code":"IMP","display":"inpatient encounter","userSelected":true},"type":[{"coding":[{"system":"http://snomed.info/sct","code":"32485007"}]}],"subject":{"reference":"Patient/9a8c51a0-bf53-42b6-927d-c1f90b81a31a"},"period":{"start":"2026-08-20T22:00:00Z","end":"2026-08-22T12:00:00.000+00:00"},"length":{"value":2,"unit":"days"},"reasonReference":[{"reference":"Condition/f3c7237e-2494-4f78-b140-658c9c57d12b"}]},"request":{"method":"PUT","url":"Encounter/6a101965-5445-4da2-bbeb-529e8d82478b"}},{"fullUrl":"Condition/f3c7237e-2494-4f78-b140-658c9c57d12b","resource":{"resourceType":"Condition","id":"f3c7237e-2494-4f78-b140-658c9c57d12b","meta":{"profile":["http://hl7.org/fhir/us/qicore/StructureDefinition/qicore-condition-encounter-diagnosis"]},"clinicalStatus":{"coding":[{"system":"http://terminology.hl7.org/CodeSystem/condition-clinical","code":"active"}]},"verificationStatus":{"coding":[{"system":"http://terminology.hl7.org/CodeSystem/condition-ver-status","code":"confirmed"}]},"category":[{"coding":[{"system":"http://terminology.hl7.org/CodeSystem/condition-category","code":"encounter-diagnosis","display":"Encounter Diagnosis"}]}],"code":{"coding":[{"system":"http://snomed.info/sct","version":"2020-09","code":"111297002","display":"Nonparalytic stroke (disorder)","userSelected":true}]},"subject":{"reference":"Patient/9a8c51a0-bf53-42b6-927d-c1f90b81a31a"},"encounter":{"reference":"Encounter/6a101965-5445-4da2-bbeb-529e8d82478b"},"recordedDate":"2026-08-12T08:00:00Z"},"request":{"method":"PUT","url":"Condition/f3c7237e-2494-4f78-b140-658c9c57d12b"}},{"fullUrl":"Patient/9a8c51a0-bf53-42b6-927d-c1f90b81a31a","resource":{"resourceType":"Patient","id":"9a8c51a0-bf53-42b6-927d-c1f90b81a31a","meta":{"profile":["http://hl7.org/fhir/us/qicore/StructureDefinition/qicore-patient"]},"text":{"status":"generated","div":"<div xmlns=\"http://www.w3.org/1999/xhtml\"><div class=\"hapiHeaderText\">LOS=2Days_ED_EQ1hr <b>DENEXFAIL </b></div><table class=\"hapiPropertyTable\"><tbody><tr><td>Identifier</td><td>47952b1442c8dc3c6d8daf3fe023d33d</td></tr><tr><td>Date of birth</td><td><span>21 August 1993</span></td></tr></tbody></table></div>"},"extension":[{"url":"http://hl7.org/fhir/us/core/StructureDefinition/us-core-race","extension":[{"url":"ombCategory","valueCoding":{"system":"urn:oid:2.16.840.1.113883.6.238","code":"1002-5","display":"American Indian or Alaska Native","userSelected":true}},{"url":"text","valueString":"American Indian or Alaska Native"}]},{"url":"http://hl7.org/fhir/us/core/StructureDefinition/us-core-ethnicity","extension":[{"url":"ombCategory","valueCoding":{"system":"urn:oid:2.16.840.1.113883.6.238","code":"2135-2","display":"Hispanic or Latino","userSelected":true}},{"url":"text","valueString":"Hispanic or Latino"}]}],"identifier":[{"type":{"coding":[{"system":"http://terminology.hl7.org/CodeSystem/v2-0203","code":"MR"}]},"system":"https://bonnie-fhir.healthit.gov/","value":"60f82c2e98086b570510e27e"}],"active":true,"name":[{"use":"usual","family":"DENEXFail","given":["LOSEQ2DaysEDEQ1hr"]}],"gender":"male","birthDate":"1994-08-21"},"request":{"method":"PUT","url":"Patient/9a8c51a0-bf53-42b6-927d-c1f90b81a31a"}},{"fullUrl":"Coverage/73220265-801c-4994-8403-f140a802622e","resource":{"resourceType":"Coverage","id":"73220265-801c-4994-8403-f140a802622e","status":"active","beneficiary":{"reference":"Patient/9a8c51a0-bf53-42b6-927d-c1f90b81a31a"},"period":{"start":"1994-08-21T07:00:00Z"},"payor":[{"reference":"Organization/88484785-be4b-498a-90e0-ac41335ac74e"}]},"request":{"method":"PUT","url":"Coverage/73220265-801c-4994-8403-f140a802622e"}},{"fullUrl":"Claim/5ca62962b8484628b8de1ec5","resource":{"resourceType":"Claim","id":"5ca62962b8484628b8de1ec5","meta":{"profile":["http://hl7.org/fhir/us/qicore/StructureDefinition/qicore-claim"]},"status":"active","type":{"coding":[{"system":"http://terminology.hl7.org/CodeSystem/claim-type","code":"institutional"}]},"use":"claim","patient":{"reference":"Patient/5450abfd-a667-4eb9-9b59-e85feed4865c"},"created":"2026-12-01","provider":{"reference":"Practitioner/practitioner-123456"},"priority":{"coding":[{"system":"http://terminology.hl7.org/CodeSystem/processpriority","code":"normal"}]},"diagnosis":[{"sequence":1,"diagnosisCodeableConcept":{"coding":[{"system":"http://hl7.org/fhir/sid/icd-10-cm","code":"I63.00"}]},"type":[{"coding":[{"system":"http://terminology.hl7.org/CodeSystem/ex-diagnosistype","code":"principal"}]}]}],"insurance":[{"sequence":1,"focal":true,"coverage":{"reference":"Coverage/5fa041661c76ba66d9959367"}}],"item":[{"sequence":1,"diagnosisSequence":[1],"productOrService":{"coding":[{"system":"http://terminology.hl7.org/CodeSystem/ex-USCLS","code":"99555"}]},"encounter":[{"reference":"Encounter/6a101965-5445-4da2-bbeb-529e8d82478b"}]}]},"request":{"method":"PUT","url":"Claim/5ca62962b8484628b8de1ec5"}}]}