{"resourceType":"Bundle","id":"tests-fed17706-6d92-4092-a9b1-9b7e47847f2a-bundle","type":"transaction","entry":[{"fullUrl":"Condition/1631ee43-16f3-4cef-b984-f47c239295cc","resource":{"resourceType":"Condition","id":"1631ee43-16f3-4cef-b984-f47c239295cc","meta":{"profile":["http://hl7.org/fhir/us/qicore/StructureDefinition/qicore-condition-encounter-diagnosis"]},"clinicalStatus":{"coding":[{"system":"http://terminology.hl7.org/CodeSystem/condition-clinical","code":"active"}]},"verificationStatus":{"coding":[{"system":"http://terminology.hl7.org/CodeSystem/condition-ver-status","code":"confirmed"}]},"category":[{"coding":[{"system":"http://terminology.hl7.org/CodeSystem/condition-category","code":"encounter-diagnosis","display":"Encounter Diagnosis"}]}],"code":{"coding":[{"system":"http://snomed.info/sct","version":"2020-09","code":"111297002","display":"Nonparalytic stroke (disorder)","userSelected":true}]},"subject":{"reference":"Patient/fed17706-6d92-4092-a9b1-9b7e47847f2a"},"recordedDate":"2026-08-13T08:00:00Z"},"request":{"method":"PUT","url":"Condition/1631ee43-16f3-4cef-b984-f47c239295cc"}},{"fullUrl":"Patient/fed17706-6d92-4092-a9b1-9b7e47847f2a","resource":{"resourceType":"Patient","id":"fed17706-6d92-4092-a9b1-9b7e47847f2a","meta":{"profile":["http://hl7.org/fhir/us/qicore/StructureDefinition/qicore-patient"]},"text":{"status":"generated","div":"<div xmlns=\"http://www.w3.org/1999/xhtml\"><div class=\"hapiHeaderText\">Med1TPA=EdStart <b>DENEXPASS </b></div><table class=\"hapiPropertyTable\"><tbody><tr><td>Identifier</td><td>b9d60025f1579fc69f692d96d60444be</td></tr><tr><td>Date of birth</td><td><span>26 September 1975</span></td></tr></tbody></table></div>"},"extension":[{"url":"http://hl7.org/fhir/us/core/StructureDefinition/us-core-race","extension":[{"url":"ombCategory","valueCoding":{"system":"urn:oid:2.16.840.1.113883.6.238","code":"2054-5","display":"Black or African American","userSelected":true}},{"url":"text","valueString":"Black or African American"}]},{"url":"http://hl7.org/fhir/us/core/StructureDefinition/us-core-ethnicity","extension":[{"url":"ombCategory","valueCoding":{"system":"urn:oid:2.16.840.1.113883.6.238","code":"2186-5","display":"Not Hispanic or Latino","userSelected":true}},{"url":"text","valueString":"Not Hispanic or Latino"}]}],"identifier":[{"type":{"coding":[{"system":"http://terminology.hl7.org/CodeSystem/v2-0203","code":"MR"}]},"system":"https://bonnie-fhir.healthit.gov/","value":"60f82c2e98086b570510e284"}],"active":true,"name":[{"use":"usual","family":"DENEXPass","given":["Med1TPA=EdStart"]}],"gender":"female","birthDate":"1976-09-26"},"request":{"method":"PUT","url":"Patient/fed17706-6d92-4092-a9b1-9b7e47847f2a"}},{"fullUrl":"Encounter/29da0ac2-13d1-4217-9a29-ad4d45caf46a","resource":{"resourceType":"Encounter","id":"29da0ac2-13d1-4217-9a29-ad4d45caf46a","meta":{"profile":["http://hl7.org/fhir/us/qicore/StructureDefinition/qicore-encounter"]},"status":"finished","class":{"system":"http://terminology.hl7.org/CodeSystem/v3-ActCode","code":"EMER","display":"emergency"},"type":[{"coding":[{"system":"http://snomed.info/sct","code":"4525004"}]}],"subject":{"reference":"Patient/fed17706-6d92-4092-a9b1-9b7e47847f2a"},"period":{"start":"2026-10-10T06:00:00Z","end":"2026-10-10T08:30:00.000+00:00"},"length":{"value":0,"unit":"days"}},"request":{"method":"PUT","url":"Encounter/29da0ac2-13d1-4217-9a29-ad4d45caf46a"}},{"fullUrl":"Organization/8255f1e9-a8b7-4b1a-a28c-b6fa1e77a6b8","resource":{"resourceType":"Organization","id":"8255f1e9-a8b7-4b1a-a28c-b6fa1e77a6b8","meta":{"profile":["http://hl7.org/fhir/us/qicore/StructureDefinition/qicore-organization"]},"identifier":[{"use":"temp","system":"urn:oid:2.16.840.1.113883.4.4","value":"21-3259825"}],"active":true,"type":[{"coding":[{"system":"http://terminology.hl7.org/CodeSystem/organization-type","code":"pay","display":"Payer"}]}],"name":"Blue Cross Blue Shield of Texas","telecom":[{"system":"phone","value":"(+1) 972-766-6900"}],"address":[{"use":"billing","type":"postal","line":["P.O. Box 660044"],"city":"Dallas","state":"TX","postalCode":"75266-0044","country":"USA"}]},"request":{"method":"PUT","url":"Organization/8255f1e9-a8b7-4b1a-a28c-b6fa1e77a6b8"}},{"fullUrl":"Bundle/60f82c2e98086b570510e284","resource":{"resourceType":"Bundle","id":"60f82c2e98086b570510e284","type":"transaction","entry":[{"fullUrl":"https://madie.cms.gov/Patient/fed17706-6d92-4092-a9b1-9b7e47847f2a","resource":{"resourceType":"Patient","id":"fed17706-6d92-4092-a9b1-9b7e47847f2a","meta":{"profile":["http://hl7.org/fhir/us/qicore/StructureDefinition/qicore-patient"]},"text":{"status":"generated","div":"<div xmlns=\"http://www.w3.org/1999/xhtml\"><div class=\"hapiHeaderText\">Med1TPA=EdStart <b>DENEXPASS </b></div><table class=\"hapiPropertyTable\"><tbody><tr><td>Identifier</td><td>b9d60025f1579fc69f692d96d60444be</td></tr><tr><td>Date of birth</td><td><span>26 September 1975</span></td></tr></tbody></table></div>"},"extension":[{"url":"http://hl7.org/fhir/us/core/StructureDefinition/us-core-race","extension":[{"url":"ombCategory","valueCoding":{"system":"urn:oid:2.16.840.1.113883.6.238","code":"2054-5","display":"Black or African American","userSelected":true}},{"url":"text","valueString":"Black or African American"}]},{"url":"http://hl7.org/fhir/us/core/StructureDefinition/us-core-ethnicity","extension":[{"url":"ombCategory","valueCoding":{"system":"urn:oid:2.16.840.1.113883.6.238","code":"2186-5","display":"Not Hispanic or Latino","userSelected":true}},{"url":"text","valueString":"Not Hispanic or Latino"}]}],"identifier":[{"type":{"coding":[{"system":"http://terminology.hl7.org/CodeSystem/v2-0203","code":"MR"}]},"system":"https://bonnie-fhir.healthit.gov/","value":"60f82c2e98086b570510e284"}],"active":true,"name":[{"use":"usual","family":"DENEXPass","given":["Med1TPA=EdStart"]}],"gender":"female","birthDate":"1976-09-26"},"request":{"method":"PUT","url":"Patient/fed17706-6d92-4092-a9b1-9b7e47847f2a"}},{"fullUrl":"https://madie.cms.gov/Encounter/29da0ac2-13d1-4217-9a29-ad4d45caf46a","resource":{"resourceType":"Encounter","id":"29da0ac2-13d1-4217-9a29-ad4d45caf46a","meta":{"profile":["http://hl7.org/fhir/us/qicore/StructureDefinition/qicore-encounter"]},"status":"finished","class":{"system":"http://terminology.hl7.org/CodeSystem/v3-ActCode","code":"EMER","display":"emergency"},"type":[{"coding":[{"system":"http://snomed.info/sct","code":"4525004"}]}],"subject":{"reference":"Patient/fed17706-6d92-4092-a9b1-9b7e47847f2a"},"period":{"start":"2026-10-10T06:00:00Z","end":"2026-10-10T08:30:00.000+00:00"},"length":{"value":0,"unit":"days"}},"request":{"method":"PUT","url":"Encounter/29da0ac2-13d1-4217-9a29-ad4d45caf46a"}},{"fullUrl":"https://madie.cms.gov/Encounter/3eee68f8-a352-4061-97a8-69cc0b7f568b","resource":{"resourceType":"Encounter","id":"3eee68f8-a352-4061-97a8-69cc0b7f568b","meta":{"profile":["http://hl7.org/fhir/us/qicore/StructureDefinition/qicore-encounter"]},"status":"finished","class":{"system":"http://terminology.hl7.org/CodeSystem/v3-ActCode","code":"IMP","display":"inpatient encounter"},"type":[{"coding":[{"system":"http://snomed.info/sct","code":"32485007"}]}],"subject":{"reference":"Patient/fed17706-6d92-4092-a9b1-9b7e47847f2a"},"period":{"start":"2026-10-10T09:00:00Z","end":"2026-10-12T11:15:00.000+00:00"},"length":{"value":2,"unit":"days"},"reasonReference":[{"reference":"Condition/1631ee43-16f3-4cef-b984-f47c239295cc"}]},"request":{"method":"PUT","url":"Encounter/3eee68f8-a352-4061-97a8-69cc0b7f568b"}},{"fullUrl":"https://madie.cms.gov/claim/5ca62962b8484628b8de1ec5","resource":{"resourceType":"Claim","id":"5ca62962b8484628b8de1ec5","meta":{"profile":["http://hl7.org/fhir/us/qicore/StructureDefinition/qicore-claim"]},"status":"active","type":{"coding":[{"system":"http://terminology.hl7.org/CodeSystem/claim-type","code":"institutional"}]},"use":"claim","patient":{"reference":"Patient/d170a0a8-b5ad-4303-b6df-e304dd5f92ad"},"created":"2026-12-01","provider":{"reference":"Practitioner/practitioner-123456"},"priority":{"coding":[{"system":"http://terminology.hl7.org/CodeSystem/processpriority","code":"normal"}]},"diagnosis":[{"sequence":1,"diagnosisCodeableConcept":{"coding":[{"system":"http://hl7.org/fhir/sid/icd-10-cm","code":"I63.00"}]},"type":[{"coding":[{"system":"http://terminology.hl7.org/CodeSystem/ex-diagnosistype","code":"principal"}]}]}],"insurance":[{"sequence":1,"focal":true,"coverage":{"reference":"Coverage/5fa041661c76ba66d9959367"}}],"item":[{"sequence":1,"diagnosisSequence":[1],"productOrService":{"coding":[{"system":"http://terminology.hl7.org/CodeSystem/ex-USCLS","code":"99555"}]},"encounter":[{"reference":"Encounter/3eee68f8-a352-4061-97a8-69cc0b7f568b"}]}]},"request":{"method":"PUT","url":"Claim/5ca62962b8484628b8de1ec5"}},{"fullUrl":"https://madie.cms.gov/MedicationAdministration/f3962b1d-9405-4af0-872e-401deb3510f9","resource":{"resourceType":"MedicationAdministration","id":"f3962b1d-9405-4af0-872e-401deb3510f9","meta":{"profile":["http://hl7.org/fhir/us/qicore/StructureDefinition/qicore-medicationadministration"]},"status":"completed","medicationCodeableConcept":{"coding":[{"system":"http://www.nlm.nih.gov/research/umls/rxnorm","code":"1804799"}]},"subject":{"reference":"Patient/fed17706-6d92-4092-a9b1-9b7e47847f2a"},"effectivePeriod":{"start":"2026-10-10T06:00:00Z"}},"request":{"method":"PUT","url":"MedicationAdministration/f3962b1d-9405-4af0-872e-401deb3510f9"}},{"fullUrl":"https://madie.cms.gov/Coverage/d6357cc6-2694-48c4-a437-3c720b67b9f4","resource":{"resourceType":"Coverage","id":"d6357cc6-2694-48c4-a437-3c720b67b9f4","status":"active","subscriberId":"523435","beneficiary":{"reference":"Patient/fed17706-6d92-4092-a9b1-9b7e47847f2a"},"relationship":{"coding":[{"system":"http://terminology.hl7.org/CodeSystem/subscriber-relationship","code":"self"}]},"period":{"start":"1976-09-26T08:00:00Z"},"payor":[{"reference":"Organization/8255f1e9-a8b7-4b1a-a28c-b6fa1e77a6b8"}]},"request":{"method":"PUT","url":"Coverage/d6357cc6-2694-48c4-a437-3c720b67b9f4"}},{"fullUrl":"https://madie.cms.gov/Condition/1631ee43-16f3-4cef-b984-f47c239295cc","resource":{"resourceType":"Condition","id":"1631ee43-16f3-4cef-b984-f47c239295cc","meta":{"profile":["http://hl7.org/fhir/us/qicore/StructureDefinition/qicore-condition-encounter-diagnosis"]},"clinicalStatus":{"coding":[{"system":"http://terminology.hl7.org/CodeSystem/condition-clinical","code":"active"}]},"verificationStatus":{"coding":[{"system":"http://terminology.hl7.org/CodeSystem/condition-ver-status","code":"confirmed"}]},"category":[{"coding":[{"system":"http://terminology.hl7.org/CodeSystem/condition-category","code":"encounter-diagnosis","display":"Encounter Diagnosis"}]}],"code":{"coding":[{"system":"http://snomed.info/sct","version":"2020-09","code":"111297002","display":"Nonparalytic stroke (disorder)","userSelected":true}]},"subject":{"reference":"Patient/fed17706-6d92-4092-a9b1-9b7e47847f2a"},"recordedDate":"2026-08-13T08:00:00Z"},"request":{"method":"PUT","url":"Condition/1631ee43-16f3-4cef-b984-f47c239295cc"}},{"fullUrl":"https://madie.cms.gov/Organization/8255f1e9-a8b7-4b1a-a28c-b6fa1e77a6b8","resource":{"resourceType":"Organization","id":"8255f1e9-a8b7-4b1a-a28c-b6fa1e77a6b8","meta":{"profile":["http://hl7.org/fhir/us/qicore/StructureDefinition/qicore-organization"]},"identifier":[{"use":"temp","system":"urn:oid:2.16.840.1.113883.4.4","value":"21-3259825"}],"active":true,"type":[{"coding":[{"system":"http://terminology.hl7.org/CodeSystem/organization-type","code":"pay","display":"Payer"}]}],"name":"Blue Cross Blue Shield of Texas","telecom":[{"system":"phone","value":"(+1) 972-766-6900"}],"address":[{"use":"billing","type":"postal","line":["P.O. Box 660044"],"city":"Dallas","state":"TX","postalCode":"75266-0044","country":"USA"}]},"request":{"method":"PUT","url":"Organization/8255f1e9-a8b7-4b1a-a28c-b6fa1e77a6b8"}},{"fullUrl":"https://madie.cms.gov/MeasureReport/90aeb249-188d-456e-a495-e313d94c57a5","resource":{"resourceType":"MeasureReport","id":"90aeb249-188d-456e-a495-e313d94c57a5","meta":{"profile":["http://hl7.org/fhir/us/cqfmeasures/StructureDefinition/test-case-cqfm"]},"contained":[{"resourceType":"Parameters","id":"7de9cf6d-59bb-41a9-b2e7-35368139aa9c-parameters","parameter":[{"name":"subject","valueString":"fed17706-6d92-4092-a9b1-9b7e47847f2a"}]}],"extension":[{"url":"http://hl7.org/fhir/StructureDefinition/cqf-inputParameters","valueReference":{"reference":"#7de9cf6d-59bb-41a9-b2e7-35368139aa9c-parameters"}},{"url":"http://hl7.org/fhir/us/cqfmeasures/StructureDefinition/cqfm-testCaseDescription","valueMarkdown":"Patient has ED visit <=1hour before IP encounter AND receives TPA >24 hours before ED visit, global.\"Hospitalization\" =(Ed+IP)\n"}],"modifierExtension":[{"url":"http://hl7.org/fhir/us/cqfmeasures/StructureDefinition/cqfm-isTestCase","valueBoolean":true}],"status":"complete","type":"individual","measure":"https://madie.cms.gov/Measure/CMS72FHIRSTKAntithromboticDay2","period":{"start":"2026-01-01","end":"2026-12-31"},"group":[{"id":"Group_1","population":[{"id":"InitialPopulation_1","code":{"coding":[{"system":"http://terminology.hl7.org/CodeSystem/measure-population","code":"initial-population","display":"Initial Population"}]},"count":1},{"id":"Denominator_1","code":{"coding":[{"system":"http://terminology.hl7.org/CodeSystem/measure-population","code":"denominator","display":"Denominator"}]},"count":1},{"id":"DenominatorExclusion_1","code":{"coding":[{"system":"http://terminology.hl7.org/CodeSystem/measure-population","code":"denominator-exclusion","display":"Denominator Exclusion"}]},"count":1},{"id":"Numerator_1","code":{"coding":[{"system":"http://terminology.hl7.org/CodeSystem/measure-population","code":"numerator","display":"Numerator"}]},"count":0},{"id":"DenominatorException_1","code":{"coding":[{"system":"http://terminology.hl7.org/CodeSystem/measure-population","code":"denominator-exception","display":"Denominator Exception"}]},"count":0}],"measureScore":{"value":0.0}}],"evaluatedResource":[{"reference":"Patient/fed17706-6d92-4092-a9b1-9b7e47847f2a"},{"reference":"Encounter/29da0ac2-13d1-4217-9a29-ad4d45caf46a"},{"reference":"Encounter/3eee68f8-a352-4061-97a8-69cc0b7f568b"},{"reference":"Claim/5ca62962b8484628b8de1ec5"},{"reference":"MedicationAdministration/f3962b1d-9405-4af0-872e-401deb3510f9"},{"reference":"Coverage/d6357cc6-2694-48c4-a437-3c720b67b9f4"},{"reference":"Condition/1631ee43-16f3-4cef-b984-f47c239295cc"},{"reference":"Organization/8255f1e9-a8b7-4b1a-a28c-b6fa1e77a6b8"}]},"request":{"method":"PUT","url":"MeasureReport/90aeb249-188d-456e-a495-e313d94c57a5"}}]},"request":{"method":"PUT","url":"Bundle/60f82c2e98086b570510e284"}},{"fullUrl":"MedicationAdministration/f3962b1d-9405-4af0-872e-401deb3510f9","resource":{"resourceType":"MedicationAdministration","id":"f3962b1d-9405-4af0-872e-401deb3510f9","meta":{"profile":["http://hl7.org/fhir/us/qicore/StructureDefinition/qicore-medicationadministration"]},"status":"completed","medicationCodeableConcept":{"coding":[{"system":"http://www.nlm.nih.gov/research/umls/rxnorm","code":"1804799"}]},"subject":{"reference":"Patient/fed17706-6d92-4092-a9b1-9b7e47847f2a"},"effectivePeriod":{"start":"2026-10-10T06:00:00Z"}},"request":{"method":"PUT","url":"MedicationAdministration/f3962b1d-9405-4af0-872e-401deb3510f9"}},{"fullUrl":"Coverage/d6357cc6-2694-48c4-a437-3c720b67b9f4","resource":{"resourceType":"Coverage","id":"d6357cc6-2694-48c4-a437-3c720b67b9f4","status":"active","subscriberId":"523435","beneficiary":{"reference":"Patient/fed17706-6d92-4092-a9b1-9b7e47847f2a"},"relationship":{"coding":[{"system":"http://terminology.hl7.org/CodeSystem/subscriber-relationship","code":"self"}]},"period":{"start":"1976-09-26T08:00:00Z"},"payor":[{"reference":"Organization/8255f1e9-a8b7-4b1a-a28c-b6fa1e77a6b8"}]},"request":{"method":"PUT","url":"Coverage/d6357cc6-2694-48c4-a437-3c720b67b9f4"}},{"fullUrl":"Encounter/3eee68f8-a352-4061-97a8-69cc0b7f568b","resource":{"resourceType":"Encounter","id":"3eee68f8-a352-4061-97a8-69cc0b7f568b","meta":{"profile":["http://hl7.org/fhir/us/qicore/StructureDefinition/qicore-encounter"]},"status":"finished","class":{"system":"http://terminology.hl7.org/CodeSystem/v3-ActCode","code":"IMP","display":"inpatient encounter"},"type":[{"coding":[{"system":"http://snomed.info/sct","code":"32485007"}]}],"subject":{"reference":"Patient/fed17706-6d92-4092-a9b1-9b7e47847f2a"},"period":{"start":"2026-10-10T09:00:00Z","end":"2026-10-12T11:15:00.000+00:00"},"length":{"value":2,"unit":"days"},"reasonReference":[{"reference":"Condition/1631ee43-16f3-4cef-b984-f47c239295cc"}]},"request":{"method":"PUT","url":"Encounter/3eee68f8-a352-4061-97a8-69cc0b7f568b"}},{"fullUrl":"MeasureReport/90aeb249-188d-456e-a495-e313d94c57a5","resource":{"resourceType":"MeasureReport","id":"90aeb249-188d-456e-a495-e313d94c57a5","meta":{"profile":["http://hl7.org/fhir/us/cqfmeasures/StructureDefinition/test-case-cqfm"]},"contained":[{"resourceType":"Parameters","id":"7de9cf6d-59bb-41a9-b2e7-35368139aa9c-parameters","parameter":[{"name":"subject","valueString":"fed17706-6d92-4092-a9b1-9b7e47847f2a"}]}],"extension":[{"url":"http://hl7.org/fhir/StructureDefinition/cqf-inputParameters","valueReference":{"reference":"#7de9cf6d-59bb-41a9-b2e7-35368139aa9c-parameters"}},{"url":"http://hl7.org/fhir/us/cqfmeasures/StructureDefinition/cqfm-testCaseDescription","valueMarkdown":"Patient has ED visit <=1hour before IP encounter AND receives TPA >24 hours before ED visit, global.\"Hospitalization\" =(Ed+IP)\n"}],"modifierExtension":[{"url":"http://hl7.org/fhir/us/cqfmeasures/StructureDefinition/cqfm-isTestCase","valueBoolean":true}],"status":"complete","type":"individual","measure":"https://madie.cms.gov/Measure/CMS72FHIRSTKAntithromboticDay2","period":{"start":"2026-01-01","end":"2026-12-31"},"group":[{"id":"Group_1","population":[{"id":"InitialPopulation_1","code":{"coding":[{"system":"http://terminology.hl7.org/CodeSystem/measure-population","code":"initial-population","display":"Initial Population"}]},"count":1},{"id":"Denominator_1","code":{"coding":[{"system":"http://terminology.hl7.org/CodeSystem/measure-population","code":"denominator","display":"Denominator"}]},"count":1},{"id":"DenominatorExclusion_1","code":{"coding":[{"system":"http://terminology.hl7.org/CodeSystem/measure-population","code":"denominator-exclusion","display":"Denominator Exclusion"}]},"count":1},{"id":"Numerator_1","code":{"coding":[{"system":"http://terminology.hl7.org/CodeSystem/measure-population","code":"numerator","display":"Numerator"}]},"count":0},{"id":"DenominatorException_1","code":{"coding":[{"system":"http://terminology.hl7.org/CodeSystem/measure-population","code":"denominator-exception","display":"Denominator Exception"}]},"count":0}],"measureScore":{"value":0.0}}],"evaluatedResource":[{"reference":"Patient/fed17706-6d92-4092-a9b1-9b7e47847f2a"},{"reference":"Encounter/29da0ac2-13d1-4217-9a29-ad4d45caf46a"},{"reference":"Encounter/3eee68f8-a352-4061-97a8-69cc0b7f568b"},{"reference":"Claim/5ca62962b8484628b8de1ec5"},{"reference":"MedicationAdministration/f3962b1d-9405-4af0-872e-401deb3510f9"},{"reference":"Coverage/d6357cc6-2694-48c4-a437-3c720b67b9f4"},{"reference":"Condition/1631ee43-16f3-4cef-b984-f47c239295cc"},{"reference":"Organization/8255f1e9-a8b7-4b1a-a28c-b6fa1e77a6b8"}]},"request":{"method":"PUT","url":"MeasureReport/90aeb249-188d-456e-a495-e313d94c57a5"}},{"fullUrl":"Claim/5ca62962b8484628b8de1ec5","resource":{"resourceType":"Claim","id":"5ca62962b8484628b8de1ec5","meta":{"profile":["http://hl7.org/fhir/us/qicore/StructureDefinition/qicore-claim"]},"status":"active","type":{"coding":[{"system":"http://terminology.hl7.org/CodeSystem/claim-type","code":"institutional"}]},"use":"claim","patient":{"reference":"Patient/d170a0a8-b5ad-4303-b6df-e304dd5f92ad"},"created":"2026-12-01","provider":{"reference":"Practitioner/practitioner-123456"},"priority":{"coding":[{"system":"http://terminology.hl7.org/CodeSystem/processpriority","code":"normal"}]},"diagnosis":[{"sequence":1,"diagnosisCodeableConcept":{"coding":[{"system":"http://hl7.org/fhir/sid/icd-10-cm","code":"I63.00"}]},"type":[{"coding":[{"system":"http://terminology.hl7.org/CodeSystem/ex-diagnosistype","code":"principal"}]}]}],"insurance":[{"sequence":1,"focal":true,"coverage":{"reference":"Coverage/5fa041661c76ba66d9959367"}}],"item":[{"sequence":1,"diagnosisSequence":[1],"productOrService":{"coding":[{"system":"http://terminology.hl7.org/CodeSystem/ex-USCLS","code":"99555"}]},"encounter":[{"reference":"Encounter/3eee68f8-a352-4061-97a8-69cc0b7f568b"}]}]},"request":{"method":"PUT","url":"Claim/5ca62962b8484628b8de1ec5"}}]}