{"resourceType":"Bundle","id":"tests-7e3bf20a-7a5b-4d50-aa34-267ab19da7b2-bundle","type":"transaction","entry":[{"fullUrl":"Patient/7e3bf20a-7a5b-4d50-aa34-267ab19da7b2","resource":{"resourceType":"Patient","id":"7e3bf20a-7a5b-4d50-aa34-267ab19da7b2","meta":{"profile":["http://hl7.org/fhir/us/qicore/StructureDefinition/qicore-patient"]},"text":{"status":"generated","div":"<div xmlns=\"http://www.w3.org/1999/xhtml\"><div class=\"hapiHeaderText\">MedAntithromboticStart_eq1dayDuringEncIPwEd <b>NUMERPASS </b></div><table class=\"hapiPropertyTable\"><tbody><tr><td>Identifier</td><td>31f584b75330393256fa59b34c307941</td></tr><tr><td>Date of birth</td><td><span>26 September 1975</span></td></tr></tbody></table></div>"},"extension":[{"url":"http://hl7.org/fhir/us/core/StructureDefinition/us-core-race","extension":[{"url":"ombCategory","valueCoding":{"system":"urn:oid:2.16.840.1.113883.6.238","code":"2054-5","display":"Black or African American","userSelected":true}},{"url":"text","valueString":"Black or African American"}]},{"url":"http://hl7.org/fhir/us/core/StructureDefinition/us-core-ethnicity","extension":[{"url":"ombCategory","valueCoding":{"system":"urn:oid:2.16.840.1.113883.6.238","code":"2186-5","display":"Not Hispanic or Latino","userSelected":true}},{"url":"text","valueString":"Not Hispanic or Latino"}]},{"url":"http://hl7.org/fhir/us/core/StructureDefinition/us-core-sex","valueCode":"248153007"}],"identifier":[{"type":{"coding":[{"system":"http://terminology.hl7.org/CodeSystem/v2-0203","code":"MR"}]},"system":"https://bonnie-fhir.healthit.gov/","value":"60f82c2e98086b570510e28d"}],"active":true,"name":[{"use":"usual","family":"NUMERPass","given":["MedAntithromboticStarteq1dayDuringEncIPwEd"]}],"gender":"male","birthDate":"1976-09-26"},"request":{"method":"PUT","url":"Patient/7e3bf20a-7a5b-4d50-aa34-267ab19da7b2"}},{"fullUrl":"Encounter/a69fc201-1a27-4480-9adb-daa03bbd81ef","resource":{"resourceType":"Encounter","id":"a69fc201-1a27-4480-9adb-daa03bbd81ef","meta":{"profile":["http://hl7.org/fhir/us/qicore/StructureDefinition/qicore-encounter"]},"status":"finished","class":{"system":"http://terminology.hl7.org/CodeSystem/v3-ActCode","code":"IMP","display":"inpatient encounter"},"type":[{"coding":[{"system":"http://snomed.info/sct","code":"32485007"}]}],"subject":{"reference":"Patient/7e3bf20a-7a5b-4d50-aa34-267ab19da7b2"},"period":{"start":"2026-10-10T09:00:00Z","end":"2026-10-12T11:30:00.000+00:00"},"length":{"value":2,"unit":"days"},"reasonReference":[{"reference":"Condition/70ba7cce-dc7b-448b-9e2f-a63bc9880904"}]},"request":{"method":"PUT","url":"Encounter/a69fc201-1a27-4480-9adb-daa03bbd81ef"}},{"fullUrl":"Practitioner/ee25858f-ed85-4aac-bb13-5c50ccdc3665","resource":{"resourceType":"Practitioner","id":"ee25858f-ed85-4aac-bb13-5c50ccdc3665","meta":{"profile":["http://hl7.org/fhir/us/qicore/StructureDefinition/qicore-practitioner"]},"identifier":[{"system":"http://hl7.org/fhir/sid/us-npi","value":"9999999896"}],"name":[{"family":"Evil","prefix":["Dr"]}]},"request":{"method":"PUT","url":"Practitioner/ee25858f-ed85-4aac-bb13-5c50ccdc3665"}},{"fullUrl":"MedicationAdministration/1f2bff9a-b974-4055-b98a-688cf31d24e4","resource":{"resourceType":"MedicationAdministration","id":"1f2bff9a-b974-4055-b98a-688cf31d24e4","meta":{"profile":["http://hl7.org/fhir/us/qicore/StructureDefinition/qicore-medicationadministration"]},"status":"completed","medicationCodeableConcept":{"coding":[{"system":"http://www.nlm.nih.gov/research/umls/rxnorm","code":"1037045"}]},"subject":{"reference":"Patient/7e3bf20a-7a5b-4d50-aa34-267ab19da7b2"},"effectivePeriod":{"start":"2026-10-11T07:00:00Z","end":"2026-10-11T08:20:00.000+00:00"}},"request":{"method":"PUT","url":"MedicationAdministration/1f2bff9a-b974-4055-b98a-688cf31d24e4"}},{"fullUrl":"MeasureReport/61e996b4-cbaf-46b5-a8ed-6866dbffd956","resource":{"resourceType":"MeasureReport","id":"61e996b4-cbaf-46b5-a8ed-6866dbffd956","meta":{"profile":["http://hl7.org/fhir/us/cqfmeasures/StructureDefinition/test-case-cqfm"]},"contained":[{"resourceType":"Parameters","id":"7a657808-741e-40ff-9ae5-d196093ee4e5-parameters","parameter":[{"name":"subject","valueString":"7e3bf20a-7a5b-4d50-aa34-267ab19da7b2"}]}],"extension":[{"url":"http://hl7.org/fhir/StructureDefinition/cqf-inputParameters","valueReference":{"reference":"#7a657808-741e-40ff-9ae5-d196093ee4e5-parameters"}},{"url":"http://hl7.org/fhir/us/cqfmeasures/StructureDefinition/cqfm-testCaseDescription","valueMarkdown":"\"Patient receives antithrombotic in the ED. MedAntithromboticStart EQ 1day \nglobal.\"\"Hospitalization\"\" =(Ed+IP)\"\n"}],"modifierExtension":[{"url":"http://hl7.org/fhir/us/cqfmeasures/StructureDefinition/cqfm-isTestCase","valueBoolean":true}],"status":"complete","type":"individual","measure":"https://madie.cms.gov/Measure/CMS72FHIRSTKAntithromboticDay2","period":{"start":"2026-01-01","end":"2026-12-31"},"group":[{"id":"Group_1","population":[{"id":"InitialPopulation_1","code":{"coding":[{"system":"http://terminology.hl7.org/CodeSystem/measure-population","code":"initial-population","display":"Initial Population"}]},"count":1},{"id":"Denominator_1","code":{"coding":[{"system":"http://terminology.hl7.org/CodeSystem/measure-population","code":"denominator","display":"Denominator"}]},"count":1},{"id":"DenominatorExclusion_1","code":{"coding":[{"system":"http://terminology.hl7.org/CodeSystem/measure-population","code":"denominator-exclusion","display":"Denominator Exclusion"}]},"count":0},{"id":"Numerator_1","code":{"coding":[{"system":"http://terminology.hl7.org/CodeSystem/measure-population","code":"numerator","display":"Numerator"}]},"count":1},{"id":"DenominatorException_1","code":{"coding":[{"system":"http://terminology.hl7.org/CodeSystem/measure-population","code":"denominator-exception","display":"Denominator Exception"}]},"count":0}],"measureScore":{"value":0.0}}],"evaluatedResource":[{"reference":"Patient/7e3bf20a-7a5b-4d50-aa34-267ab19da7b2"},{"reference":"Encounter/efbcb9c9-2610-45fe-ae56-9329eb797438"},{"reference":"Encounter/a69fc201-1a27-4480-9adb-daa03bbd81ef"},{"reference":"Claim/5ca62962b8484628b8de1ec5"},{"reference":"MedicationAdministration/1f2bff9a-b974-4055-b98a-688cf31d24e4"},{"reference":"Coverage/8e8267f0-6e53-4700-b7d8-b9196df7c30c"},{"reference":"Condition/70ba7cce-dc7b-448b-9e2f-a63bc9880904"},{"reference":"Organization/a08980e3-8447-4e76-9071-e311d6edbc5f"},{"reference":"Practitioner/ee25858f-ed85-4aac-bb13-5c50ccdc3665"}]},"request":{"method":"PUT","url":"MeasureReport/61e996b4-cbaf-46b5-a8ed-6866dbffd956"}},{"fullUrl":"Organization/a08980e3-8447-4e76-9071-e311d6edbc5f","resource":{"resourceType":"Organization","id":"a08980e3-8447-4e76-9071-e311d6edbc5f","meta":{"profile":["http://hl7.org/fhir/us/qicore/StructureDefinition/qicore-organization"]},"identifier":[{"use":"temp","system":"urn:oid:2.16.840.1.113883.4.4","value":"21-3259825"}],"active":true,"type":[{"coding":[{"system":"http://terminology.hl7.org/CodeSystem/organization-type","code":"pay","display":"Payer"}]}],"name":"Blue Cross Blue Shield of Texas","telecom":[{"system":"phone","value":"(+1) 972-766-6900"}],"address":[{"use":"billing","type":"postal","line":["P.O. Box 660044"],"city":"Dallas","state":"TX","postalCode":"75266-0044","country":"USA"}]},"request":{"method":"PUT","url":"Organization/a08980e3-8447-4e76-9071-e311d6edbc5f"}},{"fullUrl":"Coverage/8e8267f0-6e53-4700-b7d8-b9196df7c30c","resource":{"resourceType":"Coverage","id":"8e8267f0-6e53-4700-b7d8-b9196df7c30c","status":"active","subscriberId":"523435","beneficiary":{"reference":"Patient/7e3bf20a-7a5b-4d50-aa34-267ab19da7b2"},"relationship":{"coding":[{"system":"http://terminology.hl7.org/CodeSystem/subscriber-relationship","code":"self"}]},"period":{"start":"1976-09-26T08:00:00Z"},"payor":[{"reference":"Organization/a08980e3-8447-4e76-9071-e311d6edbc5f"}]},"request":{"method":"PUT","url":"Coverage/8e8267f0-6e53-4700-b7d8-b9196df7c30c"}},{"fullUrl":"Encounter/efbcb9c9-2610-45fe-ae56-9329eb797438","resource":{"resourceType":"Encounter","id":"efbcb9c9-2610-45fe-ae56-9329eb797438","meta":{"profile":["http://hl7.org/fhir/us/qicore/StructureDefinition/qicore-encounter"]},"status":"finished","class":{"system":"http://terminology.hl7.org/CodeSystem/v3-ActCode","code":"EMER","display":"emergency"},"type":[{"coding":[{"system":"http://snomed.info/sct","code":"4525004"}]}],"subject":{"reference":"Patient/7e3bf20a-7a5b-4d50-aa34-267ab19da7b2"},"period":{"start":"2026-10-10T06:00:00Z","end":"2026-10-10T08:30:00.000+00:00"},"length":{"value":0,"unit":"days"}},"request":{"method":"PUT","url":"Encounter/efbcb9c9-2610-45fe-ae56-9329eb797438"}},{"fullUrl":"Bundle/60f82c2e98086b570510e28d","resource":{"resourceType":"Bundle","id":"60f82c2e98086b570510e28d","type":"transaction","entry":[{"fullUrl":"https://madie.cms.gov/Patient/7e3bf20a-7a5b-4d50-aa34-267ab19da7b2","resource":{"resourceType":"Patient","id":"7e3bf20a-7a5b-4d50-aa34-267ab19da7b2","meta":{"profile":["http://hl7.org/fhir/us/qicore/StructureDefinition/qicore-patient"]},"text":{"status":"generated","div":"<div xmlns=\"http://www.w3.org/1999/xhtml\"><div class=\"hapiHeaderText\">MedAntithromboticStart_eq1dayDuringEncIPwEd <b>NUMERPASS </b></div><table class=\"hapiPropertyTable\"><tbody><tr><td>Identifier</td><td>31f584b75330393256fa59b34c307941</td></tr><tr><td>Date of birth</td><td><span>26 September 1975</span></td></tr></tbody></table></div>"},"extension":[{"url":"http://hl7.org/fhir/us/core/StructureDefinition/us-core-race","extension":[{"url":"ombCategory","valueCoding":{"system":"urn:oid:2.16.840.1.113883.6.238","code":"2054-5","display":"Black or African American","userSelected":true}},{"url":"text","valueString":"Black or African American"}]},{"url":"http://hl7.org/fhir/us/core/StructureDefinition/us-core-ethnicity","extension":[{"url":"ombCategory","valueCoding":{"system":"urn:oid:2.16.840.1.113883.6.238","code":"2186-5","display":"Not Hispanic or Latino","userSelected":true}},{"url":"text","valueString":"Not Hispanic or Latino"}]},{"url":"http://hl7.org/fhir/us/core/StructureDefinition/us-core-sex","valueCode":"248153007"}],"identifier":[{"type":{"coding":[{"system":"http://terminology.hl7.org/CodeSystem/v2-0203","code":"MR"}]},"system":"https://bonnie-fhir.healthit.gov/","value":"60f82c2e98086b570510e28d"}],"active":true,"name":[{"use":"usual","family":"NUMERPass","given":["MedAntithromboticStarteq1dayDuringEncIPwEd"]}],"gender":"male","birthDate":"1976-09-26"},"request":{"method":"PUT","url":"Patient/7e3bf20a-7a5b-4d50-aa34-267ab19da7b2"}},{"fullUrl":"https://madie.cms.gov/Encounter/efbcb9c9-2610-45fe-ae56-9329eb797438","resource":{"resourceType":"Encounter","id":"efbcb9c9-2610-45fe-ae56-9329eb797438","meta":{"profile":["http://hl7.org/fhir/us/qicore/StructureDefinition/qicore-encounter"]},"status":"finished","class":{"system":"http://terminology.hl7.org/CodeSystem/v3-ActCode","code":"EMER","display":"emergency"},"type":[{"coding":[{"system":"http://snomed.info/sct","code":"4525004"}]}],"subject":{"reference":"Patient/7e3bf20a-7a5b-4d50-aa34-267ab19da7b2"},"period":{"start":"2026-10-10T06:00:00Z","end":"2026-10-10T08:30:00.000+00:00"},"length":{"value":0,"unit":"days"}},"request":{"method":"PUT","url":"Encounter/efbcb9c9-2610-45fe-ae56-9329eb797438"}},{"fullUrl":"https://madie.cms.gov/Encounter/a69fc201-1a27-4480-9adb-daa03bbd81ef","resource":{"resourceType":"Encounter","id":"a69fc201-1a27-4480-9adb-daa03bbd81ef","meta":{"profile":["http://hl7.org/fhir/us/qicore/StructureDefinition/qicore-encounter"]},"status":"finished","class":{"system":"http://terminology.hl7.org/CodeSystem/v3-ActCode","code":"IMP","display":"inpatient encounter"},"type":[{"coding":[{"system":"http://snomed.info/sct","code":"32485007"}]}],"subject":{"reference":"Patient/7e3bf20a-7a5b-4d50-aa34-267ab19da7b2"},"period":{"start":"2026-10-10T09:00:00Z","end":"2026-10-12T11:30:00.000+00:00"},"length":{"value":2,"unit":"days"},"reasonReference":[{"reference":"Condition/70ba7cce-dc7b-448b-9e2f-a63bc9880904"}]},"request":{"method":"PUT","url":"Encounter/a69fc201-1a27-4480-9adb-daa03bbd81ef"}},{"fullUrl":"https://madie.cms.gov/claim/5ca62962b8484628b8de1ec5","resource":{"resourceType":"Claim","id":"5ca62962b8484628b8de1ec5","meta":{"profile":["http://hl7.org/fhir/us/qicore/StructureDefinition/qicore-claim"]},"status":"active","type":{"coding":[{"system":"http://terminology.hl7.org/CodeSystem/claim-type","code":"institutional"}]},"use":"claim","patient":{"reference":"Patient/d170a0a8-b5ad-4303-b6df-e304dd5f92ad"},"created":"2026-12-01","provider":{"reference":"Practitioner/ee25858f-ed85-4aac-bb13-5c50ccdc3665"},"priority":{"coding":[{"system":"http://terminology.hl7.org/CodeSystem/processpriority","code":"normal"}]},"diagnosis":[{"sequence":1,"diagnosisCodeableConcept":{"coding":[{"system":"http://hl7.org/fhir/sid/icd-10-cm","code":"I63.00"}]},"type":[{"coding":[{"system":"http://terminology.hl7.org/CodeSystem/ex-diagnosistype","code":"principal"}]}]}],"insurance":[{"sequence":1,"focal":true,"coverage":{"reference":"Coverage/5fa041661c76ba66d9959367"}}],"item":[{"sequence":1,"diagnosisSequence":[1],"productOrService":{"coding":[{"system":"http://terminology.hl7.org/CodeSystem/ex-USCLS","code":"99555"}]},"encounter":[{"reference":"Encounter/a69fc201-1a27-4480-9adb-daa03bbd81ef"}]}]},"request":{"method":"PUT","url":"Claim/5ca62962b8484628b8de1ec5"}},{"fullUrl":"https://madie.cms.gov/MedicationAdministration/1f2bff9a-b974-4055-b98a-688cf31d24e4","resource":{"resourceType":"MedicationAdministration","id":"1f2bff9a-b974-4055-b98a-688cf31d24e4","meta":{"profile":["http://hl7.org/fhir/us/qicore/StructureDefinition/qicore-medicationadministration"]},"status":"completed","medicationCodeableConcept":{"coding":[{"system":"http://www.nlm.nih.gov/research/umls/rxnorm","code":"1037045"}]},"subject":{"reference":"Patient/7e3bf20a-7a5b-4d50-aa34-267ab19da7b2"},"effectivePeriod":{"start":"2026-10-11T07:00:00Z","end":"2026-10-11T08:20:00.000+00:00"}},"request":{"method":"PUT","url":"MedicationAdministration/1f2bff9a-b974-4055-b98a-688cf31d24e4"}},{"fullUrl":"https://madie.cms.gov/Coverage/8e8267f0-6e53-4700-b7d8-b9196df7c30c","resource":{"resourceType":"Coverage","id":"8e8267f0-6e53-4700-b7d8-b9196df7c30c","status":"active","subscriberId":"523435","beneficiary":{"reference":"Patient/7e3bf20a-7a5b-4d50-aa34-267ab19da7b2"},"relationship":{"coding":[{"system":"http://terminology.hl7.org/CodeSystem/subscriber-relationship","code":"self"}]},"period":{"start":"1976-09-26T08:00:00Z"},"payor":[{"reference":"Organization/a08980e3-8447-4e76-9071-e311d6edbc5f"}]},"request":{"method":"PUT","url":"Coverage/8e8267f0-6e53-4700-b7d8-b9196df7c30c"}},{"fullUrl":"https://madie.cms.gov/Condition/70ba7cce-dc7b-448b-9e2f-a63bc9880904","resource":{"resourceType":"Condition","id":"70ba7cce-dc7b-448b-9e2f-a63bc9880904","meta":{"profile":["http://hl7.org/fhir/us/qicore/StructureDefinition/qicore-condition-problems-health-concerns"]},"clinicalStatus":{"coding":[{"system":"http://terminology.hl7.org/CodeSystem/condition-clinical","code":"active"}]},"verificationStatus":{"coding":[{"system":"http://terminology.hl7.org/CodeSystem/condition-ver-status","code":"confirmed"}]},"category":[{"coding":[{"system":"http://terminology.hl7.org/CodeSystem/condition-category","code":"encounter-diagnosis","display":"Encounter Diagnosis"}]}],"code":{"coding":[{"system":"http://snomed.info/sct","version":"2020-09","code":"111297002","display":"Nonparalytic stroke (disorder)","userSelected":true}]},"subject":{"reference":"Patient/7e3bf20a-7a5b-4d50-aa34-267ab19da7b2"},"recordedDate":"2026-08-16T08:00:00Z"},"request":{"method":"PUT","url":"Condition/70ba7cce-dc7b-448b-9e2f-a63bc9880904"}},{"fullUrl":"https://madie.cms.gov/Organization/a08980e3-8447-4e76-9071-e311d6edbc5f","resource":{"resourceType":"Organization","id":"a08980e3-8447-4e76-9071-e311d6edbc5f","meta":{"profile":["http://hl7.org/fhir/us/qicore/StructureDefinition/qicore-organization"]},"identifier":[{"use":"temp","system":"urn:oid:2.16.840.1.113883.4.4","value":"21-3259825"}],"active":true,"type":[{"coding":[{"system":"http://terminology.hl7.org/CodeSystem/organization-type","code":"pay","display":"Payer"}]}],"name":"Blue Cross Blue Shield of Texas","telecom":[{"system":"phone","value":"(+1) 972-766-6900"}],"address":[{"use":"billing","type":"postal","line":["P.O. Box 660044"],"city":"Dallas","state":"TX","postalCode":"75266-0044","country":"USA"}]},"request":{"method":"PUT","url":"Organization/a08980e3-8447-4e76-9071-e311d6edbc5f"}},{"fullUrl":"https://madie.cms.gov/Practitioner/ee25858f-ed85-4aac-bb13-5c50ccdc3665","resource":{"resourceType":"Practitioner","id":"ee25858f-ed85-4aac-bb13-5c50ccdc3665","meta":{"profile":["http://hl7.org/fhir/us/qicore/StructureDefinition/qicore-practitioner"]},"identifier":[{"system":"http://hl7.org/fhir/sid/us-npi","value":"9999999896"}],"name":[{"family":"Evil","prefix":["Dr"]}]},"request":{"method":"PUT","url":"Practitioner/ee25858f-ed85-4aac-bb13-5c50ccdc3665"}},{"fullUrl":"https://madie.cms.gov/MeasureReport/61e996b4-cbaf-46b5-a8ed-6866dbffd956","resource":{"resourceType":"MeasureReport","id":"61e996b4-cbaf-46b5-a8ed-6866dbffd956","meta":{"profile":["http://hl7.org/fhir/us/cqfmeasures/StructureDefinition/test-case-cqfm"]},"contained":[{"resourceType":"Parameters","id":"7a657808-741e-40ff-9ae5-d196093ee4e5-parameters","parameter":[{"name":"subject","valueString":"7e3bf20a-7a5b-4d50-aa34-267ab19da7b2"}]}],"extension":[{"url":"http://hl7.org/fhir/StructureDefinition/cqf-inputParameters","valueReference":{"reference":"#7a657808-741e-40ff-9ae5-d196093ee4e5-parameters"}},{"url":"http://hl7.org/fhir/us/cqfmeasures/StructureDefinition/cqfm-testCaseDescription","valueMarkdown":"\"Patient receives antithrombotic in the ED. MedAntithromboticStart EQ 1day \nglobal.\"\"Hospitalization\"\" =(Ed+IP)\"\n"}],"modifierExtension":[{"url":"http://hl7.org/fhir/us/cqfmeasures/StructureDefinition/cqfm-isTestCase","valueBoolean":true}],"status":"complete","type":"individual","measure":"https://madie.cms.gov/Measure/CMS72FHIRSTKAntithromboticDay2","period":{"start":"2026-01-01","end":"2026-12-31"},"group":[{"id":"Group_1","population":[{"id":"InitialPopulation_1","code":{"coding":[{"system":"http://terminology.hl7.org/CodeSystem/measure-population","code":"initial-population","display":"Initial Population"}]},"count":1},{"id":"Denominator_1","code":{"coding":[{"system":"http://terminology.hl7.org/CodeSystem/measure-population","code":"denominator","display":"Denominator"}]},"count":1},{"id":"DenominatorExclusion_1","code":{"coding":[{"system":"http://terminology.hl7.org/CodeSystem/measure-population","code":"denominator-exclusion","display":"Denominator Exclusion"}]},"count":0},{"id":"Numerator_1","code":{"coding":[{"system":"http://terminology.hl7.org/CodeSystem/measure-population","code":"numerator","display":"Numerator"}]},"count":1},{"id":"DenominatorException_1","code":{"coding":[{"system":"http://terminology.hl7.org/CodeSystem/measure-population","code":"denominator-exception","display":"Denominator Exception"}]},"count":0}],"measureScore":{"value":0.0}}],"evaluatedResource":[{"reference":"Patient/7e3bf20a-7a5b-4d50-aa34-267ab19da7b2"},{"reference":"Encounter/efbcb9c9-2610-45fe-ae56-9329eb797438"},{"reference":"Encounter/a69fc201-1a27-4480-9adb-daa03bbd81ef"},{"reference":"Claim/5ca62962b8484628b8de1ec5"},{"reference":"MedicationAdministration/1f2bff9a-b974-4055-b98a-688cf31d24e4"},{"reference":"Coverage/8e8267f0-6e53-4700-b7d8-b9196df7c30c"},{"reference":"Condition/70ba7cce-dc7b-448b-9e2f-a63bc9880904"},{"reference":"Organization/a08980e3-8447-4e76-9071-e311d6edbc5f"},{"reference":"Practitioner/ee25858f-ed85-4aac-bb13-5c50ccdc3665"}]},"request":{"method":"PUT","url":"MeasureReport/61e996b4-cbaf-46b5-a8ed-6866dbffd956"}}]},"request":{"method":"PUT","url":"Bundle/60f82c2e98086b570510e28d"}},{"fullUrl":"Condition/70ba7cce-dc7b-448b-9e2f-a63bc9880904","resource":{"resourceType":"Condition","id":"70ba7cce-dc7b-448b-9e2f-a63bc9880904","meta":{"profile":["http://hl7.org/fhir/us/qicore/StructureDefinition/qicore-condition-problems-health-concerns"]},"clinicalStatus":{"coding":[{"system":"http://terminology.hl7.org/CodeSystem/condition-clinical","code":"active"}]},"verificationStatus":{"coding":[{"system":"http://terminology.hl7.org/CodeSystem/condition-ver-status","code":"confirmed"}]},"category":[{"coding":[{"system":"http://terminology.hl7.org/CodeSystem/condition-category","code":"encounter-diagnosis","display":"Encounter Diagnosis"}]}],"code":{"coding":[{"system":"http://snomed.info/sct","version":"2020-09","code":"111297002","display":"Nonparalytic stroke (disorder)","userSelected":true}]},"subject":{"reference":"Patient/7e3bf20a-7a5b-4d50-aa34-267ab19da7b2"},"recordedDate":"2026-08-16T08:00:00Z"},"request":{"method":"PUT","url":"Condition/70ba7cce-dc7b-448b-9e2f-a63bc9880904"}},{"fullUrl":"Claim/5ca62962b8484628b8de1ec5","resource":{"resourceType":"Claim","id":"5ca62962b8484628b8de1ec5","meta":{"profile":["http://hl7.org/fhir/us/qicore/StructureDefinition/qicore-claim"]},"status":"active","type":{"coding":[{"system":"http://terminology.hl7.org/CodeSystem/claim-type","code":"institutional"}]},"use":"claim","patient":{"reference":"Patient/d170a0a8-b5ad-4303-b6df-e304dd5f92ad"},"created":"2026-12-01","provider":{"reference":"Practitioner/ee25858f-ed85-4aac-bb13-5c50ccdc3665"},"priority":{"coding":[{"system":"http://terminology.hl7.org/CodeSystem/processpriority","code":"normal"}]},"diagnosis":[{"sequence":1,"diagnosisCodeableConcept":{"coding":[{"system":"http://hl7.org/fhir/sid/icd-10-cm","code":"I63.00"}]},"type":[{"coding":[{"system":"http://terminology.hl7.org/CodeSystem/ex-diagnosistype","code":"principal"}]}]}],"insurance":[{"sequence":1,"focal":true,"coverage":{"reference":"Coverage/5fa041661c76ba66d9959367"}}],"item":[{"sequence":1,"diagnosisSequence":[1],"productOrService":{"coding":[{"system":"http://terminology.hl7.org/CodeSystem/ex-USCLS","code":"99555"}]},"encounter":[{"reference":"Encounter/a69fc201-1a27-4480-9adb-daa03bbd81ef"}]}]},"request":{"method":"PUT","url":"Claim/5ca62962b8484628b8de1ec5"}}]}