{
  "resourceType": "Bundle",
  "id": "630307cb0968f801224784b8",
  "type": "transaction",
  "entry": [ {
    "fullUrl": "https://madie.cms.gov/Patient/b120a966-fc33-4768-b057-9e1e686d2c88",
    "resource": {
      "resourceType": "Patient",
      "id": "b120a966-fc33-4768-b057-9e1e686d2c88",
      "meta": {
        "profile": [ "http://hl7.org/fhir/us/qicore/StructureDefinition/qicore-patient" ]
      },
      "extension": [ {
        "url": "http://hl7.org/fhir/us/core/StructureDefinition/us-core-race",
        "extension": [ {
          "url": "ombCategory",
          "valueCoding": {
            "system": "urn:oid:2.16.840.1.113883.6.238",
            "code": "2106-3",
            "display": "White"
          }
        }, {
          "url": "detailed",
          "valueCoding": {
            "system": "urn:oid:2.16.840.1.113883.6.238",
            "code": "2036-2",
            "display": "Filipino"
          }
        }, {
          "url": "text",
          "valueString": "mixed"
        } ]
      }, {
        "url": "http://hl7.org/fhir/us/core/StructureDefinition/us-core-ethnicity",
        "extension": [ {
          "url": "ombCategory",
          "valueCoding": {
            "system": "urn:oid:2.16.840.1.113883.6.238",
            "code": "2135-2",
            "display": "Hispanic or Latino"
          }
        }, {
          "url": "detailed",
          "valueCoding": {
            "system": "urn:oid:2.16.840.1.113883.6.238",
            "code": "2148-5",
            "display": "Mexican"
          }
        }, {
          "url": "text",
          "valueString": "Hispanic or Latino"
        } ]
      } ],
      "identifier": [ {
        "type": {
          "coding": [ {
            "system": "http://terminology.hl7.org/CodeSystem/v2-0203",
            "code": "MR"
          } ]
        },
        "system": "https://bonnie-fhir.healthit.gov/",
        "value": "630307cb0968f801224784b8"
      } ],
      "name": [ {
        "family": "NUMERPopStrat12Fail",
        "given": [ "SecondPHQ9OutofRange" ]
      } ],
      "gender": "female",
      "birthDate": "1950-01-01"
    },
    "request": {
      "method": "PUT",
      "url": "Patient/b120a966-fc33-4768-b057-9e1e686d2c88"
    }
  }, {
    "fullUrl": "https://madie.cms.gov/Encounter/55ea78eb-ba01-4097-a658-5c28244b34f3",
    "resource": {
      "resourceType": "Encounter",
      "id": "55ea78eb-ba01-4097-a658-5c28244b34f3",
      "meta": {
        "profile": [ "http://hl7.org/fhir/us/qicore/StructureDefinition/qicore-encounter" ]
      },
      "status": "finished",
      "class": {
        "system": "http://terminology.hl7.org/CodeSystem/v3-ActCode",
        "code": "AMB",
        "display": "ambulatory"
      },
      "type": [ {
        "coding": [ {
          "system": "http://www.ama-assn.org/go/cpt",
          "version": "2024",
          "code": "90791"
        } ]
      } ],
      "subject": {
        "reference": "Patient/b120a966-fc33-4768-b057-9e1e686d2c88"
      },
      "period": {
        "start": "2025-02-25T14:30:00+00:00",
        "end": "2025-02-25T14:50:00+00:00"
      },
      "length": {
        "value": 0,
        "unit": "days"
      }
    },
    "request": {
      "method": "PUT",
      "url": "Encounter/55ea78eb-ba01-4097-a658-5c28244b34f3"
    }
  }, {
    "fullUrl": "https://madie.cms.gov/Observation/344044a4-bc1e-4310-a685-f1c70dc52171",
    "resource": {
      "resourceType": "Observation",
      "id": "344044a4-bc1e-4310-a685-f1c70dc52171",
      "meta": {
        "profile": [ "http://hl7.org/fhir/us/qicore/StructureDefinition/qicore-observation-screening-assessment" ]
      },
      "status": "final",
      "category": [ {
        "coding": [ {
          "system": "http://terminology.hl7.org/CodeSystem/observation-category",
          "code": "survey",
          "display": "Survey"
        } ]
      } ],
      "code": {
        "coding": [ {
          "system": "http://loinc.org",
          "version": "2.76",
          "code": "44261-6"
        } ]
      },
      "subject": {
        "reference": "Patient/b120a966-fc33-4768-b057-9e1e686d2c88"
      },
      "effectiveDateTime": "2025-02-25T14:35:00+00:00",
      "valueInteger": 10
    },
    "request": {
      "method": "PUT",
      "url": "Observation/344044a4-bc1e-4310-a685-f1c70dc52171"
    }
  }, {
    "fullUrl": "https://madie.cms.gov/Observation/2420bc30-b221-4865-be60-1ed46d3a277e",
    "resource": {
      "resourceType": "Observation",
      "id": "2420bc30-b221-4865-be60-1ed46d3a277e",
      "meta": {
        "profile": [ "http://hl7.org/fhir/us/qicore/StructureDefinition/qicore-observation-screening-assessment" ]
      },
      "status": "final",
      "category": [ {
        "coding": [ {
          "system": "http://terminology.hl7.org/CodeSystem/observation-category",
          "code": "survey",
          "display": "Survey"
        } ]
      } ],
      "code": {
        "coding": [ {
          "system": "http://loinc.org",
          "version": "2.76",
          "code": "44261-6"
        } ]
      },
      "subject": {
        "reference": "Patient/b120a966-fc33-4768-b057-9e1e686d2c88"
      },
      "effectiveDateTime": "2026-02-19T14:30:00+00:00",
      "valueInteger": 300
    },
    "request": {
      "method": "PUT",
      "url": "Observation/2420bc30-b221-4865-be60-1ed46d3a277e"
    }
  }, {
    "fullUrl": "https://madie.cms.gov/Condition/b68cba7f-ab83-4d3c-a0f3-569a47894d08",
    "resource": {
      "resourceType": "Condition",
      "id": "b68cba7f-ab83-4d3c-a0f3-569a47894d08",
      "meta": {
        "profile": [ "http://hl7.org/fhir/us/qicore/StructureDefinition/qicore-condition-problems-health-concerns" ]
      },
      "clinicalStatus": {
        "coding": [ {
          "system": "http://terminology.hl7.org/CodeSystem/condition-clinical",
          "code": "active",
          "display": "active"
        } ]
      },
      "verificationStatus": {
        "coding": [ {
          "system": "http://terminology.hl7.org/CodeSystem/condition-ver-status",
          "code": "confirmed"
        } ]
      },
      "category": [ {
        "coding": [ {
          "system": "http://terminology.hl7.org/CodeSystem/condition-category",
          "code": "problem-list-item",
          "display": "Problem List Item"
        } ]
      } ],
      "code": {
        "coding": [ {
          "system": "http://hl7.org/fhir/sid/icd-10-cm",
          "version": "2024",
          "code": "F32.9"
        } ]
      },
      "subject": {
        "reference": "Patient/b120a966-fc33-4768-b057-9e1e686d2c88"
      },
      "onsetDateTime": "2025-02-25T14:35:00+00:00"
    },
    "request": {
      "method": "PUT",
      "url": "Condition/b68cba7f-ab83-4d3c-a0f3-569a47894d08"
    }
  }, {
    "fullUrl": "https://madie.cms.gov/MeasureReport/a9c6b46b-18af-49df-bbb5-7d18ead958b1",
    "resource": {
      "resourceType": "MeasureReport",
      "id": "a9c6b46b-18af-49df-bbb5-7d18ead958b1",
      "meta": {
        "profile": [ "http://hl7.org/fhir/us/cqfmeasures/StructureDefinition/test-case-cqfm" ]
      },
      "contained": [ {
        "resourceType": "Parameters",
        "id": "2421a63f-5f13-4fc2-ad1c-1c7f47149e65-parameters",
        "parameter": [ {
          "name": "subject",
          "valueString": "b120a966-fc33-4768-b057-9e1e686d2c88"
        } ]
      } ],
      "extension": [ {
        "url": "http://hl7.org/fhir/StructureDefinition/cqf-inputParameters",
        "valueReference": {
          "reference": "#2421a63f-5f13-4fc2-ad1c-1c7f47149e65-parameters"
        }
      }, {
        "url": "http://hl7.org/fhir/us/cqfmeasures/StructureDefinition/cqfm-testCaseDescription",
        "valueMarkdown": "Patient has a Major Depression diagnosis and an encounter with PHQ-9>9 during Denom ID period. Patient has an incorrect/non applicable result for the PHQ-9 assessment during the MAP. Patient is in the denom for strat 2. "
      } ],
      "modifierExtension": [ {
        "url": "http://hl7.org/fhir/us/cqfmeasures/StructureDefinition/cqfm-isTestCase",
        "valueBoolean": true
      } ],
      "status": "complete",
      "type": "individual",
      "measure": "https://madie.cms.gov/Measure/CMS159FHIRDepressionRemissionatTwelveMonths",
      "period": {
        "start": "2026-01-01",
        "end": "2026-12-31"
      },
      "group": [ {
        "id": "Group_1",
        "population": [ {
          "id": "InitialPopulation_1",
          "code": {
            "coding": [ {
              "system": "http://terminology.hl7.org/CodeSystem/measure-population",
              "code": "initial-population",
              "display": "Initial Population"
            } ]
          },
          "count": 1
        }, {
          "id": "Denominator_1",
          "code": {
            "coding": [ {
              "system": "http://terminology.hl7.org/CodeSystem/measure-population",
              "code": "denominator",
              "display": "Denominator"
            } ]
          },
          "count": 1
        }, {
          "id": "DenominatorExclusion_1",
          "code": {
            "coding": [ {
              "system": "http://terminology.hl7.org/CodeSystem/measure-population",
              "code": "denominator-exclusion",
              "display": "Denominator Exclusion"
            } ]
          },
          "count": 0
        }, {
          "id": "Numerator_1",
          "code": {
            "coding": [ {
              "system": "http://terminology.hl7.org/CodeSystem/measure-population",
              "code": "numerator",
              "display": "Numerator"
            } ]
          },
          "count": 0
        } ],
        "measureScore": {
          "value": 1.0
        }
      } ],
      "evaluatedResource": [ {
        "reference": "Patient/b120a966-fc33-4768-b057-9e1e686d2c88"
      }, {
        "reference": "Encounter/55ea78eb-ba01-4097-a658-5c28244b34f3"
      }, {
        "reference": "Observation/344044a4-bc1e-4310-a685-f1c70dc52171"
      }, {
        "reference": "Observation/2420bc30-b221-4865-be60-1ed46d3a277e"
      }, {
        "reference": "Condition/b68cba7f-ab83-4d3c-a0f3-569a47894d08"
      } ]
    },
    "request": {
      "method": "PUT",
      "url": "MeasureReport/a9c6b46b-18af-49df-bbb5-7d18ead958b1"
    }
  } ]
}