{"resourceType":"Bundle","id":"tests-041977d6-9e3e-493b-9260-0b919f02fbcf-bundle","type":"transaction","entry":[{"resource":{"resourceType":"Encounter","id":"6c3abd3b-c9ce-4fef-9c15-a6f812083c6d","meta":{"profile":["http://hl7.org/fhir/us/qicore/StructureDefinition/qicore-encounter"]},"status":"finished","class":{"system":"http://www.ama-assn.org/go/cpt","version":"2024","code":"99205","display":"Office or other outpatient visit for the evaluation and management of a new patient, which requires a medically appropriate history and/or examination and high level of medical decision making. When using time for code selection, 60-74 minutes of total time is spent on the date of the encounter."},"type":[{"coding":[{"system":"http://www.ama-assn.org/go/cpt","version":"2024","code":"90791"}]}],"subject":{"reference":"Patient/041977d6-9e3e-493b-9260-0b919f02fbcf"},"period":{"start":"2025-10-31T14:35:00+00:00","end":"2025-10-31T14:45:00+00:00"},"length":{"value":0,"unit":"days"}},"request":{"method":"PUT","url":"Encounter/6c3abd3b-c9ce-4fef-9c15-a6f812083c6d"}},{"resource":{"resourceType":"MeasureReport","id":"15d93956-301d-416c-940e-1c1920df725c","meta":{"profile":["http://hl7.org/fhir/us/cqfmeasures/StructureDefinition/test-case-cqfm"]},"contained":[{"resourceType":"Parameters","id":"d6258742-15d5-4045-be58-6ae24bdfb7be-parameters","parameter":[{"name":"subject","valueString":"041977d6-9e3e-493b-9260-0b919f02fbcf"}]}],"extension":[{"url":"http://hl7.org/fhir/StructureDefinition/cqf-inputParameters","valueReference":{"reference":"#d6258742-15d5-4045-be58-6ae24bdfb7be-parameters"}},{"url":"http://hl7.org/fhir/us/cqfmeasures/StructureDefinition/cqfm-testCaseDescription","valueMarkdown":"Patient is 15 and did not have a Major Depression or Dysthymia diagnosis during denom ID period. Patient should not be initial population. Note: Stratification issue."}],"modifierExtension":[{"url":"http://hl7.org/fhir/us/cqfmeasures/StructureDefinition/cqfm-isTestCase","valueBoolean":true}],"status":"complete","type":"individual","measure":"https://madie.cms.gov/Measure/CMS159FHIRDepressionRemissionatTwelveMonths","period":{"start":"2026-01-01","end":"2026-12-31"},"group":[{"id":"Group_1","population":[{"id":"InitialPopulation_1","code":{"coding":[{"system":"http://terminology.hl7.org/CodeSystem/measure-population","code":"initial-population","display":"Initial Population"}]},"count":0},{"id":"Denominator_1","code":{"coding":[{"system":"http://terminology.hl7.org/CodeSystem/measure-population","code":"denominator","display":"Denominator"}]},"count":0},{"id":"DenominatorExclusion_1","code":{"coding":[{"system":"http://terminology.hl7.org/CodeSystem/measure-population","code":"denominator-exclusion","display":"Denominator Exclusion"}]},"count":0},{"id":"Numerator_1","code":{"coding":[{"system":"http://terminology.hl7.org/CodeSystem/measure-population","code":"numerator","display":"Numerator"}]},"count":0}],"measureScore":{"value":1.0}}],"evaluatedResource":[{"reference":"Patient/041977d6-9e3e-493b-9260-0b919f02fbcf"},{"reference":"Encounter/6c3abd3b-c9ce-4fef-9c15-a6f812083c6d"},{"reference":"Observation/07b46878-73ea-4f1e-99e7-1bb900495750"}]},"request":{"method":"PUT","url":"MeasureReport/15d93956-301d-416c-940e-1c1920df725c"}},{"resource":{"resourceType":"Observation","id":"07b46878-73ea-4f1e-99e7-1bb900495750","meta":{"profile":["http://hl7.org/fhir/us/qicore/StructureDefinition/qicore-observation-screening-assessment"]},"status":"final","category":[{"coding":[{"system":"http://terminology.hl7.org/CodeSystem/observation-category","code":"survey","display":"Survey"}]}],"code":{"coding":[{"system":"http://loinc.org","version":"2.76","code":"44261-6"}]},"subject":{"reference":"Patient/041977d6-9e3e-493b-9260-0b919f02fbcf"},"effectiveDateTime":"2025-10-31T14:35:00+00:00","valueInteger":10},"request":{"method":"PUT","url":"Observation/07b46878-73ea-4f1e-99e7-1bb900495750"}},{"resource":{"resourceType":"Patient","id":"041977d6-9e3e-493b-9260-0b919f02fbcf","meta":{"profile":["http://hl7.org/fhir/us/qicore/StructureDefinition/qicore-patient"]},"extension":[{"url":"http://hl7.org/fhir/us/core/StructureDefinition/us-core-race","extension":[{"url":"ombCategory","valueCoding":{"system":"urn:oid:2.16.840.1.113883.6.238","code":"2106-3","display":"White"}},{"url":"text","valueString":"White"}]},{"url":"http://hl7.org/fhir/us/core/StructureDefinition/us-core-ethnicity","extension":[{"url":"ombCategory","valueCoding":{"system":"urn:oid:2.16.840.1.113883.6.238","code":"2186-5","display":"Not Hispanic or Latino"}},{"url":"text","valueString":"Not Hispanic or Latino"}]}],"identifier":[{"type":{"coding":[{"system":"http://terminology.hl7.org/CodeSystem/v2-0203","code":"MR"}]},"system":"https://bonnie-fhir.healthit.gov/","value":"630307c20968f801224779a0"}],"name":[{"family":"IPPPopStrat1Fail","given":["NoDxDepressDuringIdPeriod"]}],"gender":"female","birthDate":"2011-01-01"},"request":{"method":"PUT","url":"Patient/041977d6-9e3e-493b-9260-0b919f02fbcf"}},{"resource":{"resourceType":"Bundle","id":"630307c20968f801224779a0","type":"transaction","entry":[{"fullUrl":"https://madie.cms.gov/Patient/041977d6-9e3e-493b-9260-0b919f02fbcf","resource":{"resourceType":"Patient","id":"041977d6-9e3e-493b-9260-0b919f02fbcf","meta":{"profile":["http://hl7.org/fhir/us/qicore/StructureDefinition/qicore-patient"]},"extension":[{"url":"http://hl7.org/fhir/us/core/StructureDefinition/us-core-race","extension":[{"url":"ombCategory","valueCoding":{"system":"urn:oid:2.16.840.1.113883.6.238","code":"2106-3","display":"White"}},{"url":"text","valueString":"White"}]},{"url":"http://hl7.org/fhir/us/core/StructureDefinition/us-core-ethnicity","extension":[{"url":"ombCategory","valueCoding":{"system":"urn:oid:2.16.840.1.113883.6.238","code":"2186-5","display":"Not Hispanic or Latino"}},{"url":"text","valueString":"Not Hispanic or Latino"}]}],"identifier":[{"type":{"coding":[{"system":"http://terminology.hl7.org/CodeSystem/v2-0203","code":"MR"}]},"system":"https://bonnie-fhir.healthit.gov/","value":"630307c20968f801224779a0"}],"name":[{"family":"IPPPopStrat1Fail","given":["NoDxDepressDuringIdPeriod"]}],"gender":"female","birthDate":"2011-01-01"},"request":{"method":"PUT","url":"Patient/041977d6-9e3e-493b-9260-0b919f02fbcf"}},{"fullUrl":"https://madie.cms.gov/Encounter/6c3abd3b-c9ce-4fef-9c15-a6f812083c6d","resource":{"resourceType":"Encounter","id":"6c3abd3b-c9ce-4fef-9c15-a6f812083c6d","meta":{"profile":["http://hl7.org/fhir/us/qicore/StructureDefinition/qicore-encounter"]},"status":"finished","class":{"system":"http://www.ama-assn.org/go/cpt","version":"2024","code":"99205","display":"Office or other outpatient visit for the evaluation and management of a new patient, which requires a medically appropriate history and/or examination and high level of medical decision making. When using time for code selection, 60-74 minutes of total time is spent on the date of the encounter."},"type":[{"coding":[{"system":"http://www.ama-assn.org/go/cpt","version":"2024","code":"90791"}]}],"subject":{"reference":"Patient/041977d6-9e3e-493b-9260-0b919f02fbcf"},"period":{"start":"2025-10-31T14:35:00+00:00","end":"2025-10-31T14:45:00+00:00"},"length":{"value":0,"unit":"days"}},"request":{"method":"PUT","url":"Encounter/6c3abd3b-c9ce-4fef-9c15-a6f812083c6d"}},{"fullUrl":"https://madie.cms.gov/Observation/07b46878-73ea-4f1e-99e7-1bb900495750","resource":{"resourceType":"Observation","id":"07b46878-73ea-4f1e-99e7-1bb900495750","meta":{"profile":["http://hl7.org/fhir/us/qicore/StructureDefinition/qicore-observation-screening-assessment"]},"status":"final","category":[{"coding":[{"system":"http://terminology.hl7.org/CodeSystem/observation-category","code":"survey","display":"Survey"}]}],"code":{"coding":[{"system":"http://loinc.org","version":"2.76","code":"44261-6"}]},"subject":{"reference":"Patient/041977d6-9e3e-493b-9260-0b919f02fbcf"},"effectiveDateTime":"2025-10-31T14:35:00+00:00","valueInteger":10},"request":{"method":"PUT","url":"Observation/07b46878-73ea-4f1e-99e7-1bb900495750"}},{"fullUrl":"https://madie.cms.gov/MeasureReport/15d93956-301d-416c-940e-1c1920df725c","resource":{"resourceType":"MeasureReport","id":"15d93956-301d-416c-940e-1c1920df725c","meta":{"profile":["http://hl7.org/fhir/us/cqfmeasures/StructureDefinition/test-case-cqfm"]},"contained":[{"resourceType":"Parameters","id":"d6258742-15d5-4045-be58-6ae24bdfb7be-parameters","parameter":[{"name":"subject","valueString":"041977d6-9e3e-493b-9260-0b919f02fbcf"}]}],"extension":[{"url":"http://hl7.org/fhir/StructureDefinition/cqf-inputParameters","valueReference":{"reference":"#d6258742-15d5-4045-be58-6ae24bdfb7be-parameters"}},{"url":"http://hl7.org/fhir/us/cqfmeasures/StructureDefinition/cqfm-testCaseDescription","valueMarkdown":"Patient is 15 and did not have a Major Depression or Dysthymia diagnosis during denom ID period. Patient should not be initial population. Note: Stratification issue."}],"modifierExtension":[{"url":"http://hl7.org/fhir/us/cqfmeasures/StructureDefinition/cqfm-isTestCase","valueBoolean":true}],"status":"complete","type":"individual","measure":"https://madie.cms.gov/Measure/CMS159FHIRDepressionRemissionatTwelveMonths","period":{"start":"2026-01-01","end":"2026-12-31"},"group":[{"id":"Group_1","population":[{"id":"InitialPopulation_1","code":{"coding":[{"system":"http://terminology.hl7.org/CodeSystem/measure-population","code":"initial-population","display":"Initial Population"}]},"count":0},{"id":"Denominator_1","code":{"coding":[{"system":"http://terminology.hl7.org/CodeSystem/measure-population","code":"denominator","display":"Denominator"}]},"count":0},{"id":"DenominatorExclusion_1","code":{"coding":[{"system":"http://terminology.hl7.org/CodeSystem/measure-population","code":"denominator-exclusion","display":"Denominator Exclusion"}]},"count":0},{"id":"Numerator_1","code":{"coding":[{"system":"http://terminology.hl7.org/CodeSystem/measure-population","code":"numerator","display":"Numerator"}]},"count":0}],"measureScore":{"value":1.0}}],"evaluatedResource":[{"reference":"Patient/041977d6-9e3e-493b-9260-0b919f02fbcf"},{"reference":"Encounter/6c3abd3b-c9ce-4fef-9c15-a6f812083c6d"},{"reference":"Observation/07b46878-73ea-4f1e-99e7-1bb900495750"}]},"request":{"method":"PUT","url":"MeasureReport/15d93956-301d-416c-940e-1c1920df725c"}}]},"request":{"method":"PUT","url":"Bundle/630307c20968f801224779a0"}}]}