{"resourceType":"Bundle","id":"tests-8cca688d-fceb-4ef9-823c-b4dc612e5eb6-bundle","type":"transaction","entry":[{"resource":{"resourceType":"Condition","id":"79353f5a-2250-4583-82a8-eee560cb3d9f","meta":{"profile":["http://hl7.org/fhir/us/qicore/StructureDefinition/qicore-condition-problems-health-concerns"]},"clinicalStatus":{"coding":[{"system":"http://terminology.hl7.org/CodeSystem/condition-clinical","code":"active","display":"active"}]},"verificationStatus":{"coding":[{"system":"http://terminology.hl7.org/CodeSystem/condition-ver-status","code":"confirmed"}]},"category":[{"coding":[{"system":"http://terminology.hl7.org/CodeSystem/condition-category","code":"problem-list-item","display":"Problem List Item"}]}],"code":{"coding":[{"system":"http://hl7.org/fhir/sid/icd-10-cm","version":"2024","code":"F32.9","display":"Major Depressive Diagnosis"}]},"subject":{"reference":"Patient/8cca688d-fceb-4ef9-823c-b4dc612e5eb6"},"onsetDateTime":"2025-02-25T14:35:00+00:00"},"request":{"method":"PUT","url":"Condition/79353f5a-2250-4583-82a8-eee560cb3d9f"}},{"resource":{"resourceType":"Procedure","id":"cc5c54bf-6d98-43c6-8db6-6e8b7521f97d","meta":{"profile":["http://hl7.org/fhir/us/qicore/StructureDefinition/qicore-procedure"]},"extension":[{"url":"http://hl7.org/fhir/us/qicore/StructureDefinition/qicore-recorded","valueDateTime":"2026-02-05T09:35:00-04:00"}],"status":"unknown","code":{"coding":[{"system":"http://snomed.info/sct","version":"http://snomed.info/sct/731000124108/version/20230901","code":"395669003","display":"Specialist palliative care treatment (regime/therapy)"}],"text":"Specialist palliative care treatment (regime/therapy)"},"subject":{"reference":"Patient/8cca688d-fceb-4ef9-823c-b4dc612e5eb6"},"performedDateTime":"2026-02-05T09:35:00-04:00"},"request":{"method":"PUT","url":"Procedure/cc5c54bf-6d98-43c6-8db6-6e8b7521f97d"}},{"resource":{"resourceType":"Encounter","id":"83297cd0-4572-4631-a920-5eb80aba566e","meta":{"profile":["http://hl7.org/fhir/us/qicore/StructureDefinition/qicore-encounter"]},"status":"finished","class":{"system":"http://terminology.hl7.org/CodeSystem/v3-ActCode","code":"AMB","display":"ambulatory"},"type":[{"coding":[{"system":"http://www.ama-assn.org/go/cpt","version":"2024","code":"90791"}]}],"subject":{"reference":"Patient/8cca688d-fceb-4ef9-823c-b4dc612e5eb6"},"period":{"start":"2025-02-25T14:30:00+00:00","end":"2025-02-25T14:50:00+00:00"},"length":{"value":0,"unit":"days"}},"request":{"method":"PUT","url":"Encounter/83297cd0-4572-4631-a920-5eb80aba566e"}},{"resource":{"resourceType":"MeasureReport","id":"1408ebd4-1d01-4d18-9ff6-8454d0d1dc13","meta":{"profile":["http://hl7.org/fhir/us/cqfmeasures/StructureDefinition/test-case-cqfm"]},"contained":[{"resourceType":"Parameters","id":"ec5bfe59-9919-4ba7-979c-7c88161a9749-parameters","parameter":[{"name":"subject","valueString":"8cca688d-fceb-4ef9-823c-b4dc612e5eb6"}]}],"extension":[{"url":"http://hl7.org/fhir/StructureDefinition/cqf-inputParameters","valueReference":{"reference":"#ec5bfe59-9919-4ba7-979c-7c88161a9749-parameters"}},{"url":"http://hl7.org/fhir/us/cqfmeasures/StructureDefinition/cqfm-testCaseDescription","valueMarkdown":"Patient is 14 years old and has a Major Depressive Dx and PHQ-9>9 during the denom ID period. Palliative care procedure performed before end of MAP (status unknown). Note: Stratification Issue."}],"modifierExtension":[{"url":"http://hl7.org/fhir/us/cqfmeasures/StructureDefinition/cqfm-isTestCase","valueBoolean":true}],"status":"complete","type":"individual","measure":"https://madie.cms.gov/Measure/CMS159FHIRDepressionRemissionatTwelveMonths","period":{"start":"2026-01-01","end":"2026-12-31"},"group":[{"id":"Group_1","population":[{"id":"InitialPopulation_1","code":{"coding":[{"system":"http://terminology.hl7.org/CodeSystem/measure-population","code":"initial-population","display":"Initial Population"}]},"count":1},{"id":"Denominator_1","code":{"coding":[{"system":"http://terminology.hl7.org/CodeSystem/measure-population","code":"denominator","display":"Denominator"}]},"count":1},{"id":"DenominatorExclusion_1","code":{"coding":[{"system":"http://terminology.hl7.org/CodeSystem/measure-population","code":"denominator-exclusion","display":"Denominator Exclusion"}]},"count":0},{"id":"Numerator_1","code":{"coding":[{"system":"http://terminology.hl7.org/CodeSystem/measure-population","code":"numerator","display":"Numerator"}]},"count":0}],"measureScore":{"value":1.0}}],"evaluatedResource":[{"reference":"Patient/8cca688d-fceb-4ef9-823c-b4dc612e5eb6"},{"reference":"Encounter/83297cd0-4572-4631-a920-5eb80aba566e"},{"reference":"Observation/df913eac-2bc8-4087-85a6-a0682ca35ff4"},{"reference":"Condition/79353f5a-2250-4583-82a8-eee560cb3d9f"},{"reference":"Procedure/cc5c54bf-6d98-43c6-8db6-6e8b7521f97d"}]},"request":{"method":"PUT","url":"MeasureReport/1408ebd4-1d01-4d18-9ff6-8454d0d1dc13"}},{"resource":{"resourceType":"Observation","id":"df913eac-2bc8-4087-85a6-a0682ca35ff4","meta":{"profile":["http://hl7.org/fhir/us/qicore/StructureDefinition/qicore-observation-screening-assessment"]},"status":"final","category":[{"coding":[{"system":"http://terminology.hl7.org/CodeSystem/observation-category","code":"survey","display":"Survey"}]}],"code":{"coding":[{"system":"http://loinc.org","version":"2.76","code":"44261-6"}]},"subject":{"reference":"Patient/8cca688d-fceb-4ef9-823c-b4dc612e5eb6"},"effectiveDateTime":"2025-02-25T14:35:00+00:00","valueInteger":10},"request":{"method":"PUT","url":"Observation/df913eac-2bc8-4087-85a6-a0682ca35ff4"}},{"resource":{"resourceType":"Bundle","id":"98116841646686466847","type":"transaction","entry":[{"fullUrl":"https://madie.cms.gov/Patient/8cca688d-fceb-4ef9-823c-b4dc612e5eb6","resource":{"resourceType":"Patient","id":"8cca688d-fceb-4ef9-823c-b4dc612e5eb6","meta":{"profile":["http://hl7.org/fhir/us/qicore/StructureDefinition/qicore-patient"]},"extension":[{"url":"http://hl7.org/fhir/us/core/StructureDefinition/us-core-race","extension":[{"url":"ombCategory","valueCoding":{"system":"urn:oid:2.16.840.1.113883.6.238","code":"2106-3","display":"White"}},{"url":"text","valueString":"White"}]},{"url":"http://hl7.org/fhir/us/core/StructureDefinition/us-core-ethnicity","extension":[{"url":"ombCategory","valueCoding":{"system":"urn:oid:2.16.840.1.113883.6.238","code":"2186-5","display":"Not Hispanic or Latino"}},{"url":"text","valueString":"Not Hispanic or Latino"}]}],"identifier":[{"type":{"coding":[{"system":"http://terminology.hl7.org/CodeSystem/v2-0203","code":"MR"}]},"system":"https://bonnie-fhir.healthit.gov/","value":"64684131634684641"}],"name":[{"family":"DENEXPopStrat1Pass","given":["PalliativeCareProcedureUnknownStatus"]}],"gender":"female","birthDate":"2011-01-01"},"request":{"method":"PUT","url":"Patient/8cca688d-fceb-4ef9-823c-b4dc612e5eb6"}},{"fullUrl":"https://madie.cms.gov/Encounter/83297cd0-4572-4631-a920-5eb80aba566e","resource":{"resourceType":"Encounter","id":"83297cd0-4572-4631-a920-5eb80aba566e","meta":{"profile":["http://hl7.org/fhir/us/qicore/StructureDefinition/qicore-encounter"]},"status":"finished","class":{"system":"http://terminology.hl7.org/CodeSystem/v3-ActCode","code":"AMB","display":"ambulatory"},"type":[{"coding":[{"system":"http://www.ama-assn.org/go/cpt","version":"2024","code":"90791"}]}],"subject":{"reference":"Patient/8cca688d-fceb-4ef9-823c-b4dc612e5eb6"},"period":{"start":"2025-02-25T14:30:00+00:00","end":"2025-02-25T14:50:00+00:00"},"length":{"value":0,"unit":"days"}},"request":{"method":"PUT","url":"Encounter/83297cd0-4572-4631-a920-5eb80aba566e"}},{"fullUrl":"https://madie.cms.gov/Observation/df913eac-2bc8-4087-85a6-a0682ca35ff4","resource":{"resourceType":"Observation","id":"df913eac-2bc8-4087-85a6-a0682ca35ff4","meta":{"profile":["http://hl7.org/fhir/us/qicore/StructureDefinition/qicore-observation-screening-assessment"]},"status":"final","category":[{"coding":[{"system":"http://terminology.hl7.org/CodeSystem/observation-category","code":"survey","display":"Survey"}]}],"code":{"coding":[{"system":"http://loinc.org","version":"2.76","code":"44261-6"}]},"subject":{"reference":"Patient/8cca688d-fceb-4ef9-823c-b4dc612e5eb6"},"effectiveDateTime":"2025-02-25T14:35:00+00:00","valueInteger":10},"request":{"method":"PUT","url":"Observation/df913eac-2bc8-4087-85a6-a0682ca35ff4"}},{"fullUrl":"https://madie.cms.gov/Condition/79353f5a-2250-4583-82a8-eee560cb3d9f","resource":{"resourceType":"Condition","id":"79353f5a-2250-4583-82a8-eee560cb3d9f","meta":{"profile":["http://hl7.org/fhir/us/qicore/StructureDefinition/qicore-condition-problems-health-concerns"]},"clinicalStatus":{"coding":[{"system":"http://terminology.hl7.org/CodeSystem/condition-clinical","code":"active","display":"active"}]},"verificationStatus":{"coding":[{"system":"http://terminology.hl7.org/CodeSystem/condition-ver-status","code":"confirmed"}]},"category":[{"coding":[{"system":"http://terminology.hl7.org/CodeSystem/condition-category","code":"problem-list-item","display":"Problem List Item"}]}],"code":{"coding":[{"system":"http://hl7.org/fhir/sid/icd-10-cm","version":"2024","code":"F32.9","display":"Major Depressive Diagnosis"}]},"subject":{"reference":"Patient/8cca688d-fceb-4ef9-823c-b4dc612e5eb6"},"onsetDateTime":"2025-02-25T14:35:00+00:00"},"request":{"method":"PUT","url":"Condition/79353f5a-2250-4583-82a8-eee560cb3d9f"}},{"fullUrl":"https://madie.cms.gov/Procedure/cc5c54bf-6d98-43c6-8db6-6e8b7521f97d","resource":{"resourceType":"Procedure","id":"cc5c54bf-6d98-43c6-8db6-6e8b7521f97d","meta":{"profile":["http://hl7.org/fhir/us/qicore/StructureDefinition/qicore-procedure"]},"extension":[{"url":"http://hl7.org/fhir/us/qicore/StructureDefinition/qicore-recorded","valueDateTime":"2026-02-05T09:35:00-04:00"}],"status":"unknown","code":{"coding":[{"system":"http://snomed.info/sct","version":"http://snomed.info/sct/731000124108/version/20230901","code":"395669003","display":"Specialist palliative care treatment (regime/therapy)"}],"text":"Specialist palliative care treatment (regime/therapy)"},"subject":{"reference":"Patient/8cca688d-fceb-4ef9-823c-b4dc612e5eb6"},"performedDateTime":"2026-02-05T09:35:00-04:00"},"request":{"method":"PUT","url":"Procedure/cc5c54bf-6d98-43c6-8db6-6e8b7521f97d"}},{"fullUrl":"https://madie.cms.gov/MeasureReport/1408ebd4-1d01-4d18-9ff6-8454d0d1dc13","resource":{"resourceType":"MeasureReport","id":"1408ebd4-1d01-4d18-9ff6-8454d0d1dc13","meta":{"profile":["http://hl7.org/fhir/us/cqfmeasures/StructureDefinition/test-case-cqfm"]},"contained":[{"resourceType":"Parameters","id":"ec5bfe59-9919-4ba7-979c-7c88161a9749-parameters","parameter":[{"name":"subject","valueString":"8cca688d-fceb-4ef9-823c-b4dc612e5eb6"}]}],"extension":[{"url":"http://hl7.org/fhir/StructureDefinition/cqf-inputParameters","valueReference":{"reference":"#ec5bfe59-9919-4ba7-979c-7c88161a9749-parameters"}},{"url":"http://hl7.org/fhir/us/cqfmeasures/StructureDefinition/cqfm-testCaseDescription","valueMarkdown":"Patient is 14 years old and has a Major Depressive Dx and PHQ-9>9 during the denom ID period. Palliative care procedure performed before end of MAP (status unknown). Note: Stratification Issue."}],"modifierExtension":[{"url":"http://hl7.org/fhir/us/cqfmeasures/StructureDefinition/cqfm-isTestCase","valueBoolean":true}],"status":"complete","type":"individual","measure":"https://madie.cms.gov/Measure/CMS159FHIRDepressionRemissionatTwelveMonths","period":{"start":"2026-01-01","end":"2026-12-31"},"group":[{"id":"Group_1","population":[{"id":"InitialPopulation_1","code":{"coding":[{"system":"http://terminology.hl7.org/CodeSystem/measure-population","code":"initial-population","display":"Initial Population"}]},"count":1},{"id":"Denominator_1","code":{"coding":[{"system":"http://terminology.hl7.org/CodeSystem/measure-population","code":"denominator","display":"Denominator"}]},"count":1},{"id":"DenominatorExclusion_1","code":{"coding":[{"system":"http://terminology.hl7.org/CodeSystem/measure-population","code":"denominator-exclusion","display":"Denominator Exclusion"}]},"count":0},{"id":"Numerator_1","code":{"coding":[{"system":"http://terminology.hl7.org/CodeSystem/measure-population","code":"numerator","display":"Numerator"}]},"count":0}],"measureScore":{"value":1.0}}],"evaluatedResource":[{"reference":"Patient/8cca688d-fceb-4ef9-823c-b4dc612e5eb6"},{"reference":"Encounter/83297cd0-4572-4631-a920-5eb80aba566e"},{"reference":"Observation/df913eac-2bc8-4087-85a6-a0682ca35ff4"},{"reference":"Condition/79353f5a-2250-4583-82a8-eee560cb3d9f"},{"reference":"Procedure/cc5c54bf-6d98-43c6-8db6-6e8b7521f97d"}]},"request":{"method":"PUT","url":"MeasureReport/1408ebd4-1d01-4d18-9ff6-8454d0d1dc13"}}]},"request":{"method":"PUT","url":"Bundle/98116841646686466847"}},{"resource":{"resourceType":"Patient","id":"8cca688d-fceb-4ef9-823c-b4dc612e5eb6","meta":{"profile":["http://hl7.org/fhir/us/qicore/StructureDefinition/qicore-patient"]},"extension":[{"url":"http://hl7.org/fhir/us/core/StructureDefinition/us-core-race","extension":[{"url":"ombCategory","valueCoding":{"system":"urn:oid:2.16.840.1.113883.6.238","code":"2106-3","display":"White"}},{"url":"text","valueString":"White"}]},{"url":"http://hl7.org/fhir/us/core/StructureDefinition/us-core-ethnicity","extension":[{"url":"ombCategory","valueCoding":{"system":"urn:oid:2.16.840.1.113883.6.238","code":"2186-5","display":"Not Hispanic or Latino"}},{"url":"text","valueString":"Not Hispanic or Latino"}]}],"identifier":[{"type":{"coding":[{"system":"http://terminology.hl7.org/CodeSystem/v2-0203","code":"MR"}]},"system":"https://bonnie-fhir.healthit.gov/","value":"64684131634684641"}],"name":[{"family":"DENEXPopStrat1Pass","given":["PalliativeCareProcedureUnknownStatus"]}],"gender":"female","birthDate":"2011-01-01"},"request":{"method":"PUT","url":"Patient/8cca688d-fceb-4ef9-823c-b4dc612e5eb6"}}]}