{"resourceType":"Bundle","id":"tests-ac9e7170-bfef-4c14-9118-f290877b4756-bundle","type":"transaction","entry":[{"resource":{"resourceType":"Procedure","id":"44ee790a-0c5c-44c8-abce-bf704444a004","meta":{"profile":["http://hl7.org/fhir/us/qicore/StructureDefinition/qicore-procedure"]},"extension":[{"url":"http://hl7.org/fhir/us/qicore/StructureDefinition/qicore-recorded","valueDateTime":"2026-04-11T10:30:00.000+00:00"}],"status":"completed","category":{"coding":[{"system":"http://snomed.info/sct","code":"18286008","display":"General or neuraxial anesthesia"}]},"code":{"coding":[{"system":"http://snomed.info/sct","code":"112943005","display":"Epidural injection of anesthetic substance, diagnostic, caudal, continuous"}]},"subject":{"reference":"Patient/ac9e7170-bfef-4c14-9118-f290877b4756"},"performedPeriod":{"start":"2026-04-11T08:00:00.000+00:00","end":"2026-04-11T10:15:00.000+00:00"}},"request":{"method":"PUT","url":"Procedure/44ee790a-0c5c-44c8-abce-bf704444a004"}},{"resource":{"resourceType":"Bundle","id":"tests-DENEXPass-AcuteRespFailurePOA-bundle","type":"transaction","entry":[{"fullUrl":"https://madie.cms.gov/Encounter/98ea600b-b935-4958-8260-5635c8140f51","resource":{"resourceType":"Encounter","id":"98ea600b-b935-4958-8260-5635c8140f51","meta":{"profile":["http://hl7.org/fhir/us/qicore/StructureDefinition/qicore-encounter"]},"status":"finished","class":{"system":"http://terminology.hl7.org/CodeSystem/v3-ActCode","code":"IMP","display":"inpatient encounter"},"type":[{"coding":[{"system":"http://snomed.info/sct","code":"112689000","display":"Hospital admission, elective, with complete pre-admission work-up"}],"text":"Hospital admission, elective, with complete pre-admission work-up"}],"priority":{"coding":[{"system":"http://snomed.info/sct","code":"103390000"}]},"subject":{"reference":"Patient/ac9e7170-bfef-4c14-9118-f290877b4756"},"period":{"start":"2026-04-10T08:00:00.000+00:00","end":"2026-04-14T08:15:00.000+00:00"}},"request":{"method":"PUT","url":"Encounter/98ea600b-b935-4958-8260-5635c8140f51"}},{"fullUrl":"https://madie.cms.gov/Claim/d2e17327-70c4-4c77-8e23-073a6ce02db1","resource":{"resourceType":"Claim","id":"d2e17327-70c4-4c77-8e23-073a6ce02db1","meta":{"profile":["http://hl7.org/fhir/us/qicore/StructureDefinition/qicore-claim"]},"status":"active","type":{"coding":[{"system":"http://terminology.hl7.org/CodeSystem/claim-type","code":"professional"}]},"use":"claim","patient":{"reference":"Patient/ac9e7170-bfef-4c14-9118-f290877b4756"},"created":"2026-05-16","priority":{"coding":[{"system":"http://terminology.hl7.org/CodeSystem/processpriority","code":"normal"}]},"diagnosis":[{"sequence":1,"diagnosisCodeableConcept":{"coding":[{"system":"http://hl7.org/fhir/sid/icd-10-cm","version":"2024","code":"J95.822","display":"Acute and chronic postprocedural respiratory failure"}]},"type":[{"coding":[{"system":"http://terminology.hl7.org/CodeSystem/ex-diagnosistype","code":"principal"}]}],"onAdmission":{"coding":[{"system":"https://www.cms.gov/Medicare/Medicare-Fee-for-Service-Payment/HospitalAcqCond/Coding","code":"Y"}]}}],"item":[{"sequence":1,"diagnosisSequence":[1,5,7],"productOrService":{"coding":[{"system":"http://example.org/fhir/CodeSystem/ex-professionalservice","code":"anesthesia"}]},"servicedDate":"2026-04-11","encounter":[{"reference":"Encounter/98ea600b-b935-4958-8260-5635c8140f51"}]}]},"request":{"method":"PUT","url":"Claim/d2e17327-70c4-4c77-8e23-073a6ce02db1"}},{"fullUrl":"https://madie.cms.gov/Patient/ac9e7170-bfef-4c14-9118-f290877b4756","resource":{"resourceType":"Patient","id":"ac9e7170-bfef-4c14-9118-f290877b4756","meta":{"profile":["http://hl7.org/fhir/us/qicore/StructureDefinition/qicore-patient"]},"extension":[{"url":"http://hl7.org/fhir/us/core/StructureDefinition/us-core-race","extension":[{"url":"ombCategory","valueCoding":{"system":"urn:oid:2.16.840.1.113883.6.238","code":"2054-5","display":"Black or African American","userSelected":true}},{"url":"text","valueString":"Black or African American"}]},{"url":"http://hl7.org/fhir/us/core/StructureDefinition/us-core-ethnicity","extension":[{"url":"ombCategory","valueCoding":{"system":"urn:oid:2.16.840.1.113883.6.238","code":"2186-5","display":"Not Hispanic or Latino","userSelected":true}},{"url":"text","valueString":"Not Hispanic or Latino"}]}],"identifier":[{"type":{"coding":[{"system":"http://terminology.hl7.org/CodeSystem/v2-0203","code":"MR"}]},"system":"https://bonnie-fhir.healthit.gov/","value":"61152a3b98086b7a79cbd7c1"}],"active":true,"name":[{"use":"usual","family":"DENEXPass","given":["TracheostomyDxPOA"]}],"gender":"female","birthDate":"1966-07-12"},"request":{"method":"PUT","url":"Patient/ac9e7170-bfef-4c14-9118-f290877b4756"}},{"fullUrl":"https://madie.cms.gov/Procedure/44ee790a-0c5c-44c8-abce-bf704444a004","resource":{"resourceType":"Procedure","id":"44ee790a-0c5c-44c8-abce-bf704444a004","meta":{"profile":["http://hl7.org/fhir/us/qicore/StructureDefinition/qicore-procedure"]},"extension":[{"url":"http://hl7.org/fhir/us/qicore/StructureDefinition/qicore-recorded","valueDateTime":"2026-04-11T10:30:00.000+00:00"}],"status":"completed","category":{"coding":[{"system":"http://snomed.info/sct","code":"18286008","display":"General or neuraxial anesthesia"}]},"code":{"coding":[{"system":"http://snomed.info/sct","code":"112943005","display":"Epidural injection of anesthetic substance, diagnostic, caudal, continuous"}]},"subject":{"reference":"Patient/ac9e7170-bfef-4c14-9118-f290877b4756"},"performedPeriod":{"start":"2026-04-11T08:00:00.000+00:00","end":"2026-04-11T10:15:00.000+00:00"}},"request":{"method":"PUT","url":"Procedure/44ee790a-0c5c-44c8-abce-bf704444a004"}},{"fullUrl":"https://madie.cms.gov/MeasureReport/6ce9173c-bde9-43c8-a950-8e56f63e75bc","resource":{"resourceType":"MeasureReport","id":"6ce9173c-bde9-43c8-a950-8e56f63e75bc","meta":{"profile":["http://hl7.org/fhir/us/cqfmeasures/StructureDefinition/test-case-cqfm"]},"contained":[{"resourceType":"Parameters","id":"f83d11dd-382a-446a-beb8-6598d72668f3-parameters","parameter":[{"name":"subject","valueString":"ac9e7170-bfef-4c14-9118-f290877b4756"}]}],"extension":[{"url":"http://hl7.org/fhir/StructureDefinition/cqf-inputParameters","valueReference":{"reference":"#f83d11dd-382a-446a-beb8-6598d72668f3-parameters"}},{"url":"http://hl7.org/fhir/us/cqfmeasures/StructureDefinition/cqfm-testCaseDescription","valueMarkdown":"Encounter with Diagnosis of Acute Respiratory Failure Present on Admission - DENEX Pass"}],"modifierExtension":[{"url":"http://hl7.org/fhir/us/cqfmeasures/StructureDefinition/cqfm-isTestCase","valueBoolean":true}],"status":"complete","type":"individual","measure":"https://madie.cms.gov/Measure/CMS1218FHIRHHRF","period":{"start":"2026-01-01","end":"2026-12-31"},"group":[{"id":"Group_1","population":[{"id":"InitialPopulation_1","code":{"coding":[{"system":"http://terminology.hl7.org/CodeSystem/measure-population","code":"initial-population","display":"Initial Population"}]},"count":1},{"id":"Denominator_1","code":{"coding":[{"system":"http://terminology.hl7.org/CodeSystem/measure-population","code":"denominator","display":"Denominator"}]},"count":1},{"id":"DenominatorExclusion_1","code":{"coding":[{"system":"http://terminology.hl7.org/CodeSystem/measure-population","code":"denominator-exclusion","display":"Denominator Exclusion"}]},"count":1},{"id":"Numerator_1","code":{"coding":[{"system":"http://terminology.hl7.org/CodeSystem/measure-population","code":"numerator","display":"Numerator"}]},"count":0}],"measureScore":{"value":0.0}}],"evaluatedResource":[{"reference":"Encounter/98ea600b-b935-4958-8260-5635c8140f51"},{"reference":"Claim/d2e17327-70c4-4c77-8e23-073a6ce02db1"},{"reference":"Patient/ac9e7170-bfef-4c14-9118-f290877b4756"},{"reference":"Procedure/44ee790a-0c5c-44c8-abce-bf704444a004"}]},"request":{"method":"PUT","url":"MeasureReport/6ce9173c-bde9-43c8-a950-8e56f63e75bc"}}]},"request":{"method":"PUT","url":"Bundle/tests-DENEXPass-AcuteRespFailurePOA-bundle"}},{"resource":{"resourceType":"Claim","id":"d2e17327-70c4-4c77-8e23-073a6ce02db1","meta":{"profile":["http://hl7.org/fhir/us/qicore/StructureDefinition/qicore-claim"]},"status":"active","type":{"coding":[{"system":"http://terminology.hl7.org/CodeSystem/claim-type","code":"professional"}]},"use":"claim","patient":{"reference":"Patient/ac9e7170-bfef-4c14-9118-f290877b4756"},"created":"2026-05-16","priority":{"coding":[{"system":"http://terminology.hl7.org/CodeSystem/processpriority","code":"normal"}]},"diagnosis":[{"sequence":1,"diagnosisCodeableConcept":{"coding":[{"system":"http://hl7.org/fhir/sid/icd-10-cm","version":"2024","code":"J95.822","display":"Acute and chronic postprocedural respiratory failure"}]},"type":[{"coding":[{"system":"http://terminology.hl7.org/CodeSystem/ex-diagnosistype","code":"principal"}]}],"onAdmission":{"coding":[{"system":"https://www.cms.gov/Medicare/Medicare-Fee-for-Service-Payment/HospitalAcqCond/Coding","code":"Y"}]}}],"item":[{"sequence":1,"diagnosisSequence":[1,5,7],"productOrService":{"coding":[{"system":"http://example.org/fhir/CodeSystem/ex-professionalservice","code":"anesthesia"}]},"servicedDate":"2026-04-11","encounter":[{"reference":"Encounter/98ea600b-b935-4958-8260-5635c8140f51"}]}]},"request":{"method":"PUT","url":"Claim/d2e17327-70c4-4c77-8e23-073a6ce02db1"}},{"resource":{"resourceType":"Patient","id":"ac9e7170-bfef-4c14-9118-f290877b4756","meta":{"profile":["http://hl7.org/fhir/us/qicore/StructureDefinition/qicore-patient"]},"extension":[{"url":"http://hl7.org/fhir/us/core/StructureDefinition/us-core-race","extension":[{"url":"ombCategory","valueCoding":{"system":"urn:oid:2.16.840.1.113883.6.238","code":"2054-5","display":"Black or African American","userSelected":true}},{"url":"text","valueString":"Black or African American"}]},{"url":"http://hl7.org/fhir/us/core/StructureDefinition/us-core-ethnicity","extension":[{"url":"ombCategory","valueCoding":{"system":"urn:oid:2.16.840.1.113883.6.238","code":"2186-5","display":"Not Hispanic or Latino","userSelected":true}},{"url":"text","valueString":"Not Hispanic or Latino"}]}],"identifier":[{"type":{"coding":[{"system":"http://terminology.hl7.org/CodeSystem/v2-0203","code":"MR"}]},"system":"https://bonnie-fhir.healthit.gov/","value":"61152a3b98086b7a79cbd7c1"}],"active":true,"name":[{"use":"usual","family":"DENEXPass","given":["TracheostomyDxPOA"]}],"gender":"female","birthDate":"1966-07-12"},"request":{"method":"PUT","url":"Patient/ac9e7170-bfef-4c14-9118-f290877b4756"}},{"resource":{"resourceType":"MeasureReport","id":"6ce9173c-bde9-43c8-a950-8e56f63e75bc","meta":{"profile":["http://hl7.org/fhir/us/cqfmeasures/StructureDefinition/test-case-cqfm"]},"contained":[{"resourceType":"Parameters","id":"f83d11dd-382a-446a-beb8-6598d72668f3-parameters","parameter":[{"name":"subject","valueString":"ac9e7170-bfef-4c14-9118-f290877b4756"}]}],"extension":[{"url":"http://hl7.org/fhir/StructureDefinition/cqf-inputParameters","valueReference":{"reference":"#f83d11dd-382a-446a-beb8-6598d72668f3-parameters"}},{"url":"http://hl7.org/fhir/us/cqfmeasures/StructureDefinition/cqfm-testCaseDescription","valueMarkdown":"Encounter with Diagnosis of Acute Respiratory Failure Present on Admission - DENEX Pass"}],"modifierExtension":[{"url":"http://hl7.org/fhir/us/cqfmeasures/StructureDefinition/cqfm-isTestCase","valueBoolean":true}],"status":"complete","type":"individual","measure":"https://madie.cms.gov/Measure/CMS1218FHIRHHRF","period":{"start":"2026-01-01","end":"2026-12-31"},"group":[{"id":"Group_1","population":[{"id":"InitialPopulation_1","code":{"coding":[{"system":"http://terminology.hl7.org/CodeSystem/measure-population","code":"initial-population","display":"Initial Population"}]},"count":1},{"id":"Denominator_1","code":{"coding":[{"system":"http://terminology.hl7.org/CodeSystem/measure-population","code":"denominator","display":"Denominator"}]},"count":1},{"id":"DenominatorExclusion_1","code":{"coding":[{"system":"http://terminology.hl7.org/CodeSystem/measure-population","code":"denominator-exclusion","display":"Denominator Exclusion"}]},"count":1},{"id":"Numerator_1","code":{"coding":[{"system":"http://terminology.hl7.org/CodeSystem/measure-population","code":"numerator","display":"Numerator"}]},"count":0}],"measureScore":{"value":0.0}}],"evaluatedResource":[{"reference":"Encounter/98ea600b-b935-4958-8260-5635c8140f51"},{"reference":"Claim/d2e17327-70c4-4c77-8e23-073a6ce02db1"},{"reference":"Patient/ac9e7170-bfef-4c14-9118-f290877b4756"},{"reference":"Procedure/44ee790a-0c5c-44c8-abce-bf704444a004"}]},"request":{"method":"PUT","url":"MeasureReport/6ce9173c-bde9-43c8-a950-8e56f63e75bc"}},{"resource":{"resourceType":"Encounter","id":"98ea600b-b935-4958-8260-5635c8140f51","meta":{"profile":["http://hl7.org/fhir/us/qicore/StructureDefinition/qicore-encounter"]},"status":"finished","class":{"system":"http://terminology.hl7.org/CodeSystem/v3-ActCode","code":"IMP","display":"inpatient encounter"},"type":[{"coding":[{"system":"http://snomed.info/sct","code":"112689000","display":"Hospital admission, elective, with complete pre-admission work-up"}],"text":"Hospital admission, elective, with complete pre-admission work-up"}],"priority":{"coding":[{"system":"http://snomed.info/sct","code":"103390000"}]},"subject":{"reference":"Patient/ac9e7170-bfef-4c14-9118-f290877b4756"},"period":{"start":"2026-04-10T08:00:00.000+00:00","end":"2026-04-14T08:15:00.000+00:00"}},"request":{"method":"PUT","url":"Encounter/98ea600b-b935-4958-8260-5635c8140f51"}}]}