{"resourceType":"Bundle","id":"tests-0ef36c93-9547-4238-a59e-3f7c2fa37293-bundle","type":"transaction","entry":[{"resource":{"resourceType":"Encounter","id":"6da50c1a-88cd-4dec-b5b1-008cfecf892d","meta":{"profile":["http://hl7.org/fhir/us/qicore/StructureDefinition/qicore-encounter"]},"status":"finished","class":{"system":"http://terminology.hl7.org/CodeSystem/v3-ActCode","code":"IMP","display":"inpatient encounter"},"type":[{"coding":[{"system":"http://snomed.info/sct","code":"112689000","display":"Hospital admission, elective, with complete pre-admission work-up"}],"text":"Hospital admission, elective, with complete pre-admission work-up"}],"priority":{"coding":[{"system":"http://snomed.info/sct","code":"103390000"}]},"subject":{"reference":"Patient/0ef36c93-9547-4238-a59e-3f7c2fa37293"},"period":{"start":"2026-04-10T08:00:00.000+00:00","end":"2026-04-14T08:15:00.000+00:00"}},"request":{"method":"PUT","url":"Encounter/6da50c1a-88cd-4dec-b5b1-008cfecf892d"}},{"resource":{"resourceType":"Procedure","id":"35715bec-ff84-4bf4-90e6-ebf4137fd0f3","meta":{"profile":["http://hl7.org/fhir/us/qicore/StructureDefinition/qicore-procedure"]},"extension":[{"url":"http://hl7.org/fhir/us/qicore/StructureDefinition/qicore-recorded","valueDateTime":"2026-04-21T12:00:00.000+00:00"}],"status":"completed","code":{"coding":[{"system":"http://snomed.info/sct","code":"271280005","display":"Removal of endotracheal tube (procedure)"}],"text":"Removal of endotracheal tube (procedure)"},"subject":{"reference":"Patient/0ef36c93-9547-4238-a59e-3f7c2fa37293"},"performedDateTime":"2026-04-13T11:00:00.000+00:00"},"request":{"method":"PUT","url":"Procedure/35715bec-ff84-4bf4-90e6-ebf4137fd0f3"}},{"resource":{"resourceType":"Procedure","id":"90b1aa5f-1707-4610-b0b7-c7a4138821f9","meta":{"profile":["http://hl7.org/fhir/us/qicore/StructureDefinition/qicore-procedure"]},"extension":[{"url":"http://hl7.org/fhir/us/qicore/StructureDefinition/qicore-recorded","valueDateTime":"2026-04-11T10:20:00.000+00:00"}],"status":"completed","category":{"coding":[{"system":"http://snomed.info/sct","code":"18286008","display":"General or neuraxial anesthesia"}]},"code":{"coding":[{"system":"http://snomed.info/sct","code":"112943005","display":"Epidural injection of anesthetic substance,  diagnostic, caudal, continuous"}]},"subject":{"reference":"Patient/0ef36c93-9547-4238-a59e-3f7c2fa37293"},"performedPeriod":{"start":"2026-04-11T08:00:00.000+00:00","end":"2026-04-11T10:15:00.000+00:00"}},"request":{"method":"PUT","url":"Procedure/90b1aa5f-1707-4610-b0b7-c7a4138821f9"}},{"resource":{"resourceType":"Bundle","id":"tests-0ef36c93-9547-4238-a59e-3f7c2fa37293-bundle","type":"transaction","entry":[{"fullUrl":"https://madie.cms.gov/Patient/0ef36c93-9547-4238-a59e-3f7c2fa37293","resource":{"resourceType":"Patient","id":"0ef36c93-9547-4238-a59e-3f7c2fa37293","meta":{"profile":["http://hl7.org/fhir/us/qicore/StructureDefinition/qicore-patient"]},"extension":[{"url":"http://hl7.org/fhir/us/core/StructureDefinition/us-core-race","extension":[{"url":"ombCategory","valueCoding":{"system":"urn:oid:2.16.840.1.113883.6.238","code":"2054-5","display":"Black or African American","userSelected":true}},{"url":"text","valueString":"Black or African American"}]},{"url":"http://hl7.org/fhir/us/core/StructureDefinition/us-core-ethnicity","extension":[{"url":"ombCategory","valueCoding":{"system":"urn:oid:2.16.840.1.113883.6.238","code":"2186-5","display":"Not Hispanic or Latino","userSelected":true}},{"url":"text","valueString":"Not Hispanic or Latino"}]}],"identifier":[{"type":{"coding":[{"system":"http://terminology.hl7.org/CodeSystem/v2-0203","code":"MR"}]},"system":"https://bonnie-fhir.healthit.gov/","value":"61152a3b98086b7a79cbd7c1"}],"active":true,"name":[{"use":"usual","family":"NUMERPass","given":["Num3EncWithExtubationGT48Hrs"]}],"gender":"female","birthDate":"1966-07-12"},"request":{"method":"PUT","url":"Patient/0ef36c93-9547-4238-a59e-3f7c2fa37293"}},{"fullUrl":"https://madie.cms.gov/Encounter/6da50c1a-88cd-4dec-b5b1-008cfecf892d","resource":{"resourceType":"Encounter","id":"6da50c1a-88cd-4dec-b5b1-008cfecf892d","meta":{"profile":["http://hl7.org/fhir/us/qicore/StructureDefinition/qicore-encounter"]},"status":"finished","class":{"system":"http://terminology.hl7.org/CodeSystem/v3-ActCode","code":"IMP","display":"inpatient encounter"},"type":[{"coding":[{"system":"http://snomed.info/sct","code":"112689000","display":"Hospital admission, elective, with complete pre-admission work-up"}],"text":"Hospital admission, elective, with complete pre-admission work-up"}],"priority":{"coding":[{"system":"http://snomed.info/sct","code":"103390000"}]},"subject":{"reference":"Patient/0ef36c93-9547-4238-a59e-3f7c2fa37293"},"period":{"start":"2026-04-10T08:00:00.000+00:00","end":"2026-04-14T08:15:00.000+00:00"}},"request":{"method":"PUT","url":"Encounter/6da50c1a-88cd-4dec-b5b1-008cfecf892d"}},{"fullUrl":"https://madie.cms.gov/Procedure/90b1aa5f-1707-4610-b0b7-c7a4138821f9","resource":{"resourceType":"Procedure","id":"90b1aa5f-1707-4610-b0b7-c7a4138821f9","meta":{"profile":["http://hl7.org/fhir/us/qicore/StructureDefinition/qicore-procedure"]},"extension":[{"url":"http://hl7.org/fhir/us/qicore/StructureDefinition/qicore-recorded","valueDateTime":"2026-04-11T10:20:00.000+00:00"}],"status":"completed","category":{"coding":[{"system":"http://snomed.info/sct","code":"18286008","display":"General or neuraxial anesthesia"}]},"code":{"coding":[{"system":"http://snomed.info/sct","code":"112943005","display":"Epidural injection of anesthetic substance,  diagnostic, caudal, continuous"}]},"subject":{"reference":"Patient/0ef36c93-9547-4238-a59e-3f7c2fa37293"},"performedPeriod":{"start":"2026-04-11T08:00:00.000+00:00","end":"2026-04-11T10:15:00.000+00:00"}},"request":{"method":"PUT","url":"Procedure/90b1aa5f-1707-4610-b0b7-c7a4138821f9"}},{"fullUrl":"https://madie.cms.gov/Procedure/35715bec-ff84-4bf4-90e6-ebf4137fd0f3","resource":{"resourceType":"Procedure","id":"35715bec-ff84-4bf4-90e6-ebf4137fd0f3","meta":{"profile":["http://hl7.org/fhir/us/qicore/StructureDefinition/qicore-procedure"]},"extension":[{"url":"http://hl7.org/fhir/us/qicore/StructureDefinition/qicore-recorded","valueDateTime":"2026-04-21T12:00:00.000+00:00"}],"status":"completed","code":{"coding":[{"system":"http://snomed.info/sct","code":"271280005","display":"Removal of endotracheal tube (procedure)"}],"text":"Removal of endotracheal tube (procedure)"},"subject":{"reference":"Patient/0ef36c93-9547-4238-a59e-3f7c2fa37293"},"performedDateTime":"2026-04-13T11:00:00.000+00:00"},"request":{"method":"PUT","url":"Procedure/35715bec-ff84-4bf4-90e6-ebf4137fd0f3"}},{"fullUrl":"https://madie.cms.gov/MeasureReport/df9ca418-1479-4035-8749-317be36583ae","resource":{"resourceType":"MeasureReport","id":"df9ca418-1479-4035-8749-317be36583ae","meta":{"profile":["http://hl7.org/fhir/us/cqfmeasures/StructureDefinition/test-case-cqfm"]},"contained":[{"resourceType":"Parameters","id":"18999eb7-ec80-4e7a-a872-93fcb756d98a-parameters","parameter":[{"name":"subject","valueString":"0ef36c93-9547-4238-a59e-3f7c2fa37293"}]}],"extension":[{"url":"http://hl7.org/fhir/StructureDefinition/cqf-inputParameters","valueReference":{"reference":"#18999eb7-ec80-4e7a-a872-93fcb756d98a-parameters"}},{"url":"http://hl7.org/fhir/us/cqfmeasures/StructureDefinition/cqfm-testCaseDescription","valueMarkdown":"Elective hospitalization with procedure (general anesthesia) within first 3 days of encounter. Extub >48 hrs after proc, no oxygen preceding. Meets Num3"}],"modifierExtension":[{"url":"http://hl7.org/fhir/us/cqfmeasures/StructureDefinition/cqfm-isTestCase","valueBoolean":true}],"status":"complete","type":"individual","measure":"https://madie.cms.gov/Measure/CMS1218FHIRHHRF","period":{"start":"2026-01-01","end":"2026-12-31"},"group":[{"id":"Group_1","population":[{"id":"InitialPopulation_1","code":{"coding":[{"system":"http://terminology.hl7.org/CodeSystem/measure-population","code":"initial-population","display":"Initial Population"}]},"count":1},{"id":"Denominator_1","code":{"coding":[{"system":"http://terminology.hl7.org/CodeSystem/measure-population","code":"denominator","display":"Denominator"}]},"count":1},{"id":"DenominatorExclusion_1","code":{"coding":[{"system":"http://terminology.hl7.org/CodeSystem/measure-population","code":"denominator-exclusion","display":"Denominator Exclusion"}]},"count":0},{"id":"Numerator_1","code":{"coding":[{"system":"http://terminology.hl7.org/CodeSystem/measure-population","code":"numerator","display":"Numerator"}]},"count":1}],"measureScore":{"value":0.0}}],"evaluatedResource":[{"reference":"Patient/0ef36c93-9547-4238-a59e-3f7c2fa37293"},{"reference":"Encounter/6da50c1a-88cd-4dec-b5b1-008cfecf892d"},{"reference":"Procedure/90b1aa5f-1707-4610-b0b7-c7a4138821f9"},{"reference":"Procedure/35715bec-ff84-4bf4-90e6-ebf4137fd0f3"}]},"request":{"method":"PUT","url":"MeasureReport/df9ca418-1479-4035-8749-317be36583ae"}}]},"request":{"method":"PUT","url":"Bundle/tests-0ef36c93-9547-4238-a59e-3f7c2fa37293-bundle"}},{"resource":{"resourceType":"MeasureReport","id":"df9ca418-1479-4035-8749-317be36583ae","meta":{"profile":["http://hl7.org/fhir/us/cqfmeasures/StructureDefinition/test-case-cqfm"]},"contained":[{"resourceType":"Parameters","id":"18999eb7-ec80-4e7a-a872-93fcb756d98a-parameters","parameter":[{"name":"subject","valueString":"0ef36c93-9547-4238-a59e-3f7c2fa37293"}]}],"extension":[{"url":"http://hl7.org/fhir/StructureDefinition/cqf-inputParameters","valueReference":{"reference":"#18999eb7-ec80-4e7a-a872-93fcb756d98a-parameters"}},{"url":"http://hl7.org/fhir/us/cqfmeasures/StructureDefinition/cqfm-testCaseDescription","valueMarkdown":"Elective hospitalization with procedure (general anesthesia) within first 3 days of encounter. Extub >48 hrs after proc, no oxygen preceding. Meets Num3"}],"modifierExtension":[{"url":"http://hl7.org/fhir/us/cqfmeasures/StructureDefinition/cqfm-isTestCase","valueBoolean":true}],"status":"complete","type":"individual","measure":"https://madie.cms.gov/Measure/CMS1218FHIRHHRF","period":{"start":"2026-01-01","end":"2026-12-31"},"group":[{"id":"Group_1","population":[{"id":"InitialPopulation_1","code":{"coding":[{"system":"http://terminology.hl7.org/CodeSystem/measure-population","code":"initial-population","display":"Initial Population"}]},"count":1},{"id":"Denominator_1","code":{"coding":[{"system":"http://terminology.hl7.org/CodeSystem/measure-population","code":"denominator","display":"Denominator"}]},"count":1},{"id":"DenominatorExclusion_1","code":{"coding":[{"system":"http://terminology.hl7.org/CodeSystem/measure-population","code":"denominator-exclusion","display":"Denominator Exclusion"}]},"count":0},{"id":"Numerator_1","code":{"coding":[{"system":"http://terminology.hl7.org/CodeSystem/measure-population","code":"numerator","display":"Numerator"}]},"count":1}],"measureScore":{"value":0.0}}],"evaluatedResource":[{"reference":"Patient/0ef36c93-9547-4238-a59e-3f7c2fa37293"},{"reference":"Encounter/6da50c1a-88cd-4dec-b5b1-008cfecf892d"},{"reference":"Procedure/90b1aa5f-1707-4610-b0b7-c7a4138821f9"},{"reference":"Procedure/35715bec-ff84-4bf4-90e6-ebf4137fd0f3"}]},"request":{"method":"PUT","url":"MeasureReport/df9ca418-1479-4035-8749-317be36583ae"}},{"resource":{"resourceType":"Patient","id":"0ef36c93-9547-4238-a59e-3f7c2fa37293","meta":{"profile":["http://hl7.org/fhir/us/qicore/StructureDefinition/qicore-patient"]},"extension":[{"url":"http://hl7.org/fhir/us/core/StructureDefinition/us-core-race","extension":[{"url":"ombCategory","valueCoding":{"system":"urn:oid:2.16.840.1.113883.6.238","code":"2054-5","display":"Black or African American","userSelected":true}},{"url":"text","valueString":"Black or African American"}]},{"url":"http://hl7.org/fhir/us/core/StructureDefinition/us-core-ethnicity","extension":[{"url":"ombCategory","valueCoding":{"system":"urn:oid:2.16.840.1.113883.6.238","code":"2186-5","display":"Not Hispanic or Latino","userSelected":true}},{"url":"text","valueString":"Not Hispanic or Latino"}]}],"identifier":[{"type":{"coding":[{"system":"http://terminology.hl7.org/CodeSystem/v2-0203","code":"MR"}]},"system":"https://bonnie-fhir.healthit.gov/","value":"61152a3b98086b7a79cbd7c1"}],"active":true,"name":[{"use":"usual","family":"NUMERPass","given":["Num3EncWithExtubationGT48Hrs"]}],"gender":"female","birthDate":"1966-07-12"},"request":{"method":"PUT","url":"Patient/0ef36c93-9547-4238-a59e-3f7c2fa37293"}}]}