{"resourceType":"Bundle","id":"tests-c706d170-57b2-4eb2-9af8-d7bcce8728a1-bundle","type":"transaction","entry":[{"resource":{"resourceType":"Encounter","id":"d11809e1-edef-4c98-973b-175f79a0fccd","meta":{"profile":["http://hl7.org/fhir/us/qicore/StructureDefinition/qicore-encounter"]},"status":"finished","class":{"system":"http://terminology.hl7.org/CodeSystem/v3-ActCode","code":"IMP","display":"inpatient encounter"},"type":[{"coding":[{"system":"http://snomed.info/sct","code":"112689000","display":"Hospital admission, elective, with complete pre-admission work-up"}],"text":"Hospital admission, elective, with complete pre-admission work-up"}],"priority":{"coding":[{"system":"http://snomed.info/sct","code":"103390000"}]},"subject":{"reference":"Patient/c706d170-57b2-4eb2-9af8-d7bcce8728a1"},"period":{"start":"2026-04-10T08:00:00.000+00:00","end":"2026-04-14T08:15:00.000+00:00"},"diagnosis":[{"condition":{"reference":"Procedure/967e440e-8766-4705-924b-00b4a61b0458"},"rank":1}]},"request":{"method":"PUT","url":"Encounter/d11809e1-edef-4c98-973b-175f79a0fccd"}},{"resource":{"resourceType":"Patient","id":"c706d170-57b2-4eb2-9af8-d7bcce8728a1","meta":{"profile":["http://hl7.org/fhir/us/qicore/StructureDefinition/qicore-patient"]},"extension":[{"url":"http://hl7.org/fhir/us/core/StructureDefinition/us-core-race","extension":[{"url":"ombCategory","valueCoding":{"system":"urn:oid:2.16.840.1.113883.6.238","code":"2054-5","display":"Black or African American","userSelected":true}},{"url":"text","valueString":"Black or African American"}]},{"url":"http://hl7.org/fhir/us/core/StructureDefinition/us-core-ethnicity","extension":[{"url":"ombCategory","valueCoding":{"system":"urn:oid:2.16.840.1.113883.6.238","code":"2186-5","display":"Not Hispanic or Latino","userSelected":true}},{"url":"text","valueString":"Not Hispanic or Latino"}]}],"identifier":[{"type":{"coding":[{"system":"http://terminology.hl7.org/CodeSystem/v2-0203","code":"MR"}]},"system":"https://bonnie-fhir.healthit.gov/","value":"61152a3b98086b7a79cbd7c1"}],"active":true,"name":[{"use":"usual","family":"DENOMPass","given":["RiskVariableASAClass"]}],"gender":"female","birthDate":"1966-07-12"},"request":{"method":"PUT","url":"Patient/c706d170-57b2-4eb2-9af8-d7bcce8728a1"}},{"resource":{"resourceType":"MeasureReport","id":"1db9d407-f377-4b7a-b52b-401974409823","meta":{"profile":["http://hl7.org/fhir/us/cqfmeasures/StructureDefinition/test-case-cqfm"]},"contained":[{"resourceType":"Parameters","id":"27419dbd-9a7e-4e16-9a93-4d790e75e305-parameters","parameter":[{"name":"subject","valueString":"c706d170-57b2-4eb2-9af8-d7bcce8728a1"}]}],"extension":[{"url":"http://hl7.org/fhir/StructureDefinition/cqf-inputParameters","valueReference":{"reference":"#27419dbd-9a7e-4e16-9a93-4d790e75e305-parameters"}},{"url":"http://hl7.org/fhir/us/cqfmeasures/StructureDefinition/cqfm-testCaseDescription","valueMarkdown":"DENOMPass satisfies First Respiratory Rate risk variable"}],"modifierExtension":[{"url":"http://hl7.org/fhir/us/cqfmeasures/StructureDefinition/cqfm-isTestCase","valueBoolean":true}],"status":"complete","type":"individual","measure":"https://madie.cms.gov/Measure/CMS1218FHIRHHRF","period":{"start":"2026-01-01","end":"2026-12-31"},"group":[{"id":"Group_1","population":[{"id":"InitialPopulation_1","code":{"coding":[{"system":"http://terminology.hl7.org/CodeSystem/measure-population","code":"initial-population","display":"Initial Population"}]},"count":1},{"id":"Denominator_1","code":{"coding":[{"system":"http://terminology.hl7.org/CodeSystem/measure-population","code":"denominator","display":"Denominator"}]},"count":1},{"id":"DenominatorExclusion_1","code":{"coding":[{"system":"http://terminology.hl7.org/CodeSystem/measure-population","code":"denominator-exclusion","display":"Denominator Exclusion"}]},"count":0},{"id":"Numerator_1","code":{"coding":[{"system":"http://terminology.hl7.org/CodeSystem/measure-population","code":"numerator","display":"Numerator"}]},"count":0}],"measureScore":{"value":0.0}}],"evaluatedResource":[{"reference":"Encounter/d11809e1-edef-4c98-973b-175f79a0fccd"},{"reference":"Observation/a15ae0d8-db72-4fcd-a928-47fcc7aaa0ac"},{"reference":"Patient/c706d170-57b2-4eb2-9af8-d7bcce8728a1"},{"reference":"Observation/86bc7f31-ae5c-4331-9a68-d03316b737eb"},{"reference":"Procedure/b4b80ac7-c8a0-49a3-b9e6-b2c94e3435e5"}]},"request":{"method":"PUT","url":"MeasureReport/1db9d407-f377-4b7a-b52b-401974409823"}},{"resource":{"resourceType":"Bundle","id":"tests-RiskVarPassFirstRespiratoryRate-bundle","type":"transaction","entry":[{"fullUrl":"https://madie.cms.gov/Encounter/d11809e1-edef-4c98-973b-175f79a0fccd","resource":{"resourceType":"Encounter","id":"d11809e1-edef-4c98-973b-175f79a0fccd","meta":{"profile":["http://hl7.org/fhir/us/qicore/StructureDefinition/qicore-encounter"]},"status":"finished","class":{"system":"http://terminology.hl7.org/CodeSystem/v3-ActCode","code":"IMP","display":"inpatient encounter"},"type":[{"coding":[{"system":"http://snomed.info/sct","code":"112689000","display":"Hospital admission, elective, with complete pre-admission work-up"}],"text":"Hospital admission, elective, with complete pre-admission work-up"}],"priority":{"coding":[{"system":"http://snomed.info/sct","code":"103390000"}]},"subject":{"reference":"Patient/c706d170-57b2-4eb2-9af8-d7bcce8728a1"},"period":{"start":"2026-04-10T08:00:00.000+00:00","end":"2026-04-14T08:15:00.000+00:00"},"diagnosis":[{"condition":{"reference":"Procedure/967e440e-8766-4705-924b-00b4a61b0458"},"rank":1}]},"request":{"method":"PUT","url":"Encounter/d11809e1-edef-4c98-973b-175f79a0fccd"}},{"fullUrl":"https://madie.cms.gov/Observation/a15ae0d8-db72-4fcd-a928-47fcc7aaa0ac","resource":{"resourceType":"Observation","id":"a15ae0d8-db72-4fcd-a928-47fcc7aaa0ac","meta":{"profile":["http://hl7.org/fhir/us/core/StructureDefinition/us-core-respiratory-rate"]},"status":"final","category":[{"coding":[{"system":"http://terminology.hl7.org/CodeSystem/observation-category","code":"vital-signs","display":"Vital Signs"}]}],"code":{"coding":[{"system":"http://loinc.org","code":"9279-1","display":"Respiratory rate"}],"text":"Respiratory rate"},"subject":{"reference":"Patient/c706d170-57b2-4eb2-9af8-d7bcce8728a1"},"encounter":{"reference":"Encounter/d11809e1-edef-4c98-973b-175f79a0fccd"},"effectiveDateTime":"2026-04-11T09:00:00.000+00:00","valueQuantity":{"value":79,"unit":"'/min'","system":"http://unitsofmeasure.org","code":"/min"}},"request":{"method":"PUT","url":"Observation/a15ae0d8-db72-4fcd-a928-47fcc7aaa0ac"}},{"fullUrl":"https://madie.cms.gov/Patient/c706d170-57b2-4eb2-9af8-d7bcce8728a1","resource":{"resourceType":"Patient","id":"c706d170-57b2-4eb2-9af8-d7bcce8728a1","meta":{"profile":["http://hl7.org/fhir/us/qicore/StructureDefinition/qicore-patient"]},"extension":[{"url":"http://hl7.org/fhir/us/core/StructureDefinition/us-core-race","extension":[{"url":"ombCategory","valueCoding":{"system":"urn:oid:2.16.840.1.113883.6.238","code":"2054-5","display":"Black or African American","userSelected":true}},{"url":"text","valueString":"Black or African American"}]},{"url":"http://hl7.org/fhir/us/core/StructureDefinition/us-core-ethnicity","extension":[{"url":"ombCategory","valueCoding":{"system":"urn:oid:2.16.840.1.113883.6.238","code":"2186-5","display":"Not Hispanic or Latino","userSelected":true}},{"url":"text","valueString":"Not Hispanic or Latino"}]}],"identifier":[{"type":{"coding":[{"system":"http://terminology.hl7.org/CodeSystem/v2-0203","code":"MR"}]},"system":"https://bonnie-fhir.healthit.gov/","value":"61152a3b98086b7a79cbd7c1"}],"active":true,"name":[{"use":"usual","family":"DENOMPass","given":["RiskVariableASAClass"]}],"gender":"female","birthDate":"1966-07-12"},"request":{"method":"PUT","url":"Patient/c706d170-57b2-4eb2-9af8-d7bcce8728a1"}},{"fullUrl":"https://madie.cms.gov/Observation/86bc7f31-ae5c-4331-9a68-d03316b737eb","resource":{"resourceType":"Observation","id":"86bc7f31-ae5c-4331-9a68-d03316b737eb","meta":{"profile":["http://hl7.org/fhir/us/core/StructureDefinition/us-core-respiratory-rate"]},"status":"final","category":[{"coding":[{"system":"http://terminology.hl7.org/CodeSystem/observation-category","code":"vital-signs","display":"Vital Signs"}]}],"code":{"coding":[{"system":"http://loinc.org","code":"9279-1","display":"Respiratory rate"}],"text":"Respiratory rate"},"subject":{"reference":"Patient/c706d170-57b2-4eb2-9af8-d7bcce8728a1"},"encounter":{"reference":"Encounter/d11809e1-edef-4c98-973b-175f79a0fccd"},"effectiveDateTime":"2026-04-11T08:00:00.000+00:00","valueQuantity":{"value":72,"unit":"'/min'","system":"http://unitsofmeasure.org","code":"/min"}},"request":{"method":"PUT","url":"Observation/86bc7f31-ae5c-4331-9a68-d03316b737eb"}},{"fullUrl":"https://madie.cms.gov/Procedure/b4b80ac7-c8a0-49a3-b9e6-b2c94e3435e5","resource":{"resourceType":"Procedure","id":"b4b80ac7-c8a0-49a3-b9e6-b2c94e3435e5","meta":{"profile":["http://hl7.org/fhir/us/qicore/StructureDefinition/qicore-procedure"]},"extension":[{"url":"http://hl7.org/fhir/us/qicore/StructureDefinition/qicore-recorded","valueDateTime":"2026-04-11T10:30:00.000+00:00"}],"status":"completed","category":{"coding":[{"system":"http://snomed.info/sct","code":"18286008","display":"General or neuraxial anesthesia"}]},"code":{"coding":[{"system":"http://snomed.info/sct","code":"112943005","display":"Epidural injection of anesthetic substance, diagnostic, caudal, continuous"}]},"subject":{"reference":"Patient/c706d170-57b2-4eb2-9af8-d7bcce8728a1"},"performedPeriod":{"start":"2026-04-11T08:00:00.000+00:00","end":"2026-04-11T10:15:00.000+00:00"}},"request":{"method":"PUT","url":"Procedure/b4b80ac7-c8a0-49a3-b9e6-b2c94e3435e5"}},{"fullUrl":"https://madie.cms.gov/MeasureReport/1db9d407-f377-4b7a-b52b-401974409823","resource":{"resourceType":"MeasureReport","id":"1db9d407-f377-4b7a-b52b-401974409823","meta":{"profile":["http://hl7.org/fhir/us/cqfmeasures/StructureDefinition/test-case-cqfm"]},"contained":[{"resourceType":"Parameters","id":"27419dbd-9a7e-4e16-9a93-4d790e75e305-parameters","parameter":[{"name":"subject","valueString":"c706d170-57b2-4eb2-9af8-d7bcce8728a1"}]}],"extension":[{"url":"http://hl7.org/fhir/StructureDefinition/cqf-inputParameters","valueReference":{"reference":"#27419dbd-9a7e-4e16-9a93-4d790e75e305-parameters"}},{"url":"http://hl7.org/fhir/us/cqfmeasures/StructureDefinition/cqfm-testCaseDescription","valueMarkdown":"DENOMPass satisfies First Respiratory Rate risk variable"}],"modifierExtension":[{"url":"http://hl7.org/fhir/us/cqfmeasures/StructureDefinition/cqfm-isTestCase","valueBoolean":true}],"status":"complete","type":"individual","measure":"https://madie.cms.gov/Measure/CMS1218FHIRHHRF","period":{"start":"2026-01-01","end":"2026-12-31"},"group":[{"id":"Group_1","population":[{"id":"InitialPopulation_1","code":{"coding":[{"system":"http://terminology.hl7.org/CodeSystem/measure-population","code":"initial-population","display":"Initial Population"}]},"count":1},{"id":"Denominator_1","code":{"coding":[{"system":"http://terminology.hl7.org/CodeSystem/measure-population","code":"denominator","display":"Denominator"}]},"count":1},{"id":"DenominatorExclusion_1","code":{"coding":[{"system":"http://terminology.hl7.org/CodeSystem/measure-population","code":"denominator-exclusion","display":"Denominator Exclusion"}]},"count":0},{"id":"Numerator_1","code":{"coding":[{"system":"http://terminology.hl7.org/CodeSystem/measure-population","code":"numerator","display":"Numerator"}]},"count":0}],"measureScore":{"value":0.0}}],"evaluatedResource":[{"reference":"Encounter/d11809e1-edef-4c98-973b-175f79a0fccd"},{"reference":"Observation/a15ae0d8-db72-4fcd-a928-47fcc7aaa0ac"},{"reference":"Patient/c706d170-57b2-4eb2-9af8-d7bcce8728a1"},{"reference":"Observation/86bc7f31-ae5c-4331-9a68-d03316b737eb"},{"reference":"Procedure/b4b80ac7-c8a0-49a3-b9e6-b2c94e3435e5"}]},"request":{"method":"PUT","url":"MeasureReport/1db9d407-f377-4b7a-b52b-401974409823"}}]},"request":{"method":"PUT","url":"Bundle/tests-RiskVarPassFirstRespiratoryRate-bundle"}},{"resource":{"resourceType":"Observation","id":"86bc7f31-ae5c-4331-9a68-d03316b737eb","meta":{"profile":["http://hl7.org/fhir/us/core/StructureDefinition/us-core-respiratory-rate"]},"status":"final","category":[{"coding":[{"system":"http://terminology.hl7.org/CodeSystem/observation-category","code":"vital-signs","display":"Vital Signs"}]}],"code":{"coding":[{"system":"http://loinc.org","code":"9279-1","display":"Respiratory rate"}],"text":"Respiratory rate"},"subject":{"reference":"Patient/c706d170-57b2-4eb2-9af8-d7bcce8728a1"},"encounter":{"reference":"Encounter/d11809e1-edef-4c98-973b-175f79a0fccd"},"effectiveDateTime":"2026-04-11T08:00:00.000+00:00","valueQuantity":{"value":72,"unit":"'/min'","system":"http://unitsofmeasure.org","code":"/min"}},"request":{"method":"PUT","url":"Observation/86bc7f31-ae5c-4331-9a68-d03316b737eb"}},{"resource":{"resourceType":"Procedure","id":"b4b80ac7-c8a0-49a3-b9e6-b2c94e3435e5","meta":{"profile":["http://hl7.org/fhir/us/qicore/StructureDefinition/qicore-procedure"]},"extension":[{"url":"http://hl7.org/fhir/us/qicore/StructureDefinition/qicore-recorded","valueDateTime":"2026-04-11T10:30:00.000+00:00"}],"status":"completed","category":{"coding":[{"system":"http://snomed.info/sct","code":"18286008","display":"General or neuraxial anesthesia"}]},"code":{"coding":[{"system":"http://snomed.info/sct","code":"112943005","display":"Epidural injection of anesthetic substance, diagnostic, caudal, continuous"}]},"subject":{"reference":"Patient/c706d170-57b2-4eb2-9af8-d7bcce8728a1"},"performedPeriod":{"start":"2026-04-11T08:00:00.000+00:00","end":"2026-04-11T10:15:00.000+00:00"}},"request":{"method":"PUT","url":"Procedure/b4b80ac7-c8a0-49a3-b9e6-b2c94e3435e5"}},{"resource":{"resourceType":"Observation","id":"a15ae0d8-db72-4fcd-a928-47fcc7aaa0ac","meta":{"profile":["http://hl7.org/fhir/us/core/StructureDefinition/us-core-respiratory-rate"]},"status":"final","category":[{"coding":[{"system":"http://terminology.hl7.org/CodeSystem/observation-category","code":"vital-signs","display":"Vital Signs"}]}],"code":{"coding":[{"system":"http://loinc.org","code":"9279-1","display":"Respiratory rate"}],"text":"Respiratory rate"},"subject":{"reference":"Patient/c706d170-57b2-4eb2-9af8-d7bcce8728a1"},"encounter":{"reference":"Encounter/d11809e1-edef-4c98-973b-175f79a0fccd"},"effectiveDateTime":"2026-04-11T09:00:00.000+00:00","valueQuantity":{"value":79,"unit":"'/min'","system":"http://unitsofmeasure.org","code":"/min"}},"request":{"method":"PUT","url":"Observation/a15ae0d8-db72-4fcd-a928-47fcc7aaa0ac"}}]}