{"resourceType":"Bundle","id":"tests-29815dd6-1ee5-4811-8452-7aaed65ec1e7-bundle","type":"transaction","entry":[{"resource":{"resourceType":"Bundle","id":"tests-29815dd6-1ee5-4811-8452-7aaed65ec1e7-bundle","type":"transaction","entry":[{"fullUrl":"https://madie.cms.gov/Procedure/12cc07f6-43de-47ef-9fcb-927bff917ee7","resource":{"resourceType":"Procedure","id":"12cc07f6-43de-47ef-9fcb-927bff917ee7","meta":{"profile":["http://hl7.org/fhir/us/qicore/StructureDefinition/qicore-procedure"]},"extension":[{"url":"http://hl7.org/fhir/us/qicore/StructureDefinition/qicore-recorded","valueDateTime":"2026-04-11T07:10:30.000+00:00"}],"status":"completed","code":{"coding":[{"system":"http://snomed.info/sct","code":"243141005","display":"Mechanically assisted spontaneous ventilation"}],"text":"Mechanically assisted spontaneous ventilation"},"subject":{"reference":"Patient/29815dd6-1ee5-4811-8452-7aaed65ec1e7"},"performedPeriod":{"start":"2026-04-11T06:00:00.000+00:00","end":"2026-04-11T10:15:00.000+00:00"}},"request":{"method":"PUT","url":"Procedure/12cc07f6-43de-47ef-9fcb-927bff917ee7"}},{"fullUrl":"https://madie.cms.gov/Procedure/b4a33157-e86b-4233-9348-967a26a12633","resource":{"resourceType":"Procedure","id":"b4a33157-e86b-4233-9348-967a26a12633","meta":{"profile":["http://hl7.org/fhir/us/qicore/StructureDefinition/qicore-procedure"]},"extension":[{"url":"http://hl7.org/fhir/us/qicore/StructureDefinition/qicore-recorded","valueDateTime":"2026-04-11T08:10:00.000+00:00"}],"status":"completed","category":{"coding":[{"system":"http://snomed.info/sct","code":"18286008","display":"General or neuraxial anesthesia"}]},"code":{"coding":[{"system":"http://snomed.info/sct","code":"112943005","display":"Epidural injection of anesthetic substance, diagnostic, caudal, continuous"}]},"subject":{"reference":"Patient/29815dd6-1ee5-4811-8452-7aaed65ec1e7"},"performedDateTime":"2026-04-11T08:00:00.000+00:00"},"request":{"method":"PUT","url":"Procedure/b4a33157-e86b-4233-9348-967a26a12633"}},{"fullUrl":"https://madie.cms.gov/Patient/29815dd6-1ee5-4811-8452-7aaed65ec1e7","resource":{"resourceType":"Patient","id":"29815dd6-1ee5-4811-8452-7aaed65ec1e7","meta":{"profile":["http://hl7.org/fhir/us/qicore/StructureDefinition/qicore-patient"]},"extension":[{"url":"http://hl7.org/fhir/us/core/StructureDefinition/us-core-race","extension":[{"url":"ombCategory","valueCoding":{"system":"urn:oid:2.16.840.1.113883.6.238","code":"2054-5","display":"Black or African American","userSelected":true}},{"url":"text","valueString":"Black or African American"}]},{"url":"http://hl7.org/fhir/us/core/StructureDefinition/us-core-ethnicity","extension":[{"url":"ombCategory","valueCoding":{"system":"urn:oid:2.16.840.1.113883.6.238","code":"2186-5","display":"Not Hispanic or Latino","userSelected":true}},{"url":"text","valueString":"Not Hispanic or Latino"}]}],"identifier":[{"type":{"coding":[{"system":"http://terminology.hl7.org/CodeSystem/v2-0203","code":"MR"}]},"system":"https://bonnie-fhir.healthit.gov/","value":"61152a3b98086b7a79cbd7c1"}],"active":true,"name":[{"use":"usual","family":"DENEXPass","given":["MV-GT1HrBeforeStartOfFirstProcRelDateTime"]}],"gender":"female","birthDate":"1966-07-12"},"request":{"method":"PUT","url":"Patient/29815dd6-1ee5-4811-8452-7aaed65ec1e7"}},{"fullUrl":"https://madie.cms.gov/Encounter/ff9b2776-29f7-4abe-baa1-7d49db87ec0e","resource":{"resourceType":"Encounter","id":"ff9b2776-29f7-4abe-baa1-7d49db87ec0e","meta":{"profile":["http://hl7.org/fhir/us/qicore/StructureDefinition/qicore-encounter"]},"status":"finished","class":{"system":"http://terminology.hl7.org/CodeSystem/v3-ActCode","code":"IMP","display":"inpatient encounter"},"type":[{"coding":[{"system":"http://snomed.info/sct","code":"112689000","display":"Hospital admission, elective, with complete pre-admission work-up"}],"text":"Hospital admission, elective, with complete pre-admission work-up"}],"priority":{"coding":[{"system":"http://snomed.info/sct","code":"103390000"}]},"subject":{"reference":"Patient/29815dd6-1ee5-4811-8452-7aaed65ec1e7"},"period":{"start":"2026-04-10T08:00:00.000+00:00","end":"2026-04-14T08:15:00.000+00:00"},"diagnosis":[{"condition":{"reference":"Procedure/b4a33157-e86b-4233-9348-967a26a12633"},"rank":1}]},"request":{"method":"PUT","url":"Encounter/ff9b2776-29f7-4abe-baa1-7d49db87ec0e"}},{"fullUrl":"https://madie.cms.gov/Procedure/761ec1ea-0880-4171-bdad-2424f26236a9","resource":{"resourceType":"Procedure","id":"761ec1ea-0880-4171-bdad-2424f26236a9","meta":{"profile":["http://hl7.org/fhir/us/qicore/StructureDefinition/qicore-procedure"]},"extension":[{"url":"http://hl7.org/fhir/us/qicore/StructureDefinition/qicore-recorded","valueDateTime":"2026-04-13T10:10:30.000+00:00"}],"status":"completed","code":{"coding":[{"system":"http://www.cms.gov/Medicare/Coding/ICD10","code":"0BH13EZ","display":"Insertion of Endotracheal Airway into Trachea, Percutaneous Approach"}],"text":"Insertion of Endotracheal Airway into Trachea, Percutaneous Approach"},"subject":{"reference":"Patient/29815dd6-1ee5-4811-8452-7aaed65ec1e7"},"performedPeriod":{"start":"2026-04-12T08:00:00.000+00:00","end":"2026-04-13T10:15:00.000+00:00"}},"request":{"method":"PUT","url":"Procedure/761ec1ea-0880-4171-bdad-2424f26236a9"}},{"fullUrl":"https://madie.cms.gov/MeasureReport/13a50763-3f9c-4dfd-8539-8ccc98c3c4e3","resource":{"resourceType":"MeasureReport","id":"13a50763-3f9c-4dfd-8539-8ccc98c3c4e3","meta":{"profile":["http://hl7.org/fhir/us/cqfmeasures/StructureDefinition/test-case-cqfm"]},"contained":[{"resourceType":"Parameters","id":"e5668292-26d4-41e9-a074-8009b0b03a7b-parameters","parameter":[{"name":"subject","valueString":"29815dd6-1ee5-4811-8452-7aaed65ec1e7"}]}],"extension":[{"url":"http://hl7.org/fhir/StructureDefinition/cqf-inputParameters","valueReference":{"reference":"#e5668292-26d4-41e9-a074-8009b0b03a7b-parameters"}},{"url":"http://hl7.org/fhir/us/cqfmeasures/StructureDefinition/cqfm-testCaseDescription","valueMarkdown":"Elective hosp with proc (anesthesia) within first 3 days of encounter. Intubated within 30 days after end of anesthesia, outside of OR location. Had mech vent start >1 hr. before start of first proc's relevant datetime. Meets Exc.\n"}],"modifierExtension":[{"url":"http://hl7.org/fhir/us/cqfmeasures/StructureDefinition/cqfm-isTestCase","valueBoolean":true}],"status":"complete","type":"individual","measure":"https://madie.cms.gov/Measure/CMS1218FHIRHHRF","period":{"start":"2026-01-01","end":"2026-12-31"},"group":[{"id":"Group_1","population":[{"id":"InitialPopulation_1","code":{"coding":[{"system":"http://terminology.hl7.org/CodeSystem/measure-population","code":"initial-population","display":"Initial Population"}]},"count":1},{"id":"Denominator_1","code":{"coding":[{"system":"http://terminology.hl7.org/CodeSystem/measure-population","code":"denominator","display":"Denominator"}]},"count":1},{"id":"DenominatorExclusion_1","code":{"coding":[{"system":"http://terminology.hl7.org/CodeSystem/measure-population","code":"denominator-exclusion","display":"Denominator Exclusion"}]},"count":1},{"id":"Numerator_1","code":{"coding":[{"system":"http://terminology.hl7.org/CodeSystem/measure-population","code":"numerator","display":"Numerator"}]},"count":0}],"measureScore":{"value":0.0}}],"evaluatedResource":[{"reference":"Procedure/12cc07f6-43de-47ef-9fcb-927bff917ee7"},{"reference":"Procedure/b4a33157-e86b-4233-9348-967a26a12633"},{"reference":"Patient/29815dd6-1ee5-4811-8452-7aaed65ec1e7"},{"reference":"Encounter/ff9b2776-29f7-4abe-baa1-7d49db87ec0e"},{"reference":"Procedure/761ec1ea-0880-4171-bdad-2424f26236a9"}]},"request":{"method":"PUT","url":"MeasureReport/13a50763-3f9c-4dfd-8539-8ccc98c3c4e3"}}]},"request":{"method":"PUT","url":"Bundle/tests-29815dd6-1ee5-4811-8452-7aaed65ec1e7-bundle"}},{"resource":{"resourceType":"Procedure","id":"12cc07f6-43de-47ef-9fcb-927bff917ee7","meta":{"profile":["http://hl7.org/fhir/us/qicore/StructureDefinition/qicore-procedure"]},"extension":[{"url":"http://hl7.org/fhir/us/qicore/StructureDefinition/qicore-recorded","valueDateTime":"2026-04-11T07:10:30.000+00:00"}],"status":"completed","code":{"coding":[{"system":"http://snomed.info/sct","code":"243141005","display":"Mechanically assisted spontaneous ventilation"}],"text":"Mechanically assisted spontaneous ventilation"},"subject":{"reference":"Patient/29815dd6-1ee5-4811-8452-7aaed65ec1e7"},"performedPeriod":{"start":"2026-04-11T06:00:00.000+00:00","end":"2026-04-11T10:15:00.000+00:00"}},"request":{"method":"PUT","url":"Procedure/12cc07f6-43de-47ef-9fcb-927bff917ee7"}},{"resource":{"resourceType":"MeasureReport","id":"13a50763-3f9c-4dfd-8539-8ccc98c3c4e3","meta":{"profile":["http://hl7.org/fhir/us/cqfmeasures/StructureDefinition/test-case-cqfm"]},"contained":[{"resourceType":"Parameters","id":"e5668292-26d4-41e9-a074-8009b0b03a7b-parameters","parameter":[{"name":"subject","valueString":"29815dd6-1ee5-4811-8452-7aaed65ec1e7"}]}],"extension":[{"url":"http://hl7.org/fhir/StructureDefinition/cqf-inputParameters","valueReference":{"reference":"#e5668292-26d4-41e9-a074-8009b0b03a7b-parameters"}},{"url":"http://hl7.org/fhir/us/cqfmeasures/StructureDefinition/cqfm-testCaseDescription","valueMarkdown":"Elective hosp with proc (anesthesia) within first 3 days of encounter. Intubated within 30 days after end of anesthesia, outside of OR location. Had mech vent start >1 hr. before start of first proc's relevant datetime. Meets Exc.\n"}],"modifierExtension":[{"url":"http://hl7.org/fhir/us/cqfmeasures/StructureDefinition/cqfm-isTestCase","valueBoolean":true}],"status":"complete","type":"individual","measure":"https://madie.cms.gov/Measure/CMS1218FHIRHHRF","period":{"start":"2026-01-01","end":"2026-12-31"},"group":[{"id":"Group_1","population":[{"id":"InitialPopulation_1","code":{"coding":[{"system":"http://terminology.hl7.org/CodeSystem/measure-population","code":"initial-population","display":"Initial Population"}]},"count":1},{"id":"Denominator_1","code":{"coding":[{"system":"http://terminology.hl7.org/CodeSystem/measure-population","code":"denominator","display":"Denominator"}]},"count":1},{"id":"DenominatorExclusion_1","code":{"coding":[{"system":"http://terminology.hl7.org/CodeSystem/measure-population","code":"denominator-exclusion","display":"Denominator Exclusion"}]},"count":1},{"id":"Numerator_1","code":{"coding":[{"system":"http://terminology.hl7.org/CodeSystem/measure-population","code":"numerator","display":"Numerator"}]},"count":0}],"measureScore":{"value":0.0}}],"evaluatedResource":[{"reference":"Procedure/12cc07f6-43de-47ef-9fcb-927bff917ee7"},{"reference":"Procedure/b4a33157-e86b-4233-9348-967a26a12633"},{"reference":"Patient/29815dd6-1ee5-4811-8452-7aaed65ec1e7"},{"reference":"Encounter/ff9b2776-29f7-4abe-baa1-7d49db87ec0e"},{"reference":"Procedure/761ec1ea-0880-4171-bdad-2424f26236a9"}]},"request":{"method":"PUT","url":"MeasureReport/13a50763-3f9c-4dfd-8539-8ccc98c3c4e3"}},{"resource":{"resourceType":"Encounter","id":"ff9b2776-29f7-4abe-baa1-7d49db87ec0e","meta":{"profile":["http://hl7.org/fhir/us/qicore/StructureDefinition/qicore-encounter"]},"status":"finished","class":{"system":"http://terminology.hl7.org/CodeSystem/v3-ActCode","code":"IMP","display":"inpatient encounter"},"type":[{"coding":[{"system":"http://snomed.info/sct","code":"112689000","display":"Hospital admission, elective, with complete pre-admission work-up"}],"text":"Hospital admission, elective, with complete pre-admission work-up"}],"priority":{"coding":[{"system":"http://snomed.info/sct","code":"103390000"}]},"subject":{"reference":"Patient/29815dd6-1ee5-4811-8452-7aaed65ec1e7"},"period":{"start":"2026-04-10T08:00:00.000+00:00","end":"2026-04-14T08:15:00.000+00:00"},"diagnosis":[{"condition":{"reference":"Procedure/b4a33157-e86b-4233-9348-967a26a12633"},"rank":1}]},"request":{"method":"PUT","url":"Encounter/ff9b2776-29f7-4abe-baa1-7d49db87ec0e"}},{"resource":{"resourceType":"Procedure","id":"b4a33157-e86b-4233-9348-967a26a12633","meta":{"profile":["http://hl7.org/fhir/us/qicore/StructureDefinition/qicore-procedure"]},"extension":[{"url":"http://hl7.org/fhir/us/qicore/StructureDefinition/qicore-recorded","valueDateTime":"2026-04-11T08:10:00.000+00:00"}],"status":"completed","category":{"coding":[{"system":"http://snomed.info/sct","code":"18286008","display":"General or neuraxial anesthesia"}]},"code":{"coding":[{"system":"http://snomed.info/sct","code":"112943005","display":"Epidural injection of anesthetic substance, diagnostic, caudal, continuous"}]},"subject":{"reference":"Patient/29815dd6-1ee5-4811-8452-7aaed65ec1e7"},"performedDateTime":"2026-04-11T08:00:00.000+00:00"},"request":{"method":"PUT","url":"Procedure/b4a33157-e86b-4233-9348-967a26a12633"}},{"resource":{"resourceType":"Procedure","id":"761ec1ea-0880-4171-bdad-2424f26236a9","meta":{"profile":["http://hl7.org/fhir/us/qicore/StructureDefinition/qicore-procedure"]},"extension":[{"url":"http://hl7.org/fhir/us/qicore/StructureDefinition/qicore-recorded","valueDateTime":"2026-04-13T10:10:30.000+00:00"}],"status":"completed","code":{"coding":[{"system":"http://www.cms.gov/Medicare/Coding/ICD10","code":"0BH13EZ","display":"Insertion of Endotracheal Airway into Trachea, Percutaneous Approach"}],"text":"Insertion of Endotracheal Airway into Trachea, Percutaneous Approach"},"subject":{"reference":"Patient/29815dd6-1ee5-4811-8452-7aaed65ec1e7"},"performedPeriod":{"start":"2026-04-12T08:00:00.000+00:00","end":"2026-04-13T10:15:00.000+00:00"}},"request":{"method":"PUT","url":"Procedure/761ec1ea-0880-4171-bdad-2424f26236a9"}},{"resource":{"resourceType":"Patient","id":"29815dd6-1ee5-4811-8452-7aaed65ec1e7","meta":{"profile":["http://hl7.org/fhir/us/qicore/StructureDefinition/qicore-patient"]},"extension":[{"url":"http://hl7.org/fhir/us/core/StructureDefinition/us-core-race","extension":[{"url":"ombCategory","valueCoding":{"system":"urn:oid:2.16.840.1.113883.6.238","code":"2054-5","display":"Black or African American","userSelected":true}},{"url":"text","valueString":"Black or African American"}]},{"url":"http://hl7.org/fhir/us/core/StructureDefinition/us-core-ethnicity","extension":[{"url":"ombCategory","valueCoding":{"system":"urn:oid:2.16.840.1.113883.6.238","code":"2186-5","display":"Not Hispanic or Latino","userSelected":true}},{"url":"text","valueString":"Not Hispanic or Latino"}]}],"identifier":[{"type":{"coding":[{"system":"http://terminology.hl7.org/CodeSystem/v2-0203","code":"MR"}]},"system":"https://bonnie-fhir.healthit.gov/","value":"61152a3b98086b7a79cbd7c1"}],"active":true,"name":[{"use":"usual","family":"DENEXPass","given":["MV-GT1HrBeforeStartOfFirstProcRelDateTime"]}],"gender":"female","birthDate":"1966-07-12"},"request":{"method":"PUT","url":"Patient/29815dd6-1ee5-4811-8452-7aaed65ec1e7"}}]}