{"resourceType":"Bundle","id":"tests-97f045d5-0c9e-40c5-9f46-7adf4c049598-bundle","type":"transaction","entry":[{"resource":{"resourceType":"Patient","id":"97f045d5-0c9e-40c5-9f46-7adf4c049598","meta":{"profile":["http://hl7.org/fhir/us/qicore/StructureDefinition/qicore-patient"]},"extension":[{"url":"http://hl7.org/fhir/us/core/StructureDefinition/us-core-race","extension":[{"url":"ombCategory","valueCoding":{"system":"urn:oid:2.16.840.1.113883.6.238","code":"2054-5","display":"Black or African American","userSelected":true}},{"url":"text","valueString":"Black or African American"}]},{"url":"http://hl7.org/fhir/us/core/StructureDefinition/us-core-ethnicity","extension":[{"url":"ombCategory","valueCoding":{"system":"urn:oid:2.16.840.1.113883.6.238","code":"2186-5","display":"Not Hispanic or Latino","userSelected":true}},{"url":"text","valueString":"Not Hispanic or Latino"}]}],"identifier":[{"type":{"coding":[{"system":"http://terminology.hl7.org/CodeSystem/v2-0203","code":"MR"}]},"system":"https://bonnie-fhir.healthit.gov/","value":"61152a3b98086b7a79cbd7c1"}],"active":true,"name":[{"use":"usual","family":"DENOMPass","given":["RiskVariableASAClass"]}],"gender":"female","birthDate":"1966-07-12"},"request":{"method":"PUT","url":"Patient/97f045d5-0c9e-40c5-9f46-7adf4c049598"}},{"resource":{"resourceType":"Observation","id":"6ea4cb76-90b8-4ce5-9cff-bae398d82a92","meta":{"profile":["http://hl7.org/fhir/us/core/StructureDefinition/us-core-body-temperature"]},"status":"final","category":[{"coding":[{"system":"http://terminology.hl7.org/CodeSystem/observation-category","code":"vital-signs","display":"Vital Signs"}]}],"code":{"coding":[{"system":"http://loinc.org","code":"8310-5","display":"Body temperature"}],"text":"Body temperature"},"subject":{"reference":"Patient/97f045d5-0c9e-40c5-9f46-7adf4c049598"},"encounter":{"reference":"Encounter/90e149df-706c-417a-81ee-956e14cc1963"},"effectiveDateTime":"2026-04-11T09:00:00.000+00:00","valueQuantity":{"value":39,"unit":"Cel","system":"http://unitsofmeasure.org","code":"Cel"}},"request":{"method":"PUT","url":"Observation/6ea4cb76-90b8-4ce5-9cff-bae398d82a92"}},{"resource":{"resourceType":"MeasureReport","id":"66c77074-1b40-4b45-b348-69dd4fc4516c","meta":{"profile":["http://hl7.org/fhir/us/cqfmeasures/StructureDefinition/test-case-cqfm"]},"contained":[{"resourceType":"Parameters","id":"d64ae617-89f7-4806-bc88-63f851aa43c9-parameters","parameter":[{"name":"subject","valueString":"97f045d5-0c9e-40c5-9f46-7adf4c049598"}]}],"extension":[{"url":"http://hl7.org/fhir/StructureDefinition/cqf-inputParameters","valueReference":{"reference":"#d64ae617-89f7-4806-bc88-63f851aa43c9-parameters"}},{"url":"http://hl7.org/fhir/us/cqfmeasures/StructureDefinition/cqfm-testCaseDescription","valueMarkdown":"DENOMPass. Satisfies First Body Temp risk variable"}],"modifierExtension":[{"url":"http://hl7.org/fhir/us/cqfmeasures/StructureDefinition/cqfm-isTestCase","valueBoolean":true}],"status":"complete","type":"individual","measure":"https://madie.cms.gov/Measure/CMS1218FHIRHHRF","period":{"start":"2026-01-01","end":"2026-12-31"},"group":[{"id":"Group_1","population":[{"id":"InitialPopulation_1","code":{"coding":[{"system":"http://terminology.hl7.org/CodeSystem/measure-population","code":"initial-population","display":"Initial Population"}]},"count":1},{"id":"Denominator_1","code":{"coding":[{"system":"http://terminology.hl7.org/CodeSystem/measure-population","code":"denominator","display":"Denominator"}]},"count":1},{"id":"DenominatorExclusion_1","code":{"coding":[{"system":"http://terminology.hl7.org/CodeSystem/measure-population","code":"denominator-exclusion","display":"Denominator Exclusion"}]},"count":0},{"id":"Numerator_1","code":{"coding":[{"system":"http://terminology.hl7.org/CodeSystem/measure-population","code":"numerator","display":"Numerator"}]},"count":0}],"measureScore":{"value":0.0}}],"evaluatedResource":[{"reference":"Encounter/90e149df-706c-417a-81ee-956e14cc1963"},{"reference":"Patient/97f045d5-0c9e-40c5-9f46-7adf4c049598"},{"reference":"Observation/30af4659-aec9-4169-97d0-764694e8a62e"},{"reference":"Observation/6ea4cb76-90b8-4ce5-9cff-bae398d82a92"},{"reference":"Procedure/b4764f7d-0cf9-4b27-a067-95a8d904dedf"}]},"request":{"method":"PUT","url":"MeasureReport/66c77074-1b40-4b45-b348-69dd4fc4516c"}},{"resource":{"resourceType":"Encounter","id":"90e149df-706c-417a-81ee-956e14cc1963","meta":{"profile":["http://hl7.org/fhir/us/qicore/StructureDefinition/qicore-encounter"]},"status":"finished","class":{"system":"http://terminology.hl7.org/CodeSystem/v3-ActCode","code":"IMP","display":"inpatient encounter"},"type":[{"coding":[{"system":"http://snomed.info/sct","code":"112689000","display":"Hospital admission, elective, with complete pre-admission work-up"}],"text":"Hospital admission, elective, with complete pre-admission work-up"}],"priority":{"coding":[{"system":"http://snomed.info/sct","code":"103390000"}]},"subject":{"reference":"Patient/97f045d5-0c9e-40c5-9f46-7adf4c049598"},"period":{"start":"2026-04-10T08:00:00.000+00:00","end":"2026-04-14T08:15:00.000+00:00"},"diagnosis":[{"condition":{"reference":"Procedure/967e440e-8766-4705-924b-00b4a61b0458"},"rank":1}]},"request":{"method":"PUT","url":"Encounter/90e149df-706c-417a-81ee-956e14cc1963"}},{"resource":{"resourceType":"Observation","id":"30af4659-aec9-4169-97d0-764694e8a62e","meta":{"profile":["http://hl7.org/fhir/us/core/StructureDefinition/us-core-body-temperature"]},"status":"final","category":[{"coding":[{"system":"http://terminology.hl7.org/CodeSystem/observation-category","code":"vital-signs","display":"Vital Signs"}]}],"code":{"coding":[{"system":"http://loinc.org","code":"8310-5","display":"Body temperature"}],"text":"Body temperature"},"subject":{"reference":"Patient/97f045d5-0c9e-40c5-9f46-7adf4c049598"},"encounter":{"reference":"Encounter/90e149df-706c-417a-81ee-956e14cc1963"},"effectiveDateTime":"2026-04-11T08:00:00.000+00:00","valueQuantity":{"value":37,"unit":"Cel","system":"http://unitsofmeasure.org","code":"Cel"}},"request":{"method":"PUT","url":"Observation/30af4659-aec9-4169-97d0-764694e8a62e"}},{"resource":{"resourceType":"Procedure","id":"b4764f7d-0cf9-4b27-a067-95a8d904dedf","meta":{"profile":["http://hl7.org/fhir/us/qicore/StructureDefinition/qicore-procedure"]},"extension":[{"url":"http://hl7.org/fhir/us/qicore/StructureDefinition/qicore-recorded","valueDateTime":"2026-04-11T10:30:00.000+00:00"}],"status":"completed","category":{"coding":[{"system":"http://snomed.info/sct","code":"18286008","display":"General or neuraxial anesthesia"}]},"code":{"coding":[{"system":"http://snomed.info/sct","code":"112943005","display":"Epidural injection of anesthetic substance, diagnostic, caudal, continuous"}]},"subject":{"reference":"Patient/97f045d5-0c9e-40c5-9f46-7adf4c049598"},"performedPeriod":{"start":"2026-04-11T08:00:00.000+00:00","end":"2026-04-11T10:15:00.000+00:00"}},"request":{"method":"PUT","url":"Procedure/b4764f7d-0cf9-4b27-a067-95a8d904dedf"}},{"resource":{"resourceType":"Bundle","id":"tests-RiskVarPassFirstBodyTemperature-bundle","type":"transaction","entry":[{"fullUrl":"https://madie.cms.gov/Encounter/90e149df-706c-417a-81ee-956e14cc1963","resource":{"resourceType":"Encounter","id":"90e149df-706c-417a-81ee-956e14cc1963","meta":{"profile":["http://hl7.org/fhir/us/qicore/StructureDefinition/qicore-encounter"]},"status":"finished","class":{"system":"http://terminology.hl7.org/CodeSystem/v3-ActCode","code":"IMP","display":"inpatient encounter"},"type":[{"coding":[{"system":"http://snomed.info/sct","code":"112689000","display":"Hospital admission, elective, with complete pre-admission work-up"}],"text":"Hospital admission, elective, with complete pre-admission work-up"}],"priority":{"coding":[{"system":"http://snomed.info/sct","code":"103390000"}]},"subject":{"reference":"Patient/97f045d5-0c9e-40c5-9f46-7adf4c049598"},"period":{"start":"2026-04-10T08:00:00.000+00:00","end":"2026-04-14T08:15:00.000+00:00"},"diagnosis":[{"condition":{"reference":"Procedure/967e440e-8766-4705-924b-00b4a61b0458"},"rank":1}]},"request":{"method":"PUT","url":"Encounter/90e149df-706c-417a-81ee-956e14cc1963"}},{"fullUrl":"https://madie.cms.gov/Patient/97f045d5-0c9e-40c5-9f46-7adf4c049598","resource":{"resourceType":"Patient","id":"97f045d5-0c9e-40c5-9f46-7adf4c049598","meta":{"profile":["http://hl7.org/fhir/us/qicore/StructureDefinition/qicore-patient"]},"extension":[{"url":"http://hl7.org/fhir/us/core/StructureDefinition/us-core-race","extension":[{"url":"ombCategory","valueCoding":{"system":"urn:oid:2.16.840.1.113883.6.238","code":"2054-5","display":"Black or African American","userSelected":true}},{"url":"text","valueString":"Black or African American"}]},{"url":"http://hl7.org/fhir/us/core/StructureDefinition/us-core-ethnicity","extension":[{"url":"ombCategory","valueCoding":{"system":"urn:oid:2.16.840.1.113883.6.238","code":"2186-5","display":"Not Hispanic or Latino","userSelected":true}},{"url":"text","valueString":"Not Hispanic or Latino"}]}],"identifier":[{"type":{"coding":[{"system":"http://terminology.hl7.org/CodeSystem/v2-0203","code":"MR"}]},"system":"https://bonnie-fhir.healthit.gov/","value":"61152a3b98086b7a79cbd7c1"}],"active":true,"name":[{"use":"usual","family":"DENOMPass","given":["RiskVariableASAClass"]}],"gender":"female","birthDate":"1966-07-12"},"request":{"method":"PUT","url":"Patient/97f045d5-0c9e-40c5-9f46-7adf4c049598"}},{"fullUrl":"https://madie.cms.gov/Observation/30af4659-aec9-4169-97d0-764694e8a62e","resource":{"resourceType":"Observation","id":"30af4659-aec9-4169-97d0-764694e8a62e","meta":{"profile":["http://hl7.org/fhir/us/core/StructureDefinition/us-core-body-temperature"]},"status":"final","category":[{"coding":[{"system":"http://terminology.hl7.org/CodeSystem/observation-category","code":"vital-signs","display":"Vital Signs"}]}],"code":{"coding":[{"system":"http://loinc.org","code":"8310-5","display":"Body temperature"}],"text":"Body temperature"},"subject":{"reference":"Patient/97f045d5-0c9e-40c5-9f46-7adf4c049598"},"encounter":{"reference":"Encounter/90e149df-706c-417a-81ee-956e14cc1963"},"effectiveDateTime":"2026-04-11T08:00:00.000+00:00","valueQuantity":{"value":37,"unit":"Cel","system":"http://unitsofmeasure.org","code":"Cel"}},"request":{"method":"PUT","url":"Observation/30af4659-aec9-4169-97d0-764694e8a62e"}},{"fullUrl":"https://madie.cms.gov/Observation/6ea4cb76-90b8-4ce5-9cff-bae398d82a92","resource":{"resourceType":"Observation","id":"6ea4cb76-90b8-4ce5-9cff-bae398d82a92","meta":{"profile":["http://hl7.org/fhir/us/core/StructureDefinition/us-core-body-temperature"]},"status":"final","category":[{"coding":[{"system":"http://terminology.hl7.org/CodeSystem/observation-category","code":"vital-signs","display":"Vital Signs"}]}],"code":{"coding":[{"system":"http://loinc.org","code":"8310-5","display":"Body temperature"}],"text":"Body temperature"},"subject":{"reference":"Patient/97f045d5-0c9e-40c5-9f46-7adf4c049598"},"encounter":{"reference":"Encounter/90e149df-706c-417a-81ee-956e14cc1963"},"effectiveDateTime":"2026-04-11T09:00:00.000+00:00","valueQuantity":{"value":39,"unit":"Cel","system":"http://unitsofmeasure.org","code":"Cel"}},"request":{"method":"PUT","url":"Observation/6ea4cb76-90b8-4ce5-9cff-bae398d82a92"}},{"fullUrl":"https://madie.cms.gov/Procedure/b4764f7d-0cf9-4b27-a067-95a8d904dedf","resource":{"resourceType":"Procedure","id":"b4764f7d-0cf9-4b27-a067-95a8d904dedf","meta":{"profile":["http://hl7.org/fhir/us/qicore/StructureDefinition/qicore-procedure"]},"extension":[{"url":"http://hl7.org/fhir/us/qicore/StructureDefinition/qicore-recorded","valueDateTime":"2026-04-11T10:30:00.000+00:00"}],"status":"completed","category":{"coding":[{"system":"http://snomed.info/sct","code":"18286008","display":"General or neuraxial anesthesia"}]},"code":{"coding":[{"system":"http://snomed.info/sct","code":"112943005","display":"Epidural injection of anesthetic substance, diagnostic, caudal, continuous"}]},"subject":{"reference":"Patient/97f045d5-0c9e-40c5-9f46-7adf4c049598"},"performedPeriod":{"start":"2026-04-11T08:00:00.000+00:00","end":"2026-04-11T10:15:00.000+00:00"}},"request":{"method":"PUT","url":"Procedure/b4764f7d-0cf9-4b27-a067-95a8d904dedf"}},{"fullUrl":"https://madie.cms.gov/MeasureReport/66c77074-1b40-4b45-b348-69dd4fc4516c","resource":{"resourceType":"MeasureReport","id":"66c77074-1b40-4b45-b348-69dd4fc4516c","meta":{"profile":["http://hl7.org/fhir/us/cqfmeasures/StructureDefinition/test-case-cqfm"]},"contained":[{"resourceType":"Parameters","id":"d64ae617-89f7-4806-bc88-63f851aa43c9-parameters","parameter":[{"name":"subject","valueString":"97f045d5-0c9e-40c5-9f46-7adf4c049598"}]}],"extension":[{"url":"http://hl7.org/fhir/StructureDefinition/cqf-inputParameters","valueReference":{"reference":"#d64ae617-89f7-4806-bc88-63f851aa43c9-parameters"}},{"url":"http://hl7.org/fhir/us/cqfmeasures/StructureDefinition/cqfm-testCaseDescription","valueMarkdown":"DENOMPass. Satisfies First Body Temp risk variable"}],"modifierExtension":[{"url":"http://hl7.org/fhir/us/cqfmeasures/StructureDefinition/cqfm-isTestCase","valueBoolean":true}],"status":"complete","type":"individual","measure":"https://madie.cms.gov/Measure/CMS1218FHIRHHRF","period":{"start":"2026-01-01","end":"2026-12-31"},"group":[{"id":"Group_1","population":[{"id":"InitialPopulation_1","code":{"coding":[{"system":"http://terminology.hl7.org/CodeSystem/measure-population","code":"initial-population","display":"Initial Population"}]},"count":1},{"id":"Denominator_1","code":{"coding":[{"system":"http://terminology.hl7.org/CodeSystem/measure-population","code":"denominator","display":"Denominator"}]},"count":1},{"id":"DenominatorExclusion_1","code":{"coding":[{"system":"http://terminology.hl7.org/CodeSystem/measure-population","code":"denominator-exclusion","display":"Denominator Exclusion"}]},"count":0},{"id":"Numerator_1","code":{"coding":[{"system":"http://terminology.hl7.org/CodeSystem/measure-population","code":"numerator","display":"Numerator"}]},"count":0}],"measureScore":{"value":0.0}}],"evaluatedResource":[{"reference":"Encounter/90e149df-706c-417a-81ee-956e14cc1963"},{"reference":"Patient/97f045d5-0c9e-40c5-9f46-7adf4c049598"},{"reference":"Observation/30af4659-aec9-4169-97d0-764694e8a62e"},{"reference":"Observation/6ea4cb76-90b8-4ce5-9cff-bae398d82a92"},{"reference":"Procedure/b4764f7d-0cf9-4b27-a067-95a8d904dedf"}]},"request":{"method":"PUT","url":"MeasureReport/66c77074-1b40-4b45-b348-69dd4fc4516c"}}]},"request":{"method":"PUT","url":"Bundle/tests-RiskVarPassFirstBodyTemperature-bundle"}}]}