{"resourceType":"Bundle","id":"tests-25a4e31a-832c-4337-9a8e-8a0a6dfb189d-bundle","type":"transaction","entry":[{"resource":{"resourceType":"Condition","id":"a2210e47-dbd8-41f0-b9df-32c6a1602c55","meta":{"profile":["http://hl7.org/fhir/us/qicore/StructureDefinition/qicore-condition-encounter-diagnosis"]},"clinicalStatus":{"coding":[{"system":"http://terminology.hl7.org/CodeSystem/condition-clinical","code":"active","display":"Active","userSelected":true}]},"verificationStatus":{"coding":[{"system":"http://terminology.hl7.org/CodeSystem/condition-ver-status","code":"confirmed","display":"Confirmed","userSelected":true}]},"category":[{"coding":[{"system":"http://terminology.hl7.org/CodeSystem/condition-category","code":"encounter-diagnosis","display":"Encounter Diagnosis","userSelected":true}]}],"code":{"coding":[{"system":"http://hl7.org/fhir/sid/icd-10-cm","code":"F09","display":"Unsp mental disorder due to known physiological condition","userSelected":true}]},"subject":{"reference":"Patient/25a4e31a-832c-4337-9a8e-8a0a6dfb189d"},"onsetPeriod":{"start":"2026-04-10T08:00:00.000+00:00"},"recordedDate":"2026-04-10T08:05:00.000+00:00"},"request":{"method":"PUT","url":"Condition/a2210e47-dbd8-41f0-b9df-32c6a1602c55"}},{"resource":{"resourceType":"Procedure","id":"d91d29d2-afe7-46f5-8f0e-c9b7d9d1bc8c","meta":{"profile":["http://hl7.org/fhir/us/qicore/StructureDefinition/qicore-procedure"]},"extension":[{"url":"http://hl7.org/fhir/us/qicore/StructureDefinition/qicore-recorded","valueDateTime":"2026-04-11T10:20:00.000+00:00"}],"status":"completed","category":{"coding":[{"system":"http://snomed.info/sct","code":"18286008","display":"General or neuraxial anesthesia"}]},"code":{"coding":[{"system":"http://snomed.info/sct","code":"112943005","display":"Epidural injection of anesthetic substance, diagnostic, caudal, continuous"}]},"subject":{"reference":"Patient/25a4e31a-832c-4337-9a8e-8a0a6dfb189d"},"performedPeriod":{"start":"2026-04-11T08:00:00.000+00:00","end":"2026-04-11T10:15:00.000+00:00"}},"request":{"method":"PUT","url":"Procedure/d91d29d2-afe7-46f5-8f0e-c9b7d9d1bc8c"}},{"resource":{"resourceType":"Patient","id":"25a4e31a-832c-4337-9a8e-8a0a6dfb189d","meta":{"profile":["http://hl7.org/fhir/us/qicore/StructureDefinition/qicore-patient"]},"extension":[{"url":"http://hl7.org/fhir/us/core/StructureDefinition/us-core-race","extension":[{"url":"ombCategory","valueCoding":{"system":"urn:oid:2.16.840.1.113883.6.238","code":"2054-5","display":"Black or African American","userSelected":true}},{"url":"text","valueString":"Black or African American"}]},{"url":"http://hl7.org/fhir/us/core/StructureDefinition/us-core-ethnicity","extension":[{"url":"ombCategory","valueCoding":{"system":"urn:oid:2.16.840.1.113883.6.238","code":"2186-5","display":"Not Hispanic or Latino","userSelected":true}},{"url":"text","valueString":"Not Hispanic or Latino"}]}],"identifier":[{"type":{"coding":[{"system":"http://terminology.hl7.org/CodeSystem/v2-0203","code":"MR"}]},"system":"https://bonnie-fhir.healthit.gov/","value":"61152a3b98086b7a79cbd7c1"}],"active":true,"name":[{"use":"usual","family":"DENEXPass","given":["DegenerativeNeuroDisorder"]}],"gender":"female","birthDate":"1966-07-12"},"request":{"method":"PUT","url":"Patient/25a4e31a-832c-4337-9a8e-8a0a6dfb189d"}},{"resource":{"resourceType":"Bundle","id":"tests-25a4e31a-832c-4337-9a8e-8a0a6dfb189d-bundle","type":"transaction","entry":[{"fullUrl":"https://madie.cms.gov/Procedure/d91d29d2-afe7-46f5-8f0e-c9b7d9d1bc8c","resource":{"resourceType":"Procedure","id":"d91d29d2-afe7-46f5-8f0e-c9b7d9d1bc8c","meta":{"profile":["http://hl7.org/fhir/us/qicore/StructureDefinition/qicore-procedure"]},"extension":[{"url":"http://hl7.org/fhir/us/qicore/StructureDefinition/qicore-recorded","valueDateTime":"2026-04-11T10:20:00.000+00:00"}],"status":"completed","category":{"coding":[{"system":"http://snomed.info/sct","code":"18286008","display":"General or neuraxial anesthesia"}]},"code":{"coding":[{"system":"http://snomed.info/sct","code":"112943005","display":"Epidural injection of anesthetic substance, diagnostic, caudal, continuous"}]},"subject":{"reference":"Patient/25a4e31a-832c-4337-9a8e-8a0a6dfb189d"},"performedPeriod":{"start":"2026-04-11T08:00:00.000+00:00","end":"2026-04-11T10:15:00.000+00:00"}},"request":{"method":"PUT","url":"Procedure/d91d29d2-afe7-46f5-8f0e-c9b7d9d1bc8c"}},{"fullUrl":"https://madie.cms.gov/Encounter/977c8bb4-039c-42a4-9376-47ed23d9c109","resource":{"resourceType":"Encounter","id":"977c8bb4-039c-42a4-9376-47ed23d9c109","meta":{"profile":["http://hl7.org/fhir/us/qicore/StructureDefinition/qicore-encounter"]},"status":"finished","class":{"system":"http://terminology.hl7.org/CodeSystem/v3-ActCode","code":"IMP","display":"inpatient encounter"},"type":[{"coding":[{"system":"http://snomed.info/sct","code":"112689000","display":"Hospital admission, elective, with complete pre-admission work-up"}],"text":"Hospital admission, elective, with complete pre-admission work-up"}],"priority":{"coding":[{"system":"http://snomed.info/sct","code":"103390000"}]},"subject":{"reference":"Patient/25a4e31a-832c-4337-9a8e-8a0a6dfb189d"},"period":{"start":"2026-04-10T08:00:00.000+00:00","end":"2026-04-14T08:15:00.000+00:00"},"reasonCode":[{"coding":[{"system":"http://hl7.org/fhir/sid/icd-10-cm","version":"2024","code":"F01.C3","display":"Vascular dementia, severe, with mood disturbance"}]}],"diagnosis":[{"condition":{"reference":"Condition/a2210e47-dbd8-41f0-b9df-32c6a1602c55"}}]},"request":{"method":"PUT","url":"Encounter/977c8bb4-039c-42a4-9376-47ed23d9c109"}},{"fullUrl":"https://madie.cms.gov/Patient/25a4e31a-832c-4337-9a8e-8a0a6dfb189d","resource":{"resourceType":"Patient","id":"25a4e31a-832c-4337-9a8e-8a0a6dfb189d","meta":{"profile":["http://hl7.org/fhir/us/qicore/StructureDefinition/qicore-patient"]},"extension":[{"url":"http://hl7.org/fhir/us/core/StructureDefinition/us-core-race","extension":[{"url":"ombCategory","valueCoding":{"system":"urn:oid:2.16.840.1.113883.6.238","code":"2054-5","display":"Black or African American","userSelected":true}},{"url":"text","valueString":"Black or African American"}]},{"url":"http://hl7.org/fhir/us/core/StructureDefinition/us-core-ethnicity","extension":[{"url":"ombCategory","valueCoding":{"system":"urn:oid:2.16.840.1.113883.6.238","code":"2186-5","display":"Not Hispanic or Latino","userSelected":true}},{"url":"text","valueString":"Not Hispanic or Latino"}]}],"identifier":[{"type":{"coding":[{"system":"http://terminology.hl7.org/CodeSystem/v2-0203","code":"MR"}]},"system":"https://bonnie-fhir.healthit.gov/","value":"61152a3b98086b7a79cbd7c1"}],"active":true,"name":[{"use":"usual","family":"DENEXPass","given":["DegenerativeNeuroDisorder"]}],"gender":"female","birthDate":"1966-07-12"},"request":{"method":"PUT","url":"Patient/25a4e31a-832c-4337-9a8e-8a0a6dfb189d"}},{"fullUrl":"https://madie.cms.gov/Condition/a2210e47-dbd8-41f0-b9df-32c6a1602c55","resource":{"resourceType":"Condition","id":"a2210e47-dbd8-41f0-b9df-32c6a1602c55","meta":{"profile":["http://hl7.org/fhir/us/qicore/StructureDefinition/qicore-condition-encounter-diagnosis"]},"clinicalStatus":{"coding":[{"system":"http://terminology.hl7.org/CodeSystem/condition-clinical","code":"active","display":"Active","userSelected":true}]},"verificationStatus":{"coding":[{"system":"http://terminology.hl7.org/CodeSystem/condition-ver-status","code":"confirmed","display":"Confirmed","userSelected":true}]},"category":[{"coding":[{"system":"http://terminology.hl7.org/CodeSystem/condition-category","code":"encounter-diagnosis","display":"Encounter Diagnosis","userSelected":true}]}],"code":{"coding":[{"system":"http://hl7.org/fhir/sid/icd-10-cm","code":"F09","display":"Unsp mental disorder due to known physiological condition","userSelected":true}]},"subject":{"reference":"Patient/25a4e31a-832c-4337-9a8e-8a0a6dfb189d"},"onsetPeriod":{"start":"2026-04-10T08:00:00.000+00:00"},"recordedDate":"2026-04-10T08:05:00.000+00:00"},"request":{"method":"PUT","url":"Condition/a2210e47-dbd8-41f0-b9df-32c6a1602c55"}},{"fullUrl":"https://madie.cms.gov/MeasureReport/1d71687b-9929-4e50-bc03-8ae14f695aac","resource":{"resourceType":"MeasureReport","id":"1d71687b-9929-4e50-bc03-8ae14f695aac","meta":{"profile":["http://hl7.org/fhir/us/cqfmeasures/StructureDefinition/test-case-cqfm"]},"contained":[{"resourceType":"Parameters","id":"b97bc701-3eea-4bea-9146-b7edaaa3f396-parameters","parameter":[{"name":"subject","valueString":"25a4e31a-832c-4337-9a8e-8a0a6dfb189d"}]}],"extension":[{"url":"http://hl7.org/fhir/StructureDefinition/cqf-inputParameters","valueReference":{"reference":"#b97bc701-3eea-4bea-9146-b7edaaa3f396-parameters"}},{"url":"http://hl7.org/fhir/us/cqfmeasures/StructureDefinition/cqfm-testCaseDescription","valueMarkdown":"Elective hospitalization with procedure (general anesthesia) within first 3 days of encounter. But has encounter diagnosis of degenerative neurological disorder so meets denom exclusion. \n"}],"modifierExtension":[{"url":"http://hl7.org/fhir/us/cqfmeasures/StructureDefinition/cqfm-isTestCase","valueBoolean":true}],"status":"complete","type":"individual","measure":"https://madie.cms.gov/Measure/CMS1218FHIRHHRF","period":{"start":"2026-01-01","end":"2026-12-31"},"group":[{"id":"Group_1","population":[{"id":"InitialPopulation_1","code":{"coding":[{"system":"http://terminology.hl7.org/CodeSystem/measure-population","code":"initial-population","display":"Initial Population"}]},"count":1},{"id":"Denominator_1","code":{"coding":[{"system":"http://terminology.hl7.org/CodeSystem/measure-population","code":"denominator","display":"Denominator"}]},"count":1},{"id":"DenominatorExclusion_1","code":{"coding":[{"system":"http://terminology.hl7.org/CodeSystem/measure-population","code":"denominator-exclusion","display":"Denominator Exclusion"}]},"count":1},{"id":"Numerator_1","code":{"coding":[{"system":"http://terminology.hl7.org/CodeSystem/measure-population","code":"numerator","display":"Numerator"}]},"count":0}],"measureScore":{"value":0.0}}],"evaluatedResource":[{"reference":"Procedure/d91d29d2-afe7-46f5-8f0e-c9b7d9d1bc8c"},{"reference":"Encounter/977c8bb4-039c-42a4-9376-47ed23d9c109"},{"reference":"Patient/25a4e31a-832c-4337-9a8e-8a0a6dfb189d"},{"reference":"Condition/a2210e47-dbd8-41f0-b9df-32c6a1602c55"}]},"request":{"method":"PUT","url":"MeasureReport/1d71687b-9929-4e50-bc03-8ae14f695aac"}}]},"request":{"method":"PUT","url":"Bundle/tests-25a4e31a-832c-4337-9a8e-8a0a6dfb189d-bundle"}},{"resource":{"resourceType":"MeasureReport","id":"1d71687b-9929-4e50-bc03-8ae14f695aac","meta":{"profile":["http://hl7.org/fhir/us/cqfmeasures/StructureDefinition/test-case-cqfm"]},"contained":[{"resourceType":"Parameters","id":"b97bc701-3eea-4bea-9146-b7edaaa3f396-parameters","parameter":[{"name":"subject","valueString":"25a4e31a-832c-4337-9a8e-8a0a6dfb189d"}]}],"extension":[{"url":"http://hl7.org/fhir/StructureDefinition/cqf-inputParameters","valueReference":{"reference":"#b97bc701-3eea-4bea-9146-b7edaaa3f396-parameters"}},{"url":"http://hl7.org/fhir/us/cqfmeasures/StructureDefinition/cqfm-testCaseDescription","valueMarkdown":"Elective hospitalization with procedure (general anesthesia) within first 3 days of encounter. But has encounter diagnosis of degenerative neurological disorder so meets denom exclusion. \n"}],"modifierExtension":[{"url":"http://hl7.org/fhir/us/cqfmeasures/StructureDefinition/cqfm-isTestCase","valueBoolean":true}],"status":"complete","type":"individual","measure":"https://madie.cms.gov/Measure/CMS1218FHIRHHRF","period":{"start":"2026-01-01","end":"2026-12-31"},"group":[{"id":"Group_1","population":[{"id":"InitialPopulation_1","code":{"coding":[{"system":"http://terminology.hl7.org/CodeSystem/measure-population","code":"initial-population","display":"Initial Population"}]},"count":1},{"id":"Denominator_1","code":{"coding":[{"system":"http://terminology.hl7.org/CodeSystem/measure-population","code":"denominator","display":"Denominator"}]},"count":1},{"id":"DenominatorExclusion_1","code":{"coding":[{"system":"http://terminology.hl7.org/CodeSystem/measure-population","code":"denominator-exclusion","display":"Denominator Exclusion"}]},"count":1},{"id":"Numerator_1","code":{"coding":[{"system":"http://terminology.hl7.org/CodeSystem/measure-population","code":"numerator","display":"Numerator"}]},"count":0}],"measureScore":{"value":0.0}}],"evaluatedResource":[{"reference":"Procedure/d91d29d2-afe7-46f5-8f0e-c9b7d9d1bc8c"},{"reference":"Encounter/977c8bb4-039c-42a4-9376-47ed23d9c109"},{"reference":"Patient/25a4e31a-832c-4337-9a8e-8a0a6dfb189d"},{"reference":"Condition/a2210e47-dbd8-41f0-b9df-32c6a1602c55"}]},"request":{"method":"PUT","url":"MeasureReport/1d71687b-9929-4e50-bc03-8ae14f695aac"}},{"resource":{"resourceType":"Encounter","id":"977c8bb4-039c-42a4-9376-47ed23d9c109","meta":{"profile":["http://hl7.org/fhir/us/qicore/StructureDefinition/qicore-encounter"]},"status":"finished","class":{"system":"http://terminology.hl7.org/CodeSystem/v3-ActCode","code":"IMP","display":"inpatient encounter"},"type":[{"coding":[{"system":"http://snomed.info/sct","code":"112689000","display":"Hospital admission, elective, with complete pre-admission work-up"}],"text":"Hospital admission, elective, with complete pre-admission work-up"}],"priority":{"coding":[{"system":"http://snomed.info/sct","code":"103390000"}]},"subject":{"reference":"Patient/25a4e31a-832c-4337-9a8e-8a0a6dfb189d"},"period":{"start":"2026-04-10T08:00:00.000+00:00","end":"2026-04-14T08:15:00.000+00:00"},"reasonCode":[{"coding":[{"system":"http://hl7.org/fhir/sid/icd-10-cm","version":"2024","code":"F01.C3","display":"Vascular dementia, severe, with mood disturbance"}]}],"diagnosis":[{"condition":{"reference":"Condition/a2210e47-dbd8-41f0-b9df-32c6a1602c55"}}]},"request":{"method":"PUT","url":"Encounter/977c8bb4-039c-42a4-9376-47ed23d9c109"}}]}