{"resourceType":"Bundle","id":"tests-a65e5180-3578-4013-bdc2-925e1af1e627-bundle","type":"transaction","entry":[{"resource":{"resourceType":"Procedure","id":"53e71b0e-05a7-4e78-ba45-3f41e68cf10b","meta":{"profile":["http://hl7.org/fhir/us/qicore/StructureDefinition/qicore-procedure"]},"extension":[{"url":"http://hl7.org/fhir/us/qicore/StructureDefinition/qicore-recorded","valueDateTime":"2026-04-11T10:30:00.000+00:00"}],"status":"completed","category":{"coding":[{"system":"http://snomed.info/sct","code":"18286008","display":"General or neuraxial anesthesia"}]},"code":{"coding":[{"system":"http://snomed.info/sct","code":"112943005","display":"Epidural injection of anesthetic substance, diagnostic, caudal, continuous"}]},"subject":{"reference":"Patient/a65e5180-3578-4013-bdc2-925e1af1e627"},"performedPeriod":{"start":"2026-04-12T08:00:00.000+00:00","end":"2026-04-12T10:15:00.000+00:00"}},"request":{"method":"PUT","url":"Procedure/53e71b0e-05a7-4e78-ba45-3f41e68cf10b"}},{"resource":{"resourceType":"Procedure","id":"73f6cb28-8994-4fbc-ac8f-1078d8034ab5","meta":{"profile":["http://hl7.org/fhir/us/qicore/StructureDefinition/qicore-procedure"]},"extension":[{"url":"http://hl7.org/fhir/us/qicore/StructureDefinition/qicore-recorded","valueDateTime":"2026-04-11T10:10:00.000+00:00"}],"status":"completed","code":{"coding":[{"system":"http://www.cms.gov/Medicare/Coding/ICD10","code":"0BW10FZ","display":"Revision of Tracheostomy Device in Trachea, Open Approach"}],"text":"Revision of Tracheostomy Device in Trachea, Open Approach"},"subject":{"reference":"Patient/a65e5180-3578-4013-bdc2-925e1af1e627"},"performedDateTime":"2026-04-11T10:00:00.000+00:00"},"request":{"method":"PUT","url":"Procedure/73f6cb28-8994-4fbc-ac8f-1078d8034ab5"}},{"resource":{"resourceType":"Encounter","id":"bdb8b154-ea63-4200-bbc2-7b5390673ca8","meta":{"profile":["http://hl7.org/fhir/us/qicore/StructureDefinition/qicore-encounter"]},"status":"finished","class":{"system":"http://terminology.hl7.org/CodeSystem/v3-ActCode","code":"IMP","display":"inpatient encounter"},"type":[{"coding":[{"system":"http://snomed.info/sct","code":"112689000","display":"Hospital admission, elective, with complete pre-admission work-up"}],"text":"Hospital admission, elective, with complete pre-admission work-up"}],"priority":{"coding":[{"system":"http://snomed.info/sct","code":"103390000"}]},"subject":{"reference":"Patient/a65e5180-3578-4013-bdc2-925e1af1e627"},"period":{"start":"2026-04-10T08:00:00.000+00:00","end":"2026-04-14T08:15:00.000+00:00"},"diagnosis":[{"condition":{"reference":"Procedure/53e71b0e-05a7-4e78-ba45-3f41e68cf10b"},"rank":1}]},"request":{"method":"PUT","url":"Encounter/bdb8b154-ea63-4200-bbc2-7b5390673ca8"}},{"resource":{"resourceType":"MeasureReport","id":"f8360a4a-ea22-453b-9944-2988bad26165","meta":{"profile":["http://hl7.org/fhir/us/cqfmeasures/StructureDefinition/test-case-cqfm"]},"contained":[{"resourceType":"Parameters","id":"1f97c933-d494-4c13-a9d2-e6e4b8ca15a3-parameters","parameter":[{"name":"subject","valueString":"a65e5180-3578-4013-bdc2-925e1af1e627"}]}],"extension":[{"url":"http://hl7.org/fhir/StructureDefinition/cqf-inputParameters","valueReference":{"reference":"#1f97c933-d494-4c13-a9d2-e6e4b8ca15a3-parameters"}},{"url":"http://hl7.org/fhir/us/cqfmeasures/StructureDefinition/cqfm-testCaseDescription","valueMarkdown":"Enc 1: Elective hosp with trach before day of 1st OR proc (gen anesthesia).  Meets Exclusion.\nEnc 2: Elective hosp with intubation after OR proc (gen anesthesia). Meets Numerator 1. \nTesting to make sure Enc1 exclusion does not impact Enc2."}],"modifierExtension":[{"url":"http://hl7.org/fhir/us/cqfmeasures/StructureDefinition/cqfm-isTestCase","valueBoolean":true}],"status":"complete","type":"individual","measure":"https://madie.cms.gov/Measure/CMS1218FHIRHHRF","period":{"start":"2026-01-01","end":"2026-12-31"},"group":[{"id":"Group_1","population":[{"id":"InitialPopulation_1","code":{"coding":[{"system":"http://terminology.hl7.org/CodeSystem/measure-population","code":"initial-population","display":"Initial Population"}]},"count":2},{"id":"Denominator_1","code":{"coding":[{"system":"http://terminology.hl7.org/CodeSystem/measure-population","code":"denominator","display":"Denominator"}]},"count":2},{"id":"DenominatorExclusion_1","code":{"coding":[{"system":"http://terminology.hl7.org/CodeSystem/measure-population","code":"denominator-exclusion","display":"Denominator Exclusion"}]},"count":1},{"id":"Numerator_1","code":{"coding":[{"system":"http://terminology.hl7.org/CodeSystem/measure-population","code":"numerator","display":"Numerator"}]},"count":1}],"measureScore":{"value":0.0}}],"evaluatedResource":[{"reference":"Encounter/bdb8b154-ea63-4200-bbc2-7b5390673ca8"},{"reference":"Procedure/53e71b0e-05a7-4e78-ba45-3f41e68cf10b"},{"reference":"Encounter/08b34003-810c-4c1a-b634-00d215b39c5a"},{"reference":"Procedure/30a5098b-3960-47fe-a0d6-f922d6e633ea"},{"reference":"Procedure/73f6cb28-8994-4fbc-ac8f-1078d8034ab5"},{"reference":"Procedure/2965d9a2-a6b0-4f66-92bc-b5a187e96185"},{"reference":"Patient/a65e5180-3578-4013-bdc2-925e1af1e627"}]},"request":{"method":"PUT","url":"MeasureReport/f8360a4a-ea22-453b-9944-2988bad26165"}},{"resource":{"resourceType":"Encounter","id":"08b34003-810c-4c1a-b634-00d215b39c5a","meta":{"profile":["http://hl7.org/fhir/us/qicore/StructureDefinition/qicore-encounter"]},"status":"finished","class":{"system":"http://terminology.hl7.org/CodeSystem/v3-ActCode","code":"IMP","display":"inpatient encounter"},"type":[{"coding":[{"system":"http://snomed.info/sct","code":"112689000","display":"Hospital admission, elective, with complete pre-admission work-up"}],"text":"Hospital admission, elective, with complete pre-admission work-up"}],"priority":{"coding":[{"system":"http://snomed.info/sct","code":"103390000"}]},"subject":{"reference":"Patient/a65e5180-3578-4013-bdc2-925e1af1e627"},"period":{"start":"2026-04-19T08:00:00.000+00:00","end":"2026-04-23T08:15:00.000+00:00"},"diagnosis":[{"condition":{"reference":"Procedure/30a5098b-3960-47fe-a0d6-f922d6e633ea"},"rank":1}]},"request":{"method":"PUT","url":"Encounter/08b34003-810c-4c1a-b634-00d215b39c5a"}},{"resource":{"resourceType":"Bundle","id":"tests-a65e5180-3578-4013-bdc2-925e1af1e627-bundle","type":"transaction","entry":[{"fullUrl":"https://madie.cms.gov/Encounter/bdb8b154-ea63-4200-bbc2-7b5390673ca8","resource":{"resourceType":"Encounter","id":"bdb8b154-ea63-4200-bbc2-7b5390673ca8","meta":{"profile":["http://hl7.org/fhir/us/qicore/StructureDefinition/qicore-encounter"]},"status":"finished","class":{"system":"http://terminology.hl7.org/CodeSystem/v3-ActCode","code":"IMP","display":"inpatient encounter"},"type":[{"coding":[{"system":"http://snomed.info/sct","code":"112689000","display":"Hospital admission, elective, with complete pre-admission work-up"}],"text":"Hospital admission, elective, with complete pre-admission work-up"}],"priority":{"coding":[{"system":"http://snomed.info/sct","code":"103390000"}]},"subject":{"reference":"Patient/a65e5180-3578-4013-bdc2-925e1af1e627"},"period":{"start":"2026-04-10T08:00:00.000+00:00","end":"2026-04-14T08:15:00.000+00:00"},"diagnosis":[{"condition":{"reference":"Procedure/53e71b0e-05a7-4e78-ba45-3f41e68cf10b"},"rank":1}]},"request":{"method":"PUT","url":"Encounter/bdb8b154-ea63-4200-bbc2-7b5390673ca8"}},{"fullUrl":"https://madie.cms.gov/Procedure/53e71b0e-05a7-4e78-ba45-3f41e68cf10b","resource":{"resourceType":"Procedure","id":"53e71b0e-05a7-4e78-ba45-3f41e68cf10b","meta":{"profile":["http://hl7.org/fhir/us/qicore/StructureDefinition/qicore-procedure"]},"extension":[{"url":"http://hl7.org/fhir/us/qicore/StructureDefinition/qicore-recorded","valueDateTime":"2026-04-11T10:30:00.000+00:00"}],"status":"completed","category":{"coding":[{"system":"http://snomed.info/sct","code":"18286008","display":"General or neuraxial anesthesia"}]},"code":{"coding":[{"system":"http://snomed.info/sct","code":"112943005","display":"Epidural injection of anesthetic substance, diagnostic, caudal, continuous"}]},"subject":{"reference":"Patient/a65e5180-3578-4013-bdc2-925e1af1e627"},"performedPeriod":{"start":"2026-04-12T08:00:00.000+00:00","end":"2026-04-12T10:15:00.000+00:00"}},"request":{"method":"PUT","url":"Procedure/53e71b0e-05a7-4e78-ba45-3f41e68cf10b"}},{"fullUrl":"https://madie.cms.gov/Encounter/08b34003-810c-4c1a-b634-00d215b39c5a","resource":{"resourceType":"Encounter","id":"08b34003-810c-4c1a-b634-00d215b39c5a","meta":{"profile":["http://hl7.org/fhir/us/qicore/StructureDefinition/qicore-encounter"]},"status":"finished","class":{"system":"http://terminology.hl7.org/CodeSystem/v3-ActCode","code":"IMP","display":"inpatient encounter"},"type":[{"coding":[{"system":"http://snomed.info/sct","code":"112689000","display":"Hospital admission, elective, with complete pre-admission work-up"}],"text":"Hospital admission, elective, with complete pre-admission work-up"}],"priority":{"coding":[{"system":"http://snomed.info/sct","code":"103390000"}]},"subject":{"reference":"Patient/a65e5180-3578-4013-bdc2-925e1af1e627"},"period":{"start":"2026-04-19T08:00:00.000+00:00","end":"2026-04-23T08:15:00.000+00:00"},"diagnosis":[{"condition":{"reference":"Procedure/30a5098b-3960-47fe-a0d6-f922d6e633ea"},"rank":1}]},"request":{"method":"PUT","url":"Encounter/08b34003-810c-4c1a-b634-00d215b39c5a"}},{"fullUrl":"https://madie.cms.gov/Procedure/30a5098b-3960-47fe-a0d6-f922d6e633ea","resource":{"resourceType":"Procedure","id":"30a5098b-3960-47fe-a0d6-f922d6e633ea","meta":{"profile":["http://hl7.org/fhir/us/qicore/StructureDefinition/qicore-procedure"]},"extension":[{"url":"http://hl7.org/fhir/us/qicore/StructureDefinition/qicore-recorded","valueDateTime":"2026-04-11T10:30:00.000+00:00"}],"status":"completed","category":{"coding":[{"system":"http://snomed.info/sct","code":"18286008","display":"General or neuraxial anesthesia"}]},"code":{"coding":[{"system":"http://snomed.info/sct","code":"112943005","display":"Epidural injection of anesthetic substance, diagnostic, caudal, continuous"}]},"subject":{"reference":"Patient/a65e5180-3578-4013-bdc2-925e1af1e627"},"performedDateTime":"2026-04-19T11:00:00.000+00:00"},"request":{"method":"PUT","url":"Procedure/30a5098b-3960-47fe-a0d6-f922d6e633ea"}},{"fullUrl":"https://madie.cms.gov/Procedure/73f6cb28-8994-4fbc-ac8f-1078d8034ab5","resource":{"resourceType":"Procedure","id":"73f6cb28-8994-4fbc-ac8f-1078d8034ab5","meta":{"profile":["http://hl7.org/fhir/us/qicore/StructureDefinition/qicore-procedure"]},"extension":[{"url":"http://hl7.org/fhir/us/qicore/StructureDefinition/qicore-recorded","valueDateTime":"2026-04-11T10:10:00.000+00:00"}],"status":"completed","code":{"coding":[{"system":"http://www.cms.gov/Medicare/Coding/ICD10","code":"0BW10FZ","display":"Revision of Tracheostomy Device in Trachea, Open Approach"}],"text":"Revision of Tracheostomy Device in Trachea, Open Approach"},"subject":{"reference":"Patient/a65e5180-3578-4013-bdc2-925e1af1e627"},"performedDateTime":"2026-04-11T10:00:00.000+00:00"},"request":{"method":"PUT","url":"Procedure/73f6cb28-8994-4fbc-ac8f-1078d8034ab5"}},{"fullUrl":"https://madie.cms.gov/Procedure/2965d9a2-a6b0-4f66-92bc-b5a187e96185","resource":{"resourceType":"Procedure","id":"2965d9a2-a6b0-4f66-92bc-b5a187e96185","meta":{"profile":["http://hl7.org/fhir/us/qicore/StructureDefinition/qicore-procedure"]},"extension":[{"url":"http://hl7.org/fhir/us/qicore/StructureDefinition/qicore-recorded","valueDateTime":"2026-04-20T08:10:00.000+00:00"}],"status":"completed","code":{"coding":[{"system":"http://www.cms.gov/Medicare/Coding/ICD10","code":"0BH13EZ","display":"Insertion of Endotracheal Airway into Trachea, Percutaneous Approach"}],"text":"Insertion of Endotracheal Airway into Trachea, Percutaneous Approach"},"subject":{"reference":"Patient/a65e5180-3578-4013-bdc2-925e1af1e627"},"performedDateTime":"2026-04-20T08:00:00.000+00:00"},"request":{"method":"PUT","url":"Procedure/2965d9a2-a6b0-4f66-92bc-b5a187e96185"}},{"fullUrl":"https://madie.cms.gov/Patient/a65e5180-3578-4013-bdc2-925e1af1e627","resource":{"resourceType":"Patient","id":"a65e5180-3578-4013-bdc2-925e1af1e627","meta":{"profile":["http://hl7.org/fhir/us/qicore/StructureDefinition/qicore-patient"]},"extension":[{"url":"http://hl7.org/fhir/us/core/StructureDefinition/us-core-race","extension":[{"url":"ombCategory","valueCoding":{"system":"urn:oid:2.16.840.1.113883.6.238","code":"2054-5","display":"Black or African American","userSelected":true}},{"url":"text","valueString":"Black or African American"}]},{"url":"http://hl7.org/fhir/us/core/StructureDefinition/us-core-ethnicity","extension":[{"url":"ombCategory","valueCoding":{"system":"urn:oid:2.16.840.1.113883.6.238","code":"2186-5","display":"Not Hispanic or Latino","userSelected":true}},{"url":"text","valueString":"Not Hispanic or Latino"}]}],"identifier":[{"type":{"coding":[{"system":"http://terminology.hl7.org/CodeSystem/v2-0203","code":"MR"}]},"system":"https://bonnie-fhir.healthit.gov/","value":"61152a3b98086b7a79cbd7c1"}],"active":true,"name":[{"use":"usual","family":"DENEXFail","given":["1EncPaO2Exc2EncNum"]}],"gender":"female","birthDate":"1966-07-12"},"request":{"method":"PUT","url":"Patient/a65e5180-3578-4013-bdc2-925e1af1e627"}},{"fullUrl":"https://madie.cms.gov/MeasureReport/f8360a4a-ea22-453b-9944-2988bad26165","resource":{"resourceType":"MeasureReport","id":"f8360a4a-ea22-453b-9944-2988bad26165","meta":{"profile":["http://hl7.org/fhir/us/cqfmeasures/StructureDefinition/test-case-cqfm"]},"contained":[{"resourceType":"Parameters","id":"1f97c933-d494-4c13-a9d2-e6e4b8ca15a3-parameters","parameter":[{"name":"subject","valueString":"a65e5180-3578-4013-bdc2-925e1af1e627"}]}],"extension":[{"url":"http://hl7.org/fhir/StructureDefinition/cqf-inputParameters","valueReference":{"reference":"#1f97c933-d494-4c13-a9d2-e6e4b8ca15a3-parameters"}},{"url":"http://hl7.org/fhir/us/cqfmeasures/StructureDefinition/cqfm-testCaseDescription","valueMarkdown":"Enc 1: Elective hosp with trach before day of 1st OR proc (gen anesthesia).  Meets Exclusion.\nEnc 2: Elective hosp with intubation after OR proc (gen anesthesia). Meets Numerator 1. \nTesting to make sure Enc1 exclusion does not impact Enc2."}],"modifierExtension":[{"url":"http://hl7.org/fhir/us/cqfmeasures/StructureDefinition/cqfm-isTestCase","valueBoolean":true}],"status":"complete","type":"individual","measure":"https://madie.cms.gov/Measure/CMS1218FHIRHHRF","period":{"start":"2026-01-01","end":"2026-12-31"},"group":[{"id":"Group_1","population":[{"id":"InitialPopulation_1","code":{"coding":[{"system":"http://terminology.hl7.org/CodeSystem/measure-population","code":"initial-population","display":"Initial Population"}]},"count":2},{"id":"Denominator_1","code":{"coding":[{"system":"http://terminology.hl7.org/CodeSystem/measure-population","code":"denominator","display":"Denominator"}]},"count":2},{"id":"DenominatorExclusion_1","code":{"coding":[{"system":"http://terminology.hl7.org/CodeSystem/measure-population","code":"denominator-exclusion","display":"Denominator Exclusion"}]},"count":1},{"id":"Numerator_1","code":{"coding":[{"system":"http://terminology.hl7.org/CodeSystem/measure-population","code":"numerator","display":"Numerator"}]},"count":1}],"measureScore":{"value":0.0}}],"evaluatedResource":[{"reference":"Encounter/bdb8b154-ea63-4200-bbc2-7b5390673ca8"},{"reference":"Procedure/53e71b0e-05a7-4e78-ba45-3f41e68cf10b"},{"reference":"Encounter/08b34003-810c-4c1a-b634-00d215b39c5a"},{"reference":"Procedure/30a5098b-3960-47fe-a0d6-f922d6e633ea"},{"reference":"Procedure/73f6cb28-8994-4fbc-ac8f-1078d8034ab5"},{"reference":"Procedure/2965d9a2-a6b0-4f66-92bc-b5a187e96185"},{"reference":"Patient/a65e5180-3578-4013-bdc2-925e1af1e627"}]},"request":{"method":"PUT","url":"MeasureReport/f8360a4a-ea22-453b-9944-2988bad26165"}}]},"request":{"method":"PUT","url":"Bundle/tests-a65e5180-3578-4013-bdc2-925e1af1e627-bundle"}},{"resource":{"resourceType":"Procedure","id":"30a5098b-3960-47fe-a0d6-f922d6e633ea","meta":{"profile":["http://hl7.org/fhir/us/qicore/StructureDefinition/qicore-procedure"]},"extension":[{"url":"http://hl7.org/fhir/us/qicore/StructureDefinition/qicore-recorded","valueDateTime":"2026-04-11T10:30:00.000+00:00"}],"status":"completed","category":{"coding":[{"system":"http://snomed.info/sct","code":"18286008","display":"General or neuraxial anesthesia"}]},"code":{"coding":[{"system":"http://snomed.info/sct","code":"112943005","display":"Epidural injection of anesthetic substance, diagnostic, caudal, continuous"}]},"subject":{"reference":"Patient/a65e5180-3578-4013-bdc2-925e1af1e627"},"performedDateTime":"2026-04-19T11:00:00.000+00:00"},"request":{"method":"PUT","url":"Procedure/30a5098b-3960-47fe-a0d6-f922d6e633ea"}},{"resource":{"resourceType":"Procedure","id":"2965d9a2-a6b0-4f66-92bc-b5a187e96185","meta":{"profile":["http://hl7.org/fhir/us/qicore/StructureDefinition/qicore-procedure"]},"extension":[{"url":"http://hl7.org/fhir/us/qicore/StructureDefinition/qicore-recorded","valueDateTime":"2026-04-20T08:10:00.000+00:00"}],"status":"completed","code":{"coding":[{"system":"http://www.cms.gov/Medicare/Coding/ICD10","code":"0BH13EZ","display":"Insertion of Endotracheal Airway into Trachea, Percutaneous Approach"}],"text":"Insertion of Endotracheal Airway into Trachea, Percutaneous Approach"},"subject":{"reference":"Patient/a65e5180-3578-4013-bdc2-925e1af1e627"},"performedDateTime":"2026-04-20T08:00:00.000+00:00"},"request":{"method":"PUT","url":"Procedure/2965d9a2-a6b0-4f66-92bc-b5a187e96185"}},{"resource":{"resourceType":"Patient","id":"a65e5180-3578-4013-bdc2-925e1af1e627","meta":{"profile":["http://hl7.org/fhir/us/qicore/StructureDefinition/qicore-patient"]},"extension":[{"url":"http://hl7.org/fhir/us/core/StructureDefinition/us-core-race","extension":[{"url":"ombCategory","valueCoding":{"system":"urn:oid:2.16.840.1.113883.6.238","code":"2054-5","display":"Black or African American","userSelected":true}},{"url":"text","valueString":"Black or African American"}]},{"url":"http://hl7.org/fhir/us/core/StructureDefinition/us-core-ethnicity","extension":[{"url":"ombCategory","valueCoding":{"system":"urn:oid:2.16.840.1.113883.6.238","code":"2186-5","display":"Not Hispanic or Latino","userSelected":true}},{"url":"text","valueString":"Not Hispanic or Latino"}]}],"identifier":[{"type":{"coding":[{"system":"http://terminology.hl7.org/CodeSystem/v2-0203","code":"MR"}]},"system":"https://bonnie-fhir.healthit.gov/","value":"61152a3b98086b7a79cbd7c1"}],"active":true,"name":[{"use":"usual","family":"DENEXFail","given":["1EncPaO2Exc2EncNum"]}],"gender":"female","birthDate":"1966-07-12"},"request":{"method":"PUT","url":"Patient/a65e5180-3578-4013-bdc2-925e1af1e627"}}]}