{"resourceType":"Bundle","id":"tests-f29f69fc-dcbd-4296-8b56-e6e081758ed9-bundle","type":"transaction","entry":[{"resource":{"resourceType":"Bundle","id":"tests-NUMERFail-ExtubationWithPrecedingNoninvasiveO2-bundle","type":"transaction","entry":[{"fullUrl":"https://madie.cms.gov/Procedure/e2809de3-9afd-4920-b9ac-fb36a292ee68","resource":{"resourceType":"Procedure","id":"e2809de3-9afd-4920-b9ac-fb36a292ee68","meta":{"profile":["http://hl7.org/fhir/us/qicore/StructureDefinition/qicore-procedure"]},"extension":[{"url":"http://hl7.org/fhir/us/qicore/StructureDefinition/qicore-recorded","valueDateTime":"2026-05-06T08:15:30.000+00:00"}],"status":"completed","code":{"coding":[{"system":"http://snomed.info/sct","version":"2023-09","code":"304577004","display":"Humidified oxygen therapy (procedure)"}],"text":"Humidified oxygen therapy (procedure)"},"subject":{"reference":"Patient/f29f69fc-dcbd-4296-8b56-e6e081758ed9"},"performedDateTime":"2026-05-15T12:45:00.000+00:00"},"request":{"method":"PUT","url":"Procedure/e2809de3-9afd-4920-b9ac-fb36a292ee68"}},{"fullUrl":"https://madie.cms.gov/Encounter/b1ab559c-f156-4b42-8d57-df99b7d08b29","resource":{"resourceType":"Encounter","id":"b1ab559c-f156-4b42-8d57-df99b7d08b29","meta":{"profile":["http://hl7.org/fhir/us/qicore/StructureDefinition/qicore-encounter"]},"status":"finished","class":{"system":"http://terminology.hl7.org/CodeSystem/v3-ActCode","code":"IMP","display":"inpatient encounter"},"type":[{"coding":[{"system":"http://snomed.info/sct","code":"112689000","display":"Hospital admission, elective, with complete pre-admission work-up"}],"text":"Hospital admission, elective, with complete pre-admission work-up"}],"priority":{"coding":[{"system":"http://snomed.info/sct","code":"103390000"}]},"subject":{"reference":"Patient/f29f69fc-dcbd-4296-8b56-e6e081758ed9"},"period":{"start":"2026-05-14T11:00:00.000+00:00","end":"2026-05-20T08:15:00.000+00:00"}},"request":{"method":"PUT","url":"Encounter/b1ab559c-f156-4b42-8d57-df99b7d08b29"}},{"fullUrl":"https://madie.cms.gov/Encounter/9de1dd4a-fe4c-4620-a1da-55e1f3067949","resource":{"resourceType":"Encounter","id":"9de1dd4a-fe4c-4620-a1da-55e1f3067949","meta":{"profile":["http://hl7.org/fhir/us/qicore/StructureDefinition/qicore-encounter"]},"status":"finished","class":{"system":"http://terminology.hl7.org/CodeSystem/v3-ActCode","code":"IMP","display":"inpatient encounter"},"type":[{"coding":[{"system":"http://snomed.info/sct","code":"112689000","display":"Hospital admission, elective, with complete pre-admission work-up"}],"text":"Hospital admission, elective, with complete pre-admission work-up"}],"priority":{"coding":[{"system":"http://snomed.info/sct","code":"103390000"}]},"subject":{"reference":"Patient/f29f69fc-dcbd-4296-8b56-e6e081758ed9"},"period":{"start":"2026-05-04T11:00:00.000+00:00","end":"2026-05-13T08:15:00.000+00:00"}},"request":{"method":"PUT","url":"Encounter/9de1dd4a-fe4c-4620-a1da-55e1f3067949"}},{"fullUrl":"https://madie.cms.gov/Patient/f29f69fc-dcbd-4296-8b56-e6e081758ed9","resource":{"resourceType":"Patient","id":"f29f69fc-dcbd-4296-8b56-e6e081758ed9","meta":{"profile":["http://hl7.org/fhir/us/qicore/StructureDefinition/qicore-patient"]},"extension":[{"url":"http://hl7.org/fhir/us/core/StructureDefinition/us-core-race","extension":[{"url":"ombCategory","valueCoding":{"system":"urn:oid:2.16.840.1.113883.6.238","code":"2054-5","display":"Black or African American","userSelected":true}},{"url":"text","valueString":"Black or African American"}]},{"url":"http://hl7.org/fhir/us/core/StructureDefinition/us-core-ethnicity","extension":[{"url":"ombCategory","valueCoding":{"system":"urn:oid:2.16.840.1.113883.6.238","code":"2186-5","display":"Not Hispanic or Latino","userSelected":true}},{"url":"text","valueString":"Not Hispanic or Latino"}]}],"identifier":[{"type":{"coding":[{"system":"http://terminology.hl7.org/CodeSystem/v2-0203","code":"MR"}]},"system":"https://bonnie-fhir.healthit.gov/","value":"61152a3b98086b7a79cbd7c1"}],"active":true,"name":[{"use":"usual","family":"NUMERPass","given":["Num2TwoEncO2DurEnc1andMVDDurEnc2"]}],"gender":"female","birthDate":"1966-07-12"},"request":{"method":"PUT","url":"Patient/f29f69fc-dcbd-4296-8b56-e6e081758ed9"}},{"fullUrl":"https://madie.cms.gov/Procedure/38f81726-ccba-4758-8c8a-bedd01580891","resource":{"resourceType":"Procedure","id":"38f81726-ccba-4758-8c8a-bedd01580891","meta":{"profile":["http://hl7.org/fhir/us/qicore/StructureDefinition/qicore-procedure"]},"extension":[{"url":"http://hl7.org/fhir/us/qicore/StructureDefinition/qicore-recorded","valueDateTime":"2026-05-15T10:20:00.000+00:00"}],"status":"completed","category":{"coding":[{"system":"http://snomed.info/sct","code":"18286008","display":"General or neuraxial anesthesia"}]},"code":{"coding":[{"system":"http://snomed.info/sct","code":"112943005","display":"Epidural injection of anesthetic substance, diagnostic, caudal, continuous"}]},"subject":{"reference":"Patient/f29f69fc-dcbd-4296-8b56-e6e081758ed9"},"performedPeriod":{"start":"2026-05-05T09:00:00.000+00:00","end":"2026-05-05T10:15:00.000+00:00"}},"request":{"method":"PUT","url":"Procedure/38f81726-ccba-4758-8c8a-bedd01580891"}},{"fullUrl":"https://madie.cms.gov/Procedure/061b1908-d7d9-4814-9960-3e5f4412a789","resource":{"resourceType":"Procedure","id":"061b1908-d7d9-4814-9960-3e5f4412a789","meta":{"profile":["http://hl7.org/fhir/us/qicore/StructureDefinition/qicore-procedure"]},"extension":[{"url":"http://hl7.org/fhir/us/qicore/StructureDefinition/qicore-recorded","valueDateTime":"2026-05-15T12:20:00.000+00:00"}],"status":"completed","category":{"coding":[{"system":"http://snomed.info/sct","code":"18286008","display":"General or neuraxial anesthesia"}]},"code":{"coding":[{"system":"http://snomed.info/sct","code":"112943005","display":"Epidural injection of anesthetic substance, diagnostic, caudal, continuous"}]},"subject":{"reference":"Patient/f29f69fc-dcbd-4296-8b56-e6e081758ed9"},"performedPeriod":{"start":"2026-05-15T11:00:00.000+00:00","end":"2026-05-15T12:15:00.000+00:00"}},"request":{"method":"PUT","url":"Procedure/061b1908-d7d9-4814-9960-3e5f4412a789"}},{"fullUrl":"https://madie.cms.gov/Procedure/01b2188f-4bd5-4930-a552-2bddd5f17416","resource":{"resourceType":"Procedure","id":"01b2188f-4bd5-4930-a552-2bddd5f17416","meta":{"profile":["http://hl7.org/fhir/us/qicore/StructureDefinition/qicore-procedure"]},"extension":[{"url":"http://hl7.org/fhir/us/qicore/StructureDefinition/qicore-recorded","valueDateTime":"2026-04-21T12:00:00.000+00:00"}],"status":"completed","code":{"coding":[{"system":"http://snomed.info/sct","code":"271280005","display":"Removal of endotracheal tube (procedure)"}],"text":"Removal of endotracheal tube (procedure)"},"subject":{"reference":"Patient/f29f69fc-dcbd-4296-8b56-e6e081758ed9"},"performedPeriod":{"start":"2026-05-15T13:04:00.000+00:00","end":"2026-05-15T13:19:00.000+00:00"}},"request":{"method":"PUT","url":"Procedure/01b2188f-4bd5-4930-a552-2bddd5f17416"}},{"fullUrl":"https://madie.cms.gov/MeasureReport/386ce6e1-a497-47f8-910f-a0e576aff0ff","resource":{"resourceType":"MeasureReport","id":"386ce6e1-a497-47f8-910f-a0e576aff0ff","meta":{"profile":["http://hl7.org/fhir/us/cqfmeasures/StructureDefinition/test-case-cqfm"]},"contained":[{"resourceType":"Parameters","id":"d19ca797-d06a-4026-a92b-6f5c7fc54766-parameters","parameter":[{"name":"subject","valueString":"f29f69fc-dcbd-4296-8b56-e6e081758ed9"}]}],"extension":[{"url":"http://hl7.org/fhir/StructureDefinition/cqf-inputParameters","valueReference":{"reference":"#d19ca797-d06a-4026-a92b-6f5c7fc54766-parameters"}},{"url":"http://hl7.org/fhir/us/cqfmeasures/StructureDefinition/cqfm-testCaseDescription","valueMarkdown":"Two Encounters, both meet IP and DENOM. Enc1 has no matching procedures for numerator, Enc2 almost meets Numer clause 3, but has an Extubation with Preceding Non-invasive O2 therapy, so fails clause 3. "}],"modifierExtension":[{"url":"http://hl7.org/fhir/us/cqfmeasures/StructureDefinition/cqfm-isTestCase","valueBoolean":true}],"status":"complete","type":"individual","measure":"https://madie.cms.gov/Measure/CMS1218FHIRHHRF","period":{"start":"2026-01-01","end":"2026-12-31"},"group":[{"id":"Group_1","population":[{"id":"InitialPopulation_1","code":{"coding":[{"system":"http://terminology.hl7.org/CodeSystem/measure-population","code":"initial-population","display":"Initial Population"}]},"count":2},{"id":"Denominator_1","code":{"coding":[{"system":"http://terminology.hl7.org/CodeSystem/measure-population","code":"denominator","display":"Denominator"}]},"count":2},{"id":"DenominatorExclusion_1","code":{"coding":[{"system":"http://terminology.hl7.org/CodeSystem/measure-population","code":"denominator-exclusion","display":"Denominator Exclusion"}]},"count":0},{"id":"Numerator_1","code":{"coding":[{"system":"http://terminology.hl7.org/CodeSystem/measure-population","code":"numerator","display":"Numerator"}]},"count":0}],"measureScore":{"value":0.0}}],"evaluatedResource":[{"reference":"Procedure/e2809de3-9afd-4920-b9ac-fb36a292ee68"},{"reference":"Encounter/b1ab559c-f156-4b42-8d57-df99b7d08b29"},{"reference":"Encounter/9de1dd4a-fe4c-4620-a1da-55e1f3067949"},{"reference":"Patient/f29f69fc-dcbd-4296-8b56-e6e081758ed9"},{"reference":"Procedure/38f81726-ccba-4758-8c8a-bedd01580891"},{"reference":"Procedure/061b1908-d7d9-4814-9960-3e5f4412a789"},{"reference":"Procedure/01b2188f-4bd5-4930-a552-2bddd5f17416"}]},"request":{"method":"PUT","url":"MeasureReport/386ce6e1-a497-47f8-910f-a0e576aff0ff"}}]},"request":{"method":"PUT","url":"Bundle/tests-NUMERFail-ExtubationWithPrecedingNoninvasiveO2-bundle"}},{"resource":{"resourceType":"Patient","id":"f29f69fc-dcbd-4296-8b56-e6e081758ed9","meta":{"profile":["http://hl7.org/fhir/us/qicore/StructureDefinition/qicore-patient"]},"extension":[{"url":"http://hl7.org/fhir/us/core/StructureDefinition/us-core-race","extension":[{"url":"ombCategory","valueCoding":{"system":"urn:oid:2.16.840.1.113883.6.238","code":"2054-5","display":"Black or African American","userSelected":true}},{"url":"text","valueString":"Black or African American"}]},{"url":"http://hl7.org/fhir/us/core/StructureDefinition/us-core-ethnicity","extension":[{"url":"ombCategory","valueCoding":{"system":"urn:oid:2.16.840.1.113883.6.238","code":"2186-5","display":"Not Hispanic or Latino","userSelected":true}},{"url":"text","valueString":"Not Hispanic or Latino"}]}],"identifier":[{"type":{"coding":[{"system":"http://terminology.hl7.org/CodeSystem/v2-0203","code":"MR"}]},"system":"https://bonnie-fhir.healthit.gov/","value":"61152a3b98086b7a79cbd7c1"}],"active":true,"name":[{"use":"usual","family":"NUMERPass","given":["Num2TwoEncO2DurEnc1andMVDDurEnc2"]}],"gender":"female","birthDate":"1966-07-12"},"request":{"method":"PUT","url":"Patient/f29f69fc-dcbd-4296-8b56-e6e081758ed9"}},{"resource":{"resourceType":"Procedure","id":"38f81726-ccba-4758-8c8a-bedd01580891","meta":{"profile":["http://hl7.org/fhir/us/qicore/StructureDefinition/qicore-procedure"]},"extension":[{"url":"http://hl7.org/fhir/us/qicore/StructureDefinition/qicore-recorded","valueDateTime":"2026-05-15T10:20:00.000+00:00"}],"status":"completed","category":{"coding":[{"system":"http://snomed.info/sct","code":"18286008","display":"General or neuraxial anesthesia"}]},"code":{"coding":[{"system":"http://snomed.info/sct","code":"112943005","display":"Epidural injection of anesthetic substance, diagnostic, caudal, continuous"}]},"subject":{"reference":"Patient/f29f69fc-dcbd-4296-8b56-e6e081758ed9"},"performedPeriod":{"start":"2026-05-05T09:00:00.000+00:00","end":"2026-05-05T10:15:00.000+00:00"}},"request":{"method":"PUT","url":"Procedure/38f81726-ccba-4758-8c8a-bedd01580891"}},{"resource":{"resourceType":"Encounter","id":"9de1dd4a-fe4c-4620-a1da-55e1f3067949","meta":{"profile":["http://hl7.org/fhir/us/qicore/StructureDefinition/qicore-encounter"]},"status":"finished","class":{"system":"http://terminology.hl7.org/CodeSystem/v3-ActCode","code":"IMP","display":"inpatient encounter"},"type":[{"coding":[{"system":"http://snomed.info/sct","code":"112689000","display":"Hospital admission, elective, with complete pre-admission work-up"}],"text":"Hospital admission, elective, with complete pre-admission work-up"}],"priority":{"coding":[{"system":"http://snomed.info/sct","code":"103390000"}]},"subject":{"reference":"Patient/f29f69fc-dcbd-4296-8b56-e6e081758ed9"},"period":{"start":"2026-05-04T11:00:00.000+00:00","end":"2026-05-13T08:15:00.000+00:00"}},"request":{"method":"PUT","url":"Encounter/9de1dd4a-fe4c-4620-a1da-55e1f3067949"}},{"resource":{"resourceType":"Procedure","id":"01b2188f-4bd5-4930-a552-2bddd5f17416","meta":{"profile":["http://hl7.org/fhir/us/qicore/StructureDefinition/qicore-procedure"]},"extension":[{"url":"http://hl7.org/fhir/us/qicore/StructureDefinition/qicore-recorded","valueDateTime":"2026-04-21T12:00:00.000+00:00"}],"status":"completed","code":{"coding":[{"system":"http://snomed.info/sct","code":"271280005","display":"Removal of endotracheal tube (procedure)"}],"text":"Removal of endotracheal tube (procedure)"},"subject":{"reference":"Patient/f29f69fc-dcbd-4296-8b56-e6e081758ed9"},"performedPeriod":{"start":"2026-05-15T13:04:00.000+00:00","end":"2026-05-15T13:19:00.000+00:00"}},"request":{"method":"PUT","url":"Procedure/01b2188f-4bd5-4930-a552-2bddd5f17416"}},{"resource":{"resourceType":"Procedure","id":"061b1908-d7d9-4814-9960-3e5f4412a789","meta":{"profile":["http://hl7.org/fhir/us/qicore/StructureDefinition/qicore-procedure"]},"extension":[{"url":"http://hl7.org/fhir/us/qicore/StructureDefinition/qicore-recorded","valueDateTime":"2026-05-15T12:20:00.000+00:00"}],"status":"completed","category":{"coding":[{"system":"http://snomed.info/sct","code":"18286008","display":"General or neuraxial anesthesia"}]},"code":{"coding":[{"system":"http://snomed.info/sct","code":"112943005","display":"Epidural injection of anesthetic substance, diagnostic, caudal, continuous"}]},"subject":{"reference":"Patient/f29f69fc-dcbd-4296-8b56-e6e081758ed9"},"performedPeriod":{"start":"2026-05-15T11:00:00.000+00:00","end":"2026-05-15T12:15:00.000+00:00"}},"request":{"method":"PUT","url":"Procedure/061b1908-d7d9-4814-9960-3e5f4412a789"}},{"resource":{"resourceType":"MeasureReport","id":"386ce6e1-a497-47f8-910f-a0e576aff0ff","meta":{"profile":["http://hl7.org/fhir/us/cqfmeasures/StructureDefinition/test-case-cqfm"]},"contained":[{"resourceType":"Parameters","id":"d19ca797-d06a-4026-a92b-6f5c7fc54766-parameters","parameter":[{"name":"subject","valueString":"f29f69fc-dcbd-4296-8b56-e6e081758ed9"}]}],"extension":[{"url":"http://hl7.org/fhir/StructureDefinition/cqf-inputParameters","valueReference":{"reference":"#d19ca797-d06a-4026-a92b-6f5c7fc54766-parameters"}},{"url":"http://hl7.org/fhir/us/cqfmeasures/StructureDefinition/cqfm-testCaseDescription","valueMarkdown":"Two Encounters, both meet IP and DENOM. Enc1 has no matching procedures for numerator, Enc2 almost meets Numer clause 3, but has an Extubation with Preceding Non-invasive O2 therapy, so fails clause 3. "}],"modifierExtension":[{"url":"http://hl7.org/fhir/us/cqfmeasures/StructureDefinition/cqfm-isTestCase","valueBoolean":true}],"status":"complete","type":"individual","measure":"https://madie.cms.gov/Measure/CMS1218FHIRHHRF","period":{"start":"2026-01-01","end":"2026-12-31"},"group":[{"id":"Group_1","population":[{"id":"InitialPopulation_1","code":{"coding":[{"system":"http://terminology.hl7.org/CodeSystem/measure-population","code":"initial-population","display":"Initial Population"}]},"count":2},{"id":"Denominator_1","code":{"coding":[{"system":"http://terminology.hl7.org/CodeSystem/measure-population","code":"denominator","display":"Denominator"}]},"count":2},{"id":"DenominatorExclusion_1","code":{"coding":[{"system":"http://terminology.hl7.org/CodeSystem/measure-population","code":"denominator-exclusion","display":"Denominator Exclusion"}]},"count":0},{"id":"Numerator_1","code":{"coding":[{"system":"http://terminology.hl7.org/CodeSystem/measure-population","code":"numerator","display":"Numerator"}]},"count":0}],"measureScore":{"value":0.0}}],"evaluatedResource":[{"reference":"Procedure/e2809de3-9afd-4920-b9ac-fb36a292ee68"},{"reference":"Encounter/b1ab559c-f156-4b42-8d57-df99b7d08b29"},{"reference":"Encounter/9de1dd4a-fe4c-4620-a1da-55e1f3067949"},{"reference":"Patient/f29f69fc-dcbd-4296-8b56-e6e081758ed9"},{"reference":"Procedure/38f81726-ccba-4758-8c8a-bedd01580891"},{"reference":"Procedure/061b1908-d7d9-4814-9960-3e5f4412a789"},{"reference":"Procedure/01b2188f-4bd5-4930-a552-2bddd5f17416"}]},"request":{"method":"PUT","url":"MeasureReport/386ce6e1-a497-47f8-910f-a0e576aff0ff"}},{"resource":{"resourceType":"Encounter","id":"b1ab559c-f156-4b42-8d57-df99b7d08b29","meta":{"profile":["http://hl7.org/fhir/us/qicore/StructureDefinition/qicore-encounter"]},"status":"finished","class":{"system":"http://terminology.hl7.org/CodeSystem/v3-ActCode","code":"IMP","display":"inpatient encounter"},"type":[{"coding":[{"system":"http://snomed.info/sct","code":"112689000","display":"Hospital admission, elective, with complete pre-admission work-up"}],"text":"Hospital admission, elective, with complete pre-admission work-up"}],"priority":{"coding":[{"system":"http://snomed.info/sct","code":"103390000"}]},"subject":{"reference":"Patient/f29f69fc-dcbd-4296-8b56-e6e081758ed9"},"period":{"start":"2026-05-14T11:00:00.000+00:00","end":"2026-05-20T08:15:00.000+00:00"}},"request":{"method":"PUT","url":"Encounter/b1ab559c-f156-4b42-8d57-df99b7d08b29"}},{"resource":{"resourceType":"Procedure","id":"e2809de3-9afd-4920-b9ac-fb36a292ee68","meta":{"profile":["http://hl7.org/fhir/us/qicore/StructureDefinition/qicore-procedure"]},"extension":[{"url":"http://hl7.org/fhir/us/qicore/StructureDefinition/qicore-recorded","valueDateTime":"2026-05-06T08:15:30.000+00:00"}],"status":"completed","code":{"coding":[{"system":"http://snomed.info/sct","version":"2023-09","code":"304577004","display":"Humidified oxygen therapy (procedure)"}],"text":"Humidified oxygen therapy (procedure)"},"subject":{"reference":"Patient/f29f69fc-dcbd-4296-8b56-e6e081758ed9"},"performedDateTime":"2026-05-15T12:45:00.000+00:00"},"request":{"method":"PUT","url":"Procedure/e2809de3-9afd-4920-b9ac-fb36a292ee68"}}]}