{"resourceType":"Bundle","id":"tests-ea9c34ee-b50e-4d13-bd9c-ab2033d15717-bundle","type":"transaction","entry":[{"resource":{"resourceType":"Procedure","id":"e665746d-93e5-44d4-a99f-2b4aad55c5ba","meta":{"profile":["http://hl7.org/fhir/us/qicore/StructureDefinition/qicore-procedure"]},"extension":[{"url":"http://hl7.org/fhir/us/qicore/StructureDefinition/qicore-recorded","valueDateTime":"2026-04-11T10:30:00.000+00:00"}],"status":"completed","category":{"coding":[{"system":"http://snomed.info/sct","code":"18286008","display":"General or neuraxial anesthesia"}]},"code":{"coding":[{"system":"http://snomed.info/sct","code":"112943005","display":"Epidural injection of anesthetic substance, diagnostic, caudal, continuous"}]},"subject":{"reference":"Patient/ea9c34ee-b50e-4d13-bd9c-ab2033d15717"},"performedPeriod":{"start":"2026-04-11T08:00:00.000+00:00","end":"2026-04-11T10:15:00.000+00:00"}},"request":{"method":"PUT","url":"Procedure/e665746d-93e5-44d4-a99f-2b4aad55c5ba"}},{"resource":{"resourceType":"Condition","id":"4cadcb9c-e687-4e3d-82e2-61e4c09c1b05","meta":{"profile":["http://hl7.org/fhir/us/qicore/StructureDefinition/qicore-condition-encounter-diagnosis"]},"clinicalStatus":{"coding":[{"system":"http://terminology.hl7.org/CodeSystem/condition-clinical","code":"active"}]},"verificationStatus":{"coding":[{"system":"http://terminology.hl7.org/CodeSystem/condition-ver-status","code":"confirmed"}]},"category":[{"coding":[{"system":"http://terminology.hl7.org/CodeSystem/condition-category","code":"encounter-diagnosis","display":"Encounter Diagnosis"}]}],"code":{"coding":[{"system":"http://hl7.org/fhir/sid/icd-10-cm","code":"O22.30","display":"Deep phlebothrombosis in pregnancy, unspecified trimester"}]},"subject":{"reference":"Patient/ea9c34ee-b50e-4d13-bd9c-ab2033d15717"},"encounter":{"reference":"Encounter/Encounter-WithPregnancyConditionDiagnosis"}},"request":{"method":"PUT","url":"Condition/4cadcb9c-e687-4e3d-82e2-61e4c09c1b05"}},{"resource":{"resourceType":"Bundle","id":"tests-IPPFail-PregnancyRelatedCondition-bundle","type":"transaction","entry":[{"fullUrl":"https://madie.cms.gov/Condition/4cadcb9c-e687-4e3d-82e2-61e4c09c1b05","resource":{"resourceType":"Condition","id":"4cadcb9c-e687-4e3d-82e2-61e4c09c1b05","meta":{"profile":["http://hl7.org/fhir/us/qicore/StructureDefinition/qicore-condition-encounter-diagnosis"]},"clinicalStatus":{"coding":[{"system":"http://terminology.hl7.org/CodeSystem/condition-clinical","code":"active"}]},"verificationStatus":{"coding":[{"system":"http://terminology.hl7.org/CodeSystem/condition-ver-status","code":"confirmed"}]},"category":[{"coding":[{"system":"http://terminology.hl7.org/CodeSystem/condition-category","code":"encounter-diagnosis","display":"Encounter Diagnosis"}]}],"code":{"coding":[{"system":"http://hl7.org/fhir/sid/icd-10-cm","code":"O22.30","display":"Deep phlebothrombosis in pregnancy, unspecified trimester"}]},"subject":{"reference":"Patient/ea9c34ee-b50e-4d13-bd9c-ab2033d15717"},"encounter":{"reference":"Encounter/Encounter-WithPregnancyConditionDiagnosis"}},"request":{"method":"PUT","url":"Condition/4cadcb9c-e687-4e3d-82e2-61e4c09c1b05"}},{"fullUrl":"https://madie.cms.gov/Patient/ea9c34ee-b50e-4d13-bd9c-ab2033d15717","resource":{"resourceType":"Patient","id":"ea9c34ee-b50e-4d13-bd9c-ab2033d15717","meta":{"profile":["http://hl7.org/fhir/us/qicore/StructureDefinition/qicore-patient"]},"extension":[{"url":"http://hl7.org/fhir/us/core/StructureDefinition/us-core-race","extension":[{"url":"ombCategory","valueCoding":{"system":"urn:oid:2.16.840.1.113883.6.238","code":"2028-9","display":"Asian","userSelected":true}},{"url":"text","valueString":"Asian"}]},{"url":"http://hl7.org/fhir/us/core/StructureDefinition/us-core-ethnicity","extension":[{"url":"ombCategory","valueCoding":{"system":"urn:oid:2.16.840.1.113883.6.238","code":"2186-5","display":"Not Hispanic or Latino","userSelected":true}},{"url":"text","valueString":"Not Hispanic or Latino"}]}],"identifier":[{"type":{"coding":[{"system":"http://terminology.hl7.org/CodeSystem/v2-0203","code":"MR"}]},"system":"https://bonnie-fhir.healthit.gov/","value":"61152a3b98086b7a79cbd7c1"}],"active":true,"name":[{"use":"usual","family":"IPPFail","given":["ObstetricalDiagnosis"]}],"gender":"female","birthDate":"1966-04-09"},"request":{"method":"PUT","url":"Patient/ea9c34ee-b50e-4d13-bd9c-ab2033d15717"}},{"fullUrl":"https://madie.cms.gov/Procedure/e665746d-93e5-44d4-a99f-2b4aad55c5ba","resource":{"resourceType":"Procedure","id":"e665746d-93e5-44d4-a99f-2b4aad55c5ba","meta":{"profile":["http://hl7.org/fhir/us/qicore/StructureDefinition/qicore-procedure"]},"extension":[{"url":"http://hl7.org/fhir/us/qicore/StructureDefinition/qicore-recorded","valueDateTime":"2026-04-11T10:30:00.000+00:00"}],"status":"completed","category":{"coding":[{"system":"http://snomed.info/sct","code":"18286008","display":"General or neuraxial anesthesia"}]},"code":{"coding":[{"system":"http://snomed.info/sct","code":"112943005","display":"Epidural injection of anesthetic substance, diagnostic, caudal, continuous"}]},"subject":{"reference":"Patient/ea9c34ee-b50e-4d13-bd9c-ab2033d15717"},"performedPeriod":{"start":"2026-04-11T08:00:00.000+00:00","end":"2026-04-11T10:15:00.000+00:00"}},"request":{"method":"PUT","url":"Procedure/e665746d-93e5-44d4-a99f-2b4aad55c5ba"}},{"fullUrl":"https://madie.cms.gov/Encounter/2ae43ff9-06d9-4921-950d-0e85a771a414","resource":{"resourceType":"Encounter","id":"2ae43ff9-06d9-4921-950d-0e85a771a414","meta":{"profile":["http://hl7.org/fhir/us/qicore/StructureDefinition/qicore-encounter"]},"status":"finished","class":{"system":"http://terminology.hl7.org/CodeSystem/v3-ActCode","code":"IMP","display":"inpatient encounter"},"type":[{"coding":[{"system":"http://snomed.info/sct","code":"112689000","display":"Hospital admission, elective, with complete pre-admission work-up"}],"text":"Hospital admission, elective, with complete pre-admission work-up"}],"priority":{"coding":[{"system":"http://snomed.info/sct","code":"103390000"}]},"subject":{"reference":"Patient/ea9c34ee-b50e-4d13-bd9c-ab2033d15717"},"period":{"start":"2026-04-10T08:00:00.000+00:00","end":"2026-04-14T08:15:00.000+00:00"},"reasonCode":[{"coding":[{"system":"http://hl7.org/fhir/sid/icd-10-cm","code":"O00.01","display":"Abdominal pregnancy with intrauterine pregnancy"}],"text":"Abdominal pregnancy with intrauterine pregnancy"}],"diagnosis":[{"condition":{"reference":"Condition/4cadcb9c-e687-4e3d-82e2-61e4c09c1b05"},"rank":1}]},"request":{"method":"PUT","url":"Encounter/2ae43ff9-06d9-4921-950d-0e85a771a414"}},{"fullUrl":"https://madie.cms.gov/MeasureReport/b68b3a2d-df2a-4e06-9e3f-dd26ebd69ffa","resource":{"resourceType":"MeasureReport","id":"b68b3a2d-df2a-4e06-9e3f-dd26ebd69ffa","meta":{"profile":["http://hl7.org/fhir/us/cqfmeasures/StructureDefinition/test-case-cqfm"]},"contained":[{"resourceType":"Parameters","id":"3d33a3eb-9ae6-42bb-9d0d-49ff1b881bd8-parameters","parameter":[{"name":"subject","valueString":"ea9c34ee-b50e-4d13-bd9c-ab2033d15717"}]}],"extension":[{"url":"http://hl7.org/fhir/StructureDefinition/cqf-inputParameters","valueReference":{"reference":"#3d33a3eb-9ae6-42bb-9d0d-49ff1b881bd8-parameters"}},{"url":"http://hl7.org/fhir/us/cqfmeasures/StructureDefinition/cqfm-testCaseDescription","valueMarkdown":"Elective hospitalization with procedure (general anesthesia) within first 3 days of encounter. Has encounter diagnosis for an obstetrical condition, so does not meet IPP. Must not have OB condition to be in IPP. "}],"modifierExtension":[{"url":"http://hl7.org/fhir/us/cqfmeasures/StructureDefinition/cqfm-isTestCase","valueBoolean":true}],"status":"complete","type":"individual","measure":"https://madie.cms.gov/Measure/CMS1218FHIRHHRF","period":{"start":"2026-01-01","end":"2026-12-31"},"group":[{"id":"Group_1","population":[{"id":"InitialPopulation_1","code":{"coding":[{"system":"http://terminology.hl7.org/CodeSystem/measure-population","code":"initial-population","display":"Initial Population"}]},"count":0},{"id":"Denominator_1","code":{"coding":[{"system":"http://terminology.hl7.org/CodeSystem/measure-population","code":"denominator","display":"Denominator"}]},"count":0},{"id":"DenominatorExclusion_1","code":{"coding":[{"system":"http://terminology.hl7.org/CodeSystem/measure-population","code":"denominator-exclusion","display":"Denominator Exclusion"}]},"count":0},{"id":"Numerator_1","code":{"coding":[{"system":"http://terminology.hl7.org/CodeSystem/measure-population","code":"numerator","display":"Numerator"}]},"count":0}],"measureScore":{"value":0.0}}],"evaluatedResource":[{"reference":"Condition/4cadcb9c-e687-4e3d-82e2-61e4c09c1b05"},{"reference":"Patient/ea9c34ee-b50e-4d13-bd9c-ab2033d15717"},{"reference":"Procedure/e665746d-93e5-44d4-a99f-2b4aad55c5ba"},{"reference":"Encounter/2ae43ff9-06d9-4921-950d-0e85a771a414"}]},"request":{"method":"PUT","url":"MeasureReport/b68b3a2d-df2a-4e06-9e3f-dd26ebd69ffa"}}]},"request":{"method":"PUT","url":"Bundle/tests-IPPFail-PregnancyRelatedCondition-bundle"}},{"resource":{"resourceType":"Patient","id":"ea9c34ee-b50e-4d13-bd9c-ab2033d15717","meta":{"profile":["http://hl7.org/fhir/us/qicore/StructureDefinition/qicore-patient"]},"extension":[{"url":"http://hl7.org/fhir/us/core/StructureDefinition/us-core-race","extension":[{"url":"ombCategory","valueCoding":{"system":"urn:oid:2.16.840.1.113883.6.238","code":"2028-9","display":"Asian","userSelected":true}},{"url":"text","valueString":"Asian"}]},{"url":"http://hl7.org/fhir/us/core/StructureDefinition/us-core-ethnicity","extension":[{"url":"ombCategory","valueCoding":{"system":"urn:oid:2.16.840.1.113883.6.238","code":"2186-5","display":"Not Hispanic or Latino","userSelected":true}},{"url":"text","valueString":"Not Hispanic or Latino"}]}],"identifier":[{"type":{"coding":[{"system":"http://terminology.hl7.org/CodeSystem/v2-0203","code":"MR"}]},"system":"https://bonnie-fhir.healthit.gov/","value":"61152a3b98086b7a79cbd7c1"}],"active":true,"name":[{"use":"usual","family":"IPPFail","given":["ObstetricalDiagnosis"]}],"gender":"female","birthDate":"1966-04-09"},"request":{"method":"PUT","url":"Patient/ea9c34ee-b50e-4d13-bd9c-ab2033d15717"}},{"resource":{"resourceType":"MeasureReport","id":"b68b3a2d-df2a-4e06-9e3f-dd26ebd69ffa","meta":{"profile":["http://hl7.org/fhir/us/cqfmeasures/StructureDefinition/test-case-cqfm"]},"contained":[{"resourceType":"Parameters","id":"3d33a3eb-9ae6-42bb-9d0d-49ff1b881bd8-parameters","parameter":[{"name":"subject","valueString":"ea9c34ee-b50e-4d13-bd9c-ab2033d15717"}]}],"extension":[{"url":"http://hl7.org/fhir/StructureDefinition/cqf-inputParameters","valueReference":{"reference":"#3d33a3eb-9ae6-42bb-9d0d-49ff1b881bd8-parameters"}},{"url":"http://hl7.org/fhir/us/cqfmeasures/StructureDefinition/cqfm-testCaseDescription","valueMarkdown":"Elective hospitalization with procedure (general anesthesia) within first 3 days of encounter. Has encounter diagnosis for an obstetrical condition, so does not meet IPP. Must not have OB condition to be in IPP. "}],"modifierExtension":[{"url":"http://hl7.org/fhir/us/cqfmeasures/StructureDefinition/cqfm-isTestCase","valueBoolean":true}],"status":"complete","type":"individual","measure":"https://madie.cms.gov/Measure/CMS1218FHIRHHRF","period":{"start":"2026-01-01","end":"2026-12-31"},"group":[{"id":"Group_1","population":[{"id":"InitialPopulation_1","code":{"coding":[{"system":"http://terminology.hl7.org/CodeSystem/measure-population","code":"initial-population","display":"Initial Population"}]},"count":0},{"id":"Denominator_1","code":{"coding":[{"system":"http://terminology.hl7.org/CodeSystem/measure-population","code":"denominator","display":"Denominator"}]},"count":0},{"id":"DenominatorExclusion_1","code":{"coding":[{"system":"http://terminology.hl7.org/CodeSystem/measure-population","code":"denominator-exclusion","display":"Denominator Exclusion"}]},"count":0},{"id":"Numerator_1","code":{"coding":[{"system":"http://terminology.hl7.org/CodeSystem/measure-population","code":"numerator","display":"Numerator"}]},"count":0}],"measureScore":{"value":0.0}}],"evaluatedResource":[{"reference":"Condition/4cadcb9c-e687-4e3d-82e2-61e4c09c1b05"},{"reference":"Patient/ea9c34ee-b50e-4d13-bd9c-ab2033d15717"},{"reference":"Procedure/e665746d-93e5-44d4-a99f-2b4aad55c5ba"},{"reference":"Encounter/2ae43ff9-06d9-4921-950d-0e85a771a414"}]},"request":{"method":"PUT","url":"MeasureReport/b68b3a2d-df2a-4e06-9e3f-dd26ebd69ffa"}},{"resource":{"resourceType":"Encounter","id":"2ae43ff9-06d9-4921-950d-0e85a771a414","meta":{"profile":["http://hl7.org/fhir/us/qicore/StructureDefinition/qicore-encounter"]},"status":"finished","class":{"system":"http://terminology.hl7.org/CodeSystem/v3-ActCode","code":"IMP","display":"inpatient encounter"},"type":[{"coding":[{"system":"http://snomed.info/sct","code":"112689000","display":"Hospital admission, elective, with complete pre-admission work-up"}],"text":"Hospital admission, elective, with complete pre-admission work-up"}],"priority":{"coding":[{"system":"http://snomed.info/sct","code":"103390000"}]},"subject":{"reference":"Patient/ea9c34ee-b50e-4d13-bd9c-ab2033d15717"},"period":{"start":"2026-04-10T08:00:00.000+00:00","end":"2026-04-14T08:15:00.000+00:00"},"reasonCode":[{"coding":[{"system":"http://hl7.org/fhir/sid/icd-10-cm","code":"O00.01","display":"Abdominal pregnancy with intrauterine pregnancy"}],"text":"Abdominal pregnancy with intrauterine pregnancy"}],"diagnosis":[{"condition":{"reference":"Condition/4cadcb9c-e687-4e3d-82e2-61e4c09c1b05"},"rank":1}]},"request":{"method":"PUT","url":"Encounter/2ae43ff9-06d9-4921-950d-0e85a771a414"}}]}