{"resourceType":"Bundle","id":"tests-b58af351-e517-48d2-9bde-33654592f6f4-bundle","type":"transaction","entry":[{"resource":{"resourceType":"Bundle","id":"tests-RiskVarPassFirstHeartRate-bundle","type":"transaction","entry":[{"fullUrl":"https://madie.cms.gov/Encounter/fe04782e-893a-4666-bcf1-32f4a59d8d9a","resource":{"resourceType":"Encounter","id":"fe04782e-893a-4666-bcf1-32f4a59d8d9a","meta":{"profile":["http://hl7.org/fhir/us/qicore/StructureDefinition/qicore-encounter"]},"status":"finished","class":{"system":"http://terminology.hl7.org/CodeSystem/v3-ActCode","code":"IMP","display":"inpatient encounter"},"type":[{"coding":[{"system":"http://snomed.info/sct","code":"112689000","display":"Hospital admission, elective, with complete pre-admission work-up"}],"text":"Hospital admission, elective, with complete pre-admission work-up"}],"priority":{"coding":[{"system":"http://snomed.info/sct","code":"103390000"}]},"subject":{"reference":"Patient/b58af351-e517-48d2-9bde-33654592f6f4"},"period":{"start":"2026-04-10T08:00:00.000+00:00","end":"2026-04-14T08:15:00.000+00:00"},"diagnosis":[{"condition":{"reference":"Procedure/967e440e-8766-4705-924b-00b4a61b0458"},"rank":1}]},"request":{"method":"PUT","url":"Encounter/fe04782e-893a-4666-bcf1-32f4a59d8d9a"}},{"fullUrl":"https://madie.cms.gov/Observation/3c3c5456-6954-45fb-93bc-04051ca5577a","resource":{"resourceType":"Observation","id":"3c3c5456-6954-45fb-93bc-04051ca5577a","meta":{"profile":["http://hl7.org/fhir/us/core/StructureDefinition/us-core-heart-rate"]},"status":"final","category":[{"coding":[{"system":"http://terminology.hl7.org/CodeSystem/observation-category","code":"vital-signs","display":"Vital Signs"}]}],"code":{"coding":[{"system":"http://loinc.org","code":"8867-4","display":"Heart rate"}],"text":"Heart rate"},"subject":{"reference":"Patient/b58af351-e517-48d2-9bde-33654592f6f4"},"encounter":{"reference":"Encounter/fe04782e-893a-4666-bcf1-32f4a59d8d9a"},"effectiveDateTime":"2026-04-11T08:00:00.000+00:00","valueQuantity":{"value":44,"unit":"beats/min","system":"http://unitsofmeasure.org","code":"/min"}},"request":{"method":"PUT","url":"Observation/3c3c5456-6954-45fb-93bc-04051ca5577a"}},{"fullUrl":"https://madie.cms.gov/Patient/b58af351-e517-48d2-9bde-33654592f6f4","resource":{"resourceType":"Patient","id":"b58af351-e517-48d2-9bde-33654592f6f4","meta":{"profile":["http://hl7.org/fhir/us/qicore/StructureDefinition/qicore-patient"]},"extension":[{"url":"http://hl7.org/fhir/us/core/StructureDefinition/us-core-race","extension":[{"url":"ombCategory","valueCoding":{"system":"urn:oid:2.16.840.1.113883.6.238","code":"2054-5","display":"Black or African American","userSelected":true}},{"url":"text","valueString":"Black or African American"}]},{"url":"http://hl7.org/fhir/us/core/StructureDefinition/us-core-ethnicity","extension":[{"url":"ombCategory","valueCoding":{"system":"urn:oid:2.16.840.1.113883.6.238","code":"2186-5","display":"Not Hispanic or Latino","userSelected":true}},{"url":"text","valueString":"Not Hispanic or Latino"}]}],"identifier":[{"type":{"coding":[{"system":"http://terminology.hl7.org/CodeSystem/v2-0203","code":"MR"}]},"system":"https://bonnie-fhir.healthit.gov/","value":"61152a3b98086b7a79cbd7c1"}],"active":true,"name":[{"use":"usual","family":"DENOMPass","given":["RiskVariableASAClass"]}],"gender":"female","birthDate":"1966-07-12"},"request":{"method":"PUT","url":"Patient/b58af351-e517-48d2-9bde-33654592f6f4"}},{"fullUrl":"https://madie.cms.gov/Observation/e466995d-2db8-43c1-a3e8-b5a744bf2d42","resource":{"resourceType":"Observation","id":"e466995d-2db8-43c1-a3e8-b5a744bf2d42","meta":{"profile":["http://hl7.org/fhir/us/core/StructureDefinition/us-core-heart-rate"]},"status":"final","category":[{"coding":[{"system":"http://terminology.hl7.org/CodeSystem/observation-category","code":"vital-signs","display":"Vital Signs"}]}],"code":{"coding":[{"system":"http://loinc.org","code":"8867-4","display":"Heart rate"}],"text":"Heart rate"},"subject":{"reference":"Patient/b58af351-e517-48d2-9bde-33654592f6f4"},"encounter":{"reference":"Encounter/fe04782e-893a-4666-bcf1-32f4a59d8d9a"},"effectiveDateTime":"2026-04-11T09:00:00.000+00:00","valueQuantity":{"value":60,"unit":"beats/min","system":"http://unitsofmeasure.org","code":"/min"}},"request":{"method":"PUT","url":"Observation/e466995d-2db8-43c1-a3e8-b5a744bf2d42"}},{"fullUrl":"https://madie.cms.gov/Procedure/7f27e2b1-caea-4640-b0e6-d844f20dd20d","resource":{"resourceType":"Procedure","id":"7f27e2b1-caea-4640-b0e6-d844f20dd20d","meta":{"profile":["http://hl7.org/fhir/us/qicore/StructureDefinition/qicore-procedure"]},"extension":[{"url":"http://hl7.org/fhir/us/qicore/StructureDefinition/qicore-recorded","valueDateTime":"2026-04-11T10:30:00.000+00:00"}],"status":"completed","category":{"coding":[{"system":"http://snomed.info/sct","code":"18286008","display":"General or neuraxial anesthesia"}]},"code":{"coding":[{"system":"http://snomed.info/sct","code":"112943005","display":"Epidural injection of anesthetic substance, diagnostic, caudal, continuous"}]},"subject":{"reference":"Patient/b58af351-e517-48d2-9bde-33654592f6f4"},"performedPeriod":{"start":"2026-04-11T08:00:00.000+00:00","end":"2026-04-11T10:15:00.000+00:00"}},"request":{"method":"PUT","url":"Procedure/7f27e2b1-caea-4640-b0e6-d844f20dd20d"}},{"fullUrl":"https://madie.cms.gov/MeasureReport/b648a347-f663-4116-b552-c03e9c2f8af2","resource":{"resourceType":"MeasureReport","id":"b648a347-f663-4116-b552-c03e9c2f8af2","meta":{"profile":["http://hl7.org/fhir/us/cqfmeasures/StructureDefinition/test-case-cqfm"]},"contained":[{"resourceType":"Parameters","id":"8e45c4cb-ab59-4f88-9dec-b4709cc53cbe-parameters","parameter":[{"name":"subject","valueString":"b58af351-e517-48d2-9bde-33654592f6f4"}]}],"extension":[{"url":"http://hl7.org/fhir/StructureDefinition/cqf-inputParameters","valueReference":{"reference":"#8e45c4cb-ab59-4f88-9dec-b4709cc53cbe-parameters"}},{"url":"http://hl7.org/fhir/us/cqfmeasures/StructureDefinition/cqfm-testCaseDescription","valueMarkdown":"DENOMPass Satisfies First Heart Rate risk variable"}],"modifierExtension":[{"url":"http://hl7.org/fhir/us/cqfmeasures/StructureDefinition/cqfm-isTestCase","valueBoolean":true}],"status":"complete","type":"individual","measure":"https://madie.cms.gov/Measure/CMS1218FHIRHHRF","period":{"start":"2026-01-01","end":"2026-12-31"},"group":[{"id":"Group_1","population":[{"id":"InitialPopulation_1","code":{"coding":[{"system":"http://terminology.hl7.org/CodeSystem/measure-population","code":"initial-population","display":"Initial Population"}]},"count":1},{"id":"Denominator_1","code":{"coding":[{"system":"http://terminology.hl7.org/CodeSystem/measure-population","code":"denominator","display":"Denominator"}]},"count":1},{"id":"DenominatorExclusion_1","code":{"coding":[{"system":"http://terminology.hl7.org/CodeSystem/measure-population","code":"denominator-exclusion","display":"Denominator Exclusion"}]},"count":0},{"id":"Numerator_1","code":{"coding":[{"system":"http://terminology.hl7.org/CodeSystem/measure-population","code":"numerator","display":"Numerator"}]},"count":0}],"measureScore":{"value":0.0}}],"evaluatedResource":[{"reference":"Encounter/fe04782e-893a-4666-bcf1-32f4a59d8d9a"},{"reference":"Observation/3c3c5456-6954-45fb-93bc-04051ca5577a"},{"reference":"Patient/b58af351-e517-48d2-9bde-33654592f6f4"},{"reference":"Observation/e466995d-2db8-43c1-a3e8-b5a744bf2d42"},{"reference":"Procedure/7f27e2b1-caea-4640-b0e6-d844f20dd20d"}]},"request":{"method":"PUT","url":"MeasureReport/b648a347-f663-4116-b552-c03e9c2f8af2"}}]},"request":{"method":"PUT","url":"Bundle/tests-RiskVarPassFirstHeartRate-bundle"}},{"resource":{"resourceType":"Patient","id":"b58af351-e517-48d2-9bde-33654592f6f4","meta":{"profile":["http://hl7.org/fhir/us/qicore/StructureDefinition/qicore-patient"]},"extension":[{"url":"http://hl7.org/fhir/us/core/StructureDefinition/us-core-race","extension":[{"url":"ombCategory","valueCoding":{"system":"urn:oid:2.16.840.1.113883.6.238","code":"2054-5","display":"Black or African American","userSelected":true}},{"url":"text","valueString":"Black or African American"}]},{"url":"http://hl7.org/fhir/us/core/StructureDefinition/us-core-ethnicity","extension":[{"url":"ombCategory","valueCoding":{"system":"urn:oid:2.16.840.1.113883.6.238","code":"2186-5","display":"Not Hispanic or Latino","userSelected":true}},{"url":"text","valueString":"Not Hispanic or Latino"}]}],"identifier":[{"type":{"coding":[{"system":"http://terminology.hl7.org/CodeSystem/v2-0203","code":"MR"}]},"system":"https://bonnie-fhir.healthit.gov/","value":"61152a3b98086b7a79cbd7c1"}],"active":true,"name":[{"use":"usual","family":"DENOMPass","given":["RiskVariableASAClass"]}],"gender":"female","birthDate":"1966-07-12"},"request":{"method":"PUT","url":"Patient/b58af351-e517-48d2-9bde-33654592f6f4"}},{"resource":{"resourceType":"Observation","id":"e466995d-2db8-43c1-a3e8-b5a744bf2d42","meta":{"profile":["http://hl7.org/fhir/us/core/StructureDefinition/us-core-heart-rate"]},"status":"final","category":[{"coding":[{"system":"http://terminology.hl7.org/CodeSystem/observation-category","code":"vital-signs","display":"Vital Signs"}]}],"code":{"coding":[{"system":"http://loinc.org","code":"8867-4","display":"Heart rate"}],"text":"Heart rate"},"subject":{"reference":"Patient/b58af351-e517-48d2-9bde-33654592f6f4"},"encounter":{"reference":"Encounter/fe04782e-893a-4666-bcf1-32f4a59d8d9a"},"effectiveDateTime":"2026-04-11T09:00:00.000+00:00","valueQuantity":{"value":60,"unit":"beats/min","system":"http://unitsofmeasure.org","code":"/min"}},"request":{"method":"PUT","url":"Observation/e466995d-2db8-43c1-a3e8-b5a744bf2d42"}},{"resource":{"resourceType":"Encounter","id":"fe04782e-893a-4666-bcf1-32f4a59d8d9a","meta":{"profile":["http://hl7.org/fhir/us/qicore/StructureDefinition/qicore-encounter"]},"status":"finished","class":{"system":"http://terminology.hl7.org/CodeSystem/v3-ActCode","code":"IMP","display":"inpatient encounter"},"type":[{"coding":[{"system":"http://snomed.info/sct","code":"112689000","display":"Hospital admission, elective, with complete pre-admission work-up"}],"text":"Hospital admission, elective, with complete pre-admission work-up"}],"priority":{"coding":[{"system":"http://snomed.info/sct","code":"103390000"}]},"subject":{"reference":"Patient/b58af351-e517-48d2-9bde-33654592f6f4"},"period":{"start":"2026-04-10T08:00:00.000+00:00","end":"2026-04-14T08:15:00.000+00:00"},"diagnosis":[{"condition":{"reference":"Procedure/967e440e-8766-4705-924b-00b4a61b0458"},"rank":1}]},"request":{"method":"PUT","url":"Encounter/fe04782e-893a-4666-bcf1-32f4a59d8d9a"}},{"resource":{"resourceType":"MeasureReport","id":"b648a347-f663-4116-b552-c03e9c2f8af2","meta":{"profile":["http://hl7.org/fhir/us/cqfmeasures/StructureDefinition/test-case-cqfm"]},"contained":[{"resourceType":"Parameters","id":"8e45c4cb-ab59-4f88-9dec-b4709cc53cbe-parameters","parameter":[{"name":"subject","valueString":"b58af351-e517-48d2-9bde-33654592f6f4"}]}],"extension":[{"url":"http://hl7.org/fhir/StructureDefinition/cqf-inputParameters","valueReference":{"reference":"#8e45c4cb-ab59-4f88-9dec-b4709cc53cbe-parameters"}},{"url":"http://hl7.org/fhir/us/cqfmeasures/StructureDefinition/cqfm-testCaseDescription","valueMarkdown":"DENOMPass Satisfies First Heart Rate risk variable"}],"modifierExtension":[{"url":"http://hl7.org/fhir/us/cqfmeasures/StructureDefinition/cqfm-isTestCase","valueBoolean":true}],"status":"complete","type":"individual","measure":"https://madie.cms.gov/Measure/CMS1218FHIRHHRF","period":{"start":"2026-01-01","end":"2026-12-31"},"group":[{"id":"Group_1","population":[{"id":"InitialPopulation_1","code":{"coding":[{"system":"http://terminology.hl7.org/CodeSystem/measure-population","code":"initial-population","display":"Initial Population"}]},"count":1},{"id":"Denominator_1","code":{"coding":[{"system":"http://terminology.hl7.org/CodeSystem/measure-population","code":"denominator","display":"Denominator"}]},"count":1},{"id":"DenominatorExclusion_1","code":{"coding":[{"system":"http://terminology.hl7.org/CodeSystem/measure-population","code":"denominator-exclusion","display":"Denominator Exclusion"}]},"count":0},{"id":"Numerator_1","code":{"coding":[{"system":"http://terminology.hl7.org/CodeSystem/measure-population","code":"numerator","display":"Numerator"}]},"count":0}],"measureScore":{"value":0.0}}],"evaluatedResource":[{"reference":"Encounter/fe04782e-893a-4666-bcf1-32f4a59d8d9a"},{"reference":"Observation/3c3c5456-6954-45fb-93bc-04051ca5577a"},{"reference":"Patient/b58af351-e517-48d2-9bde-33654592f6f4"},{"reference":"Observation/e466995d-2db8-43c1-a3e8-b5a744bf2d42"},{"reference":"Procedure/7f27e2b1-caea-4640-b0e6-d844f20dd20d"}]},"request":{"method":"PUT","url":"MeasureReport/b648a347-f663-4116-b552-c03e9c2f8af2"}},{"resource":{"resourceType":"Procedure","id":"7f27e2b1-caea-4640-b0e6-d844f20dd20d","meta":{"profile":["http://hl7.org/fhir/us/qicore/StructureDefinition/qicore-procedure"]},"extension":[{"url":"http://hl7.org/fhir/us/qicore/StructureDefinition/qicore-recorded","valueDateTime":"2026-04-11T10:30:00.000+00:00"}],"status":"completed","category":{"coding":[{"system":"http://snomed.info/sct","code":"18286008","display":"General or neuraxial anesthesia"}]},"code":{"coding":[{"system":"http://snomed.info/sct","code":"112943005","display":"Epidural injection of anesthetic substance, diagnostic, caudal, continuous"}]},"subject":{"reference":"Patient/b58af351-e517-48d2-9bde-33654592f6f4"},"performedPeriod":{"start":"2026-04-11T08:00:00.000+00:00","end":"2026-04-11T10:15:00.000+00:00"}},"request":{"method":"PUT","url":"Procedure/7f27e2b1-caea-4640-b0e6-d844f20dd20d"}},{"resource":{"resourceType":"Observation","id":"3c3c5456-6954-45fb-93bc-04051ca5577a","meta":{"profile":["http://hl7.org/fhir/us/core/StructureDefinition/us-core-heart-rate"]},"status":"final","category":[{"coding":[{"system":"http://terminology.hl7.org/CodeSystem/observation-category","code":"vital-signs","display":"Vital Signs"}]}],"code":{"coding":[{"system":"http://loinc.org","code":"8867-4","display":"Heart rate"}],"text":"Heart rate"},"subject":{"reference":"Patient/b58af351-e517-48d2-9bde-33654592f6f4"},"encounter":{"reference":"Encounter/fe04782e-893a-4666-bcf1-32f4a59d8d9a"},"effectiveDateTime":"2026-04-11T08:00:00.000+00:00","valueQuantity":{"value":44,"unit":"beats/min","system":"http://unitsofmeasure.org","code":"/min"}},"request":{"method":"PUT","url":"Observation/3c3c5456-6954-45fb-93bc-04051ca5577a"}}]}