{"resourceType":"Bundle","id":"tests-c1dd1d9f-2529-40e2-98c8-c7ae44158cea-bundle","type":"transaction","entry":[{"resource":{"resourceType":"Patient","id":"c1dd1d9f-2529-40e2-98c8-c7ae44158cea","meta":{"profile":["http://hl7.org/fhir/us/qicore/StructureDefinition/qicore-patient"]},"extension":[{"url":"http://hl7.org/fhir/us/core/StructureDefinition/us-core-race","extension":[{"url":"ombCategory","valueCoding":{"system":"urn:oid:2.16.840.1.113883.6.238","code":"2028-9","display":"Asian","userSelected":true}},{"url":"text","valueString":"Asian"}]},{"url":"http://hl7.org/fhir/us/core/StructureDefinition/us-core-ethnicity","extension":[{"url":"ombCategory","valueCoding":{"system":"urn:oid:2.16.840.1.113883.6.238","code":"2186-5","display":"Not Hispanic or Latino","userSelected":true}},{"url":"text","valueString":"Not Hispanic or Latino"}]}],"identifier":[{"type":{"coding":[{"system":"http://terminology.hl7.org/CodeSystem/v2-0203","code":"MR"}]},"system":"https://bonnie-fhir.healthit.gov/","value":"61152a3b98086b7a79cbd7c1"}],"active":true,"name":[{"use":"usual","family":"IPPFail","given":["ObstetricalDiagnosis"]}],"gender":"female","birthDate":"1966-04-09"},"request":{"method":"PUT","url":"Patient/c1dd1d9f-2529-40e2-98c8-c7ae44158cea"}},{"resource":{"resourceType":"MeasureReport","id":"6b30bec3-cb9b-454b-8e3b-68b1e74e50d3","meta":{"profile":["http://hl7.org/fhir/us/cqfmeasures/StructureDefinition/test-case-cqfm"]},"contained":[{"resourceType":"Parameters","id":"fca26eae-2e35-47ec-a697-2aad22bf1aed-parameters","parameter":[{"name":"subject","valueString":"c1dd1d9f-2529-40e2-98c8-c7ae44158cea"}]}],"extension":[{"url":"http://hl7.org/fhir/StructureDefinition/cqf-inputParameters","valueReference":{"reference":"#fca26eae-2e35-47ec-a697-2aad22bf1aed-parameters"}},{"url":"http://hl7.org/fhir/us/cqfmeasures/StructureDefinition/cqfm-testCaseDescription","valueMarkdown":"Fails initial population, but Coverage contains payer information, satisfying SDE Payer requirements"}],"modifierExtension":[{"url":"http://hl7.org/fhir/us/cqfmeasures/StructureDefinition/cqfm-isTestCase","valueBoolean":true}],"status":"complete","type":"individual","measure":"https://madie.cms.gov/Measure/CMS1218FHIRHHRF","period":{"start":"2026-01-01","end":"2026-12-31"},"group":[{"id":"Group_1","population":[{"id":"InitialPopulation_1","code":{"coding":[{"system":"http://terminology.hl7.org/CodeSystem/measure-population","code":"initial-population","display":"Initial Population"}]},"count":0},{"id":"Denominator_1","code":{"coding":[{"system":"http://terminology.hl7.org/CodeSystem/measure-population","code":"denominator","display":"Denominator"}]},"count":0},{"id":"DenominatorExclusion_1","code":{"coding":[{"system":"http://terminology.hl7.org/CodeSystem/measure-population","code":"denominator-exclusion","display":"Denominator Exclusion"}]},"count":0},{"id":"Numerator_1","code":{"coding":[{"system":"http://terminology.hl7.org/CodeSystem/measure-population","code":"numerator","display":"Numerator"}]},"count":0}],"measureScore":{"value":0.0}}],"evaluatedResource":[{"reference":"Coverage/28f6b349-9f44-4622-bbae-3381db6d38a5"},{"reference":"Encounter/5dc356a4-aa10-49b3-bfff-0cce51a66b41"},{"reference":"Procedure/432f6288-9f35-46e3-a9bf-8d0fb06eb396"},{"reference":"Patient/c1dd1d9f-2529-40e2-98c8-c7ae44158cea"},{"reference":"Condition/f07db539-b34d-42e2-8df7-b6296d1be457"}]},"request":{"method":"PUT","url":"MeasureReport/6b30bec3-cb9b-454b-8e3b-68b1e74e50d3"}},{"resource":{"resourceType":"Condition","id":"f07db539-b34d-42e2-8df7-b6296d1be457","meta":{"profile":["http://hl7.org/fhir/us/qicore/StructureDefinition/qicore-condition"]},"clinicalStatus":{"coding":[{"system":"http://terminology.hl7.org/CodeSystem/condition-clinical","code":"active"}]},"verificationStatus":{"coding":[{"system":"http://terminology.hl7.org/CodeSystem/condition-ver-status","code":"confirmed"}]},"category":[{"coding":[{"system":"http://terminology.hl7.org/CodeSystem/condition-category","code":"encounter-diagnosis","display":"Encounter Diagnosis"}]}],"code":{"coding":[{"system":"http://snomed.info/sct","code":"10749811000119108"}]},"subject":{"reference":"Patient/c1dd1d9f-2529-40e2-98c8-c7ae44158cea"},"encounter":{"reference":"Encounter/5dc356a4-aa10-49b3-bfff-0cce51a66b41"}},"request":{"method":"PUT","url":"Condition/f07db539-b34d-42e2-8df7-b6296d1be457"}},{"resource":{"resourceType":"Procedure","id":"432f6288-9f35-46e3-a9bf-8d0fb06eb396","meta":{"profile":["http://hl7.org/fhir/us/qicore/StructureDefinition/qicore-procedure"]},"extension":[{"url":"http://hl7.org/fhir/us/qicore/StructureDefinition/qicore-recorded","valueDateTime":"2026-04-11T10:30:00.000+00:00"}],"status":"completed","category":{"coding":[{"system":"http://snomed.info/sct","code":"18286008","display":"General or neuraxial anesthesia"}]},"code":{"coding":[{"system":"http://snomed.info/sct","code":"112943005","display":"Epidural injection of anesthetic substance, diagnostic, caudal, continuous"}]},"subject":{"reference":"Patient/c1dd1d9f-2529-40e2-98c8-c7ae44158cea"},"performedPeriod":{"start":"2026-04-11T08:00:00.000+00:00","end":"2026-04-11T10:15:00.000+00:00"}},"request":{"method":"PUT","url":"Procedure/432f6288-9f35-46e3-a9bf-8d0fb06eb396"}},{"resource":{"resourceType":"Bundle","id":"tests-IPFail-With-PayerSDECoverage-bundle","type":"transaction","entry":[{"fullUrl":"https://madie.cms.gov/Coverage/28f6b349-9f44-4622-bbae-3381db6d38a5","resource":{"resourceType":"Coverage","id":"28f6b349-9f44-4622-bbae-3381db6d38a5","meta":{"profile":["http://hl7.org/fhir/us/qicore/StructureDefinition/qicore-coverage"]},"identifier":[{"system":"http://benefitsinc.com/certificate","value":"12345"}],"status":"active","type":{"coding":[{"system":"https://nahdo.org/sopt","code":"59","display":"Other Private Insurance"}]},"policyHolder":{"reference":"Patient/c1dd1d9f-2529-40e2-98c8-c7ae44158cea"},"subscriber":{"reference":"Patient/c1dd1d9f-2529-40e2-98c8-c7ae44158cea"},"beneficiary":{"reference":"Patient/c1dd1d9f-2529-40e2-98c8-c7ae44158cea"},"dependent":"0","relationship":{"coding":[{"system":"http://terminology.hl7.org/CodeSystem/subscriber-relationship","code":"self"}]},"period":{"start":"2026-04-10T08:00:00.000+00:00","end":"2026-04-14T08:15:00.000+00:00"}},"request":{"method":"PUT","url":"Coverage/28f6b349-9f44-4622-bbae-3381db6d38a5"}},{"fullUrl":"https://madie.cms.gov/Encounter/5dc356a4-aa10-49b3-bfff-0cce51a66b41","resource":{"resourceType":"Encounter","id":"5dc356a4-aa10-49b3-bfff-0cce51a66b41","meta":{"profile":["http://hl7.org/fhir/us/qicore/StructureDefinition/qicore-encounter"]},"status":"finished","class":{"system":"http://terminology.hl7.org/CodeSystem/v3-ActCode","code":"PRENC","display":"pre-admission"},"type":[{"coding":[{"system":"http://snomed.info/sct","code":"112689000"}]}],"priority":{"coding":[{"system":"http://snomed.info/sct","version":"2023-09","code":"15584006","display":"Hospital admission, elective, with partial pre-admission work-up (procedure)"}]},"subject":{"reference":"Patient/c1dd1d9f-2529-40e2-98c8-c7ae44158cea"},"period":{"start":"2026-04-10T08:00:00.000+00:00","end":"2026-04-14T08:15:00.000+00:00"}},"request":{"method":"PUT","url":"Encounter/5dc356a4-aa10-49b3-bfff-0cce51a66b41"}},{"fullUrl":"https://madie.cms.gov/Procedure/432f6288-9f35-46e3-a9bf-8d0fb06eb396","resource":{"resourceType":"Procedure","id":"432f6288-9f35-46e3-a9bf-8d0fb06eb396","meta":{"profile":["http://hl7.org/fhir/us/qicore/StructureDefinition/qicore-procedure"]},"extension":[{"url":"http://hl7.org/fhir/us/qicore/StructureDefinition/qicore-recorded","valueDateTime":"2026-04-11T10:30:00.000+00:00"}],"status":"completed","category":{"coding":[{"system":"http://snomed.info/sct","code":"18286008","display":"General or neuraxial anesthesia"}]},"code":{"coding":[{"system":"http://snomed.info/sct","code":"112943005","display":"Epidural injection of anesthetic substance, diagnostic, caudal, continuous"}]},"subject":{"reference":"Patient/c1dd1d9f-2529-40e2-98c8-c7ae44158cea"},"performedPeriod":{"start":"2026-04-11T08:00:00.000+00:00","end":"2026-04-11T10:15:00.000+00:00"}},"request":{"method":"PUT","url":"Procedure/432f6288-9f35-46e3-a9bf-8d0fb06eb396"}},{"fullUrl":"https://madie.cms.gov/Patient/c1dd1d9f-2529-40e2-98c8-c7ae44158cea","resource":{"resourceType":"Patient","id":"c1dd1d9f-2529-40e2-98c8-c7ae44158cea","meta":{"profile":["http://hl7.org/fhir/us/qicore/StructureDefinition/qicore-patient"]},"extension":[{"url":"http://hl7.org/fhir/us/core/StructureDefinition/us-core-race","extension":[{"url":"ombCategory","valueCoding":{"system":"urn:oid:2.16.840.1.113883.6.238","code":"2028-9","display":"Asian","userSelected":true}},{"url":"text","valueString":"Asian"}]},{"url":"http://hl7.org/fhir/us/core/StructureDefinition/us-core-ethnicity","extension":[{"url":"ombCategory","valueCoding":{"system":"urn:oid:2.16.840.1.113883.6.238","code":"2186-5","display":"Not Hispanic or Latino","userSelected":true}},{"url":"text","valueString":"Not Hispanic or Latino"}]}],"identifier":[{"type":{"coding":[{"system":"http://terminology.hl7.org/CodeSystem/v2-0203","code":"MR"}]},"system":"https://bonnie-fhir.healthit.gov/","value":"61152a3b98086b7a79cbd7c1"}],"active":true,"name":[{"use":"usual","family":"IPPFail","given":["ObstetricalDiagnosis"]}],"gender":"female","birthDate":"1966-04-09"},"request":{"method":"PUT","url":"Patient/c1dd1d9f-2529-40e2-98c8-c7ae44158cea"}},{"fullUrl":"https://madie.cms.gov/Condition/f07db539-b34d-42e2-8df7-b6296d1be457","resource":{"resourceType":"Condition","id":"f07db539-b34d-42e2-8df7-b6296d1be457","meta":{"profile":["http://hl7.org/fhir/us/qicore/StructureDefinition/qicore-condition"]},"clinicalStatus":{"coding":[{"system":"http://terminology.hl7.org/CodeSystem/condition-clinical","code":"active"}]},"verificationStatus":{"coding":[{"system":"http://terminology.hl7.org/CodeSystem/condition-ver-status","code":"confirmed"}]},"category":[{"coding":[{"system":"http://terminology.hl7.org/CodeSystem/condition-category","code":"encounter-diagnosis","display":"Encounter Diagnosis"}]}],"code":{"coding":[{"system":"http://snomed.info/sct","code":"10749811000119108"}]},"subject":{"reference":"Patient/c1dd1d9f-2529-40e2-98c8-c7ae44158cea"},"encounter":{"reference":"Encounter/5dc356a4-aa10-49b3-bfff-0cce51a66b41"}},"request":{"method":"PUT","url":"Condition/f07db539-b34d-42e2-8df7-b6296d1be457"}},{"fullUrl":"https://madie.cms.gov/MeasureReport/6b30bec3-cb9b-454b-8e3b-68b1e74e50d3","resource":{"resourceType":"MeasureReport","id":"6b30bec3-cb9b-454b-8e3b-68b1e74e50d3","meta":{"profile":["http://hl7.org/fhir/us/cqfmeasures/StructureDefinition/test-case-cqfm"]},"contained":[{"resourceType":"Parameters","id":"fca26eae-2e35-47ec-a697-2aad22bf1aed-parameters","parameter":[{"name":"subject","valueString":"c1dd1d9f-2529-40e2-98c8-c7ae44158cea"}]}],"extension":[{"url":"http://hl7.org/fhir/StructureDefinition/cqf-inputParameters","valueReference":{"reference":"#fca26eae-2e35-47ec-a697-2aad22bf1aed-parameters"}},{"url":"http://hl7.org/fhir/us/cqfmeasures/StructureDefinition/cqfm-testCaseDescription","valueMarkdown":"Fails initial population, but Coverage contains payer information, satisfying SDE Payer requirements"}],"modifierExtension":[{"url":"http://hl7.org/fhir/us/cqfmeasures/StructureDefinition/cqfm-isTestCase","valueBoolean":true}],"status":"complete","type":"individual","measure":"https://madie.cms.gov/Measure/CMS1218FHIRHHRF","period":{"start":"2026-01-01","end":"2026-12-31"},"group":[{"id":"Group_1","population":[{"id":"InitialPopulation_1","code":{"coding":[{"system":"http://terminology.hl7.org/CodeSystem/measure-population","code":"initial-population","display":"Initial Population"}]},"count":0},{"id":"Denominator_1","code":{"coding":[{"system":"http://terminology.hl7.org/CodeSystem/measure-population","code":"denominator","display":"Denominator"}]},"count":0},{"id":"DenominatorExclusion_1","code":{"coding":[{"system":"http://terminology.hl7.org/CodeSystem/measure-population","code":"denominator-exclusion","display":"Denominator Exclusion"}]},"count":0},{"id":"Numerator_1","code":{"coding":[{"system":"http://terminology.hl7.org/CodeSystem/measure-population","code":"numerator","display":"Numerator"}]},"count":0}],"measureScore":{"value":0.0}}],"evaluatedResource":[{"reference":"Coverage/28f6b349-9f44-4622-bbae-3381db6d38a5"},{"reference":"Encounter/5dc356a4-aa10-49b3-bfff-0cce51a66b41"},{"reference":"Procedure/432f6288-9f35-46e3-a9bf-8d0fb06eb396"},{"reference":"Patient/c1dd1d9f-2529-40e2-98c8-c7ae44158cea"},{"reference":"Condition/f07db539-b34d-42e2-8df7-b6296d1be457"}]},"request":{"method":"PUT","url":"MeasureReport/6b30bec3-cb9b-454b-8e3b-68b1e74e50d3"}}]},"request":{"method":"PUT","url":"Bundle/tests-IPFail-With-PayerSDECoverage-bundle"}},{"resource":{"resourceType":"Coverage","id":"28f6b349-9f44-4622-bbae-3381db6d38a5","meta":{"profile":["http://hl7.org/fhir/us/qicore/StructureDefinition/qicore-coverage"]},"identifier":[{"system":"http://benefitsinc.com/certificate","value":"12345"}],"status":"active","type":{"coding":[{"system":"https://nahdo.org/sopt","code":"59","display":"Other Private Insurance"}]},"policyHolder":{"reference":"Patient/c1dd1d9f-2529-40e2-98c8-c7ae44158cea"},"subscriber":{"reference":"Patient/c1dd1d9f-2529-40e2-98c8-c7ae44158cea"},"beneficiary":{"reference":"Patient/c1dd1d9f-2529-40e2-98c8-c7ae44158cea"},"dependent":"0","relationship":{"coding":[{"system":"http://terminology.hl7.org/CodeSystem/subscriber-relationship","code":"self"}]},"period":{"start":"2026-04-10T08:00:00.000+00:00","end":"2026-04-14T08:15:00.000+00:00"}},"request":{"method":"PUT","url":"Coverage/28f6b349-9f44-4622-bbae-3381db6d38a5"}},{"resource":{"resourceType":"Encounter","id":"5dc356a4-aa10-49b3-bfff-0cce51a66b41","meta":{"profile":["http://hl7.org/fhir/us/qicore/StructureDefinition/qicore-encounter"]},"status":"finished","class":{"system":"http://terminology.hl7.org/CodeSystem/v3-ActCode","code":"PRENC","display":"pre-admission"},"type":[{"coding":[{"system":"http://snomed.info/sct","code":"112689000"}]}],"priority":{"coding":[{"system":"http://snomed.info/sct","version":"2023-09","code":"15584006","display":"Hospital admission, elective, with partial pre-admission work-up (procedure)"}]},"subject":{"reference":"Patient/c1dd1d9f-2529-40e2-98c8-c7ae44158cea"},"period":{"start":"2026-04-10T08:00:00.000+00:00","end":"2026-04-14T08:15:00.000+00:00"}},"request":{"method":"PUT","url":"Encounter/5dc356a4-aa10-49b3-bfff-0cce51a66b41"}}]}