{"resourceType":"Bundle","id":"tests-1f6b9700-837c-41c6-8117-02939ef57de8-bundle","type":"transaction","entry":[{"resource":{"resourceType":"Procedure","id":"e6210906-e2ed-4eda-bb53-218ff8363dfe","meta":{"profile":["http://hl7.org/fhir/us/qicore/StructureDefinition/qicore-procedure"]},"extension":[{"url":"http://hl7.org/fhir/us/qicore/StructureDefinition/qicore-recorded","valueDateTime":"2026-04-11T10:30:00.000+00:00"}],"status":"completed","category":{"coding":[{"system":"http://snomed.info/sct","code":"18286008","display":"General or neuraxial anesthesia"}]},"code":{"coding":[{"system":"http://snomed.info/sct","code":"112943005","display":"Epidural injection of anesthetic substance, diagnostic, caudal, continuous"}]},"subject":{"reference":"Patient/1f6b9700-837c-41c6-8117-02939ef57de8"},"performedPeriod":{"start":"2026-04-11T08:00:00.000+00:00","end":"2026-04-11T10:15:00.000+00:00"}},"request":{"method":"PUT","url":"Procedure/e6210906-e2ed-4eda-bb53-218ff8363dfe"}},{"resource":{"resourceType":"Observation","id":"a6cad3fd-5be9-4bab-a924-4ea71797c0e5","meta":{"profile":["http://hl7.org/fhir/us/qicore/StructureDefinition/qicore-observation-lab"]},"status":"final","category":[{"coding":[{"system":"http://terminology.hl7.org/CodeSystem/observation-category","code":"laboratory","display":"Laboratory"}],"text":"Laboratory"}],"code":{"coding":[{"system":"http://loinc.org","code":"20509-6","display":"Hemoglobin Lab Test"}],"text":"Hemoglobin Lab Test"},"subject":{"reference":"Patient/1f6b9700-837c-41c6-8117-02939ef57de8"},"encounter":{"reference":"Encounter/c60d83ff-c0b5-412d-9a1a-800ddf240da7"},"effectiveDateTime":"2026-04-12T08:00:00.000+00:00","valueQuantity":{"value":15,"unit":"mmol/L","system":"http://unitsofmeasure.org","code":"mmol/L"}},"request":{"method":"PUT","url":"Observation/a6cad3fd-5be9-4bab-a924-4ea71797c0e5"}},{"resource":{"resourceType":"Bundle","id":"tests-1f6b9700-837c-41c6-8117-02939ef57de8-bundle","type":"transaction","entry":[{"fullUrl":"https://madie.cms.gov/Procedure/e6210906-e2ed-4eda-bb53-218ff8363dfe","resource":{"resourceType":"Procedure","id":"e6210906-e2ed-4eda-bb53-218ff8363dfe","meta":{"profile":["http://hl7.org/fhir/us/qicore/StructureDefinition/qicore-procedure"]},"extension":[{"url":"http://hl7.org/fhir/us/qicore/StructureDefinition/qicore-recorded","valueDateTime":"2026-04-11T10:30:00.000+00:00"}],"status":"completed","category":{"coding":[{"system":"http://snomed.info/sct","code":"18286008","display":"General or neuraxial anesthesia"}]},"code":{"coding":[{"system":"http://snomed.info/sct","code":"112943005","display":"Epidural injection of anesthetic substance, diagnostic, caudal, continuous"}]},"subject":{"reference":"Patient/1f6b9700-837c-41c6-8117-02939ef57de8"},"performedPeriod":{"start":"2026-04-11T08:00:00.000+00:00","end":"2026-04-11T10:15:00.000+00:00"}},"request":{"method":"PUT","url":"Procedure/e6210906-e2ed-4eda-bb53-218ff8363dfe"}},{"fullUrl":"https://madie.cms.gov/Patient/1f6b9700-837c-41c6-8117-02939ef57de8","resource":{"resourceType":"Patient","id":"1f6b9700-837c-41c6-8117-02939ef57de8","meta":{"profile":["http://hl7.org/fhir/us/qicore/StructureDefinition/qicore-patient"]},"extension":[{"url":"http://hl7.org/fhir/us/core/StructureDefinition/us-core-race","extension":[{"url":"ombCategory","valueCoding":{"system":"urn:oid:2.16.840.1.113883.6.238","code":"2054-5","display":"Black or African American","userSelected":true}},{"url":"text","valueString":"Black or African American"}]},{"url":"http://hl7.org/fhir/us/core/StructureDefinition/us-core-ethnicity","extension":[{"url":"ombCategory","valueCoding":{"system":"urn:oid:2.16.840.1.113883.6.238","code":"2186-5","display":"Not Hispanic or Latino","userSelected":true}},{"url":"text","valueString":"Not Hispanic or Latino"}]}],"identifier":[{"type":{"coding":[{"system":"http://terminology.hl7.org/CodeSystem/v2-0203","code":"MR"}]},"system":"https://bonnie-fhir.healthit.gov/","value":"61152a3b98086b7a79cbd7c1"}],"active":true,"name":[{"use":"usual","family":"DENOMPass","given":["RiskVFirstHemoglobinMmolLunits"]}],"gender":"female","birthDate":"1966-07-12"},"request":{"method":"PUT","url":"Patient/1f6b9700-837c-41c6-8117-02939ef57de8"}},{"fullUrl":"https://madie.cms.gov/Observation/ba5cdd59-26e2-4ae1-b52b-30e92bfcdf72","resource":{"resourceType":"Observation","id":"ba5cdd59-26e2-4ae1-b52b-30e92bfcdf72","meta":{"profile":["http://hl7.org/fhir/us/qicore/StructureDefinition/qicore-observation-lab"]},"status":"final","category":[{"coding":[{"system":"http://terminology.hl7.org/CodeSystem/observation-category","code":"laboratory","display":"Laboratory"}],"text":"Laboratory"}],"code":{"coding":[{"system":"http://loinc.org","code":"20509-6","display":"Hemoglobin Lab Test"}],"text":"Hemoglobin Lab Test"},"subject":{"reference":"Patient/1f6b9700-837c-41c6-8117-02939ef57de8"},"encounter":{"reference":"Encounter/c60d83ff-c0b5-412d-9a1a-800ddf240da7"},"effectiveDateTime":"2026-04-11T08:00:00.000+00:00","valueQuantity":{"value":12,"unit":"mmol/L","system":"http://unitsofmeasure.org","code":"mmol/L"}},"request":{"method":"PUT","url":"Observation/ba5cdd59-26e2-4ae1-b52b-30e92bfcdf72"}},{"fullUrl":"https://madie.cms.gov/Observation/a6cad3fd-5be9-4bab-a924-4ea71797c0e5","resource":{"resourceType":"Observation","id":"a6cad3fd-5be9-4bab-a924-4ea71797c0e5","meta":{"profile":["http://hl7.org/fhir/us/qicore/StructureDefinition/qicore-observation-lab"]},"status":"final","category":[{"coding":[{"system":"http://terminology.hl7.org/CodeSystem/observation-category","code":"laboratory","display":"Laboratory"}],"text":"Laboratory"}],"code":{"coding":[{"system":"http://loinc.org","code":"20509-6","display":"Hemoglobin Lab Test"}],"text":"Hemoglobin Lab Test"},"subject":{"reference":"Patient/1f6b9700-837c-41c6-8117-02939ef57de8"},"encounter":{"reference":"Encounter/c60d83ff-c0b5-412d-9a1a-800ddf240da7"},"effectiveDateTime":"2026-04-12T08:00:00.000+00:00","valueQuantity":{"value":15,"unit":"mmol/L","system":"http://unitsofmeasure.org","code":"mmol/L"}},"request":{"method":"PUT","url":"Observation/a6cad3fd-5be9-4bab-a924-4ea71797c0e5"}},{"fullUrl":"https://madie.cms.gov/Encounter/c60d83ff-c0b5-412d-9a1a-800ddf240da7","resource":{"resourceType":"Encounter","id":"c60d83ff-c0b5-412d-9a1a-800ddf240da7","meta":{"profile":["http://hl7.org/fhir/us/qicore/StructureDefinition/qicore-encounter"]},"status":"finished","class":{"system":"http://terminology.hl7.org/CodeSystem/v3-ActCode","code":"IMP","display":"inpatient encounter"},"type":[{"coding":[{"system":"http://snomed.info/sct","code":"112689000","display":"Hospital admission, elective, with complete pre-admission work-up"}],"text":"Hospital admission, elective, with complete pre-admission work-up"}],"priority":{"coding":[{"system":"http://snomed.info/sct","code":"103390000"}]},"subject":{"reference":"Patient/1f6b9700-837c-41c6-8117-02939ef57de8"},"period":{"start":"2026-04-10T08:00:00.000+00:00","end":"2026-04-14T08:15:00.000+00:00"},"diagnosis":[{"condition":{"reference":"Procedure/e6210906-e2ed-4eda-bb53-218ff8363dfe"},"rank":1}]},"request":{"method":"PUT","url":"Encounter/c60d83ff-c0b5-412d-9a1a-800ddf240da7"}},{"fullUrl":"https://madie.cms.gov/MeasureReport/fdc1b46d-a748-435e-9861-319c33469e74","resource":{"resourceType":"MeasureReport","id":"fdc1b46d-a748-435e-9861-319c33469e74","meta":{"profile":["http://hl7.org/fhir/us/cqfmeasures/StructureDefinition/test-case-cqfm"]},"contained":[{"resourceType":"Parameters","id":"f8c8eab9-f47e-4f78-8355-0fcf5fe1b2f8-parameters","parameter":[{"name":"subject","valueString":"1f6b9700-837c-41c6-8117-02939ef57de8"}]}],"extension":[{"url":"http://hl7.org/fhir/StructureDefinition/cqf-inputParameters","valueReference":{"reference":"#f8c8eab9-f47e-4f78-8355-0fcf5fe1b2f8-parameters"}},{"url":"http://hl7.org/fhir/us/cqfmeasures/StructureDefinition/cqfm-testCaseDescription","valueMarkdown":"Elective hospitalization with procedure (general anesthesia) within first 3 days of encounter. Meets IPP/Denom. RV test includes 2 hemoglobin values; RV displays the first (12 mmol/L) not the second (15 mmol/L), as expected. \n"}],"modifierExtension":[{"url":"http://hl7.org/fhir/us/cqfmeasures/StructureDefinition/cqfm-isTestCase","valueBoolean":true}],"status":"complete","type":"individual","measure":"https://madie.cms.gov/Measure/CMS1218FHIRHHRF","period":{"start":"2026-01-01","end":"2026-12-31"},"group":[{"id":"Group_1","population":[{"id":"InitialPopulation_1","code":{"coding":[{"system":"http://terminology.hl7.org/CodeSystem/measure-population","code":"initial-population","display":"Initial Population"}]},"count":1},{"id":"Denominator_1","code":{"coding":[{"system":"http://terminology.hl7.org/CodeSystem/measure-population","code":"denominator","display":"Denominator"}]},"count":1},{"id":"DenominatorExclusion_1","code":{"coding":[{"system":"http://terminology.hl7.org/CodeSystem/measure-population","code":"denominator-exclusion","display":"Denominator Exclusion"}]},"count":0},{"id":"Numerator_1","code":{"coding":[{"system":"http://terminology.hl7.org/CodeSystem/measure-population","code":"numerator","display":"Numerator"}]},"count":0}],"measureScore":{"value":0.0}}],"evaluatedResource":[{"reference":"Procedure/e6210906-e2ed-4eda-bb53-218ff8363dfe"},{"reference":"Patient/1f6b9700-837c-41c6-8117-02939ef57de8"},{"reference":"Observation/ba5cdd59-26e2-4ae1-b52b-30e92bfcdf72"},{"reference":"Observation/a6cad3fd-5be9-4bab-a924-4ea71797c0e5"},{"reference":"Encounter/c60d83ff-c0b5-412d-9a1a-800ddf240da7"}]},"request":{"method":"PUT","url":"MeasureReport/fdc1b46d-a748-435e-9861-319c33469e74"}}]},"request":{"method":"PUT","url":"Bundle/tests-1f6b9700-837c-41c6-8117-02939ef57de8-bundle"}},{"resource":{"resourceType":"Patient","id":"1f6b9700-837c-41c6-8117-02939ef57de8","meta":{"profile":["http://hl7.org/fhir/us/qicore/StructureDefinition/qicore-patient"]},"extension":[{"url":"http://hl7.org/fhir/us/core/StructureDefinition/us-core-race","extension":[{"url":"ombCategory","valueCoding":{"system":"urn:oid:2.16.840.1.113883.6.238","code":"2054-5","display":"Black or African American","userSelected":true}},{"url":"text","valueString":"Black or African American"}]},{"url":"http://hl7.org/fhir/us/core/StructureDefinition/us-core-ethnicity","extension":[{"url":"ombCategory","valueCoding":{"system":"urn:oid:2.16.840.1.113883.6.238","code":"2186-5","display":"Not Hispanic or Latino","userSelected":true}},{"url":"text","valueString":"Not Hispanic or Latino"}]}],"identifier":[{"type":{"coding":[{"system":"http://terminology.hl7.org/CodeSystem/v2-0203","code":"MR"}]},"system":"https://bonnie-fhir.healthit.gov/","value":"61152a3b98086b7a79cbd7c1"}],"active":true,"name":[{"use":"usual","family":"DENOMPass","given":["RiskVFirstHemoglobinMmolLunits"]}],"gender":"female","birthDate":"1966-07-12"},"request":{"method":"PUT","url":"Patient/1f6b9700-837c-41c6-8117-02939ef57de8"}},{"resource":{"resourceType":"MeasureReport","id":"fdc1b46d-a748-435e-9861-319c33469e74","meta":{"profile":["http://hl7.org/fhir/us/cqfmeasures/StructureDefinition/test-case-cqfm"]},"contained":[{"resourceType":"Parameters","id":"f8c8eab9-f47e-4f78-8355-0fcf5fe1b2f8-parameters","parameter":[{"name":"subject","valueString":"1f6b9700-837c-41c6-8117-02939ef57de8"}]}],"extension":[{"url":"http://hl7.org/fhir/StructureDefinition/cqf-inputParameters","valueReference":{"reference":"#f8c8eab9-f47e-4f78-8355-0fcf5fe1b2f8-parameters"}},{"url":"http://hl7.org/fhir/us/cqfmeasures/StructureDefinition/cqfm-testCaseDescription","valueMarkdown":"Elective hospitalization with procedure (general anesthesia) within first 3 days of encounter. Meets IPP/Denom. RV test includes 2 hemoglobin values; RV displays the first (12 mmol/L) not the second (15 mmol/L), as expected. \n"}],"modifierExtension":[{"url":"http://hl7.org/fhir/us/cqfmeasures/StructureDefinition/cqfm-isTestCase","valueBoolean":true}],"status":"complete","type":"individual","measure":"https://madie.cms.gov/Measure/CMS1218FHIRHHRF","period":{"start":"2026-01-01","end":"2026-12-31"},"group":[{"id":"Group_1","population":[{"id":"InitialPopulation_1","code":{"coding":[{"system":"http://terminology.hl7.org/CodeSystem/measure-population","code":"initial-population","display":"Initial Population"}]},"count":1},{"id":"Denominator_1","code":{"coding":[{"system":"http://terminology.hl7.org/CodeSystem/measure-population","code":"denominator","display":"Denominator"}]},"count":1},{"id":"DenominatorExclusion_1","code":{"coding":[{"system":"http://terminology.hl7.org/CodeSystem/measure-population","code":"denominator-exclusion","display":"Denominator Exclusion"}]},"count":0},{"id":"Numerator_1","code":{"coding":[{"system":"http://terminology.hl7.org/CodeSystem/measure-population","code":"numerator","display":"Numerator"}]},"count":0}],"measureScore":{"value":0.0}}],"evaluatedResource":[{"reference":"Procedure/e6210906-e2ed-4eda-bb53-218ff8363dfe"},{"reference":"Patient/1f6b9700-837c-41c6-8117-02939ef57de8"},{"reference":"Observation/ba5cdd59-26e2-4ae1-b52b-30e92bfcdf72"},{"reference":"Observation/a6cad3fd-5be9-4bab-a924-4ea71797c0e5"},{"reference":"Encounter/c60d83ff-c0b5-412d-9a1a-800ddf240da7"}]},"request":{"method":"PUT","url":"MeasureReport/fdc1b46d-a748-435e-9861-319c33469e74"}},{"resource":{"resourceType":"Encounter","id":"c60d83ff-c0b5-412d-9a1a-800ddf240da7","meta":{"profile":["http://hl7.org/fhir/us/qicore/StructureDefinition/qicore-encounter"]},"status":"finished","class":{"system":"http://terminology.hl7.org/CodeSystem/v3-ActCode","code":"IMP","display":"inpatient encounter"},"type":[{"coding":[{"system":"http://snomed.info/sct","code":"112689000","display":"Hospital admission, elective, with complete pre-admission work-up"}],"text":"Hospital admission, elective, with complete pre-admission work-up"}],"priority":{"coding":[{"system":"http://snomed.info/sct","code":"103390000"}]},"subject":{"reference":"Patient/1f6b9700-837c-41c6-8117-02939ef57de8"},"period":{"start":"2026-04-10T08:00:00.000+00:00","end":"2026-04-14T08:15:00.000+00:00"},"diagnosis":[{"condition":{"reference":"Procedure/e6210906-e2ed-4eda-bb53-218ff8363dfe"},"rank":1}]},"request":{"method":"PUT","url":"Encounter/c60d83ff-c0b5-412d-9a1a-800ddf240da7"}},{"resource":{"resourceType":"Observation","id":"ba5cdd59-26e2-4ae1-b52b-30e92bfcdf72","meta":{"profile":["http://hl7.org/fhir/us/qicore/StructureDefinition/qicore-observation-lab"]},"status":"final","category":[{"coding":[{"system":"http://terminology.hl7.org/CodeSystem/observation-category","code":"laboratory","display":"Laboratory"}],"text":"Laboratory"}],"code":{"coding":[{"system":"http://loinc.org","code":"20509-6","display":"Hemoglobin Lab Test"}],"text":"Hemoglobin Lab Test"},"subject":{"reference":"Patient/1f6b9700-837c-41c6-8117-02939ef57de8"},"encounter":{"reference":"Encounter/c60d83ff-c0b5-412d-9a1a-800ddf240da7"},"effectiveDateTime":"2026-04-11T08:00:00.000+00:00","valueQuantity":{"value":12,"unit":"mmol/L","system":"http://unitsofmeasure.org","code":"mmol/L"}},"request":{"method":"PUT","url":"Observation/ba5cdd59-26e2-4ae1-b52b-30e92bfcdf72"}}]}