{"resourceType":"Bundle","id":"tests-a40acaba-9191-4e65-8e32-cf3d48ec1964-bundle","type":"transaction","entry":[{"resource":{"resourceType":"Encounter","id":"64b189b0-1ce2-4294-89ad-161614544a1b","meta":{"profile":["http://hl7.org/fhir/us/qicore/StructureDefinition/qicore-encounter"]},"status":"finished","class":{"system":"http://terminology.hl7.org/CodeSystem/v3-ActCode","code":"IMP","display":"inpatient encounter"},"type":[{"coding":[{"system":"http://snomed.info/sct","code":"112689000","display":"Hospital admission, elective, with complete pre-admission work-up"}],"text":"Hospital admission, elective, with complete pre-admission work-up"}],"priority":{"coding":[{"system":"http://snomed.info/sct","code":"103390000"}]},"subject":{"reference":"Patient/a40acaba-9191-4e65-8e32-cf3d48ec1964"},"period":{"start":"2026-04-10T08:00:00.000+00:00","end":"2026-04-14T08:15:00.000+00:00"},"diagnosis":[{"condition":{"reference":"Procedure/3ba90a2d-373a-47be-a8d2-45c698c37fa4"},"rank":1}]},"request":{"method":"PUT","url":"Encounter/64b189b0-1ce2-4294-89ad-161614544a1b"}},{"resource":{"resourceType":"Observation","id":"e18ee576-a637-44de-850f-d0664b0d2ada","meta":{"profile":["http://hl7.org/fhir/us/qicore/StructureDefinition/qicore-observation-lab"]},"status":"final","category":[{"coding":[{"system":"http://terminology.hl7.org/CodeSystem/observation-category","code":"laboratory","display":"Laboratory"}],"text":"Laboratory"}],"code":{"coding":[{"system":"http://loinc.org","code":"72166-2","display":"Tobacco smoking status"}],"text":"Tobacco smoking status "},"subject":{"reference":"Patient/a40acaba-9191-4e65-8e32-cf3d48ec1964"},"encounter":{"reference":"Encounter/64b189b0-1ce2-4294-89ad-161614544a1b"},"effectiveDateTime":"2026-04-04T08:00:00.000+00:00","valueQuantity":{"value":12,"unit":"mmol/L","system":"http://unitsofmeasure.org","code":"mmol/L"}},"request":{"method":"PUT","url":"Observation/e18ee576-a637-44de-850f-d0664b0d2ada"}},{"resource":{"resourceType":"MeasureReport","id":"ee3de653-347a-4137-903d-6c4b733d414f","meta":{"profile":["http://hl7.org/fhir/us/cqfmeasures/StructureDefinition/test-case-cqfm"]},"contained":[{"resourceType":"Parameters","id":"bfd71fe6-6dc3-4a20-99ea-f0c3d5f7dad5-parameters","parameter":[{"name":"subject","valueString":"a40acaba-9191-4e65-8e32-cf3d48ec1964"}]}],"extension":[{"url":"http://hl7.org/fhir/StructureDefinition/cqf-inputParameters","valueReference":{"reference":"#bfd71fe6-6dc3-4a20-99ea-f0c3d5f7dad5-parameters"}},{"url":"http://hl7.org/fhir/us/cqfmeasures/StructureDefinition/cqfm-testCaseDescription","valueMarkdown":"Elective hosp with proc (general anesthesia) within 3 days of encounter. 2 smoking status assessments before enc start. Result displays correctly from the latest one (most recent): : 230065006 Chain smoker"}],"modifierExtension":[{"url":"http://hl7.org/fhir/us/cqfmeasures/StructureDefinition/cqfm-isTestCase","valueBoolean":true}],"status":"complete","type":"individual","measure":"https://madie.cms.gov/Measure/CMS1218FHIRHHRF","period":{"start":"2026-01-01","end":"2026-12-31"},"group":[{"id":"Group_1","population":[{"id":"InitialPopulation_1","code":{"coding":[{"system":"http://terminology.hl7.org/CodeSystem/measure-population","code":"initial-population","display":"Initial Population"}]},"count":1},{"id":"Denominator_1","code":{"coding":[{"system":"http://terminology.hl7.org/CodeSystem/measure-population","code":"denominator","display":"Denominator"}]},"count":1},{"id":"DenominatorExclusion_1","code":{"coding":[{"system":"http://terminology.hl7.org/CodeSystem/measure-population","code":"denominator-exclusion","display":"Denominator Exclusion"}]},"count":0},{"id":"Numerator_1","code":{"coding":[{"system":"http://terminology.hl7.org/CodeSystem/measure-population","code":"numerator","display":"Numerator"}]},"count":0}],"measureScore":{"value":0.0}}],"evaluatedResource":[{"reference":"Procedure/3ba90a2d-373a-47be-a8d2-45c698c37fa4"},{"reference":"Patient/a40acaba-9191-4e65-8e32-cf3d48ec1964"},{"reference":"Observation/e18ee576-a637-44de-850f-d0664b0d2ada"},{"reference":"Observation/bbdabc32-9aac-4d29-8b80-b7de0452a30c"},{"reference":"Encounter/64b189b0-1ce2-4294-89ad-161614544a1b"}]},"request":{"method":"PUT","url":"MeasureReport/ee3de653-347a-4137-903d-6c4b733d414f"}},{"resource":{"resourceType":"Patient","id":"a40acaba-9191-4e65-8e32-cf3d48ec1964","meta":{"profile":["http://hl7.org/fhir/us/qicore/StructureDefinition/qicore-patient"]},"extension":[{"url":"http://hl7.org/fhir/us/core/StructureDefinition/us-core-race","extension":[{"url":"ombCategory","valueCoding":{"system":"urn:oid:2.16.840.1.113883.6.238","code":"2054-5","display":"Black or African American","userSelected":true}},{"url":"text","valueString":"Black or African American"}]},{"url":"http://hl7.org/fhir/us/core/StructureDefinition/us-core-ethnicity","extension":[{"url":"ombCategory","valueCoding":{"system":"urn:oid:2.16.840.1.113883.6.238","code":"2186-5","display":"Not Hispanic or Latino","userSelected":true}},{"url":"text","valueString":"Not Hispanic or Latino"}]}],"identifier":[{"type":{"coding":[{"system":"http://terminology.hl7.org/CodeSystem/v2-0203","code":"MR"}]},"system":"https://bonnie-fhir.healthit.gov/","value":"61152a3b98086b7a79cbd7c1"}],"active":true,"name":[{"use":"usual","family":"DENOMPass","given":["RiskVariableSmokingStatus2BeforeEnc"]}],"gender":"female","birthDate":"1966-07-12"},"request":{"method":"PUT","url":"Patient/a40acaba-9191-4e65-8e32-cf3d48ec1964"}},{"resource":{"resourceType":"Bundle","id":"tests-a40acaba-9191-4e65-8e32-cf3d48ec1964-bundle","type":"transaction","entry":[{"fullUrl":"https://madie.cms.gov/Procedure/3ba90a2d-373a-47be-a8d2-45c698c37fa4","resource":{"resourceType":"Procedure","id":"3ba90a2d-373a-47be-a8d2-45c698c37fa4","meta":{"profile":["http://hl7.org/fhir/us/qicore/StructureDefinition/qicore-procedure"]},"extension":[{"url":"http://hl7.org/fhir/us/qicore/StructureDefinition/qicore-recorded","valueDateTime":"2026-04-11T10:30:00.000+00:00"}],"status":"completed","category":{"coding":[{"system":"http://snomed.info/sct","code":"18286008","display":"General or neuraxial anesthesia"}]},"code":{"coding":[{"system":"http://snomed.info/sct","code":"112943005","display":"Epidural injection of anesthetic substance, diagnostic, caudal, continuous"}]},"subject":{"reference":"Patient/a40acaba-9191-4e65-8e32-cf3d48ec1964"},"performedPeriod":{"start":"2026-04-11T08:00:00.000+00:00","end":"2026-04-11T10:15:00.000+00:00"}},"request":{"method":"PUT","url":"Procedure/3ba90a2d-373a-47be-a8d2-45c698c37fa4"}},{"fullUrl":"https://madie.cms.gov/Patient/a40acaba-9191-4e65-8e32-cf3d48ec1964","resource":{"resourceType":"Patient","id":"a40acaba-9191-4e65-8e32-cf3d48ec1964","meta":{"profile":["http://hl7.org/fhir/us/qicore/StructureDefinition/qicore-patient"]},"extension":[{"url":"http://hl7.org/fhir/us/core/StructureDefinition/us-core-race","extension":[{"url":"ombCategory","valueCoding":{"system":"urn:oid:2.16.840.1.113883.6.238","code":"2054-5","display":"Black or African American","userSelected":true}},{"url":"text","valueString":"Black or African American"}]},{"url":"http://hl7.org/fhir/us/core/StructureDefinition/us-core-ethnicity","extension":[{"url":"ombCategory","valueCoding":{"system":"urn:oid:2.16.840.1.113883.6.238","code":"2186-5","display":"Not Hispanic or Latino","userSelected":true}},{"url":"text","valueString":"Not Hispanic or Latino"}]}],"identifier":[{"type":{"coding":[{"system":"http://terminology.hl7.org/CodeSystem/v2-0203","code":"MR"}]},"system":"https://bonnie-fhir.healthit.gov/","value":"61152a3b98086b7a79cbd7c1"}],"active":true,"name":[{"use":"usual","family":"DENOMPass","given":["RiskVariableSmokingStatus2BeforeEnc"]}],"gender":"female","birthDate":"1966-07-12"},"request":{"method":"PUT","url":"Patient/a40acaba-9191-4e65-8e32-cf3d48ec1964"}},{"fullUrl":"https://madie.cms.gov/Observation/e18ee576-a637-44de-850f-d0664b0d2ada","resource":{"resourceType":"Observation","id":"e18ee576-a637-44de-850f-d0664b0d2ada","meta":{"profile":["http://hl7.org/fhir/us/qicore/StructureDefinition/qicore-observation-lab"]},"status":"final","category":[{"coding":[{"system":"http://terminology.hl7.org/CodeSystem/observation-category","code":"laboratory","display":"Laboratory"}],"text":"Laboratory"}],"code":{"coding":[{"system":"http://loinc.org","code":"72166-2","display":"Tobacco smoking status"}],"text":"Tobacco smoking status "},"subject":{"reference":"Patient/a40acaba-9191-4e65-8e32-cf3d48ec1964"},"encounter":{"reference":"Encounter/64b189b0-1ce2-4294-89ad-161614544a1b"},"effectiveDateTime":"2026-04-04T08:00:00.000+00:00","valueQuantity":{"value":12,"unit":"mmol/L","system":"http://unitsofmeasure.org","code":"mmol/L"}},"request":{"method":"PUT","url":"Observation/e18ee576-a637-44de-850f-d0664b0d2ada"}},{"fullUrl":"https://madie.cms.gov/Observation/bbdabc32-9aac-4d29-8b80-b7de0452a30c","resource":{"resourceType":"Observation","id":"bbdabc32-9aac-4d29-8b80-b7de0452a30c","meta":{"profile":["http://hl7.org/fhir/us/qicore/StructureDefinition/qicore-observation-lab"]},"status":"final","category":[{"coding":[{"system":"http://terminology.hl7.org/CodeSystem/observation-category","code":"laboratory","display":"Laboratory"}],"text":"Laboratory"}],"code":{"coding":[{"system":"http://loinc.org","code":"72166-2","display":"Tobacco smoking status"}],"text":"Tobacco smoking status "},"subject":{"reference":"Patient/a40acaba-9191-4e65-8e32-cf3d48ec1964"},"encounter":{"reference":"Encounter/64b189b0-1ce2-4294-89ad-161614544a1b"},"effectiveDateTime":"2026-04-07T08:00:00.000+00:00","valueCodeableConcept":{"coding":[{"system":"http://snomed.info/sct","code":"230065006","display":"Chain smoker (finding)"}]}},"request":{"method":"PUT","url":"Observation/bbdabc32-9aac-4d29-8b80-b7de0452a30c"}},{"fullUrl":"https://madie.cms.gov/Encounter/64b189b0-1ce2-4294-89ad-161614544a1b","resource":{"resourceType":"Encounter","id":"64b189b0-1ce2-4294-89ad-161614544a1b","meta":{"profile":["http://hl7.org/fhir/us/qicore/StructureDefinition/qicore-encounter"]},"status":"finished","class":{"system":"http://terminology.hl7.org/CodeSystem/v3-ActCode","code":"IMP","display":"inpatient encounter"},"type":[{"coding":[{"system":"http://snomed.info/sct","code":"112689000","display":"Hospital admission, elective, with complete pre-admission work-up"}],"text":"Hospital admission, elective, with complete pre-admission work-up"}],"priority":{"coding":[{"system":"http://snomed.info/sct","code":"103390000"}]},"subject":{"reference":"Patient/a40acaba-9191-4e65-8e32-cf3d48ec1964"},"period":{"start":"2026-04-10T08:00:00.000+00:00","end":"2026-04-14T08:15:00.000+00:00"},"diagnosis":[{"condition":{"reference":"Procedure/3ba90a2d-373a-47be-a8d2-45c698c37fa4"},"rank":1}]},"request":{"method":"PUT","url":"Encounter/64b189b0-1ce2-4294-89ad-161614544a1b"}},{"fullUrl":"https://madie.cms.gov/MeasureReport/ee3de653-347a-4137-903d-6c4b733d414f","resource":{"resourceType":"MeasureReport","id":"ee3de653-347a-4137-903d-6c4b733d414f","meta":{"profile":["http://hl7.org/fhir/us/cqfmeasures/StructureDefinition/test-case-cqfm"]},"contained":[{"resourceType":"Parameters","id":"bfd71fe6-6dc3-4a20-99ea-f0c3d5f7dad5-parameters","parameter":[{"name":"subject","valueString":"a40acaba-9191-4e65-8e32-cf3d48ec1964"}]}],"extension":[{"url":"http://hl7.org/fhir/StructureDefinition/cqf-inputParameters","valueReference":{"reference":"#bfd71fe6-6dc3-4a20-99ea-f0c3d5f7dad5-parameters"}},{"url":"http://hl7.org/fhir/us/cqfmeasures/StructureDefinition/cqfm-testCaseDescription","valueMarkdown":"Elective hosp with proc (general anesthesia) within 3 days of encounter. 2 smoking status assessments before enc start. Result displays correctly from the latest one (most recent): : 230065006 Chain smoker"}],"modifierExtension":[{"url":"http://hl7.org/fhir/us/cqfmeasures/StructureDefinition/cqfm-isTestCase","valueBoolean":true}],"status":"complete","type":"individual","measure":"https://madie.cms.gov/Measure/CMS1218FHIRHHRF","period":{"start":"2026-01-01","end":"2026-12-31"},"group":[{"id":"Group_1","population":[{"id":"InitialPopulation_1","code":{"coding":[{"system":"http://terminology.hl7.org/CodeSystem/measure-population","code":"initial-population","display":"Initial Population"}]},"count":1},{"id":"Denominator_1","code":{"coding":[{"system":"http://terminology.hl7.org/CodeSystem/measure-population","code":"denominator","display":"Denominator"}]},"count":1},{"id":"DenominatorExclusion_1","code":{"coding":[{"system":"http://terminology.hl7.org/CodeSystem/measure-population","code":"denominator-exclusion","display":"Denominator Exclusion"}]},"count":0},{"id":"Numerator_1","code":{"coding":[{"system":"http://terminology.hl7.org/CodeSystem/measure-population","code":"numerator","display":"Numerator"}]},"count":0}],"measureScore":{"value":0.0}}],"evaluatedResource":[{"reference":"Procedure/3ba90a2d-373a-47be-a8d2-45c698c37fa4"},{"reference":"Patient/a40acaba-9191-4e65-8e32-cf3d48ec1964"},{"reference":"Observation/e18ee576-a637-44de-850f-d0664b0d2ada"},{"reference":"Observation/bbdabc32-9aac-4d29-8b80-b7de0452a30c"},{"reference":"Encounter/64b189b0-1ce2-4294-89ad-161614544a1b"}]},"request":{"method":"PUT","url":"MeasureReport/ee3de653-347a-4137-903d-6c4b733d414f"}}]},"request":{"method":"PUT","url":"Bundle/tests-a40acaba-9191-4e65-8e32-cf3d48ec1964-bundle"}},{"resource":{"resourceType":"Observation","id":"bbdabc32-9aac-4d29-8b80-b7de0452a30c","meta":{"profile":["http://hl7.org/fhir/us/qicore/StructureDefinition/qicore-observation-lab"]},"status":"final","category":[{"coding":[{"system":"http://terminology.hl7.org/CodeSystem/observation-category","code":"laboratory","display":"Laboratory"}],"text":"Laboratory"}],"code":{"coding":[{"system":"http://loinc.org","code":"72166-2","display":"Tobacco smoking status"}],"text":"Tobacco smoking status "},"subject":{"reference":"Patient/a40acaba-9191-4e65-8e32-cf3d48ec1964"},"encounter":{"reference":"Encounter/64b189b0-1ce2-4294-89ad-161614544a1b"},"effectiveDateTime":"2026-04-07T08:00:00.000+00:00","valueCodeableConcept":{"coding":[{"system":"http://snomed.info/sct","code":"230065006","display":"Chain smoker (finding)"}]}},"request":{"method":"PUT","url":"Observation/bbdabc32-9aac-4d29-8b80-b7de0452a30c"}},{"resource":{"resourceType":"Procedure","id":"3ba90a2d-373a-47be-a8d2-45c698c37fa4","meta":{"profile":["http://hl7.org/fhir/us/qicore/StructureDefinition/qicore-procedure"]},"extension":[{"url":"http://hl7.org/fhir/us/qicore/StructureDefinition/qicore-recorded","valueDateTime":"2026-04-11T10:30:00.000+00:00"}],"status":"completed","category":{"coding":[{"system":"http://snomed.info/sct","code":"18286008","display":"General or neuraxial anesthesia"}]},"code":{"coding":[{"system":"http://snomed.info/sct","code":"112943005","display":"Epidural injection of anesthetic substance, diagnostic, caudal, continuous"}]},"subject":{"reference":"Patient/a40acaba-9191-4e65-8e32-cf3d48ec1964"},"performedPeriod":{"start":"2026-04-11T08:00:00.000+00:00","end":"2026-04-11T10:15:00.000+00:00"}},"request":{"method":"PUT","url":"Procedure/3ba90a2d-373a-47be-a8d2-45c698c37fa4"}}]}