{"resourceType":"Bundle","id":"tests-77789a0c-8d3f-44cc-8014-75329aa8b1f3-bundle","type":"transaction","entry":[{"resource":{"resourceType":"Encounter","id":"e8b14015-9e65-4984-bde3-78fd8a907fb4","meta":{"profile":["http://hl7.org/fhir/us/qicore/StructureDefinition/qicore-encounter"]},"status":"finished","class":{"system":"http://terminology.hl7.org/CodeSystem/v3-ActCode","code":"IMP","display":"inpatient encounter"},"type":[{"coding":[{"system":"http://snomed.info/sct","code":"112689000","display":"Hospital admission, elective, with complete pre-admission work-up"}],"text":"Hospital admission, elective, with complete pre-admission work-up"}],"priority":{"coding":[{"system":"http://snomed.info/sct","code":"103390000"}]},"subject":{"reference":"Patient/77789a0c-8d3f-44cc-8014-75329aa8b1f3"},"period":{"start":"2026-04-10T08:00:00.000+00:00","end":"2026-04-14T08:15:00.000+00:00"}},"request":{"method":"PUT","url":"Encounter/e8b14015-9e65-4984-bde3-78fd8a907fb4"}},{"resource":{"resourceType":"Procedure","id":"8d768765-6403-4d24-a5ce-07f464add619","meta":{"profile":["http://hl7.org/fhir/us/qicore/StructureDefinition/qicore-procedure"]},"extension":[{"url":"http://hl7.org/fhir/us/qicore/StructureDefinition/qicore-recorded","valueDateTime":"2026-04-13T11:20:30.000+00:00"}],"status":"completed","code":{"coding":[{"system":"http://snomed.info/sct","code":"243141005","display":"Mechanically assisted spontaneous ventilation"}],"text":"Mechanically assisted spontaneous ventilation"},"subject":{"reference":"Patient/77789a0c-8d3f-44cc-8014-75329aa8b1f3"},"performedPeriod":{"start":"2026-04-13T10:14:00.000+00:00","end":"2026-04-13T11:15:00.000+00:00"}},"request":{"method":"PUT","url":"Procedure/8d768765-6403-4d24-a5ce-07f464add619"}},{"resource":{"resourceType":"Patient","id":"77789a0c-8d3f-44cc-8014-75329aa8b1f3","meta":{"profile":["http://hl7.org/fhir/us/qicore/StructureDefinition/qicore-patient"]},"extension":[{"url":"http://hl7.org/fhir/us/core/StructureDefinition/us-core-race","extension":[{"url":"ombCategory","valueCoding":{"system":"urn:oid:2.16.840.1.113883.6.238","code":"2054-5","display":"Black or African American","userSelected":true}},{"url":"text","valueString":"Black or African American"}]},{"url":"http://hl7.org/fhir/us/core/StructureDefinition/us-core-ethnicity","extension":[{"url":"ombCategory","valueCoding":{"system":"urn:oid:2.16.840.1.113883.6.238","code":"2186-5","display":"Not Hispanic or Latino","userSelected":true}},{"url":"text","valueString":"Not Hispanic or Latino"}]}],"identifier":[{"type":{"coding":[{"system":"http://terminology.hl7.org/CodeSystem/v2-0203","code":"MR"}]},"system":"https://bonnie-fhir.healthit.gov/","value":"61152a3b98086b7a79cbd7c1"}],"active":true,"name":[{"use":"usual","family":"NUMER4Fail","given":["Num4MVStartsLT48HrsFromEndOfORProc"]}],"gender":"female","birthDate":"1966-07-12"},"request":{"method":"PUT","url":"Patient/77789a0c-8d3f-44cc-8014-75329aa8b1f3"}},{"resource":{"resourceType":"Bundle","id":"tests-77789a0c-8d3f-44cc-8014-75329aa8b1f3-bundle","type":"transaction","entry":[{"fullUrl":"https://madie.cms.gov/Patient/77789a0c-8d3f-44cc-8014-75329aa8b1f3","resource":{"resourceType":"Patient","id":"77789a0c-8d3f-44cc-8014-75329aa8b1f3","meta":{"profile":["http://hl7.org/fhir/us/qicore/StructureDefinition/qicore-patient"]},"extension":[{"url":"http://hl7.org/fhir/us/core/StructureDefinition/us-core-race","extension":[{"url":"ombCategory","valueCoding":{"system":"urn:oid:2.16.840.1.113883.6.238","code":"2054-5","display":"Black or African American","userSelected":true}},{"url":"text","valueString":"Black or African American"}]},{"url":"http://hl7.org/fhir/us/core/StructureDefinition/us-core-ethnicity","extension":[{"url":"ombCategory","valueCoding":{"system":"urn:oid:2.16.840.1.113883.6.238","code":"2186-5","display":"Not Hispanic or Latino","userSelected":true}},{"url":"text","valueString":"Not Hispanic or Latino"}]}],"identifier":[{"type":{"coding":[{"system":"http://terminology.hl7.org/CodeSystem/v2-0203","code":"MR"}]},"system":"https://bonnie-fhir.healthit.gov/","value":"61152a3b98086b7a79cbd7c1"}],"active":true,"name":[{"use":"usual","family":"NUMER4Fail","given":["Num4MVStartsLT48HrsFromEndOfORProc"]}],"gender":"female","birthDate":"1966-07-12"},"request":{"method":"PUT","url":"Patient/77789a0c-8d3f-44cc-8014-75329aa8b1f3"}},{"fullUrl":"https://madie.cms.gov/Procedure/89d846ec-5cbc-4d9d-9e00-da3d3c1fa7cf","resource":{"resourceType":"Procedure","id":"89d846ec-5cbc-4d9d-9e00-da3d3c1fa7cf","meta":{"profile":["http://hl7.org/fhir/us/qicore/StructureDefinition/qicore-procedure"]},"extension":[{"url":"http://hl7.org/fhir/us/qicore/StructureDefinition/qicore-recorded","valueDateTime":"2026-04-11T10:15:00.000+00:00"}],"status":"completed","category":{"coding":[{"system":"http://snomed.info/sct","code":"18286008","display":"General or neuraxial anesthesia"}]},"code":{"coding":[{"system":"http://snomed.info/sct","code":"112943005","display":"Epidural injection of anesthetic substance, diagnostic, caudal, continuous"}]},"subject":{"reference":"Patient/77789a0c-8d3f-44cc-8014-75329aa8b1f3"},"performedPeriod":{"start":"2026-04-11T08:00:00.000+00:00","end":"2026-04-11T10:15:00.000+00:00"}},"request":{"method":"PUT","url":"Procedure/89d846ec-5cbc-4d9d-9e00-da3d3c1fa7cf"}},{"fullUrl":"https://madie.cms.gov/Procedure/8d768765-6403-4d24-a5ce-07f464add619","resource":{"resourceType":"Procedure","id":"8d768765-6403-4d24-a5ce-07f464add619","meta":{"profile":["http://hl7.org/fhir/us/qicore/StructureDefinition/qicore-procedure"]},"extension":[{"url":"http://hl7.org/fhir/us/qicore/StructureDefinition/qicore-recorded","valueDateTime":"2026-04-13T11:20:30.000+00:00"}],"status":"completed","code":{"coding":[{"system":"http://snomed.info/sct","code":"243141005","display":"Mechanically assisted spontaneous ventilation"}],"text":"Mechanically assisted spontaneous ventilation"},"subject":{"reference":"Patient/77789a0c-8d3f-44cc-8014-75329aa8b1f3"},"performedPeriod":{"start":"2026-04-13T10:14:00.000+00:00","end":"2026-04-13T11:15:00.000+00:00"}},"request":{"method":"PUT","url":"Procedure/8d768765-6403-4d24-a5ce-07f464add619"}},{"fullUrl":"https://madie.cms.gov/Encounter/e8b14015-9e65-4984-bde3-78fd8a907fb4","resource":{"resourceType":"Encounter","id":"e8b14015-9e65-4984-bde3-78fd8a907fb4","meta":{"profile":["http://hl7.org/fhir/us/qicore/StructureDefinition/qicore-encounter"]},"status":"finished","class":{"system":"http://terminology.hl7.org/CodeSystem/v3-ActCode","code":"IMP","display":"inpatient encounter"},"type":[{"coding":[{"system":"http://snomed.info/sct","code":"112689000","display":"Hospital admission, elective, with complete pre-admission work-up"}],"text":"Hospital admission, elective, with complete pre-admission work-up"}],"priority":{"coding":[{"system":"http://snomed.info/sct","code":"103390000"}]},"subject":{"reference":"Patient/77789a0c-8d3f-44cc-8014-75329aa8b1f3"},"period":{"start":"2026-04-10T08:00:00.000+00:00","end":"2026-04-14T08:15:00.000+00:00"}},"request":{"method":"PUT","url":"Encounter/e8b14015-9e65-4984-bde3-78fd8a907fb4"}},{"fullUrl":"https://madie.cms.gov/MeasureReport/870fe506-746d-4e57-ac88-3e345a7d7fea","resource":{"resourceType":"MeasureReport","id":"870fe506-746d-4e57-ac88-3e345a7d7fea","meta":{"profile":["http://hl7.org/fhir/us/cqfmeasures/StructureDefinition/test-case-cqfm"]},"contained":[{"resourceType":"Parameters","id":"88321b1e-de68-4116-8ae4-0b66e2fc5a15-parameters","parameter":[{"name":"subject","valueString":"77789a0c-8d3f-44cc-8014-75329aa8b1f3"}]}],"extension":[{"url":"http://hl7.org/fhir/StructureDefinition/cqf-inputParameters","valueReference":{"reference":"#88321b1e-de68-4116-8ae4-0b66e2fc5a15-parameters"}},{"url":"http://hl7.org/fhir/us/cqfmeasures/StructureDefinition/cqfm-testCaseDescription","valueMarkdown":"Elective hospitalization with procedure (general anesthesia) within first 3 days of encounter. Mech ventilation starts 1 minute shy of  48 hours from end of OR proc. Edge case, Numer4 Fails. MV must start >= 48 hours after end of proc. "}],"modifierExtension":[{"url":"http://hl7.org/fhir/us/cqfmeasures/StructureDefinition/cqfm-isTestCase","valueBoolean":true}],"status":"complete","type":"individual","measure":"https://madie.cms.gov/Measure/CMS1218FHIRHHRF","period":{"start":"2026-01-01","end":"2026-12-31"},"group":[{"id":"Group_1","population":[{"id":"InitialPopulation_1","code":{"coding":[{"system":"http://terminology.hl7.org/CodeSystem/measure-population","code":"initial-population","display":"Initial Population"}]},"count":1},{"id":"Denominator_1","code":{"coding":[{"system":"http://terminology.hl7.org/CodeSystem/measure-population","code":"denominator","display":"Denominator"}]},"count":1},{"id":"DenominatorExclusion_1","code":{"coding":[{"system":"http://terminology.hl7.org/CodeSystem/measure-population","code":"denominator-exclusion","display":"Denominator Exclusion"}]},"count":0},{"id":"Numerator_1","code":{"coding":[{"system":"http://terminology.hl7.org/CodeSystem/measure-population","code":"numerator","display":"Numerator"}]},"count":0}],"measureScore":{"value":0.0}}],"evaluatedResource":[{"reference":"Patient/77789a0c-8d3f-44cc-8014-75329aa8b1f3"},{"reference":"Procedure/89d846ec-5cbc-4d9d-9e00-da3d3c1fa7cf"},{"reference":"Procedure/8d768765-6403-4d24-a5ce-07f464add619"},{"reference":"Encounter/e8b14015-9e65-4984-bde3-78fd8a907fb4"}]},"request":{"method":"PUT","url":"MeasureReport/870fe506-746d-4e57-ac88-3e345a7d7fea"}}]},"request":{"method":"PUT","url":"Bundle/tests-77789a0c-8d3f-44cc-8014-75329aa8b1f3-bundle"}},{"resource":{"resourceType":"MeasureReport","id":"870fe506-746d-4e57-ac88-3e345a7d7fea","meta":{"profile":["http://hl7.org/fhir/us/cqfmeasures/StructureDefinition/test-case-cqfm"]},"contained":[{"resourceType":"Parameters","id":"88321b1e-de68-4116-8ae4-0b66e2fc5a15-parameters","parameter":[{"name":"subject","valueString":"77789a0c-8d3f-44cc-8014-75329aa8b1f3"}]}],"extension":[{"url":"http://hl7.org/fhir/StructureDefinition/cqf-inputParameters","valueReference":{"reference":"#88321b1e-de68-4116-8ae4-0b66e2fc5a15-parameters"}},{"url":"http://hl7.org/fhir/us/cqfmeasures/StructureDefinition/cqfm-testCaseDescription","valueMarkdown":"Elective hospitalization with procedure (general anesthesia) within first 3 days of encounter. Mech ventilation starts 1 minute shy of  48 hours from end of OR proc. Edge case, Numer4 Fails. MV must start >= 48 hours after end of proc. "}],"modifierExtension":[{"url":"http://hl7.org/fhir/us/cqfmeasures/StructureDefinition/cqfm-isTestCase","valueBoolean":true}],"status":"complete","type":"individual","measure":"https://madie.cms.gov/Measure/CMS1218FHIRHHRF","period":{"start":"2026-01-01","end":"2026-12-31"},"group":[{"id":"Group_1","population":[{"id":"InitialPopulation_1","code":{"coding":[{"system":"http://terminology.hl7.org/CodeSystem/measure-population","code":"initial-population","display":"Initial Population"}]},"count":1},{"id":"Denominator_1","code":{"coding":[{"system":"http://terminology.hl7.org/CodeSystem/measure-population","code":"denominator","display":"Denominator"}]},"count":1},{"id":"DenominatorExclusion_1","code":{"coding":[{"system":"http://terminology.hl7.org/CodeSystem/measure-population","code":"denominator-exclusion","display":"Denominator Exclusion"}]},"count":0},{"id":"Numerator_1","code":{"coding":[{"system":"http://terminology.hl7.org/CodeSystem/measure-population","code":"numerator","display":"Numerator"}]},"count":0}],"measureScore":{"value":0.0}}],"evaluatedResource":[{"reference":"Patient/77789a0c-8d3f-44cc-8014-75329aa8b1f3"},{"reference":"Procedure/89d846ec-5cbc-4d9d-9e00-da3d3c1fa7cf"},{"reference":"Procedure/8d768765-6403-4d24-a5ce-07f464add619"},{"reference":"Encounter/e8b14015-9e65-4984-bde3-78fd8a907fb4"}]},"request":{"method":"PUT","url":"MeasureReport/870fe506-746d-4e57-ac88-3e345a7d7fea"}},{"resource":{"resourceType":"Procedure","id":"89d846ec-5cbc-4d9d-9e00-da3d3c1fa7cf","meta":{"profile":["http://hl7.org/fhir/us/qicore/StructureDefinition/qicore-procedure"]},"extension":[{"url":"http://hl7.org/fhir/us/qicore/StructureDefinition/qicore-recorded","valueDateTime":"2026-04-11T10:15:00.000+00:00"}],"status":"completed","category":{"coding":[{"system":"http://snomed.info/sct","code":"18286008","display":"General or neuraxial anesthesia"}]},"code":{"coding":[{"system":"http://snomed.info/sct","code":"112943005","display":"Epidural injection of anesthetic substance, diagnostic, caudal, continuous"}]},"subject":{"reference":"Patient/77789a0c-8d3f-44cc-8014-75329aa8b1f3"},"performedPeriod":{"start":"2026-04-11T08:00:00.000+00:00","end":"2026-04-11T10:15:00.000+00:00"}},"request":{"method":"PUT","url":"Procedure/89d846ec-5cbc-4d9d-9e00-da3d3c1fa7cf"}}]}