{"resourceType":"Bundle","id":"tests-6fcf2c8a-e316-4cb3-b9c8-cae8f52b8a84-bundle","type":"transaction","entry":[{"resource":{"resourceType":"MeasureReport","id":"731bff44-bea3-4c0f-8d33-3e91c9898f94","meta":{"profile":["http://hl7.org/fhir/us/cqfmeasures/StructureDefinition/test-case-cqfm"]},"contained":[{"resourceType":"Parameters","id":"a51200a5-788c-433e-95c2-bf9982c0bfcd-parameters","parameter":[{"name":"subject","valueString":"6fcf2c8a-e316-4cb3-b9c8-cae8f52b8a84"}]}],"extension":[{"url":"http://hl7.org/fhir/StructureDefinition/cqf-inputParameters","valueReference":{"reference":"#a51200a5-788c-433e-95c2-bf9982c0bfcd-parameters"}},{"url":"http://hl7.org/fhir/us/cqfmeasures/StructureDefinition/cqfm-testCaseDescription","valueMarkdown":"Elective hospitalization with procedure (general anesthesia) within first 3 days of encounter but has a secondary (rank => 2) encounter diagnosis of acute respiratory failure. \nPOA indicator = Y. \nMeets denom exclusion"}],"modifierExtension":[{"url":"http://hl7.org/fhir/us/cqfmeasures/StructureDefinition/cqfm-isTestCase","valueBoolean":true}],"status":"complete","type":"individual","measure":"https://madie.cms.gov/Measure/CMS1218FHIRHHRF","period":{"start":"2026-01-01","end":"2026-12-31"},"group":[{"id":"Group_1","population":[{"id":"InitialPopulation_1","code":{"coding":[{"system":"http://terminology.hl7.org/CodeSystem/measure-population","code":"initial-population","display":"Initial Population"}]},"count":1},{"id":"Denominator_1","code":{"coding":[{"system":"http://terminology.hl7.org/CodeSystem/measure-population","code":"denominator","display":"Denominator"}]},"count":1},{"id":"DenominatorExclusion_1","code":{"coding":[{"system":"http://terminology.hl7.org/CodeSystem/measure-population","code":"denominator-exclusion","display":"Denominator Exclusion"}]},"count":1},{"id":"Numerator_1","code":{"coding":[{"system":"http://terminology.hl7.org/CodeSystem/measure-population","code":"numerator","display":"Numerator"}]},"count":0}],"measureScore":{"value":0.0}}],"evaluatedResource":[{"reference":"Encounter/e3f27bd3-2608-49ec-ad0c-ec7080b01e5a"},{"reference":"Patient/6fcf2c8a-e316-4cb3-b9c8-cae8f52b8a84"},{"reference":"Procedure/d8996f42-1a7b-4f93-b1e4-8759b33bbff2"},{"reference":"Claim/74904328-daed-45e8-a76c-4d0f6e1bf3b7"},{"reference":"Condition/7a03c304-5130-48aa-8a8f-a03e40be94e7"}]},"request":{"method":"PUT","url":"MeasureReport/731bff44-bea3-4c0f-8d33-3e91c9898f94"}},{"resource":{"resourceType":"Patient","id":"6fcf2c8a-e316-4cb3-b9c8-cae8f52b8a84","meta":{"profile":["http://hl7.org/fhir/us/qicore/StructureDefinition/qicore-patient"]},"extension":[{"url":"http://hl7.org/fhir/us/core/StructureDefinition/us-core-race","extension":[{"url":"ombCategory","valueCoding":{"system":"urn:oid:2.16.840.1.113883.6.238","code":"2054-5","display":"Black or African American","userSelected":true}},{"url":"text","valueString":"Black or African American"}]},{"url":"http://hl7.org/fhir/us/core/StructureDefinition/us-core-ethnicity","extension":[{"url":"ombCategory","valueCoding":{"system":"urn:oid:2.16.840.1.113883.6.238","code":"2186-5","display":"Not Hispanic or Latino","userSelected":true}},{"url":"text","valueString":"Not Hispanic or Latino"}]}],"identifier":[{"type":{"coding":[{"system":"http://terminology.hl7.org/CodeSystem/v2-0203","code":"MR"}]},"system":"https://bonnie-fhir.healthit.gov/","value":"61152a3b98086b7a79cbd7c1"}],"active":true,"name":[{"use":"usual","family":"DENEXPass","given":["SecondaryDxAcuteRespFailurePOA"]}],"gender":"female","birthDate":"1966-07-12"},"request":{"method":"PUT","url":"Patient/6fcf2c8a-e316-4cb3-b9c8-cae8f52b8a84"}},{"resource":{"resourceType":"Claim","id":"74904328-daed-45e8-a76c-4d0f6e1bf3b7","meta":{"profile":["http://hl7.org/fhir/us/qicore/StructureDefinition/qicore-claim"]},"status":"active","type":{"coding":[{"system":"http://terminology.hl7.org/CodeSystem/claim-type","code":"professional"}]},"use":"claim","patient":{"reference":"Patient/6fcf2c8a-e316-4cb3-b9c8-cae8f52b8a84"},"created":"2026-05-16","priority":{"coding":[{"system":"http://terminology.hl7.org/CodeSystem/processpriority","code":"normal"}]},"diagnosis":[{"sequence":1,"diagnosisCodeableConcept":{"coding":[{"system":"http://hl7.org/fhir/sid/icd-10-cm","version":"2023","code":"J95.821","display":"Acute postprocedural respiratory failure","userSelected":true}]},"type":[{"coding":[{"system":"http://terminology.hl7.org/CodeSystem/ex-diagnosistype","code":"principal"}]}]}],"item":[{"sequence":1,"diagnosisSequence":[1,5,7],"productOrService":{"coding":[{"system":"http://example.org/fhir/CodeSystem/ex-professionalservice","code":"anesthesia"}]},"servicedDate":"2026-04-11","encounter":[{"reference":"Encounter/e3f27bd3-2608-49ec-ad0c-ec7080b01e5a"}]}]},"request":{"method":"PUT","url":"Claim/74904328-daed-45e8-a76c-4d0f6e1bf3b7"}},{"resource":{"resourceType":"Procedure","id":"d8996f42-1a7b-4f93-b1e4-8759b33bbff2","meta":{"profile":["http://hl7.org/fhir/us/qicore/StructureDefinition/qicore-procedure"]},"extension":[{"url":"http://hl7.org/fhir/us/qicore/StructureDefinition/qicore-recorded","valueDateTime":"2026-04-11T10:20:00.000+00:00"}],"status":"completed","category":{"coding":[{"system":"http://snomed.info/sct","code":"18286008","display":"General or neuraxial anesthesia"}]},"code":{"coding":[{"system":"http://snomed.info/sct","code":"112943005","display":"Epidural injection of anesthetic substance, diagnostic, caudal, continuous"}]},"subject":{"reference":"Patient/6fcf2c8a-e316-4cb3-b9c8-cae8f52b8a84"},"performedPeriod":{"start":"2026-04-11T08:00:00.000+00:00","end":"2026-04-11T10:15:00.000+00:00"}},"request":{"method":"PUT","url":"Procedure/d8996f42-1a7b-4f93-b1e4-8759b33bbff2"}},{"resource":{"resourceType":"Encounter","id":"e3f27bd3-2608-49ec-ad0c-ec7080b01e5a","meta":{"profile":["http://hl7.org/fhir/us/qicore/StructureDefinition/qicore-encounter"]},"status":"finished","class":{"system":"http://terminology.hl7.org/CodeSystem/v3-ActCode","code":"IMP","display":"inpatient encounter"},"type":[{"coding":[{"system":"http://snomed.info/sct","code":"112689000","display":"Hospital admission, elective, with complete pre-admission work-up"}],"text":"Hospital admission, elective, with complete pre-admission work-up"}],"priority":{"coding":[{"system":"http://snomed.info/sct","code":"103390000"}]},"subject":{"reference":"Patient/6fcf2c8a-e316-4cb3-b9c8-cae8f52b8a84"},"period":{"start":"2026-04-10T08:00:00.000+00:00","end":"2026-04-14T08:15:00.000+00:00"},"diagnosis":[{"extension":[{"url":"http://hl7.org/fhir/us/qicore/StructureDefinition/qicore-encounter-diagnosisPresentOnAdmission","valueCodeableConcept":{"coding":[{"system":"https://www.cms.gov/Medicare/Medicare-Fee-for-Service-Payment/HospitalAcqCond/Coding","code":"Y"}]}}],"condition":{"reference":"Condition/7a03c304-5130-48aa-8a8f-a03e40be94e7"},"rank":2}]},"request":{"method":"PUT","url":"Encounter/e3f27bd3-2608-49ec-ad0c-ec7080b01e5a"}},{"resource":{"resourceType":"Bundle","id":"tests-6fcf2c8a-e316-4cb3-b9c8-cae8f52b8a84-bundle","type":"transaction","entry":[{"fullUrl":"https://madie.cms.gov/Encounter/e3f27bd3-2608-49ec-ad0c-ec7080b01e5a","resource":{"resourceType":"Encounter","id":"e3f27bd3-2608-49ec-ad0c-ec7080b01e5a","meta":{"profile":["http://hl7.org/fhir/us/qicore/StructureDefinition/qicore-encounter"]},"status":"finished","class":{"system":"http://terminology.hl7.org/CodeSystem/v3-ActCode","code":"IMP","display":"inpatient encounter"},"type":[{"coding":[{"system":"http://snomed.info/sct","code":"112689000","display":"Hospital admission, elective, with complete pre-admission work-up"}],"text":"Hospital admission, elective, with complete pre-admission work-up"}],"priority":{"coding":[{"system":"http://snomed.info/sct","code":"103390000"}]},"subject":{"reference":"Patient/6fcf2c8a-e316-4cb3-b9c8-cae8f52b8a84"},"period":{"start":"2026-04-10T08:00:00.000+00:00","end":"2026-04-14T08:15:00.000+00:00"},"diagnosis":[{"extension":[{"url":"http://hl7.org/fhir/us/qicore/StructureDefinition/qicore-encounter-diagnosisPresentOnAdmission","valueCodeableConcept":{"coding":[{"system":"https://www.cms.gov/Medicare/Medicare-Fee-for-Service-Payment/HospitalAcqCond/Coding","code":"Y"}]}}],"condition":{"reference":"Condition/7a03c304-5130-48aa-8a8f-a03e40be94e7"},"rank":2}]},"request":{"method":"PUT","url":"Encounter/e3f27bd3-2608-49ec-ad0c-ec7080b01e5a"}},{"fullUrl":"https://madie.cms.gov/Patient/6fcf2c8a-e316-4cb3-b9c8-cae8f52b8a84","resource":{"resourceType":"Patient","id":"6fcf2c8a-e316-4cb3-b9c8-cae8f52b8a84","meta":{"profile":["http://hl7.org/fhir/us/qicore/StructureDefinition/qicore-patient"]},"extension":[{"url":"http://hl7.org/fhir/us/core/StructureDefinition/us-core-race","extension":[{"url":"ombCategory","valueCoding":{"system":"urn:oid:2.16.840.1.113883.6.238","code":"2054-5","display":"Black or African American","userSelected":true}},{"url":"text","valueString":"Black or African American"}]},{"url":"http://hl7.org/fhir/us/core/StructureDefinition/us-core-ethnicity","extension":[{"url":"ombCategory","valueCoding":{"system":"urn:oid:2.16.840.1.113883.6.238","code":"2186-5","display":"Not Hispanic or Latino","userSelected":true}},{"url":"text","valueString":"Not Hispanic or Latino"}]}],"identifier":[{"type":{"coding":[{"system":"http://terminology.hl7.org/CodeSystem/v2-0203","code":"MR"}]},"system":"https://bonnie-fhir.healthit.gov/","value":"61152a3b98086b7a79cbd7c1"}],"active":true,"name":[{"use":"usual","family":"DENEXPass","given":["SecondaryDxAcuteRespFailurePOA"]}],"gender":"female","birthDate":"1966-07-12"},"request":{"method":"PUT","url":"Patient/6fcf2c8a-e316-4cb3-b9c8-cae8f52b8a84"}},{"fullUrl":"https://madie.cms.gov/Procedure/d8996f42-1a7b-4f93-b1e4-8759b33bbff2","resource":{"resourceType":"Procedure","id":"d8996f42-1a7b-4f93-b1e4-8759b33bbff2","meta":{"profile":["http://hl7.org/fhir/us/qicore/StructureDefinition/qicore-procedure"]},"extension":[{"url":"http://hl7.org/fhir/us/qicore/StructureDefinition/qicore-recorded","valueDateTime":"2026-04-11T10:20:00.000+00:00"}],"status":"completed","category":{"coding":[{"system":"http://snomed.info/sct","code":"18286008","display":"General or neuraxial anesthesia"}]},"code":{"coding":[{"system":"http://snomed.info/sct","code":"112943005","display":"Epidural injection of anesthetic substance, diagnostic, caudal, continuous"}]},"subject":{"reference":"Patient/6fcf2c8a-e316-4cb3-b9c8-cae8f52b8a84"},"performedPeriod":{"start":"2026-04-11T08:00:00.000+00:00","end":"2026-04-11T10:15:00.000+00:00"}},"request":{"method":"PUT","url":"Procedure/d8996f42-1a7b-4f93-b1e4-8759b33bbff2"}},{"fullUrl":"https://madie.cms.gov/Claim/74904328-daed-45e8-a76c-4d0f6e1bf3b7","resource":{"resourceType":"Claim","id":"74904328-daed-45e8-a76c-4d0f6e1bf3b7","meta":{"profile":["http://hl7.org/fhir/us/qicore/StructureDefinition/qicore-claim"]},"status":"active","type":{"coding":[{"system":"http://terminology.hl7.org/CodeSystem/claim-type","code":"professional"}]},"use":"claim","patient":{"reference":"Patient/6fcf2c8a-e316-4cb3-b9c8-cae8f52b8a84"},"created":"2026-05-16","priority":{"coding":[{"system":"http://terminology.hl7.org/CodeSystem/processpriority","code":"normal"}]},"diagnosis":[{"sequence":1,"diagnosisCodeableConcept":{"coding":[{"system":"http://hl7.org/fhir/sid/icd-10-cm","version":"2023","code":"J95.821","display":"Acute postprocedural respiratory failure","userSelected":true}]},"type":[{"coding":[{"system":"http://terminology.hl7.org/CodeSystem/ex-diagnosistype","code":"principal"}]}]}],"item":[{"sequence":1,"diagnosisSequence":[1,5,7],"productOrService":{"coding":[{"system":"http://example.org/fhir/CodeSystem/ex-professionalservice","code":"anesthesia"}]},"servicedDate":"2026-04-11","encounter":[{"reference":"Encounter/e3f27bd3-2608-49ec-ad0c-ec7080b01e5a"}]}]},"request":{"method":"PUT","url":"Claim/74904328-daed-45e8-a76c-4d0f6e1bf3b7"}},{"fullUrl":"https://madie.cms.gov/Condition/7a03c304-5130-48aa-8a8f-a03e40be94e7","resource":{"resourceType":"Condition","id":"7a03c304-5130-48aa-8a8f-a03e40be94e7","meta":{"profile":["http://hl7.org/fhir/us/qicore/StructureDefinition/qicore-condition-encounter-diagnosis"]},"clinicalStatus":{"coding":[{"system":"http://terminology.hl7.org/CodeSystem/condition-clinical","code":"active","display":"Active","userSelected":true}]},"verificationStatus":{"coding":[{"system":"http://terminology.hl7.org/CodeSystem/condition-ver-status","code":"confirmed","display":"Confirmed","userSelected":true}]},"category":[{"coding":[{"system":"http://terminology.hl7.org/CodeSystem/condition-category","code":"encounter-diagnosis","display":"Encounter Diagnosis","userSelected":true}]}],"code":{"coding":[{"system":"http://hl7.org/fhir/sid/icd-10-cm","version":"2023","code":"J95.821","display":"Acute postprocedural respiratory failure","userSelected":true}]},"subject":{"reference":"Patient/6fcf2c8a-e316-4cb3-b9c8-cae8f52b8a84"},"onsetPeriod":{"start":"2026-04-10T08:00:00.000+00:00"},"recordedDate":"2026-04-10T08:05:00.000+00:00"},"request":{"method":"PUT","url":"Condition/7a03c304-5130-48aa-8a8f-a03e40be94e7"}},{"fullUrl":"https://madie.cms.gov/MeasureReport/731bff44-bea3-4c0f-8d33-3e91c9898f94","resource":{"resourceType":"MeasureReport","id":"731bff44-bea3-4c0f-8d33-3e91c9898f94","meta":{"profile":["http://hl7.org/fhir/us/cqfmeasures/StructureDefinition/test-case-cqfm"]},"contained":[{"resourceType":"Parameters","id":"a51200a5-788c-433e-95c2-bf9982c0bfcd-parameters","parameter":[{"name":"subject","valueString":"6fcf2c8a-e316-4cb3-b9c8-cae8f52b8a84"}]}],"extension":[{"url":"http://hl7.org/fhir/StructureDefinition/cqf-inputParameters","valueReference":{"reference":"#a51200a5-788c-433e-95c2-bf9982c0bfcd-parameters"}},{"url":"http://hl7.org/fhir/us/cqfmeasures/StructureDefinition/cqfm-testCaseDescription","valueMarkdown":"Elective hospitalization with procedure (general anesthesia) within first 3 days of encounter but has a secondary (rank => 2) encounter diagnosis of acute respiratory failure. \nPOA indicator = Y. \nMeets denom exclusion"}],"modifierExtension":[{"url":"http://hl7.org/fhir/us/cqfmeasures/StructureDefinition/cqfm-isTestCase","valueBoolean":true}],"status":"complete","type":"individual","measure":"https://madie.cms.gov/Measure/CMS1218FHIRHHRF","period":{"start":"2026-01-01","end":"2026-12-31"},"group":[{"id":"Group_1","population":[{"id":"InitialPopulation_1","code":{"coding":[{"system":"http://terminology.hl7.org/CodeSystem/measure-population","code":"initial-population","display":"Initial Population"}]},"count":1},{"id":"Denominator_1","code":{"coding":[{"system":"http://terminology.hl7.org/CodeSystem/measure-population","code":"denominator","display":"Denominator"}]},"count":1},{"id":"DenominatorExclusion_1","code":{"coding":[{"system":"http://terminology.hl7.org/CodeSystem/measure-population","code":"denominator-exclusion","display":"Denominator Exclusion"}]},"count":1},{"id":"Numerator_1","code":{"coding":[{"system":"http://terminology.hl7.org/CodeSystem/measure-population","code":"numerator","display":"Numerator"}]},"count":0}],"measureScore":{"value":0.0}}],"evaluatedResource":[{"reference":"Encounter/e3f27bd3-2608-49ec-ad0c-ec7080b01e5a"},{"reference":"Patient/6fcf2c8a-e316-4cb3-b9c8-cae8f52b8a84"},{"reference":"Procedure/d8996f42-1a7b-4f93-b1e4-8759b33bbff2"},{"reference":"Claim/74904328-daed-45e8-a76c-4d0f6e1bf3b7"},{"reference":"Condition/7a03c304-5130-48aa-8a8f-a03e40be94e7"}]},"request":{"method":"PUT","url":"MeasureReport/731bff44-bea3-4c0f-8d33-3e91c9898f94"}}]},"request":{"method":"PUT","url":"Bundle/tests-6fcf2c8a-e316-4cb3-b9c8-cae8f52b8a84-bundle"}},{"resource":{"resourceType":"Condition","id":"7a03c304-5130-48aa-8a8f-a03e40be94e7","meta":{"profile":["http://hl7.org/fhir/us/qicore/StructureDefinition/qicore-condition-encounter-diagnosis"]},"clinicalStatus":{"coding":[{"system":"http://terminology.hl7.org/CodeSystem/condition-clinical","code":"active","display":"Active","userSelected":true}]},"verificationStatus":{"coding":[{"system":"http://terminology.hl7.org/CodeSystem/condition-ver-status","code":"confirmed","display":"Confirmed","userSelected":true}]},"category":[{"coding":[{"system":"http://terminology.hl7.org/CodeSystem/condition-category","code":"encounter-diagnosis","display":"Encounter Diagnosis","userSelected":true}]}],"code":{"coding":[{"system":"http://hl7.org/fhir/sid/icd-10-cm","version":"2023","code":"J95.821","display":"Acute postprocedural respiratory failure","userSelected":true}]},"subject":{"reference":"Patient/6fcf2c8a-e316-4cb3-b9c8-cae8f52b8a84"},"onsetPeriod":{"start":"2026-04-10T08:00:00.000+00:00"},"recordedDate":"2026-04-10T08:05:00.000+00:00"},"request":{"method":"PUT","url":"Condition/7a03c304-5130-48aa-8a8f-a03e40be94e7"}}]}