{"resourceType":"Bundle","id":"tests-34cb56f5-60cb-45c7-8da6-b8407bc799b9-bundle","type":"transaction","entry":[{"resource":{"resourceType":"MeasureReport","id":"f1154c8b-3897-44bd-bd7e-f0681acd4489","meta":{"profile":["http://hl7.org/fhir/us/cqfmeasures/StructureDefinition/test-case-cqfm"]},"contained":[{"resourceType":"Parameters","id":"2aa3eaec-8f00-47a3-9cf5-b60570c44fb6-parameters","parameter":[{"name":"subject","valueString":"34cb56f5-60cb-45c7-8da6-b8407bc799b9"}]}],"extension":[{"url":"http://hl7.org/fhir/StructureDefinition/cqf-inputParameters","valueReference":{"reference":"#2aa3eaec-8f00-47a3-9cf5-b60570c44fb6-parameters"}},{"url":"http://hl7.org/fhir/us/cqfmeasures/StructureDefinition/cqfm-testCaseDescription","valueMarkdown":"Elective hospitalization with procedure (general anesthesia) within first 3 days of encounter. Meets IPP/Denom. RV test includes 2 arterial pH values; RV displays the first (7.35) not the second (7.5), as expected. "}],"modifierExtension":[{"url":"http://hl7.org/fhir/us/cqfmeasures/StructureDefinition/cqfm-isTestCase","valueBoolean":true}],"status":"complete","type":"individual","measure":"https://madie.cms.gov/Measure/CMS1218FHIRHHRF","period":{"start":"2026-01-01","end":"2026-12-31"},"group":[{"id":"Group_1","population":[{"id":"InitialPopulation_1","code":{"coding":[{"system":"http://terminology.hl7.org/CodeSystem/measure-population","code":"initial-population","display":"Initial Population"}]},"count":1},{"id":"Denominator_1","code":{"coding":[{"system":"http://terminology.hl7.org/CodeSystem/measure-population","code":"denominator","display":"Denominator"}]},"count":1},{"id":"DenominatorExclusion_1","code":{"coding":[{"system":"http://terminology.hl7.org/CodeSystem/measure-population","code":"denominator-exclusion","display":"Denominator Exclusion"}]},"count":0},{"id":"Numerator_1","code":{"coding":[{"system":"http://terminology.hl7.org/CodeSystem/measure-population","code":"numerator","display":"Numerator"}]},"count":0}],"measureScore":{"value":0.0}}],"evaluatedResource":[{"reference":"Patient/34cb56f5-60cb-45c7-8da6-b8407bc799b9"},{"reference":"Procedure/25c6cec4-a13b-4303-a798-aa0d5df2654e"},{"reference":"Encounter/ccd5135e-9fef-48f9-9cc6-ed0f9ab4f6a0"},{"reference":"Observation/e3b95aba-9878-407d-b625-abf2e4918885"}]},"request":{"method":"PUT","url":"MeasureReport/f1154c8b-3897-44bd-bd7e-f0681acd4489"}},{"resource":{"resourceType":"Patient","id":"34cb56f5-60cb-45c7-8da6-b8407bc799b9","meta":{"profile":["http://hl7.org/fhir/us/qicore/StructureDefinition/qicore-patient"]},"extension":[{"url":"http://hl7.org/fhir/us/core/StructureDefinition/us-core-race","extension":[{"url":"ombCategory","valueCoding":{"system":"urn:oid:2.16.840.1.113883.6.238","code":"2054-5","display":"Black or African American","userSelected":true}},{"url":"text","valueString":"Black or African American"}]},{"url":"http://hl7.org/fhir/us/core/StructureDefinition/us-core-ethnicity","extension":[{"url":"ombCategory","valueCoding":{"system":"urn:oid:2.16.840.1.113883.6.238","code":"2186-5","display":"Not Hispanic or Latino","userSelected":true}},{"url":"text","valueString":"Not Hispanic or Latino"}]}],"identifier":[{"type":{"coding":[{"system":"http://terminology.hl7.org/CodeSystem/v2-0203","code":"MR"}]},"system":"https://bonnie-fhir.healthit.gov/","value":"61152a3b98086b7a79cbd7c1"}],"active":true,"name":[{"use":"usual","family":"DENOMPass","given":["RiskVariableASAClass"]}],"gender":"female","birthDate":"1966-07-12"},"request":{"method":"PUT","url":"Patient/34cb56f5-60cb-45c7-8da6-b8407bc799b9"}},{"resource":{"resourceType":"Procedure","id":"25c6cec4-a13b-4303-a798-aa0d5df2654e","meta":{"profile":["http://hl7.org/fhir/us/qicore/StructureDefinition/qicore-procedure"]},"extension":[{"url":"http://hl7.org/fhir/us/qicore/StructureDefinition/qicore-recorded","valueDateTime":"2026-04-11T10:30:00.000+00:00"}],"status":"completed","category":{"coding":[{"system":"http://snomed.info/sct","code":"18286008","display":"General or neuraxial anesthesia"}]},"code":{"coding":[{"system":"http://snomed.info/sct","code":"112943005","display":"Epidural injection of anesthetic substance, diagnostic, caudal, continuous"}]},"subject":{"reference":"Patient/34cb56f5-60cb-45c7-8da6-b8407bc799b9"},"performedPeriod":{"start":"2026-04-11T08:00:00.000+00:00","end":"2026-04-11T10:15:00.000+00:00"}},"request":{"method":"PUT","url":"Procedure/25c6cec4-a13b-4303-a798-aa0d5df2654e"}},{"resource":{"resourceType":"Observation","id":"e3b95aba-9878-407d-b625-abf2e4918885","meta":{"profile":["http://hl7.org/fhir/us/qicore/StructureDefinition/qicore-observation-lab"]},"status":"final","category":[{"coding":[{"system":"http://terminology.hl7.org/CodeSystem/observation-category","code":"laboratory","display":"Laboratory"}],"text":"Laboratory"}],"code":{"coding":[{"system":"http://loinc.org","code":"97816-3","display":"American society of anesthesiologists morbidity state"}],"text":"American society of anesthesiologists morbidity state"},"subject":{"reference":"Patient/34cb56f5-60cb-45c7-8da6-b8407bc799b9"},"encounter":{"reference":"Encounter/ccd5135e-9fef-48f9-9cc6-ed0f9ab4f6a0"},"effectiveDateTime":"2026-04-11T08:00:00.000+00:00","valueCodeableConcept":{"coding":[{"system":"http://snomed.info/sct","code":"413499007","display":"American Society of Anesthesiologists physical status class 5 (finding)"}],"text":"American Society of Anesthesiologists physical status class 5 (finding)"}},"request":{"method":"PUT","url":"Observation/e3b95aba-9878-407d-b625-abf2e4918885"}},{"resource":{"resourceType":"Encounter","id":"ccd5135e-9fef-48f9-9cc6-ed0f9ab4f6a0","meta":{"profile":["http://hl7.org/fhir/us/qicore/StructureDefinition/qicore-encounter"]},"status":"finished","class":{"system":"http://terminology.hl7.org/CodeSystem/v3-ActCode","code":"IMP","display":"inpatient encounter"},"type":[{"coding":[{"system":"http://snomed.info/sct","code":"112689000","display":"Hospital admission, elective, with complete pre-admission work-up"}],"text":"Hospital admission, elective, with complete pre-admission work-up"}],"priority":{"coding":[{"system":"http://snomed.info/sct","code":"103390000"}]},"subject":{"reference":"Patient/34cb56f5-60cb-45c7-8da6-b8407bc799b9"},"period":{"start":"2026-04-10T08:00:00.000+00:00","end":"2026-04-14T08:15:00.000+00:00"},"diagnosis":[{"condition":{"reference":"Procedure/25c6cec4-a13b-4303-a798-aa0d5df2654e"},"rank":1}]},"request":{"method":"PUT","url":"Encounter/ccd5135e-9fef-48f9-9cc6-ed0f9ab4f6a0"}},{"resource":{"resourceType":"Bundle","id":"tests-165ecd09-8616-45dd-bdb6-78a883184d08-bundle","type":"transaction","entry":[{"fullUrl":"https://madie.cms.gov/Patient/34cb56f5-60cb-45c7-8da6-b8407bc799b9","resource":{"resourceType":"Patient","id":"34cb56f5-60cb-45c7-8da6-b8407bc799b9","meta":{"profile":["http://hl7.org/fhir/us/qicore/StructureDefinition/qicore-patient"]},"extension":[{"url":"http://hl7.org/fhir/us/core/StructureDefinition/us-core-race","extension":[{"url":"ombCategory","valueCoding":{"system":"urn:oid:2.16.840.1.113883.6.238","code":"2054-5","display":"Black or African American","userSelected":true}},{"url":"text","valueString":"Black or African American"}]},{"url":"http://hl7.org/fhir/us/core/StructureDefinition/us-core-ethnicity","extension":[{"url":"ombCategory","valueCoding":{"system":"urn:oid:2.16.840.1.113883.6.238","code":"2186-5","display":"Not Hispanic or Latino","userSelected":true}},{"url":"text","valueString":"Not Hispanic or Latino"}]}],"identifier":[{"type":{"coding":[{"system":"http://terminology.hl7.org/CodeSystem/v2-0203","code":"MR"}]},"system":"https://bonnie-fhir.healthit.gov/","value":"61152a3b98086b7a79cbd7c1"}],"active":true,"name":[{"use":"usual","family":"DENOMPass","given":["RiskVariableASAClass"]}],"gender":"female","birthDate":"1966-07-12"},"request":{"method":"PUT","url":"Patient/34cb56f5-60cb-45c7-8da6-b8407bc799b9"}},{"fullUrl":"https://madie.cms.gov/Procedure/25c6cec4-a13b-4303-a798-aa0d5df2654e","resource":{"resourceType":"Procedure","id":"25c6cec4-a13b-4303-a798-aa0d5df2654e","meta":{"profile":["http://hl7.org/fhir/us/qicore/StructureDefinition/qicore-procedure"]},"extension":[{"url":"http://hl7.org/fhir/us/qicore/StructureDefinition/qicore-recorded","valueDateTime":"2026-04-11T10:30:00.000+00:00"}],"status":"completed","category":{"coding":[{"system":"http://snomed.info/sct","code":"18286008","display":"General or neuraxial anesthesia"}]},"code":{"coding":[{"system":"http://snomed.info/sct","code":"112943005","display":"Epidural injection of anesthetic substance, diagnostic, caudal, continuous"}]},"subject":{"reference":"Patient/34cb56f5-60cb-45c7-8da6-b8407bc799b9"},"performedPeriod":{"start":"2026-04-11T08:00:00.000+00:00","end":"2026-04-11T10:15:00.000+00:00"}},"request":{"method":"PUT","url":"Procedure/25c6cec4-a13b-4303-a798-aa0d5df2654e"}},{"fullUrl":"https://madie.cms.gov/Encounter/ccd5135e-9fef-48f9-9cc6-ed0f9ab4f6a0","resource":{"resourceType":"Encounter","id":"ccd5135e-9fef-48f9-9cc6-ed0f9ab4f6a0","meta":{"profile":["http://hl7.org/fhir/us/qicore/StructureDefinition/qicore-encounter"]},"status":"finished","class":{"system":"http://terminology.hl7.org/CodeSystem/v3-ActCode","code":"IMP","display":"inpatient encounter"},"type":[{"coding":[{"system":"http://snomed.info/sct","code":"112689000","display":"Hospital admission, elective, with complete pre-admission work-up"}],"text":"Hospital admission, elective, with complete pre-admission work-up"}],"priority":{"coding":[{"system":"http://snomed.info/sct","code":"103390000"}]},"subject":{"reference":"Patient/34cb56f5-60cb-45c7-8da6-b8407bc799b9"},"period":{"start":"2026-04-10T08:00:00.000+00:00","end":"2026-04-14T08:15:00.000+00:00"},"diagnosis":[{"condition":{"reference":"Procedure/25c6cec4-a13b-4303-a798-aa0d5df2654e"},"rank":1}]},"request":{"method":"PUT","url":"Encounter/ccd5135e-9fef-48f9-9cc6-ed0f9ab4f6a0"}},{"fullUrl":"https://madie.cms.gov/Observation/e3b95aba-9878-407d-b625-abf2e4918885","resource":{"resourceType":"Observation","id":"e3b95aba-9878-407d-b625-abf2e4918885","meta":{"profile":["http://hl7.org/fhir/us/qicore/StructureDefinition/qicore-observation-lab"]},"status":"final","category":[{"coding":[{"system":"http://terminology.hl7.org/CodeSystem/observation-category","code":"laboratory","display":"Laboratory"}],"text":"Laboratory"}],"code":{"coding":[{"system":"http://loinc.org","code":"97816-3","display":"American society of anesthesiologists morbidity state"}],"text":"American society of anesthesiologists morbidity state"},"subject":{"reference":"Patient/34cb56f5-60cb-45c7-8da6-b8407bc799b9"},"encounter":{"reference":"Encounter/ccd5135e-9fef-48f9-9cc6-ed0f9ab4f6a0"},"effectiveDateTime":"2026-04-11T08:00:00.000+00:00","valueCodeableConcept":{"coding":[{"system":"http://snomed.info/sct","code":"413499007","display":"American Society of Anesthesiologists physical status class 5 (finding)"}],"text":"American Society of Anesthesiologists physical status class 5 (finding)"}},"request":{"method":"PUT","url":"Observation/e3b95aba-9878-407d-b625-abf2e4918885"}},{"fullUrl":"https://madie.cms.gov/MeasureReport/f1154c8b-3897-44bd-bd7e-f0681acd4489","resource":{"resourceType":"MeasureReport","id":"f1154c8b-3897-44bd-bd7e-f0681acd4489","meta":{"profile":["http://hl7.org/fhir/us/cqfmeasures/StructureDefinition/test-case-cqfm"]},"contained":[{"resourceType":"Parameters","id":"2aa3eaec-8f00-47a3-9cf5-b60570c44fb6-parameters","parameter":[{"name":"subject","valueString":"34cb56f5-60cb-45c7-8da6-b8407bc799b9"}]}],"extension":[{"url":"http://hl7.org/fhir/StructureDefinition/cqf-inputParameters","valueReference":{"reference":"#2aa3eaec-8f00-47a3-9cf5-b60570c44fb6-parameters"}},{"url":"http://hl7.org/fhir/us/cqfmeasures/StructureDefinition/cqfm-testCaseDescription","valueMarkdown":"Elective hospitalization with procedure (general anesthesia) within first 3 days of encounter. Meets IPP/Denom. RV test includes 2 arterial pH values; RV displays the first (7.35) not the second (7.5), as expected. "}],"modifierExtension":[{"url":"http://hl7.org/fhir/us/cqfmeasures/StructureDefinition/cqfm-isTestCase","valueBoolean":true}],"status":"complete","type":"individual","measure":"https://madie.cms.gov/Measure/CMS1218FHIRHHRF","period":{"start":"2026-01-01","end":"2026-12-31"},"group":[{"id":"Group_1","population":[{"id":"InitialPopulation_1","code":{"coding":[{"system":"http://terminology.hl7.org/CodeSystem/measure-population","code":"initial-population","display":"Initial Population"}]},"count":1},{"id":"Denominator_1","code":{"coding":[{"system":"http://terminology.hl7.org/CodeSystem/measure-population","code":"denominator","display":"Denominator"}]},"count":1},{"id":"DenominatorExclusion_1","code":{"coding":[{"system":"http://terminology.hl7.org/CodeSystem/measure-population","code":"denominator-exclusion","display":"Denominator Exclusion"}]},"count":0},{"id":"Numerator_1","code":{"coding":[{"system":"http://terminology.hl7.org/CodeSystem/measure-population","code":"numerator","display":"Numerator"}]},"count":0}],"measureScore":{"value":0.0}}],"evaluatedResource":[{"reference":"Patient/34cb56f5-60cb-45c7-8da6-b8407bc799b9"},{"reference":"Procedure/25c6cec4-a13b-4303-a798-aa0d5df2654e"},{"reference":"Encounter/ccd5135e-9fef-48f9-9cc6-ed0f9ab4f6a0"},{"reference":"Observation/e3b95aba-9878-407d-b625-abf2e4918885"}]},"request":{"method":"PUT","url":"MeasureReport/f1154c8b-3897-44bd-bd7e-f0681acd4489"}}]},"request":{"method":"PUT","url":"Bundle/tests-165ecd09-8616-45dd-bdb6-78a883184d08-bundle"}}]}