{"resourceType":"Bundle","id":"tests-22a4d066-3cc2-4d39-af04-8b89c3505b17-bundle","type":"transaction","entry":[{"resource":{"resourceType":"Encounter","id":"fc24a99f-6f7c-4321-bd99-06aea4286047","meta":{"profile":["http://hl7.org/fhir/us/qicore/StructureDefinition/qicore-encounter"]},"status":"finished","class":{"system":"http://terminology.hl7.org/CodeSystem/v3-ActCode","code":"IMP","display":"inpatient encounter"},"type":[{"coding":[{"system":"http://snomed.info/sct","code":"112689000","display":"Hospital admission, elective, with complete pre-admission work-up"}],"text":"Hospital admission, elective, with complete pre-admission work-up"}],"priority":{"coding":[{"system":"http://snomed.info/sct","code":"103390000"}]},"subject":{"reference":"Patient/22a4d066-3cc2-4d39-af04-8b89c3505b17"},"period":{"start":"2026-04-10T08:00:00.000+00:00","end":"2026-04-14T08:15:00.000+00:00"},"diagnosis":[{"condition":{"reference":"Procedure/967e440e-8766-4705-924b-00b4a61b0458"},"rank":1}]},"request":{"method":"PUT","url":"Encounter/fc24a99f-6f7c-4321-bd99-06aea4286047"}},{"resource":{"resourceType":"Procedure","id":"4f10c30e-e6f0-4668-b937-800246f63779","meta":{"profile":["http://hl7.org/fhir/us/qicore/StructureDefinition/qicore-procedure"]},"extension":[{"url":"http://hl7.org/fhir/us/qicore/StructureDefinition/qicore-recorded","valueDateTime":"2026-04-11T10:30:00.000+00:00"}],"status":"completed","category":{"coding":[{"system":"http://snomed.info/sct","code":"18286008","display":"General or neuraxial anesthesia"}]},"code":{"coding":[{"system":"http://snomed.info/sct","code":"112943005","display":"Epidural injection of anesthetic substance, diagnostic, caudal, continuous"}]},"subject":{"reference":"Patient/22a4d066-3cc2-4d39-af04-8b89c3505b17"},"performedPeriod":{"start":"2026-04-11T08:00:00.000+00:00","end":"2026-04-11T10:15:00.000+00:00"}},"request":{"method":"PUT","url":"Procedure/4f10c30e-e6f0-4668-b937-800246f63779"}},{"resource":{"resourceType":"Patient","id":"22a4d066-3cc2-4d39-af04-8b89c3505b17","meta":{"profile":["http://hl7.org/fhir/us/qicore/StructureDefinition/qicore-patient"]},"extension":[{"url":"http://hl7.org/fhir/us/core/StructureDefinition/us-core-race","extension":[{"url":"ombCategory","valueCoding":{"system":"urn:oid:2.16.840.1.113883.6.238","code":"2054-5","display":"Black or African American","userSelected":true}},{"url":"text","valueString":"Black or African American"}]},{"url":"http://hl7.org/fhir/us/core/StructureDefinition/us-core-ethnicity","extension":[{"url":"ombCategory","valueCoding":{"system":"urn:oid:2.16.840.1.113883.6.238","code":"2186-5","display":"Not Hispanic or Latino","userSelected":true}},{"url":"text","valueString":"Not Hispanic or Latino"}]}],"identifier":[{"type":{"coding":[{"system":"http://terminology.hl7.org/CodeSystem/v2-0203","code":"MR"}]},"system":"https://bonnie-fhir.healthit.gov/","value":"61152a3b98086b7a79cbd7c1"}],"active":true,"name":[{"use":"usual","family":"DENOMPass","given":["RiskVariableASAClass"]}],"gender":"female","birthDate":"1966-07-12"},"request":{"method":"PUT","url":"Patient/22a4d066-3cc2-4d39-af04-8b89c3505b17"}},{"resource":{"resourceType":"MeasureReport","id":"0849010d-ccf2-4cb9-8bdd-1da59675a650","meta":{"profile":["http://hl7.org/fhir/us/cqfmeasures/StructureDefinition/test-case-cqfm"]},"contained":[{"resourceType":"Parameters","id":"8960baea-ed36-48ad-b422-941c3f541235-parameters","parameter":[{"name":"subject","valueString":"22a4d066-3cc2-4d39-af04-8b89c3505b17"}]}],"extension":[{"url":"http://hl7.org/fhir/StructureDefinition/cqf-inputParameters","valueReference":{"reference":"#8960baea-ed36-48ad-b422-941c3f541235-parameters"}},{"url":"http://hl7.org/fhir/us/cqfmeasures/StructureDefinition/cqfm-testCaseDescription","valueMarkdown":"DENOMPass.  Satisfies First Leukocyte Lab risk variable"}],"modifierExtension":[{"url":"http://hl7.org/fhir/us/cqfmeasures/StructureDefinition/cqfm-isTestCase","valueBoolean":true}],"status":"complete","type":"individual","measure":"https://madie.cms.gov/Measure/CMS1218FHIRHHRF","period":{"start":"2026-01-01","end":"2026-12-31"},"group":[{"id":"Group_1","population":[{"id":"InitialPopulation_1","code":{"coding":[{"system":"http://terminology.hl7.org/CodeSystem/measure-population","code":"initial-population","display":"Initial Population"}]},"count":1},{"id":"Denominator_1","code":{"coding":[{"system":"http://terminology.hl7.org/CodeSystem/measure-population","code":"denominator","display":"Denominator"}]},"count":1},{"id":"DenominatorExclusion_1","code":{"coding":[{"system":"http://terminology.hl7.org/CodeSystem/measure-population","code":"denominator-exclusion","display":"Denominator Exclusion"}]},"count":0},{"id":"Numerator_1","code":{"coding":[{"system":"http://terminology.hl7.org/CodeSystem/measure-population","code":"numerator","display":"Numerator"}]},"count":0}],"measureScore":{"value":0.0}}],"evaluatedResource":[{"reference":"Observation/6daa2402-a22f-4a25-b926-d23f46c5162d"},{"reference":"Encounter/fc24a99f-6f7c-4321-bd99-06aea4286047"},{"reference":"Patient/22a4d066-3cc2-4d39-af04-8b89c3505b17"},{"reference":"Observation/3a076788-0bed-44a0-b7ff-cff00cb29849"},{"reference":"Procedure/4f10c30e-e6f0-4668-b937-800246f63779"}]},"request":{"method":"PUT","url":"MeasureReport/0849010d-ccf2-4cb9-8bdd-1da59675a650"}},{"resource":{"resourceType":"Bundle","id":"tests-RiskVarPassFirstLeukocyte-bundle","type":"transaction","entry":[{"fullUrl":"https://madie.cms.gov/Observation/6daa2402-a22f-4a25-b926-d23f46c5162d","resource":{"resourceType":"Observation","id":"6daa2402-a22f-4a25-b926-d23f46c5162d","meta":{"profile":["http://hl7.org/fhir/us/qicore/StructureDefinition/qicore-observation-lab"]},"status":"final","category":[{"coding":[{"system":"http://terminology.hl7.org/CodeSystem/observation-category","code":"laboratory","display":"Laboratory"}],"text":"Laboratory"}],"code":{"coding":[{"system":"http://loinc.org","code":"6690-2","display":"Leukocytes [#/volume] in Blood by Automated count"}],"text":"Leukocytes [#/volume] in Blood by Automated count"},"subject":{"reference":"Patient/22a4d066-3cc2-4d39-af04-8b89c3505b17"},"encounter":{"reference":"Encounter/fc24a99f-6f7c-4321-bd99-06aea4286047"},"effectiveDateTime":"2026-04-11T08:00:00.000+00:00","valueQuantity":{"value":8.9,"unit":"K/ul","system":"http://unitsofmeasure.org","code":"K/ul"}},"request":{"method":"PUT","url":"Observation/6daa2402-a22f-4a25-b926-d23f46c5162d"}},{"fullUrl":"https://madie.cms.gov/Encounter/fc24a99f-6f7c-4321-bd99-06aea4286047","resource":{"resourceType":"Encounter","id":"fc24a99f-6f7c-4321-bd99-06aea4286047","meta":{"profile":["http://hl7.org/fhir/us/qicore/StructureDefinition/qicore-encounter"]},"status":"finished","class":{"system":"http://terminology.hl7.org/CodeSystem/v3-ActCode","code":"IMP","display":"inpatient encounter"},"type":[{"coding":[{"system":"http://snomed.info/sct","code":"112689000","display":"Hospital admission, elective, with complete pre-admission work-up"}],"text":"Hospital admission, elective, with complete pre-admission work-up"}],"priority":{"coding":[{"system":"http://snomed.info/sct","code":"103390000"}]},"subject":{"reference":"Patient/22a4d066-3cc2-4d39-af04-8b89c3505b17"},"period":{"start":"2026-04-10T08:00:00.000+00:00","end":"2026-04-14T08:15:00.000+00:00"},"diagnosis":[{"condition":{"reference":"Procedure/967e440e-8766-4705-924b-00b4a61b0458"},"rank":1}]},"request":{"method":"PUT","url":"Encounter/fc24a99f-6f7c-4321-bd99-06aea4286047"}},{"fullUrl":"https://madie.cms.gov/Patient/22a4d066-3cc2-4d39-af04-8b89c3505b17","resource":{"resourceType":"Patient","id":"22a4d066-3cc2-4d39-af04-8b89c3505b17","meta":{"profile":["http://hl7.org/fhir/us/qicore/StructureDefinition/qicore-patient"]},"extension":[{"url":"http://hl7.org/fhir/us/core/StructureDefinition/us-core-race","extension":[{"url":"ombCategory","valueCoding":{"system":"urn:oid:2.16.840.1.113883.6.238","code":"2054-5","display":"Black or African American","userSelected":true}},{"url":"text","valueString":"Black or African American"}]},{"url":"http://hl7.org/fhir/us/core/StructureDefinition/us-core-ethnicity","extension":[{"url":"ombCategory","valueCoding":{"system":"urn:oid:2.16.840.1.113883.6.238","code":"2186-5","display":"Not Hispanic or Latino","userSelected":true}},{"url":"text","valueString":"Not Hispanic or Latino"}]}],"identifier":[{"type":{"coding":[{"system":"http://terminology.hl7.org/CodeSystem/v2-0203","code":"MR"}]},"system":"https://bonnie-fhir.healthit.gov/","value":"61152a3b98086b7a79cbd7c1"}],"active":true,"name":[{"use":"usual","family":"DENOMPass","given":["RiskVariableASAClass"]}],"gender":"female","birthDate":"1966-07-12"},"request":{"method":"PUT","url":"Patient/22a4d066-3cc2-4d39-af04-8b89c3505b17"}},{"fullUrl":"https://madie.cms.gov/Observation/3a076788-0bed-44a0-b7ff-cff00cb29849","resource":{"resourceType":"Observation","id":"3a076788-0bed-44a0-b7ff-cff00cb29849","meta":{"profile":["http://hl7.org/fhir/us/qicore/StructureDefinition/qicore-observation-lab"]},"status":"final","category":[{"coding":[{"system":"http://terminology.hl7.org/CodeSystem/observation-category","code":"laboratory","display":"Laboratory"}],"text":"Laboratory"}],"code":{"coding":[{"system":"http://loinc.org","code":"6690-2","display":"Leukocytes [#/volume] in Blood by Automated count"}],"text":"Leukocytes [#/volume] in Blood by Automated count"},"subject":{"reference":"Patient/22a4d066-3cc2-4d39-af04-8b89c3505b17"},"encounter":{"reference":"Encounter/fc24a99f-6f7c-4321-bd99-06aea4286047"},"effectiveDateTime":"2026-04-11T09:00:00.000+00:00","valueQuantity":{"value":6,"unit":"K/ul","system":"http://unitsofmeasure.org","code":"K/ul"}},"request":{"method":"PUT","url":"Observation/3a076788-0bed-44a0-b7ff-cff00cb29849"}},{"fullUrl":"https://madie.cms.gov/Procedure/4f10c30e-e6f0-4668-b937-800246f63779","resource":{"resourceType":"Procedure","id":"4f10c30e-e6f0-4668-b937-800246f63779","meta":{"profile":["http://hl7.org/fhir/us/qicore/StructureDefinition/qicore-procedure"]},"extension":[{"url":"http://hl7.org/fhir/us/qicore/StructureDefinition/qicore-recorded","valueDateTime":"2026-04-11T10:30:00.000+00:00"}],"status":"completed","category":{"coding":[{"system":"http://snomed.info/sct","code":"18286008","display":"General or neuraxial anesthesia"}]},"code":{"coding":[{"system":"http://snomed.info/sct","code":"112943005","display":"Epidural injection of anesthetic substance, diagnostic, caudal, continuous"}]},"subject":{"reference":"Patient/22a4d066-3cc2-4d39-af04-8b89c3505b17"},"performedPeriod":{"start":"2026-04-11T08:00:00.000+00:00","end":"2026-04-11T10:15:00.000+00:00"}},"request":{"method":"PUT","url":"Procedure/4f10c30e-e6f0-4668-b937-800246f63779"}},{"fullUrl":"https://madie.cms.gov/MeasureReport/0849010d-ccf2-4cb9-8bdd-1da59675a650","resource":{"resourceType":"MeasureReport","id":"0849010d-ccf2-4cb9-8bdd-1da59675a650","meta":{"profile":["http://hl7.org/fhir/us/cqfmeasures/StructureDefinition/test-case-cqfm"]},"contained":[{"resourceType":"Parameters","id":"8960baea-ed36-48ad-b422-941c3f541235-parameters","parameter":[{"name":"subject","valueString":"22a4d066-3cc2-4d39-af04-8b89c3505b17"}]}],"extension":[{"url":"http://hl7.org/fhir/StructureDefinition/cqf-inputParameters","valueReference":{"reference":"#8960baea-ed36-48ad-b422-941c3f541235-parameters"}},{"url":"http://hl7.org/fhir/us/cqfmeasures/StructureDefinition/cqfm-testCaseDescription","valueMarkdown":"DENOMPass.  Satisfies First Leukocyte Lab risk variable"}],"modifierExtension":[{"url":"http://hl7.org/fhir/us/cqfmeasures/StructureDefinition/cqfm-isTestCase","valueBoolean":true}],"status":"complete","type":"individual","measure":"https://madie.cms.gov/Measure/CMS1218FHIRHHRF","period":{"start":"2026-01-01","end":"2026-12-31"},"group":[{"id":"Group_1","population":[{"id":"InitialPopulation_1","code":{"coding":[{"system":"http://terminology.hl7.org/CodeSystem/measure-population","code":"initial-population","display":"Initial Population"}]},"count":1},{"id":"Denominator_1","code":{"coding":[{"system":"http://terminology.hl7.org/CodeSystem/measure-population","code":"denominator","display":"Denominator"}]},"count":1},{"id":"DenominatorExclusion_1","code":{"coding":[{"system":"http://terminology.hl7.org/CodeSystem/measure-population","code":"denominator-exclusion","display":"Denominator Exclusion"}]},"count":0},{"id":"Numerator_1","code":{"coding":[{"system":"http://terminology.hl7.org/CodeSystem/measure-population","code":"numerator","display":"Numerator"}]},"count":0}],"measureScore":{"value":0.0}}],"evaluatedResource":[{"reference":"Observation/6daa2402-a22f-4a25-b926-d23f46c5162d"},{"reference":"Encounter/fc24a99f-6f7c-4321-bd99-06aea4286047"},{"reference":"Patient/22a4d066-3cc2-4d39-af04-8b89c3505b17"},{"reference":"Observation/3a076788-0bed-44a0-b7ff-cff00cb29849"},{"reference":"Procedure/4f10c30e-e6f0-4668-b937-800246f63779"}]},"request":{"method":"PUT","url":"MeasureReport/0849010d-ccf2-4cb9-8bdd-1da59675a650"}}]},"request":{"method":"PUT","url":"Bundle/tests-RiskVarPassFirstLeukocyte-bundle"}},{"resource":{"resourceType":"Observation","id":"6daa2402-a22f-4a25-b926-d23f46c5162d","meta":{"profile":["http://hl7.org/fhir/us/qicore/StructureDefinition/qicore-observation-lab"]},"status":"final","category":[{"coding":[{"system":"http://terminology.hl7.org/CodeSystem/observation-category","code":"laboratory","display":"Laboratory"}],"text":"Laboratory"}],"code":{"coding":[{"system":"http://loinc.org","code":"6690-2","display":"Leukocytes [#/volume] in Blood by Automated count"}],"text":"Leukocytes [#/volume] in Blood by Automated count"},"subject":{"reference":"Patient/22a4d066-3cc2-4d39-af04-8b89c3505b17"},"encounter":{"reference":"Encounter/fc24a99f-6f7c-4321-bd99-06aea4286047"},"effectiveDateTime":"2026-04-11T08:00:00.000+00:00","valueQuantity":{"value":8.9,"unit":"K/ul","system":"http://unitsofmeasure.org","code":"K/ul"}},"request":{"method":"PUT","url":"Observation/6daa2402-a22f-4a25-b926-d23f46c5162d"}},{"resource":{"resourceType":"Observation","id":"3a076788-0bed-44a0-b7ff-cff00cb29849","meta":{"profile":["http://hl7.org/fhir/us/qicore/StructureDefinition/qicore-observation-lab"]},"status":"final","category":[{"coding":[{"system":"http://terminology.hl7.org/CodeSystem/observation-category","code":"laboratory","display":"Laboratory"}],"text":"Laboratory"}],"code":{"coding":[{"system":"http://loinc.org","code":"6690-2","display":"Leukocytes [#/volume] in Blood by Automated count"}],"text":"Leukocytes [#/volume] in Blood by Automated count"},"subject":{"reference":"Patient/22a4d066-3cc2-4d39-af04-8b89c3505b17"},"encounter":{"reference":"Encounter/fc24a99f-6f7c-4321-bd99-06aea4286047"},"effectiveDateTime":"2026-04-11T09:00:00.000+00:00","valueQuantity":{"value":6,"unit":"K/ul","system":"http://unitsofmeasure.org","code":"K/ul"}},"request":{"method":"PUT","url":"Observation/3a076788-0bed-44a0-b7ff-cff00cb29849"}}]}