{"resourceType":"Bundle","id":"tests-26bdeffc-bf6b-4def-af9d-6de005fd5603-bundle","type":"transaction","entry":[{"resource":{"resourceType":"MeasureReport","id":"a61e629c-ba74-43fc-86d1-995ead212462","meta":{"profile":["http://hl7.org/fhir/us/cqfmeasures/StructureDefinition/test-case-cqfm"]},"contained":[{"resourceType":"Parameters","id":"2976dfc8-1a12-491f-9c17-13363cf20191-parameters","parameter":[{"name":"subject","valueString":"26bdeffc-bf6b-4def-af9d-6de005fd5603"}]}],"extension":[{"url":"http://hl7.org/fhir/StructureDefinition/cqf-inputParameters","valueReference":{"reference":"#2976dfc8-1a12-491f-9c17-13363cf20191-parameters"}},{"url":"http://hl7.org/fhir/us/cqfmeasures/StructureDefinition/cqfm-testCaseDescription","valueMarkdown":"Elective hospitalization with proc (general anesthesia) within 1st 3 days of encounter. Intubated exactly 30 days after end of anesthesia, outside of OR. Meets Numerator 1."}],"modifierExtension":[{"url":"http://hl7.org/fhir/us/cqfmeasures/StructureDefinition/cqfm-isTestCase","valueBoolean":true}],"status":"complete","type":"individual","measure":"https://madie.cms.gov/Measure/CMS1218FHIRHHRF","period":{"start":"2026-01-01","end":"2026-12-31"},"group":[{"id":"Group_1","population":[{"id":"InitialPopulation_1","code":{"coding":[{"system":"http://terminology.hl7.org/CodeSystem/measure-population","code":"initial-population","display":"Initial Population"}]},"count":1},{"id":"Denominator_1","code":{"coding":[{"system":"http://terminology.hl7.org/CodeSystem/measure-population","code":"denominator","display":"Denominator"}]},"count":1},{"id":"DenominatorExclusion_1","code":{"coding":[{"system":"http://terminology.hl7.org/CodeSystem/measure-population","code":"denominator-exclusion","display":"Denominator Exclusion"}]},"count":0},{"id":"Numerator_1","code":{"coding":[{"system":"http://terminology.hl7.org/CodeSystem/measure-population","code":"numerator","display":"Numerator"}]},"count":1}],"measureScore":{"value":0.0}}],"evaluatedResource":[{"reference":"Procedure/1acf5690-151a-4711-a19c-958f42254c47"},{"reference":"Encounter/cc8118e6-638b-42bd-aab7-7950ab5b85c5"},{"reference":"Patient/26bdeffc-bf6b-4def-af9d-6de005fd5603"},{"reference":"Procedure/0e6bc5ac-a86d-496e-b7e6-8d60d375cd22"}]},"request":{"method":"PUT","url":"MeasureReport/a61e629c-ba74-43fc-86d1-995ead212462"}},{"resource":{"resourceType":"Encounter","id":"cc8118e6-638b-42bd-aab7-7950ab5b85c5","meta":{"profile":["http://hl7.org/fhir/us/qicore/StructureDefinition/qicore-encounter"]},"status":"finished","class":{"system":"http://terminology.hl7.org/CodeSystem/v3-ActCode","code":"IMP","display":"inpatient encounter"},"type":[{"coding":[{"system":"http://snomed.info/sct","code":"112689000","display":"Hospital admission, elective, with complete pre-admission work-up"}],"text":"Hospital admission, elective, with complete pre-admission work-up"}],"priority":{"coding":[{"system":"http://snomed.info/sct","code":"103390000"}]},"subject":{"reference":"Patient/26bdeffc-bf6b-4def-af9d-6de005fd5603"},"period":{"start":"2026-04-10T08:00:00.000+00:00","end":"2026-05-31T08:15:00.000+00:00"}},"request":{"method":"PUT","url":"Encounter/cc8118e6-638b-42bd-aab7-7950ab5b85c5"}},{"resource":{"resourceType":"Procedure","id":"0e6bc5ac-a86d-496e-b7e6-8d60d375cd22","meta":{"profile":["http://hl7.org/fhir/us/qicore/StructureDefinition/qicore-procedure"]},"extension":[{"url":"http://hl7.org/fhir/us/qicore/StructureDefinition/qicore-recorded","valueDateTime":"2026-04-11T08:10:00.000+00:00"}],"status":"completed","code":{"coding":[{"system":"http://www.cms.gov/Medicare/Coding/ICD10","code":"0BH13EZ","display":"Insertion of Endotracheal Airway into Trachea, Percutaneous Approach"}],"text":"Insertion of Endotracheal Airway into Trachea, Percutaneous Approach"},"subject":{"reference":"Patient/26bdeffc-bf6b-4def-af9d-6de005fd5603"},"performedDateTime":"2026-05-11T08:00:00.000+00:00"},"request":{"method":"PUT","url":"Procedure/0e6bc5ac-a86d-496e-b7e6-8d60d375cd22"}},{"resource":{"resourceType":"Procedure","id":"1acf5690-151a-4711-a19c-958f42254c47","meta":{"profile":["http://hl7.org/fhir/us/qicore/StructureDefinition/qicore-procedure"]},"extension":[{"url":"http://hl7.org/fhir/us/qicore/StructureDefinition/qicore-recorded","valueDateTime":"2026-04-11T09:20:00.000+00:00"}],"status":"completed","category":{"coding":[{"system":"http://snomed.info/sct","code":"18286008","display":"General or neuraxial anesthesia"}]},"code":{"coding":[{"system":"http://snomed.info/sct","code":"112943005","display":"Epidural injection of anesthetic substance, diagnostic, caudal, continuous"}]},"subject":{"reference":"Patient/26bdeffc-bf6b-4def-af9d-6de005fd5603"},"performedPeriod":{"start":"2026-04-11T06:00:00.000+00:00","end":"2026-04-11T08:15:00.000+00:00"}},"request":{"method":"PUT","url":"Procedure/1acf5690-151a-4711-a19c-958f42254c47"}},{"resource":{"resourceType":"Patient","id":"26bdeffc-bf6b-4def-af9d-6de005fd5603","meta":{"profile":["http://hl7.org/fhir/us/qicore/StructureDefinition/qicore-patient"]},"extension":[{"url":"http://hl7.org/fhir/us/core/StructureDefinition/us-core-race","extension":[{"url":"ombCategory","valueCoding":{"system":"urn:oid:2.16.840.1.113883.6.238","code":"2054-5","display":"Black or African American","userSelected":true}},{"url":"text","valueString":"Black or African American"}]},{"url":"http://hl7.org/fhir/us/core/StructureDefinition/us-core-ethnicity","extension":[{"url":"ombCategory","valueCoding":{"system":"urn:oid:2.16.840.1.113883.6.238","code":"2186-5","display":"Not Hispanic or Latino","userSelected":true}},{"url":"text","valueString":"Not Hispanic or Latino"}]}],"identifier":[{"type":{"coding":[{"system":"http://terminology.hl7.org/CodeSystem/v2-0203","code":"MR"}]},"system":"https://bonnie-fhir.healthit.gov/","value":"61152a3b98086b7a79cbd7c1"}],"active":true,"name":[{"use":"usual","family":"NUMER1Pass","given":["IntubationEQ30DaysAftFirstOR"]}],"gender":"female","birthDate":"1966-07-12"},"request":{"method":"PUT","url":"Patient/26bdeffc-bf6b-4def-af9d-6de005fd5603"}},{"resource":{"resourceType":"Bundle","id":"tests-26bdeffc-bf6b-4def-af9d-6de005fd5603-bundle","type":"transaction","entry":[{"fullUrl":"https://madie.cms.gov/Procedure/1acf5690-151a-4711-a19c-958f42254c47","resource":{"resourceType":"Procedure","id":"1acf5690-151a-4711-a19c-958f42254c47","meta":{"profile":["http://hl7.org/fhir/us/qicore/StructureDefinition/qicore-procedure"]},"extension":[{"url":"http://hl7.org/fhir/us/qicore/StructureDefinition/qicore-recorded","valueDateTime":"2026-04-11T09:20:00.000+00:00"}],"status":"completed","category":{"coding":[{"system":"http://snomed.info/sct","code":"18286008","display":"General or neuraxial anesthesia"}]},"code":{"coding":[{"system":"http://snomed.info/sct","code":"112943005","display":"Epidural injection of anesthetic substance, diagnostic, caudal, continuous"}]},"subject":{"reference":"Patient/26bdeffc-bf6b-4def-af9d-6de005fd5603"},"performedPeriod":{"start":"2026-04-11T06:00:00.000+00:00","end":"2026-04-11T08:15:00.000+00:00"}},"request":{"method":"PUT","url":"Procedure/1acf5690-151a-4711-a19c-958f42254c47"}},{"fullUrl":"https://madie.cms.gov/Encounter/cc8118e6-638b-42bd-aab7-7950ab5b85c5","resource":{"resourceType":"Encounter","id":"cc8118e6-638b-42bd-aab7-7950ab5b85c5","meta":{"profile":["http://hl7.org/fhir/us/qicore/StructureDefinition/qicore-encounter"]},"status":"finished","class":{"system":"http://terminology.hl7.org/CodeSystem/v3-ActCode","code":"IMP","display":"inpatient encounter"},"type":[{"coding":[{"system":"http://snomed.info/sct","code":"112689000","display":"Hospital admission, elective, with complete pre-admission work-up"}],"text":"Hospital admission, elective, with complete pre-admission work-up"}],"priority":{"coding":[{"system":"http://snomed.info/sct","code":"103390000"}]},"subject":{"reference":"Patient/26bdeffc-bf6b-4def-af9d-6de005fd5603"},"period":{"start":"2026-04-10T08:00:00.000+00:00","end":"2026-05-31T08:15:00.000+00:00"}},"request":{"method":"PUT","url":"Encounter/cc8118e6-638b-42bd-aab7-7950ab5b85c5"}},{"fullUrl":"https://madie.cms.gov/Patient/26bdeffc-bf6b-4def-af9d-6de005fd5603","resource":{"resourceType":"Patient","id":"26bdeffc-bf6b-4def-af9d-6de005fd5603","meta":{"profile":["http://hl7.org/fhir/us/qicore/StructureDefinition/qicore-patient"]},"extension":[{"url":"http://hl7.org/fhir/us/core/StructureDefinition/us-core-race","extension":[{"url":"ombCategory","valueCoding":{"system":"urn:oid:2.16.840.1.113883.6.238","code":"2054-5","display":"Black or African American","userSelected":true}},{"url":"text","valueString":"Black or African American"}]},{"url":"http://hl7.org/fhir/us/core/StructureDefinition/us-core-ethnicity","extension":[{"url":"ombCategory","valueCoding":{"system":"urn:oid:2.16.840.1.113883.6.238","code":"2186-5","display":"Not Hispanic or Latino","userSelected":true}},{"url":"text","valueString":"Not Hispanic or Latino"}]}],"identifier":[{"type":{"coding":[{"system":"http://terminology.hl7.org/CodeSystem/v2-0203","code":"MR"}]},"system":"https://bonnie-fhir.healthit.gov/","value":"61152a3b98086b7a79cbd7c1"}],"active":true,"name":[{"use":"usual","family":"NUMER1Pass","given":["IntubationEQ30DaysAftFirstOR"]}],"gender":"female","birthDate":"1966-07-12"},"request":{"method":"PUT","url":"Patient/26bdeffc-bf6b-4def-af9d-6de005fd5603"}},{"fullUrl":"https://madie.cms.gov/Procedure/0e6bc5ac-a86d-496e-b7e6-8d60d375cd22","resource":{"resourceType":"Procedure","id":"0e6bc5ac-a86d-496e-b7e6-8d60d375cd22","meta":{"profile":["http://hl7.org/fhir/us/qicore/StructureDefinition/qicore-procedure"]},"extension":[{"url":"http://hl7.org/fhir/us/qicore/StructureDefinition/qicore-recorded","valueDateTime":"2026-04-11T08:10:00.000+00:00"}],"status":"completed","code":{"coding":[{"system":"http://www.cms.gov/Medicare/Coding/ICD10","code":"0BH13EZ","display":"Insertion of Endotracheal Airway into Trachea, Percutaneous Approach"}],"text":"Insertion of Endotracheal Airway into Trachea, Percutaneous Approach"},"subject":{"reference":"Patient/26bdeffc-bf6b-4def-af9d-6de005fd5603"},"performedDateTime":"2026-05-11T08:00:00.000+00:00"},"request":{"method":"PUT","url":"Procedure/0e6bc5ac-a86d-496e-b7e6-8d60d375cd22"}},{"fullUrl":"https://madie.cms.gov/MeasureReport/a61e629c-ba74-43fc-86d1-995ead212462","resource":{"resourceType":"MeasureReport","id":"a61e629c-ba74-43fc-86d1-995ead212462","meta":{"profile":["http://hl7.org/fhir/us/cqfmeasures/StructureDefinition/test-case-cqfm"]},"contained":[{"resourceType":"Parameters","id":"2976dfc8-1a12-491f-9c17-13363cf20191-parameters","parameter":[{"name":"subject","valueString":"26bdeffc-bf6b-4def-af9d-6de005fd5603"}]}],"extension":[{"url":"http://hl7.org/fhir/StructureDefinition/cqf-inputParameters","valueReference":{"reference":"#2976dfc8-1a12-491f-9c17-13363cf20191-parameters"}},{"url":"http://hl7.org/fhir/us/cqfmeasures/StructureDefinition/cqfm-testCaseDescription","valueMarkdown":"Elective hospitalization with proc (general anesthesia) within 1st 3 days of encounter. Intubated exactly 30 days after end of anesthesia, outside of OR. Meets Numerator 1."}],"modifierExtension":[{"url":"http://hl7.org/fhir/us/cqfmeasures/StructureDefinition/cqfm-isTestCase","valueBoolean":true}],"status":"complete","type":"individual","measure":"https://madie.cms.gov/Measure/CMS1218FHIRHHRF","period":{"start":"2026-01-01","end":"2026-12-31"},"group":[{"id":"Group_1","population":[{"id":"InitialPopulation_1","code":{"coding":[{"system":"http://terminology.hl7.org/CodeSystem/measure-population","code":"initial-population","display":"Initial Population"}]},"count":1},{"id":"Denominator_1","code":{"coding":[{"system":"http://terminology.hl7.org/CodeSystem/measure-population","code":"denominator","display":"Denominator"}]},"count":1},{"id":"DenominatorExclusion_1","code":{"coding":[{"system":"http://terminology.hl7.org/CodeSystem/measure-population","code":"denominator-exclusion","display":"Denominator Exclusion"}]},"count":0},{"id":"Numerator_1","code":{"coding":[{"system":"http://terminology.hl7.org/CodeSystem/measure-population","code":"numerator","display":"Numerator"}]},"count":1}],"measureScore":{"value":0.0}}],"evaluatedResource":[{"reference":"Procedure/1acf5690-151a-4711-a19c-958f42254c47"},{"reference":"Encounter/cc8118e6-638b-42bd-aab7-7950ab5b85c5"},{"reference":"Patient/26bdeffc-bf6b-4def-af9d-6de005fd5603"},{"reference":"Procedure/0e6bc5ac-a86d-496e-b7e6-8d60d375cd22"}]},"request":{"method":"PUT","url":"MeasureReport/a61e629c-ba74-43fc-86d1-995ead212462"}}]},"request":{"method":"PUT","url":"Bundle/tests-26bdeffc-bf6b-4def-af9d-6de005fd5603-bundle"}}]}