{"resourceType":"Bundle","id":"tests-02ee1832-5609-46f6-83ad-32c04620619b-bundle","type":"transaction","entry":[{"resource":{"resourceType":"Procedure","id":"84fd5d6c-0891-464a-b973-ceb1a8c37d09","meta":{"profile":["http://hl7.org/fhir/us/qicore/StructureDefinition/qicore-procedure"]},"extension":[{"url":"http://hl7.org/fhir/us/qicore/StructureDefinition/qicore-recorded","valueDateTime":"2026-04-11T10:20:00.000+00:00"}],"status":"completed","category":{"coding":[{"system":"http://snomed.info/sct","code":"18286008","display":"General or neuraxial anesthesia"}]},"code":{"coding":[{"system":"http://snomed.info/sct","code":"112943005","display":"Epidural injection of anesthetic substance, diagnostic, caudal, continuous"}]},"subject":{"reference":"Patient/02ee1832-5609-46f6-83ad-32c04620619b"},"performedPeriod":{"start":"2026-04-11T08:00:00.000+00:00","end":"2026-04-11T10:15:00.000+00:00"}},"request":{"method":"PUT","url":"Procedure/84fd5d6c-0891-464a-b973-ceb1a8c37d09"}},{"resource":{"resourceType":"Condition","id":"69de7f03-3a52-4324-aa03-b34045ccd4bd","meta":{"profile":["http://hl7.org/fhir/us/qicore/StructureDefinition/qicore-condition-encounter-diagnosis"]},"clinicalStatus":{"coding":[{"system":"http://terminology.hl7.org/CodeSystem/condition-clinical","code":"active","display":"Active","userSelected":true}]},"verificationStatus":{"coding":[{"system":"http://terminology.hl7.org/CodeSystem/condition-ver-status","code":"confirmed","display":"Confirmed","userSelected":true}]},"category":[{"coding":[{"system":"http://terminology.hl7.org/CodeSystem/condition-category","code":"encounter-diagnosis","display":"Encounter Diagnosis","userSelected":true}]}],"code":{"coding":[{"system":"http://hl7.org/fhir/sid/icd-10-cm","code":"F09","display":"Unsp mental disorder due to known physiological condition","userSelected":true}]},"subject":{"reference":"Patient/02ee1832-5609-46f6-83ad-32c04620619b"},"onsetPeriod":{"start":"2026-04-10T08:00:00.000+00:00"},"recordedDate":"2026-04-10T08:05:00.000+00:00"},"request":{"method":"PUT","url":"Condition/69de7f03-3a52-4324-aa03-b34045ccd4bd"}},{"resource":{"resourceType":"Patient","id":"02ee1832-5609-46f6-83ad-32c04620619b","meta":{"profile":["http://hl7.org/fhir/us/qicore/StructureDefinition/qicore-patient"]},"extension":[{"url":"http://hl7.org/fhir/us/core/StructureDefinition/us-core-race","extension":[{"url":"ombCategory","valueCoding":{"system":"urn:oid:2.16.840.1.113883.6.238","code":"2054-5","display":"Black or African American","userSelected":true}},{"url":"text","valueString":"Black or African American"}]},{"url":"http://hl7.org/fhir/us/core/StructureDefinition/us-core-ethnicity","extension":[{"url":"ombCategory","valueCoding":{"system":"urn:oid:2.16.840.1.113883.6.238","code":"2186-5","display":"Not Hispanic or Latino","userSelected":true}},{"url":"text","valueString":"Not Hispanic or Latino"}]}],"identifier":[{"type":{"coding":[{"system":"http://terminology.hl7.org/CodeSystem/v2-0203","code":"MR"}]},"system":"https://bonnie-fhir.healthit.gov/","value":"61152a3b98086b7a79cbd7c1"}],"active":true,"name":[{"use":"usual","family":"DENEXPass","given":["DegenerativeNeuroDisorder"]}],"gender":"female","birthDate":"1966-07-12"},"request":{"method":"PUT","url":"Patient/02ee1832-5609-46f6-83ad-32c04620619b"}},{"resource":{"resourceType":"Bundle","id":"tests-25a4e31a-832c-4337-9a8e-8a0a6dfb189d-bundle","type":"transaction","entry":[{"fullUrl":"https://madie.cms.gov/Procedure/84fd5d6c-0891-464a-b973-ceb1a8c37d09","resource":{"resourceType":"Procedure","id":"84fd5d6c-0891-464a-b973-ceb1a8c37d09","meta":{"profile":["http://hl7.org/fhir/us/qicore/StructureDefinition/qicore-procedure"]},"extension":[{"url":"http://hl7.org/fhir/us/qicore/StructureDefinition/qicore-recorded","valueDateTime":"2026-04-11T10:20:00.000+00:00"}],"status":"completed","category":{"coding":[{"system":"http://snomed.info/sct","code":"18286008","display":"General or neuraxial anesthesia"}]},"code":{"coding":[{"system":"http://snomed.info/sct","code":"112943005","display":"Epidural injection of anesthetic substance, diagnostic, caudal, continuous"}]},"subject":{"reference":"Patient/02ee1832-5609-46f6-83ad-32c04620619b"},"performedPeriod":{"start":"2026-04-11T08:00:00.000+00:00","end":"2026-04-11T10:15:00.000+00:00"}},"request":{"method":"PUT","url":"Procedure/84fd5d6c-0891-464a-b973-ceb1a8c37d09"}},{"fullUrl":"https://madie.cms.gov/Encounter/dec959af-b729-4d48-b22a-8b7b919d269c","resource":{"resourceType":"Encounter","id":"dec959af-b729-4d48-b22a-8b7b919d269c","meta":{"profile":["http://hl7.org/fhir/us/qicore/StructureDefinition/qicore-encounter"]},"status":"finished","class":{"system":"http://terminology.hl7.org/CodeSystem/v3-ActCode","code":"IMP","display":"inpatient encounter"},"type":[{"coding":[{"system":"http://snomed.info/sct","code":"112689000","display":"Hospital admission, elective, with complete pre-admission work-up"}],"text":"Hospital admission, elective, with complete pre-admission work-up"}],"priority":{"coding":[{"system":"http://snomed.info/sct","code":"103390000"}]},"subject":{"reference":"Patient/02ee1832-5609-46f6-83ad-32c04620619b"},"period":{"start":"2026-04-10T08:00:00.000+00:00","end":"2026-04-14T08:15:00.000+00:00"},"reasonReference":[{"reference":"Condition/69de7f03-3a52-4324-aa03-b34045ccd4bd"}]},"request":{"method":"PUT","url":"Encounter/dec959af-b729-4d48-b22a-8b7b919d269c"}},{"fullUrl":"https://madie.cms.gov/Patient/02ee1832-5609-46f6-83ad-32c04620619b","resource":{"resourceType":"Patient","id":"02ee1832-5609-46f6-83ad-32c04620619b","meta":{"profile":["http://hl7.org/fhir/us/qicore/StructureDefinition/qicore-patient"]},"extension":[{"url":"http://hl7.org/fhir/us/core/StructureDefinition/us-core-race","extension":[{"url":"ombCategory","valueCoding":{"system":"urn:oid:2.16.840.1.113883.6.238","code":"2054-5","display":"Black or African American","userSelected":true}},{"url":"text","valueString":"Black or African American"}]},{"url":"http://hl7.org/fhir/us/core/StructureDefinition/us-core-ethnicity","extension":[{"url":"ombCategory","valueCoding":{"system":"urn:oid:2.16.840.1.113883.6.238","code":"2186-5","display":"Not Hispanic or Latino","userSelected":true}},{"url":"text","valueString":"Not Hispanic or Latino"}]}],"identifier":[{"type":{"coding":[{"system":"http://terminology.hl7.org/CodeSystem/v2-0203","code":"MR"}]},"system":"https://bonnie-fhir.healthit.gov/","value":"61152a3b98086b7a79cbd7c1"}],"active":true,"name":[{"use":"usual","family":"DENEXPass","given":["DegenerativeNeuroDisorder"]}],"gender":"female","birthDate":"1966-07-12"},"request":{"method":"PUT","url":"Patient/02ee1832-5609-46f6-83ad-32c04620619b"}},{"fullUrl":"https://madie.cms.gov/Condition/69de7f03-3a52-4324-aa03-b34045ccd4bd","resource":{"resourceType":"Condition","id":"69de7f03-3a52-4324-aa03-b34045ccd4bd","meta":{"profile":["http://hl7.org/fhir/us/qicore/StructureDefinition/qicore-condition-encounter-diagnosis"]},"clinicalStatus":{"coding":[{"system":"http://terminology.hl7.org/CodeSystem/condition-clinical","code":"active","display":"Active","userSelected":true}]},"verificationStatus":{"coding":[{"system":"http://terminology.hl7.org/CodeSystem/condition-ver-status","code":"confirmed","display":"Confirmed","userSelected":true}]},"category":[{"coding":[{"system":"http://terminology.hl7.org/CodeSystem/condition-category","code":"encounter-diagnosis","display":"Encounter Diagnosis","userSelected":true}]}],"code":{"coding":[{"system":"http://hl7.org/fhir/sid/icd-10-cm","code":"F09","display":"Unsp mental disorder due to known physiological condition","userSelected":true}]},"subject":{"reference":"Patient/02ee1832-5609-46f6-83ad-32c04620619b"},"onsetPeriod":{"start":"2026-04-10T08:00:00.000+00:00"},"recordedDate":"2026-04-10T08:05:00.000+00:00"},"request":{"method":"PUT","url":"Condition/69de7f03-3a52-4324-aa03-b34045ccd4bd"}},{"fullUrl":"https://madie.cms.gov/MeasureReport/0f2d274f-042a-4bda-9317-93980689c6f7","resource":{"resourceType":"MeasureReport","id":"0f2d274f-042a-4bda-9317-93980689c6f7","meta":{"profile":["http://hl7.org/fhir/us/cqfmeasures/StructureDefinition/test-case-cqfm"]},"contained":[{"resourceType":"Parameters","id":"e6024e41-f4d5-4acf-9063-f3516101c98e-parameters","parameter":[{"name":"subject","valueString":"02ee1832-5609-46f6-83ad-32c04620619b"}]}],"extension":[{"url":"http://hl7.org/fhir/StructureDefinition/cqf-inputParameters","valueReference":{"reference":"#e6024e41-f4d5-4acf-9063-f3516101c98e-parameters"}},{"url":"http://hl7.org/fhir/us/cqfmeasures/StructureDefinition/cqfm-testCaseDescription","valueMarkdown":"Elective hospitalization with procedure (general anesthesia) within first 3 days of encounter. But has encounter diagnosis of degenerative neurological disorder via reasonReference so meets denom exclusion. \n"}],"modifierExtension":[{"url":"http://hl7.org/fhir/us/cqfmeasures/StructureDefinition/cqfm-isTestCase","valueBoolean":true}],"status":"complete","type":"individual","measure":"https://madie.cms.gov/Measure/CMS1218FHIRHHRF","period":{"start":"2026-01-01","end":"2026-12-31"},"group":[{"id":"Group_1","population":[{"id":"InitialPopulation_1","code":{"coding":[{"system":"http://terminology.hl7.org/CodeSystem/measure-population","code":"initial-population","display":"Initial Population"}]},"count":1},{"id":"Denominator_1","code":{"coding":[{"system":"http://terminology.hl7.org/CodeSystem/measure-population","code":"denominator","display":"Denominator"}]},"count":1},{"id":"DenominatorExclusion_1","code":{"coding":[{"system":"http://terminology.hl7.org/CodeSystem/measure-population","code":"denominator-exclusion","display":"Denominator Exclusion"}]},"count":1},{"id":"Numerator_1","code":{"coding":[{"system":"http://terminology.hl7.org/CodeSystem/measure-population","code":"numerator","display":"Numerator"}]},"count":0}],"measureScore":{"value":0.0}}],"evaluatedResource":[{"reference":"Procedure/84fd5d6c-0891-464a-b973-ceb1a8c37d09"},{"reference":"Encounter/dec959af-b729-4d48-b22a-8b7b919d269c"},{"reference":"Patient/02ee1832-5609-46f6-83ad-32c04620619b"},{"reference":"Condition/69de7f03-3a52-4324-aa03-b34045ccd4bd"}]},"request":{"method":"PUT","url":"MeasureReport/0f2d274f-042a-4bda-9317-93980689c6f7"}}]},"request":{"method":"PUT","url":"Bundle/tests-25a4e31a-832c-4337-9a8e-8a0a6dfb189d-bundle"}},{"resource":{"resourceType":"Encounter","id":"dec959af-b729-4d48-b22a-8b7b919d269c","meta":{"profile":["http://hl7.org/fhir/us/qicore/StructureDefinition/qicore-encounter"]},"status":"finished","class":{"system":"http://terminology.hl7.org/CodeSystem/v3-ActCode","code":"IMP","display":"inpatient encounter"},"type":[{"coding":[{"system":"http://snomed.info/sct","code":"112689000","display":"Hospital admission, elective, with complete pre-admission work-up"}],"text":"Hospital admission, elective, with complete pre-admission work-up"}],"priority":{"coding":[{"system":"http://snomed.info/sct","code":"103390000"}]},"subject":{"reference":"Patient/02ee1832-5609-46f6-83ad-32c04620619b"},"period":{"start":"2026-04-10T08:00:00.000+00:00","end":"2026-04-14T08:15:00.000+00:00"},"reasonReference":[{"reference":"Condition/69de7f03-3a52-4324-aa03-b34045ccd4bd"}]},"request":{"method":"PUT","url":"Encounter/dec959af-b729-4d48-b22a-8b7b919d269c"}},{"resource":{"resourceType":"MeasureReport","id":"0f2d274f-042a-4bda-9317-93980689c6f7","meta":{"profile":["http://hl7.org/fhir/us/cqfmeasures/StructureDefinition/test-case-cqfm"]},"contained":[{"resourceType":"Parameters","id":"e6024e41-f4d5-4acf-9063-f3516101c98e-parameters","parameter":[{"name":"subject","valueString":"02ee1832-5609-46f6-83ad-32c04620619b"}]}],"extension":[{"url":"http://hl7.org/fhir/StructureDefinition/cqf-inputParameters","valueReference":{"reference":"#e6024e41-f4d5-4acf-9063-f3516101c98e-parameters"}},{"url":"http://hl7.org/fhir/us/cqfmeasures/StructureDefinition/cqfm-testCaseDescription","valueMarkdown":"Elective hospitalization with procedure (general anesthesia) within first 3 days of encounter. But has encounter diagnosis of degenerative neurological disorder via reasonReference so meets denom exclusion. \n"}],"modifierExtension":[{"url":"http://hl7.org/fhir/us/cqfmeasures/StructureDefinition/cqfm-isTestCase","valueBoolean":true}],"status":"complete","type":"individual","measure":"https://madie.cms.gov/Measure/CMS1218FHIRHHRF","period":{"start":"2026-01-01","end":"2026-12-31"},"group":[{"id":"Group_1","population":[{"id":"InitialPopulation_1","code":{"coding":[{"system":"http://terminology.hl7.org/CodeSystem/measure-population","code":"initial-population","display":"Initial Population"}]},"count":1},{"id":"Denominator_1","code":{"coding":[{"system":"http://terminology.hl7.org/CodeSystem/measure-population","code":"denominator","display":"Denominator"}]},"count":1},{"id":"DenominatorExclusion_1","code":{"coding":[{"system":"http://terminology.hl7.org/CodeSystem/measure-population","code":"denominator-exclusion","display":"Denominator Exclusion"}]},"count":1},{"id":"Numerator_1","code":{"coding":[{"system":"http://terminology.hl7.org/CodeSystem/measure-population","code":"numerator","display":"Numerator"}]},"count":0}],"measureScore":{"value":0.0}}],"evaluatedResource":[{"reference":"Procedure/84fd5d6c-0891-464a-b973-ceb1a8c37d09"},{"reference":"Encounter/dec959af-b729-4d48-b22a-8b7b919d269c"},{"reference":"Patient/02ee1832-5609-46f6-83ad-32c04620619b"},{"reference":"Condition/69de7f03-3a52-4324-aa03-b34045ccd4bd"}]},"request":{"method":"PUT","url":"MeasureReport/0f2d274f-042a-4bda-9317-93980689c6f7"}}]}