{"resourceType":"Bundle","id":"tests-5dfd143a-78bc-405c-acf5-cdf906987ab2-bundle","type":"transaction","entry":[{"resource":{"resourceType":"Patient","id":"5dfd143a-78bc-405c-acf5-cdf906987ab2","meta":{"profile":["http://hl7.org/fhir/us/qicore/StructureDefinition/qicore-patient"]},"extension":[{"url":"http://hl7.org/fhir/us/core/StructureDefinition/us-core-race","extension":[{"url":"ombCategory","valueCoding":{"system":"urn:oid:2.16.840.1.113883.6.238","code":"2054-5","display":"Black or African American","userSelected":true}},{"url":"text","valueString":"Black or African American"}]},{"url":"http://hl7.org/fhir/us/core/StructureDefinition/us-core-ethnicity","extension":[{"url":"ombCategory","valueCoding":{"system":"urn:oid:2.16.840.1.113883.6.238","code":"2186-5","display":"Not Hispanic or Latino","userSelected":true}},{"url":"text","valueString":"Not Hispanic or Latino"}]}],"identifier":[{"type":{"coding":[{"system":"http://terminology.hl7.org/CodeSystem/v2-0203","code":"MR"}]},"system":"https://bonnie-fhir.healthit.gov/","value":"61152a3b98086b7a79cbd7c1"}],"active":true,"name":[{"use":"usual","family":"DENOMPass","given":["RiskVariableASAClass"]}],"gender":"female","birthDate":"1966-07-12"},"request":{"method":"PUT","url":"Patient/5dfd143a-78bc-405c-acf5-cdf906987ab2"}},{"resource":{"resourceType":"Encounter","id":"e2706f0b-cf51-4efc-85c3-02c020b57866","meta":{"profile":["http://hl7.org/fhir/us/qicore/StructureDefinition/qicore-encounter"]},"status":"finished","class":{"system":"http://terminology.hl7.org/CodeSystem/v3-ActCode","code":"IMP","display":"inpatient encounter"},"type":[{"coding":[{"system":"http://snomed.info/sct","code":"112689000","display":"Hospital admission, elective, with complete pre-admission work-up"}],"text":"Hospital admission, elective, with complete pre-admission work-up"}],"priority":{"coding":[{"system":"http://snomed.info/sct","code":"103390000"}]},"subject":{"reference":"Patient/5dfd143a-78bc-405c-acf5-cdf906987ab2"},"period":{"start":"2026-04-10T08:00:00.000+00:00","end":"2026-04-14T08:15:00.000+00:00"},"diagnosis":[{"condition":{"reference":"Procedure/967e440e-8766-4705-924b-00b4a61b0458"},"rank":1}]},"request":{"method":"PUT","url":"Encounter/e2706f0b-cf51-4efc-85c3-02c020b57866"}},{"resource":{"resourceType":"Bundle","id":"tests-RiskVarPassFirstAST-bundle","type":"transaction","entry":[{"fullUrl":"https://madie.cms.gov/Encounter/e2706f0b-cf51-4efc-85c3-02c020b57866","resource":{"resourceType":"Encounter","id":"e2706f0b-cf51-4efc-85c3-02c020b57866","meta":{"profile":["http://hl7.org/fhir/us/qicore/StructureDefinition/qicore-encounter"]},"status":"finished","class":{"system":"http://terminology.hl7.org/CodeSystem/v3-ActCode","code":"IMP","display":"inpatient encounter"},"type":[{"coding":[{"system":"http://snomed.info/sct","code":"112689000","display":"Hospital admission, elective, with complete pre-admission work-up"}],"text":"Hospital admission, elective, with complete pre-admission work-up"}],"priority":{"coding":[{"system":"http://snomed.info/sct","code":"103390000"}]},"subject":{"reference":"Patient/5dfd143a-78bc-405c-acf5-cdf906987ab2"},"period":{"start":"2026-04-10T08:00:00.000+00:00","end":"2026-04-14T08:15:00.000+00:00"},"diagnosis":[{"condition":{"reference":"Procedure/967e440e-8766-4705-924b-00b4a61b0458"},"rank":1}]},"request":{"method":"PUT","url":"Encounter/e2706f0b-cf51-4efc-85c3-02c020b57866"}},{"fullUrl":"https://madie.cms.gov/Observation/6195458a-d911-42a1-b4ff-3c40e5f2b1b6","resource":{"resourceType":"Observation","id":"6195458a-d911-42a1-b4ff-3c40e5f2b1b6","meta":{"profile":["http://hl7.org/fhir/us/qicore/StructureDefinition/qicore-observation-lab"]},"status":"final","category":[{"coding":[{"system":"http://terminology.hl7.org/CodeSystem/observation-category","code":"laboratory","display":"Laboratory"}],"text":"Laboratory"}],"code":{"coding":[{"system":"http://loinc.org","code":"14627-4","display":"Bicarbonate [Moles/volume] in Venous blood"}]},"subject":{"reference":"Patient/RiskVarPassFirstBicarbonate"},"encounter":{"reference":"Encounter/e2706f0b-cf51-4efc-85c3-02c020b57866"},"effectiveDateTime":"2026-04-11T09:00:00.000+00:00","valueQuantity":{"value":32.1,"unit":"[IU]/L","system":"http://unitsofmeasure.org","code":"[IU]/L"}},"request":{"method":"PUT","url":"Observation/6195458a-d911-42a1-b4ff-3c40e5f2b1b6"}},{"fullUrl":"https://madie.cms.gov/Observation/5bca5bb2-0254-4684-8237-5ff7f698012b","resource":{"resourceType":"Observation","id":"5bca5bb2-0254-4684-8237-5ff7f698012b","meta":{"profile":["http://hl7.org/fhir/us/qicore/StructureDefinition/qicore-observation-lab"]},"status":"final","category":[{"coding":[{"system":"http://terminology.hl7.org/CodeSystem/observation-category","code":"laboratory","display":"Laboratory"}],"text":"Laboratory"}],"code":{"coding":[{"system":"http://loinc.org","version":"2.76","code":"88112-8","display":"Aspartate aminotransferase [Enzymatic activity/volume] in Serum or Plasma by No addition of P-5'-P"}]},"subject":{"reference":"Patient/5dfd143a-78bc-405c-acf5-cdf906987ab2"},"encounter":{"reference":"Encounter/e2706f0b-cf51-4efc-85c3-02c020b57866"},"effectiveDateTime":"2026-04-11T08:00:00.000+00:00","valueQuantity":{"value":25.1,"unit":"[IU]/L","system":"http://unitsofmeasure.org","code":"[IU]/L"}},"request":{"method":"PUT","url":"Observation/5bca5bb2-0254-4684-8237-5ff7f698012b"}},{"fullUrl":"https://madie.cms.gov/Patient/5dfd143a-78bc-405c-acf5-cdf906987ab2","resource":{"resourceType":"Patient","id":"5dfd143a-78bc-405c-acf5-cdf906987ab2","meta":{"profile":["http://hl7.org/fhir/us/qicore/StructureDefinition/qicore-patient"]},"extension":[{"url":"http://hl7.org/fhir/us/core/StructureDefinition/us-core-race","extension":[{"url":"ombCategory","valueCoding":{"system":"urn:oid:2.16.840.1.113883.6.238","code":"2054-5","display":"Black or African American","userSelected":true}},{"url":"text","valueString":"Black or African American"}]},{"url":"http://hl7.org/fhir/us/core/StructureDefinition/us-core-ethnicity","extension":[{"url":"ombCategory","valueCoding":{"system":"urn:oid:2.16.840.1.113883.6.238","code":"2186-5","display":"Not Hispanic or Latino","userSelected":true}},{"url":"text","valueString":"Not Hispanic or Latino"}]}],"identifier":[{"type":{"coding":[{"system":"http://terminology.hl7.org/CodeSystem/v2-0203","code":"MR"}]},"system":"https://bonnie-fhir.healthit.gov/","value":"61152a3b98086b7a79cbd7c1"}],"active":true,"name":[{"use":"usual","family":"DENOMPass","given":["RiskVariableASAClass"]}],"gender":"female","birthDate":"1966-07-12"},"request":{"method":"PUT","url":"Patient/5dfd143a-78bc-405c-acf5-cdf906987ab2"}},{"fullUrl":"https://madie.cms.gov/Procedure/c39aff07-a21f-437e-8551-6f89a00dd401","resource":{"resourceType":"Procedure","id":"c39aff07-a21f-437e-8551-6f89a00dd401","meta":{"profile":["http://hl7.org/fhir/us/qicore/StructureDefinition/qicore-procedure"]},"extension":[{"url":"http://hl7.org/fhir/us/qicore/StructureDefinition/qicore-recorded","valueDateTime":"2026-04-11T10:30:00.000+00:00"}],"status":"completed","category":{"coding":[{"system":"http://snomed.info/sct","code":"18286008","display":"General or neuraxial anesthesia"}]},"code":{"coding":[{"system":"http://snomed.info/sct","code":"112943005","display":"Epidural injection of anesthetic substance, diagnostic, caudal, continuous"}]},"subject":{"reference":"Patient/5dfd143a-78bc-405c-acf5-cdf906987ab2"},"performedPeriod":{"start":"2026-04-11T08:00:00.000+00:00","end":"2026-04-11T10:15:00.000+00:00"}},"request":{"method":"PUT","url":"Procedure/c39aff07-a21f-437e-8551-6f89a00dd401"}},{"fullUrl":"https://madie.cms.gov/MeasureReport/69eb8e1a-f27b-4c4b-b4fd-96a2454bf758","resource":{"resourceType":"MeasureReport","id":"69eb8e1a-f27b-4c4b-b4fd-96a2454bf758","meta":{"profile":["http://hl7.org/fhir/us/cqfmeasures/StructureDefinition/test-case-cqfm"]},"contained":[{"resourceType":"Parameters","id":"7fe1cc13-95c2-496d-8900-d753735b16c3-parameters","parameter":[{"name":"subject","valueString":"5dfd143a-78bc-405c-acf5-cdf906987ab2"}]}],"extension":[{"url":"http://hl7.org/fhir/StructureDefinition/cqf-inputParameters","valueReference":{"reference":"#7fe1cc13-95c2-496d-8900-d753735b16c3-parameters"}},{"url":"http://hl7.org/fhir/us/cqfmeasures/StructureDefinition/cqfm-testCaseDescription","valueMarkdown":"DENOMPass. Satisfies First AST Lab risk variable"}],"modifierExtension":[{"url":"http://hl7.org/fhir/us/cqfmeasures/StructureDefinition/cqfm-isTestCase","valueBoolean":true}],"status":"complete","type":"individual","measure":"https://madie.cms.gov/Measure/CMS1218FHIRHHRF","period":{"start":"2026-01-01","end":"2026-12-31"},"group":[{"id":"Group_1","population":[{"id":"InitialPopulation_1","code":{"coding":[{"system":"http://terminology.hl7.org/CodeSystem/measure-population","code":"initial-population","display":"Initial Population"}]},"count":1},{"id":"Denominator_1","code":{"coding":[{"system":"http://terminology.hl7.org/CodeSystem/measure-population","code":"denominator","display":"Denominator"}]},"count":1},{"id":"DenominatorExclusion_1","code":{"coding":[{"system":"http://terminology.hl7.org/CodeSystem/measure-population","code":"denominator-exclusion","display":"Denominator Exclusion"}]},"count":0},{"id":"Numerator_1","code":{"coding":[{"system":"http://terminology.hl7.org/CodeSystem/measure-population","code":"numerator","display":"Numerator"}]},"count":0}],"measureScore":{"value":0.0}}],"evaluatedResource":[{"reference":"Encounter/e2706f0b-cf51-4efc-85c3-02c020b57866"},{"reference":"Observation/6195458a-d911-42a1-b4ff-3c40e5f2b1b6"},{"reference":"Observation/5bca5bb2-0254-4684-8237-5ff7f698012b"},{"reference":"Patient/5dfd143a-78bc-405c-acf5-cdf906987ab2"},{"reference":"Procedure/c39aff07-a21f-437e-8551-6f89a00dd401"}]},"request":{"method":"PUT","url":"MeasureReport/69eb8e1a-f27b-4c4b-b4fd-96a2454bf758"}}]},"request":{"method":"PUT","url":"Bundle/tests-RiskVarPassFirstAST-bundle"}},{"resource":{"resourceType":"Procedure","id":"c39aff07-a21f-437e-8551-6f89a00dd401","meta":{"profile":["http://hl7.org/fhir/us/qicore/StructureDefinition/qicore-procedure"]},"extension":[{"url":"http://hl7.org/fhir/us/qicore/StructureDefinition/qicore-recorded","valueDateTime":"2026-04-11T10:30:00.000+00:00"}],"status":"completed","category":{"coding":[{"system":"http://snomed.info/sct","code":"18286008","display":"General or neuraxial anesthesia"}]},"code":{"coding":[{"system":"http://snomed.info/sct","code":"112943005","display":"Epidural injection of anesthetic substance, diagnostic, caudal, continuous"}]},"subject":{"reference":"Patient/5dfd143a-78bc-405c-acf5-cdf906987ab2"},"performedPeriod":{"start":"2026-04-11T08:00:00.000+00:00","end":"2026-04-11T10:15:00.000+00:00"}},"request":{"method":"PUT","url":"Procedure/c39aff07-a21f-437e-8551-6f89a00dd401"}},{"resource":{"resourceType":"Observation","id":"5bca5bb2-0254-4684-8237-5ff7f698012b","meta":{"profile":["http://hl7.org/fhir/us/qicore/StructureDefinition/qicore-observation-lab"]},"status":"final","category":[{"coding":[{"system":"http://terminology.hl7.org/CodeSystem/observation-category","code":"laboratory","display":"Laboratory"}],"text":"Laboratory"}],"code":{"coding":[{"system":"http://loinc.org","version":"2.76","code":"88112-8","display":"Aspartate aminotransferase [Enzymatic activity/volume] in Serum or Plasma by No addition of P-5'-P"}]},"subject":{"reference":"Patient/5dfd143a-78bc-405c-acf5-cdf906987ab2"},"encounter":{"reference":"Encounter/e2706f0b-cf51-4efc-85c3-02c020b57866"},"effectiveDateTime":"2026-04-11T08:00:00.000+00:00","valueQuantity":{"value":25.1,"unit":"[IU]/L","system":"http://unitsofmeasure.org","code":"[IU]/L"}},"request":{"method":"PUT","url":"Observation/5bca5bb2-0254-4684-8237-5ff7f698012b"}},{"resource":{"resourceType":"Observation","id":"6195458a-d911-42a1-b4ff-3c40e5f2b1b6","meta":{"profile":["http://hl7.org/fhir/us/qicore/StructureDefinition/qicore-observation-lab"]},"status":"final","category":[{"coding":[{"system":"http://terminology.hl7.org/CodeSystem/observation-category","code":"laboratory","display":"Laboratory"}],"text":"Laboratory"}],"code":{"coding":[{"system":"http://loinc.org","code":"14627-4","display":"Bicarbonate [Moles/volume] in Venous blood"}]},"subject":{"reference":"Patient/RiskVarPassFirstBicarbonate"},"encounter":{"reference":"Encounter/e2706f0b-cf51-4efc-85c3-02c020b57866"},"effectiveDateTime":"2026-04-11T09:00:00.000+00:00","valueQuantity":{"value":32.1,"unit":"[IU]/L","system":"http://unitsofmeasure.org","code":"[IU]/L"}},"request":{"method":"PUT","url":"Observation/6195458a-d911-42a1-b4ff-3c40e5f2b1b6"}},{"resource":{"resourceType":"MeasureReport","id":"69eb8e1a-f27b-4c4b-b4fd-96a2454bf758","meta":{"profile":["http://hl7.org/fhir/us/cqfmeasures/StructureDefinition/test-case-cqfm"]},"contained":[{"resourceType":"Parameters","id":"7fe1cc13-95c2-496d-8900-d753735b16c3-parameters","parameter":[{"name":"subject","valueString":"5dfd143a-78bc-405c-acf5-cdf906987ab2"}]}],"extension":[{"url":"http://hl7.org/fhir/StructureDefinition/cqf-inputParameters","valueReference":{"reference":"#7fe1cc13-95c2-496d-8900-d753735b16c3-parameters"}},{"url":"http://hl7.org/fhir/us/cqfmeasures/StructureDefinition/cqfm-testCaseDescription","valueMarkdown":"DENOMPass. Satisfies First AST Lab risk variable"}],"modifierExtension":[{"url":"http://hl7.org/fhir/us/cqfmeasures/StructureDefinition/cqfm-isTestCase","valueBoolean":true}],"status":"complete","type":"individual","measure":"https://madie.cms.gov/Measure/CMS1218FHIRHHRF","period":{"start":"2026-01-01","end":"2026-12-31"},"group":[{"id":"Group_1","population":[{"id":"InitialPopulation_1","code":{"coding":[{"system":"http://terminology.hl7.org/CodeSystem/measure-population","code":"initial-population","display":"Initial Population"}]},"count":1},{"id":"Denominator_1","code":{"coding":[{"system":"http://terminology.hl7.org/CodeSystem/measure-population","code":"denominator","display":"Denominator"}]},"count":1},{"id":"DenominatorExclusion_1","code":{"coding":[{"system":"http://terminology.hl7.org/CodeSystem/measure-population","code":"denominator-exclusion","display":"Denominator Exclusion"}]},"count":0},{"id":"Numerator_1","code":{"coding":[{"system":"http://terminology.hl7.org/CodeSystem/measure-population","code":"numerator","display":"Numerator"}]},"count":0}],"measureScore":{"value":0.0}}],"evaluatedResource":[{"reference":"Encounter/e2706f0b-cf51-4efc-85c3-02c020b57866"},{"reference":"Observation/6195458a-d911-42a1-b4ff-3c40e5f2b1b6"},{"reference":"Observation/5bca5bb2-0254-4684-8237-5ff7f698012b"},{"reference":"Patient/5dfd143a-78bc-405c-acf5-cdf906987ab2"},{"reference":"Procedure/c39aff07-a21f-437e-8551-6f89a00dd401"}]},"request":{"method":"PUT","url":"MeasureReport/69eb8e1a-f27b-4c4b-b4fd-96a2454bf758"}}]}