{"resourceType":"Bundle","id":"tests-9d196de1-92ff-42f7-88a5-b0dfdfa36e57-bundle","type":"transaction","entry":[{"resource":{"resourceType":"Procedure","id":"34f613c5-0247-4ea0-927f-29a709a6af6b","meta":{"profile":["http://hl7.org/fhir/us/qicore/StructureDefinition/qicore-procedure"]},"extension":[{"url":"http://hl7.org/fhir/us/qicore/StructureDefinition/qicore-recorded","valueDateTime":"2026-04-11T10:30:00.000+00:00"}],"status":"completed","category":{"coding":[{"system":"http://snomed.info/sct","code":"18286008","display":"General or neuraxial anesthesia"}]},"code":{"coding":[{"system":"http://snomed.info/sct","code":"112943005","display":"Epidural injection of anesthetic substance, diagnostic, caudal, continuous"}]},"subject":{"reference":"Patient/9d196de1-92ff-42f7-88a5-b0dfdfa36e57"},"performedPeriod":{"start":"2026-04-11T08:00:00.000+00:00","end":"2026-04-11T10:15:00.000+00:00"}},"request":{"method":"PUT","url":"Procedure/34f613c5-0247-4ea0-927f-29a709a6af6b"}},{"resource":{"resourceType":"Bundle","id":"tests-9d196de1-92ff-42f7-88a5-b0dfdfa36e57-bundle","type":"transaction","entry":[{"fullUrl":"https://madie.cms.gov/Procedure/34f613c5-0247-4ea0-927f-29a709a6af6b","resource":{"resourceType":"Procedure","id":"34f613c5-0247-4ea0-927f-29a709a6af6b","meta":{"profile":["http://hl7.org/fhir/us/qicore/StructureDefinition/qicore-procedure"]},"extension":[{"url":"http://hl7.org/fhir/us/qicore/StructureDefinition/qicore-recorded","valueDateTime":"2026-04-11T10:30:00.000+00:00"}],"status":"completed","category":{"coding":[{"system":"http://snomed.info/sct","code":"18286008","display":"General or neuraxial anesthesia"}]},"code":{"coding":[{"system":"http://snomed.info/sct","code":"112943005","display":"Epidural injection of anesthetic substance, diagnostic, caudal, continuous"}]},"subject":{"reference":"Patient/9d196de1-92ff-42f7-88a5-b0dfdfa36e57"},"performedPeriod":{"start":"2026-04-11T08:00:00.000+00:00","end":"2026-04-11T10:15:00.000+00:00"}},"request":{"method":"PUT","url":"Procedure/34f613c5-0247-4ea0-927f-29a709a6af6b"}},{"fullUrl":"https://madie.cms.gov/Patient/9d196de1-92ff-42f7-88a5-b0dfdfa36e57","resource":{"resourceType":"Patient","id":"9d196de1-92ff-42f7-88a5-b0dfdfa36e57","meta":{"profile":["http://hl7.org/fhir/us/qicore/StructureDefinition/qicore-patient"]},"extension":[{"url":"http://hl7.org/fhir/us/core/StructureDefinition/us-core-race","extension":[{"url":"ombCategory","valueCoding":{"system":"urn:oid:2.16.840.1.113883.6.238","code":"2054-5","display":"Black or African American","userSelected":true}},{"url":"text","valueString":"Black or African American"}]},{"url":"http://hl7.org/fhir/us/core/StructureDefinition/us-core-ethnicity","extension":[{"url":"ombCategory","valueCoding":{"system":"urn:oid:2.16.840.1.113883.6.238","code":"2186-5","display":"Not Hispanic or Latino","userSelected":true}},{"url":"text","valueString":"Not Hispanic or Latino"}]}],"identifier":[{"type":{"coding":[{"system":"http://terminology.hl7.org/CodeSystem/v2-0203","code":"MR"}]},"system":"https://bonnie-fhir.healthit.gov/","value":"61152a3b98086b7a79cbd7c1"}],"active":true,"name":[{"use":"usual","family":"DENEXFail","given":["TracheostomyAfterFirstProcedure"]}],"gender":"female","birthDate":"1966-07-12"},"request":{"method":"PUT","url":"Patient/9d196de1-92ff-42f7-88a5-b0dfdfa36e57"}},{"fullUrl":"https://madie.cms.gov/Encounter/76fb4519-e474-435e-a427-0d113c1c878d","resource":{"resourceType":"Encounter","id":"76fb4519-e474-435e-a427-0d113c1c878d","meta":{"profile":["http://hl7.org/fhir/us/qicore/StructureDefinition/qicore-encounter"]},"status":"finished","class":{"system":"http://terminology.hl7.org/CodeSystem/v3-ActCode","code":"IMP","display":"inpatient encounter"},"type":[{"coding":[{"system":"http://snomed.info/sct","code":"112689000","display":"Hospital admission, elective, with complete pre-admission work-up"}],"text":"Hospital admission, elective, with complete pre-admission work-up"}],"priority":{"coding":[{"system":"http://snomed.info/sct","code":"103390000"}]},"subject":{"reference":"Patient/9d196de1-92ff-42f7-88a5-b0dfdfa36e57"},"period":{"start":"2026-04-10T08:00:00.000+00:00","end":"2026-04-14T08:15:00.000+00:00"},"diagnosis":[{"condition":{"reference":"Procedure/34f613c5-0247-4ea0-927f-29a709a6af6b"},"rank":1}]},"request":{"method":"PUT","url":"Encounter/76fb4519-e474-435e-a427-0d113c1c878d"}},{"fullUrl":"https://madie.cms.gov/Procedure/98d3dc05-cc4a-4aea-b3d2-f0c751847c7a","resource":{"resourceType":"Procedure","id":"98d3dc05-cc4a-4aea-b3d2-f0c751847c7a","meta":{"profile":["http://hl7.org/fhir/us/qicore/StructureDefinition/qicore-procedure"]},"extension":[{"url":"http://hl7.org/fhir/us/qicore/StructureDefinition/qicore-recorded","valueDateTime":"2026-04-12T08:20:00.000+00:00"}],"status":"completed","code":{"coding":[{"system":"http://www.cms.gov/Medicare/Coding/ICD10","code":"0BW10FZ","display":"Revision of Tracheostomy Device in Trachea, Open Approach"}],"text":"Revision of Tracheostomy Device in Trachea, Open Approach"},"subject":{"reference":"Patient/9d196de1-92ff-42f7-88a5-b0dfdfa36e57"},"performedPeriod":{"start":"2026-04-12T08:00:00.000+00:00","end":"2026-04-12T08:15:00.000+00:00"}},"request":{"method":"PUT","url":"Procedure/98d3dc05-cc4a-4aea-b3d2-f0c751847c7a"}},{"fullUrl":"https://madie.cms.gov/MeasureReport/f272ba7a-2dca-46db-a0de-f31e7634ee5d","resource":{"resourceType":"MeasureReport","id":"f272ba7a-2dca-46db-a0de-f31e7634ee5d","meta":{"profile":["http://hl7.org/fhir/us/cqfmeasures/StructureDefinition/test-case-cqfm"]},"contained":[{"resourceType":"Parameters","id":"6a2f884c-17c4-4da9-9e02-8ddcc59ff48d-parameters","parameter":[{"name":"subject","valueString":"9d196de1-92ff-42f7-88a5-b0dfdfa36e57"}]}],"extension":[{"url":"http://hl7.org/fhir/StructureDefinition/cqf-inputParameters","valueReference":{"reference":"#6a2f884c-17c4-4da9-9e02-8ddcc59ff48d-parameters"}},{"url":"http://hl7.org/fhir/us/cqfmeasures/StructureDefinition/cqfm-testCaseDescription","valueMarkdown":"Elective hospitalization with procedure (general anesthesia) within first 3 days of encounter. Tracheostomy procedure also done, but done after the first instance of anesthesia. Does not meet exclusion.\n"}],"modifierExtension":[{"url":"http://hl7.org/fhir/us/cqfmeasures/StructureDefinition/cqfm-isTestCase","valueBoolean":true}],"status":"complete","type":"individual","measure":"https://madie.cms.gov/Measure/CMS1218FHIRHHRF","period":{"start":"2026-01-01","end":"2026-12-31"},"group":[{"id":"Group_1","population":[{"id":"InitialPopulation_1","code":{"coding":[{"system":"http://terminology.hl7.org/CodeSystem/measure-population","code":"initial-population","display":"Initial Population"}]},"count":1},{"id":"Denominator_1","code":{"coding":[{"system":"http://terminology.hl7.org/CodeSystem/measure-population","code":"denominator","display":"Denominator"}]},"count":1},{"id":"DenominatorExclusion_1","code":{"coding":[{"system":"http://terminology.hl7.org/CodeSystem/measure-population","code":"denominator-exclusion","display":"Denominator Exclusion"}]},"count":0},{"id":"Numerator_1","code":{"coding":[{"system":"http://terminology.hl7.org/CodeSystem/measure-population","code":"numerator","display":"Numerator"}]},"count":0}],"measureScore":{"value":0.0}}],"evaluatedResource":[{"reference":"Procedure/34f613c5-0247-4ea0-927f-29a709a6af6b"},{"reference":"Patient/9d196de1-92ff-42f7-88a5-b0dfdfa36e57"},{"reference":"Encounter/76fb4519-e474-435e-a427-0d113c1c878d"},{"reference":"Procedure/98d3dc05-cc4a-4aea-b3d2-f0c751847c7a"}]},"request":{"method":"PUT","url":"MeasureReport/f272ba7a-2dca-46db-a0de-f31e7634ee5d"}}]},"request":{"method":"PUT","url":"Bundle/tests-9d196de1-92ff-42f7-88a5-b0dfdfa36e57-bundle"}},{"resource":{"resourceType":"Encounter","id":"76fb4519-e474-435e-a427-0d113c1c878d","meta":{"profile":["http://hl7.org/fhir/us/qicore/StructureDefinition/qicore-encounter"]},"status":"finished","class":{"system":"http://terminology.hl7.org/CodeSystem/v3-ActCode","code":"IMP","display":"inpatient encounter"},"type":[{"coding":[{"system":"http://snomed.info/sct","code":"112689000","display":"Hospital admission, elective, with complete pre-admission work-up"}],"text":"Hospital admission, elective, with complete pre-admission work-up"}],"priority":{"coding":[{"system":"http://snomed.info/sct","code":"103390000"}]},"subject":{"reference":"Patient/9d196de1-92ff-42f7-88a5-b0dfdfa36e57"},"period":{"start":"2026-04-10T08:00:00.000+00:00","end":"2026-04-14T08:15:00.000+00:00"},"diagnosis":[{"condition":{"reference":"Procedure/34f613c5-0247-4ea0-927f-29a709a6af6b"},"rank":1}]},"request":{"method":"PUT","url":"Encounter/76fb4519-e474-435e-a427-0d113c1c878d"}},{"resource":{"resourceType":"Procedure","id":"98d3dc05-cc4a-4aea-b3d2-f0c751847c7a","meta":{"profile":["http://hl7.org/fhir/us/qicore/StructureDefinition/qicore-procedure"]},"extension":[{"url":"http://hl7.org/fhir/us/qicore/StructureDefinition/qicore-recorded","valueDateTime":"2026-04-12T08:20:00.000+00:00"}],"status":"completed","code":{"coding":[{"system":"http://www.cms.gov/Medicare/Coding/ICD10","code":"0BW10FZ","display":"Revision of Tracheostomy Device in Trachea, Open Approach"}],"text":"Revision of Tracheostomy Device in Trachea, Open Approach"},"subject":{"reference":"Patient/9d196de1-92ff-42f7-88a5-b0dfdfa36e57"},"performedPeriod":{"start":"2026-04-12T08:00:00.000+00:00","end":"2026-04-12T08:15:00.000+00:00"}},"request":{"method":"PUT","url":"Procedure/98d3dc05-cc4a-4aea-b3d2-f0c751847c7a"}},{"resource":{"resourceType":"Patient","id":"9d196de1-92ff-42f7-88a5-b0dfdfa36e57","meta":{"profile":["http://hl7.org/fhir/us/qicore/StructureDefinition/qicore-patient"]},"extension":[{"url":"http://hl7.org/fhir/us/core/StructureDefinition/us-core-race","extension":[{"url":"ombCategory","valueCoding":{"system":"urn:oid:2.16.840.1.113883.6.238","code":"2054-5","display":"Black or African American","userSelected":true}},{"url":"text","valueString":"Black or African American"}]},{"url":"http://hl7.org/fhir/us/core/StructureDefinition/us-core-ethnicity","extension":[{"url":"ombCategory","valueCoding":{"system":"urn:oid:2.16.840.1.113883.6.238","code":"2186-5","display":"Not Hispanic or Latino","userSelected":true}},{"url":"text","valueString":"Not Hispanic or Latino"}]}],"identifier":[{"type":{"coding":[{"system":"http://terminology.hl7.org/CodeSystem/v2-0203","code":"MR"}]},"system":"https://bonnie-fhir.healthit.gov/","value":"61152a3b98086b7a79cbd7c1"}],"active":true,"name":[{"use":"usual","family":"DENEXFail","given":["TracheostomyAfterFirstProcedure"]}],"gender":"female","birthDate":"1966-07-12"},"request":{"method":"PUT","url":"Patient/9d196de1-92ff-42f7-88a5-b0dfdfa36e57"}},{"resource":{"resourceType":"MeasureReport","id":"f272ba7a-2dca-46db-a0de-f31e7634ee5d","meta":{"profile":["http://hl7.org/fhir/us/cqfmeasures/StructureDefinition/test-case-cqfm"]},"contained":[{"resourceType":"Parameters","id":"6a2f884c-17c4-4da9-9e02-8ddcc59ff48d-parameters","parameter":[{"name":"subject","valueString":"9d196de1-92ff-42f7-88a5-b0dfdfa36e57"}]}],"extension":[{"url":"http://hl7.org/fhir/StructureDefinition/cqf-inputParameters","valueReference":{"reference":"#6a2f884c-17c4-4da9-9e02-8ddcc59ff48d-parameters"}},{"url":"http://hl7.org/fhir/us/cqfmeasures/StructureDefinition/cqfm-testCaseDescription","valueMarkdown":"Elective hospitalization with procedure (general anesthesia) within first 3 days of encounter. Tracheostomy procedure also done, but done after the first instance of anesthesia. Does not meet exclusion.\n"}],"modifierExtension":[{"url":"http://hl7.org/fhir/us/cqfmeasures/StructureDefinition/cqfm-isTestCase","valueBoolean":true}],"status":"complete","type":"individual","measure":"https://madie.cms.gov/Measure/CMS1218FHIRHHRF","period":{"start":"2026-01-01","end":"2026-12-31"},"group":[{"id":"Group_1","population":[{"id":"InitialPopulation_1","code":{"coding":[{"system":"http://terminology.hl7.org/CodeSystem/measure-population","code":"initial-population","display":"Initial Population"}]},"count":1},{"id":"Denominator_1","code":{"coding":[{"system":"http://terminology.hl7.org/CodeSystem/measure-population","code":"denominator","display":"Denominator"}]},"count":1},{"id":"DenominatorExclusion_1","code":{"coding":[{"system":"http://terminology.hl7.org/CodeSystem/measure-population","code":"denominator-exclusion","display":"Denominator Exclusion"}]},"count":0},{"id":"Numerator_1","code":{"coding":[{"system":"http://terminology.hl7.org/CodeSystem/measure-population","code":"numerator","display":"Numerator"}]},"count":0}],"measureScore":{"value":0.0}}],"evaluatedResource":[{"reference":"Procedure/34f613c5-0247-4ea0-927f-29a709a6af6b"},{"reference":"Patient/9d196de1-92ff-42f7-88a5-b0dfdfa36e57"},{"reference":"Encounter/76fb4519-e474-435e-a427-0d113c1c878d"},{"reference":"Procedure/98d3dc05-cc4a-4aea-b3d2-f0c751847c7a"}]},"request":{"method":"PUT","url":"MeasureReport/f272ba7a-2dca-46db-a0de-f31e7634ee5d"}}]}