{"resourceType":"Bundle","id":"tests-5dc1a11f-f27d-4e85-baf9-d80ca40f2cf9-bundle","type":"transaction","entry":[{"resource":{"resourceType":"Observation","id":"4a737b82-373e-4f4c-9cfa-e7e8d08f6bc8","meta":{"profile":["http://hl7.org/fhir/us/qicore/StructureDefinition/qicore-observation-lab"]},"status":"final","category":[{"coding":[{"system":"http://terminology.hl7.org/CodeSystem/observation-category","code":"laboratory","display":"Laboratory"}],"text":"Laboratory"}],"code":{"coding":[{"system":"http://loinc.org","version":"2.76","code":"89872-6","display":"Bilirubin.total [Moles/volume] in Arterial blood"}]},"subject":{"reference":"Patient/5dc1a11f-f27d-4e85-baf9-d80ca40f2cf9"},"encounter":{"reference":"Encounter/04c24748-6406-42d6-b804-e195075e8475"},"effectiveDateTime":"2026-04-11T08:00:00.000+00:00","valueQuantity":{"value":0.5,"unit":"mg/dL","system":"http://unitsofmeasure.org","code":"mg/dL"}},"request":{"method":"PUT","url":"Observation/4a737b82-373e-4f4c-9cfa-e7e8d08f6bc8"}},{"resource":{"resourceType":"Procedure","id":"f92418c9-2274-4051-8430-db426b4c9358","meta":{"profile":["http://hl7.org/fhir/us/qicore/StructureDefinition/qicore-procedure"]},"extension":[{"url":"http://hl7.org/fhir/us/qicore/StructureDefinition/qicore-recorded","valueDateTime":"2026-04-11T10:30:00.000+00:00"}],"status":"completed","category":{"coding":[{"system":"http://snomed.info/sct","code":"18286008","display":"General or neuraxial anesthesia"}]},"code":{"coding":[{"system":"http://snomed.info/sct","code":"112943005","display":"Epidural injection of anesthetic substance, diagnostic, caudal, continuous"}]},"subject":{"reference":"Patient/5dc1a11f-f27d-4e85-baf9-d80ca40f2cf9"},"performedPeriod":{"start":"2026-04-11T08:00:00.000+00:00","end":"2026-04-11T10:15:00.000+00:00"}},"request":{"method":"PUT","url":"Procedure/f92418c9-2274-4051-8430-db426b4c9358"}},{"resource":{"resourceType":"Encounter","id":"04c24748-6406-42d6-b804-e195075e8475","meta":{"profile":["http://hl7.org/fhir/us/qicore/StructureDefinition/qicore-encounter"]},"status":"finished","class":{"system":"http://terminology.hl7.org/CodeSystem/v3-ActCode","code":"IMP","display":"inpatient encounter"},"type":[{"coding":[{"system":"http://snomed.info/sct","code":"112689000","display":"Hospital admission, elective, with complete pre-admission work-up"}],"text":"Hospital admission, elective, with complete pre-admission work-up"}],"priority":{"coding":[{"system":"http://snomed.info/sct","code":"103390000"}]},"subject":{"reference":"Patient/5dc1a11f-f27d-4e85-baf9-d80ca40f2cf9"},"period":{"start":"2026-04-10T08:00:00.000+00:00","end":"2026-04-14T08:15:00.000+00:00"},"diagnosis":[{"condition":{"reference":"Procedure/967e440e-8766-4705-924b-00b4a61b0458"},"rank":1}]},"request":{"method":"PUT","url":"Encounter/04c24748-6406-42d6-b804-e195075e8475"}},{"resource":{"resourceType":"Observation","id":"44f606ce-b5a8-4ea4-86fd-87acd1c75086","meta":{"profile":["http://hl7.org/fhir/us/qicore/StructureDefinition/qicore-observation-lab"]},"status":"final","category":[{"coding":[{"system":"http://terminology.hl7.org/CodeSystem/observation-category","code":"laboratory","display":"Laboratory"}],"text":"Laboratory"}],"code":{"coding":[{"system":"http://loinc.org","version":"2.76","code":"89872-6","display":"Bilirubin.total [Moles/volume] in Arterial blood"}]},"subject":{"reference":"Patient/5dc1a11f-f27d-4e85-baf9-d80ca40f2cf9"},"encounter":{"reference":"Encounter/04c24748-6406-42d6-b804-e195075e8475"},"effectiveDateTime":"2026-04-11T09:00:00.000+00:00","valueQuantity":{"value":0.6,"unit":"mg/dL","system":"http://unitsofmeasure.org","code":"mg/dL"}},"request":{"method":"PUT","url":"Observation/44f606ce-b5a8-4ea4-86fd-87acd1c75086"}},{"resource":{"resourceType":"Patient","id":"5dc1a11f-f27d-4e85-baf9-d80ca40f2cf9","meta":{"profile":["http://hl7.org/fhir/us/qicore/StructureDefinition/qicore-patient"]},"extension":[{"url":"http://hl7.org/fhir/us/core/StructureDefinition/us-core-race","extension":[{"url":"ombCategory","valueCoding":{"system":"urn:oid:2.16.840.1.113883.6.238","code":"2054-5","display":"Black or African American","userSelected":true}},{"url":"text","valueString":"Black or African American"}]},{"url":"http://hl7.org/fhir/us/core/StructureDefinition/us-core-ethnicity","extension":[{"url":"ombCategory","valueCoding":{"system":"urn:oid:2.16.840.1.113883.6.238","code":"2186-5","display":"Not Hispanic or Latino","userSelected":true}},{"url":"text","valueString":"Not Hispanic or Latino"}]}],"identifier":[{"type":{"coding":[{"system":"http://terminology.hl7.org/CodeSystem/v2-0203","code":"MR"}]},"system":"https://bonnie-fhir.healthit.gov/","value":"61152a3b98086b7a79cbd7c1"}],"active":true,"name":[{"use":"usual","family":"DENOMPass","given":["RiskVariableASAClass"]}],"gender":"female","birthDate":"1966-07-12"},"request":{"method":"PUT","url":"Patient/5dc1a11f-f27d-4e85-baf9-d80ca40f2cf9"}},{"resource":{"resourceType":"Bundle","id":"tests-RiskVarPassFirstBilirubin-bundle","type":"transaction","entry":[{"fullUrl":"https://madie.cms.gov/Encounter/04c24748-6406-42d6-b804-e195075e8475","resource":{"resourceType":"Encounter","id":"04c24748-6406-42d6-b804-e195075e8475","meta":{"profile":["http://hl7.org/fhir/us/qicore/StructureDefinition/qicore-encounter"]},"status":"finished","class":{"system":"http://terminology.hl7.org/CodeSystem/v3-ActCode","code":"IMP","display":"inpatient encounter"},"type":[{"coding":[{"system":"http://snomed.info/sct","code":"112689000","display":"Hospital admission, elective, with complete pre-admission work-up"}],"text":"Hospital admission, elective, with complete pre-admission work-up"}],"priority":{"coding":[{"system":"http://snomed.info/sct","code":"103390000"}]},"subject":{"reference":"Patient/5dc1a11f-f27d-4e85-baf9-d80ca40f2cf9"},"period":{"start":"2026-04-10T08:00:00.000+00:00","end":"2026-04-14T08:15:00.000+00:00"},"diagnosis":[{"condition":{"reference":"Procedure/967e440e-8766-4705-924b-00b4a61b0458"},"rank":1}]},"request":{"method":"PUT","url":"Encounter/04c24748-6406-42d6-b804-e195075e8475"}},{"fullUrl":"https://madie.cms.gov/Observation/4a737b82-373e-4f4c-9cfa-e7e8d08f6bc8","resource":{"resourceType":"Observation","id":"4a737b82-373e-4f4c-9cfa-e7e8d08f6bc8","meta":{"profile":["http://hl7.org/fhir/us/qicore/StructureDefinition/qicore-observation-lab"]},"status":"final","category":[{"coding":[{"system":"http://terminology.hl7.org/CodeSystem/observation-category","code":"laboratory","display":"Laboratory"}],"text":"Laboratory"}],"code":{"coding":[{"system":"http://loinc.org","version":"2.76","code":"89872-6","display":"Bilirubin.total [Moles/volume] in Arterial blood"}]},"subject":{"reference":"Patient/5dc1a11f-f27d-4e85-baf9-d80ca40f2cf9"},"encounter":{"reference":"Encounter/04c24748-6406-42d6-b804-e195075e8475"},"effectiveDateTime":"2026-04-11T08:00:00.000+00:00","valueQuantity":{"value":0.5,"unit":"mg/dL","system":"http://unitsofmeasure.org","code":"mg/dL"}},"request":{"method":"PUT","url":"Observation/4a737b82-373e-4f4c-9cfa-e7e8d08f6bc8"}},{"fullUrl":"https://madie.cms.gov/Observation/44f606ce-b5a8-4ea4-86fd-87acd1c75086","resource":{"resourceType":"Observation","id":"44f606ce-b5a8-4ea4-86fd-87acd1c75086","meta":{"profile":["http://hl7.org/fhir/us/qicore/StructureDefinition/qicore-observation-lab"]},"status":"final","category":[{"coding":[{"system":"http://terminology.hl7.org/CodeSystem/observation-category","code":"laboratory","display":"Laboratory"}],"text":"Laboratory"}],"code":{"coding":[{"system":"http://loinc.org","version":"2.76","code":"89872-6","display":"Bilirubin.total [Moles/volume] in Arterial blood"}]},"subject":{"reference":"Patient/5dc1a11f-f27d-4e85-baf9-d80ca40f2cf9"},"encounter":{"reference":"Encounter/04c24748-6406-42d6-b804-e195075e8475"},"effectiveDateTime":"2026-04-11T09:00:00.000+00:00","valueQuantity":{"value":0.6,"unit":"mg/dL","system":"http://unitsofmeasure.org","code":"mg/dL"}},"request":{"method":"PUT","url":"Observation/44f606ce-b5a8-4ea4-86fd-87acd1c75086"}},{"fullUrl":"https://madie.cms.gov/Patient/5dc1a11f-f27d-4e85-baf9-d80ca40f2cf9","resource":{"resourceType":"Patient","id":"5dc1a11f-f27d-4e85-baf9-d80ca40f2cf9","meta":{"profile":["http://hl7.org/fhir/us/qicore/StructureDefinition/qicore-patient"]},"extension":[{"url":"http://hl7.org/fhir/us/core/StructureDefinition/us-core-race","extension":[{"url":"ombCategory","valueCoding":{"system":"urn:oid:2.16.840.1.113883.6.238","code":"2054-5","display":"Black or African American","userSelected":true}},{"url":"text","valueString":"Black or African American"}]},{"url":"http://hl7.org/fhir/us/core/StructureDefinition/us-core-ethnicity","extension":[{"url":"ombCategory","valueCoding":{"system":"urn:oid:2.16.840.1.113883.6.238","code":"2186-5","display":"Not Hispanic or Latino","userSelected":true}},{"url":"text","valueString":"Not Hispanic or Latino"}]}],"identifier":[{"type":{"coding":[{"system":"http://terminology.hl7.org/CodeSystem/v2-0203","code":"MR"}]},"system":"https://bonnie-fhir.healthit.gov/","value":"61152a3b98086b7a79cbd7c1"}],"active":true,"name":[{"use":"usual","family":"DENOMPass","given":["RiskVariableASAClass"]}],"gender":"female","birthDate":"1966-07-12"},"request":{"method":"PUT","url":"Patient/5dc1a11f-f27d-4e85-baf9-d80ca40f2cf9"}},{"fullUrl":"https://madie.cms.gov/Procedure/f92418c9-2274-4051-8430-db426b4c9358","resource":{"resourceType":"Procedure","id":"f92418c9-2274-4051-8430-db426b4c9358","meta":{"profile":["http://hl7.org/fhir/us/qicore/StructureDefinition/qicore-procedure"]},"extension":[{"url":"http://hl7.org/fhir/us/qicore/StructureDefinition/qicore-recorded","valueDateTime":"2026-04-11T10:30:00.000+00:00"}],"status":"completed","category":{"coding":[{"system":"http://snomed.info/sct","code":"18286008","display":"General or neuraxial anesthesia"}]},"code":{"coding":[{"system":"http://snomed.info/sct","code":"112943005","display":"Epidural injection of anesthetic substance, diagnostic, caudal, continuous"}]},"subject":{"reference":"Patient/5dc1a11f-f27d-4e85-baf9-d80ca40f2cf9"},"performedPeriod":{"start":"2026-04-11T08:00:00.000+00:00","end":"2026-04-11T10:15:00.000+00:00"}},"request":{"method":"PUT","url":"Procedure/f92418c9-2274-4051-8430-db426b4c9358"}},{"fullUrl":"https://madie.cms.gov/MeasureReport/fea1e448-6b90-4ac7-b1b5-c111def9edaa","resource":{"resourceType":"MeasureReport","id":"fea1e448-6b90-4ac7-b1b5-c111def9edaa","meta":{"profile":["http://hl7.org/fhir/us/cqfmeasures/StructureDefinition/test-case-cqfm"]},"contained":[{"resourceType":"Parameters","id":"325d6004-fc1b-4a96-bc64-302d463b778b-parameters","parameter":[{"name":"subject","valueString":"5dc1a11f-f27d-4e85-baf9-d80ca40f2cf9"}]}],"extension":[{"url":"http://hl7.org/fhir/StructureDefinition/cqf-inputParameters","valueReference":{"reference":"#325d6004-fc1b-4a96-bc64-302d463b778b-parameters"}},{"url":"http://hl7.org/fhir/us/cqfmeasures/StructureDefinition/cqfm-testCaseDescription","valueMarkdown":"DENOMPass Satisfies First Bilirubin risk variable"}],"modifierExtension":[{"url":"http://hl7.org/fhir/us/cqfmeasures/StructureDefinition/cqfm-isTestCase","valueBoolean":true}],"status":"complete","type":"individual","measure":"https://madie.cms.gov/Measure/CMS1218FHIRHHRF","period":{"start":"2026-01-01","end":"2026-12-31"},"group":[{"id":"Group_1","population":[{"id":"InitialPopulation_1","code":{"coding":[{"system":"http://terminology.hl7.org/CodeSystem/measure-population","code":"initial-population","display":"Initial Population"}]},"count":1},{"id":"Denominator_1","code":{"coding":[{"system":"http://terminology.hl7.org/CodeSystem/measure-population","code":"denominator","display":"Denominator"}]},"count":1},{"id":"DenominatorExclusion_1","code":{"coding":[{"system":"http://terminology.hl7.org/CodeSystem/measure-population","code":"denominator-exclusion","display":"Denominator Exclusion"}]},"count":0},{"id":"Numerator_1","code":{"coding":[{"system":"http://terminology.hl7.org/CodeSystem/measure-population","code":"numerator","display":"Numerator"}]},"count":0}],"measureScore":{"value":0.0}}],"evaluatedResource":[{"reference":"Encounter/04c24748-6406-42d6-b804-e195075e8475"},{"reference":"Observation/4a737b82-373e-4f4c-9cfa-e7e8d08f6bc8"},{"reference":"Observation/44f606ce-b5a8-4ea4-86fd-87acd1c75086"},{"reference":"Patient/5dc1a11f-f27d-4e85-baf9-d80ca40f2cf9"},{"reference":"Procedure/f92418c9-2274-4051-8430-db426b4c9358"}]},"request":{"method":"PUT","url":"MeasureReport/fea1e448-6b90-4ac7-b1b5-c111def9edaa"}}]},"request":{"method":"PUT","url":"Bundle/tests-RiskVarPassFirstBilirubin-bundle"}},{"resource":{"resourceType":"MeasureReport","id":"fea1e448-6b90-4ac7-b1b5-c111def9edaa","meta":{"profile":["http://hl7.org/fhir/us/cqfmeasures/StructureDefinition/test-case-cqfm"]},"contained":[{"resourceType":"Parameters","id":"325d6004-fc1b-4a96-bc64-302d463b778b-parameters","parameter":[{"name":"subject","valueString":"5dc1a11f-f27d-4e85-baf9-d80ca40f2cf9"}]}],"extension":[{"url":"http://hl7.org/fhir/StructureDefinition/cqf-inputParameters","valueReference":{"reference":"#325d6004-fc1b-4a96-bc64-302d463b778b-parameters"}},{"url":"http://hl7.org/fhir/us/cqfmeasures/StructureDefinition/cqfm-testCaseDescription","valueMarkdown":"DENOMPass Satisfies First Bilirubin risk variable"}],"modifierExtension":[{"url":"http://hl7.org/fhir/us/cqfmeasures/StructureDefinition/cqfm-isTestCase","valueBoolean":true}],"status":"complete","type":"individual","measure":"https://madie.cms.gov/Measure/CMS1218FHIRHHRF","period":{"start":"2026-01-01","end":"2026-12-31"},"group":[{"id":"Group_1","population":[{"id":"InitialPopulation_1","code":{"coding":[{"system":"http://terminology.hl7.org/CodeSystem/measure-population","code":"initial-population","display":"Initial Population"}]},"count":1},{"id":"Denominator_1","code":{"coding":[{"system":"http://terminology.hl7.org/CodeSystem/measure-population","code":"denominator","display":"Denominator"}]},"count":1},{"id":"DenominatorExclusion_1","code":{"coding":[{"system":"http://terminology.hl7.org/CodeSystem/measure-population","code":"denominator-exclusion","display":"Denominator Exclusion"}]},"count":0},{"id":"Numerator_1","code":{"coding":[{"system":"http://terminology.hl7.org/CodeSystem/measure-population","code":"numerator","display":"Numerator"}]},"count":0}],"measureScore":{"value":0.0}}],"evaluatedResource":[{"reference":"Encounter/04c24748-6406-42d6-b804-e195075e8475"},{"reference":"Observation/4a737b82-373e-4f4c-9cfa-e7e8d08f6bc8"},{"reference":"Observation/44f606ce-b5a8-4ea4-86fd-87acd1c75086"},{"reference":"Patient/5dc1a11f-f27d-4e85-baf9-d80ca40f2cf9"},{"reference":"Procedure/f92418c9-2274-4051-8430-db426b4c9358"}]},"request":{"method":"PUT","url":"MeasureReport/fea1e448-6b90-4ac7-b1b5-c111def9edaa"}}]}