{
  "resourceType": "Bundle",
  "id": "ippfail-scanoutsidemp",
  "type": "transaction",
  "entry": [ {
    "fullUrl": "https://madie.cms.gov/Patient/998b7fee-53b4-4d2d-ba52-3819c9f9a7e5",
    "resource": {
      "resourceType": "Patient",
      "id": "998b7fee-53b4-4d2d-ba52-3819c9f9a7e5",
      "meta": {
        "profile": [ "http://hl7.org/fhir/us/core/StructureDefinition/us-core-patient", "http://hl7.org/fhir/us/qicore/StructureDefinition/qicore-patient" ]
      },
      "extension": [ {
        "url": "http://hl7.org/fhir/us/core/StructureDefinition/us-core-race",
        "extension": [ {
          "url": "ombCategory",
          "valueCoding": {
            "system": "urn:oid:2.16.840.1.113883.6.238",
            "code": "2028-9",
            "display": "Asian"
          }
        }, {
          "url": "text",
          "valueString": "Asian"
        } ]
      }, {
        "url": "http://hl7.org/fhir/us/core/StructureDefinition/us-core-ethnicity",
        "extension": [ {
          "url": "ombCategory",
          "valueCoding": {
            "system": "urn:oid:2.16.840.1.113883.6.238",
            "code": "2135-2",
            "display": "Hispanic or Latino"
          }
        }, {
          "url": "text",
          "valueString": "Hispanic or Latino"
        } ]
      } ],
      "identifier": [ {
        "system": "http://hospital.smarthealthit.org",
        "value": "999999995"
      } ],
      "name": [ {
        "family": "ScanOutsideMP",
        "given": [ "IPPFail" ]
      } ],
      "gender": "male",
      "birthDate": "1979-06-12"
    },
    "request": {
      "method": "PUT",
      "url": "Patient/998b7fee-53b4-4d2d-ba52-3819c9f9a7e5"
    }
  }, {
    "fullUrl": "https://madie.cms.gov/Encounter/d4207912-fe1b-4688-bb89-ecd187708090",
    "resource": {
      "resourceType": "Encounter",
      "id": "d4207912-fe1b-4688-bb89-ecd187708090",
      "meta": {
        "profile": [ "http://hl7.org/fhir/us/qicore/StructureDefinition/qicore-encounter" ]
      },
      "status": "finished",
      "class": {
        "system": "http://terminology.hl7.org/CodeSystem/v3-ActCode",
        "code": "IMP",
        "display": "inpatient encounter"
      },
      "type": [ {
        "coding": [ {
          "system": "http://snomed.info/sct",
          "code": "183452005",
          "display": "Emergency hospital admission"
        } ]
      } ],
      "subject": {
        "reference": "Patient/998b7fee-53b4-4d2d-ba52-3819c9f9a7e5"
      },
      "period": {
        "start": "2026-12-30T00:00:00.000+00:00",
        "end": "2027-01-03T01:00:00.000+00:00"
      }
    },
    "request": {
      "method": "PUT",
      "url": "Encounter/d4207912-fe1b-4688-bb89-ecd187708090"
    }
  }, {
    "fullUrl": "https://madie.cms.gov/Observation/90e082c6-5e7b-4df0-885c-6344564b32f2",
    "resource": {
      "resourceType": "Observation",
      "id": "90e082c6-5e7b-4df0-885c-6344564b32f2",
      "meta": {
        "profile": [ "http://hl7.org/fhir/us/qicore/StructureDefinition/qicore-observation-lab" ]
      },
      "status": "final",
      "category": [ {
        "coding": [ {
          "system": "http://terminology.hl7.org/CodeSystem/observation-category",
          "code": "imaging",
          "display": "Imaging"
        } ]
      } ],
      "code": {
        "coding": [ {
          "system": "http://loinc.org",
          "code": "96914-7",
          "display": "CT dose and image quality category"
        } ],
        "text": "CT dose and image quality category"
      },
      "subject": {
        "reference": "Patient/998b7fee-53b4-4d2d-ba52-3819c9f9a7e5"
      },
      "encounter": {
        "reference": "Encounter/d4207912-fe1b-4688-bb89-ecd187708090"
      },
      "effectiveDateTime": "2027-01-02T00:00:00.000+00:00",
      "valueCodeableConcept": {
        "coding": [ {
          "system": "http://loinc.org",
          "code": "LA31753-9",
          "display": "Abdomen and Pelvis Routine Dose"
        } ]
      },
      "component": [ {
        "code": {
          "coding": [ {
            "system": "http://loinc.org",
            "code": "96912-1",
            "display": "Calculated CT global noise"
          } ]
        },
        "valueQuantity": {
          "value": 63,
          "unit": "[hnsf'U]",
          "system": "http://unitsofmeasure.org",
          "code": "[hnsf'U]"
        }
      }, {
        "code": {
          "coding": [ {
            "system": "http://loinc.org",
            "code": "96913-9",
            "display": "Calculated CT size-adjusted dose"
          } ]
        },
        "valueQuantity": {
          "value": 597,
          "unit": "mGy.cm",
          "system": "http://unitsofmeasure.org",
          "code": "mGy.cm"
        }
      } ]
    },
    "request": {
      "method": "PUT",
      "url": "Observation/90e082c6-5e7b-4df0-885c-6344564b32f2"
    }
  }, {
    "fullUrl": "https://madie.cms.gov/MeasureReport/63da7373-d412-4dda-9e48-b39dfc23e88c",
    "resource": {
      "resourceType": "MeasureReport",
      "id": "63da7373-d412-4dda-9e48-b39dfc23e88c",
      "meta": {
        "profile": [ "http://hl7.org/fhir/us/cqfmeasures/StructureDefinition/test-case-cqfm" ]
      },
      "contained": [ {
        "resourceType": "Parameters",
        "id": "befb6923-8be6-46e4-947d-7b35e9f1228c-parameters",
        "parameter": [ {
          "name": "subject",
          "valueString": "998b7fee-53b4-4d2d-ba52-3819c9f9a7e5"
        } ]
      } ],
      "extension": [ {
        "url": "http://hl7.org/fhir/StructureDefinition/cqf-inputParameters",
        "valueReference": {
          "reference": "#befb6923-8be6-46e4-947d-7b35e9f1228c-parameters"
        }
      }, {
        "url": "http://hl7.org/fhir/us/cqfmeasures/StructureDefinition/cqfm-testCaseDescription",
        "valueMarkdown": "Patient has a valid CT Scan but it occurs outside the Measurement Period"
      } ],
      "modifierExtension": [ {
        "url": "http://hl7.org/fhir/us/cqfmeasures/StructureDefinition/cqfm-isTestCase",
        "valueBoolean": true
      } ],
      "status": "complete",
      "type": "individual",
      "measure": "https://madie.cms.gov/Measure/CMS1206FHIRCTOQR",
      "period": {
        "start": "2026-01-01",
        "end": "2026-12-31"
      },
      "group": [ {
        "id": "Group_1",
        "population": [ {
          "id": "InitialPopulation_1",
          "code": {
            "coding": [ {
              "system": "http://terminology.hl7.org/CodeSystem/measure-population",
              "code": "initial-population",
              "display": "Initial Population"
            } ]
          },
          "count": 0
        }, {
          "id": "Denominator_1",
          "code": {
            "coding": [ {
              "system": "http://terminology.hl7.org/CodeSystem/measure-population",
              "code": "denominator",
              "display": "Denominator"
            } ]
          },
          "count": 0
        }, {
          "id": "DenominatorExclusion_1",
          "code": {
            "coding": [ {
              "system": "http://terminology.hl7.org/CodeSystem/measure-population",
              "code": "denominator-exclusion",
              "display": "Denominator Exclusion"
            } ]
          },
          "count": 0
        }, {
          "id": "Numerator_1",
          "code": {
            "coding": [ {
              "system": "http://terminology.hl7.org/CodeSystem/measure-population",
              "code": "numerator",
              "display": "Numerator"
            } ]
          },
          "count": 0
        } ],
        "measureScore": {
          "value": 0.0
        }
      } ],
      "evaluatedResource": [ {
        "reference": "Patient/998b7fee-53b4-4d2d-ba52-3819c9f9a7e5"
      }, {
        "reference": "Encounter/d4207912-fe1b-4688-bb89-ecd187708090"
      }, {
        "reference": "Observation/90e082c6-5e7b-4df0-885c-6344564b32f2"
      } ]
    },
    "request": {
      "method": "PUT",
      "url": "MeasureReport/63da7373-d412-4dda-9e48-b39dfc23e88c"
    }
  } ]
}