{
  "resourceType": "Bundle",
  "id": "6129134f02c62a011f2e7238",
  "type": "transaction",
  "entry": [ {
    "fullUrl": "https://madie.cms.gov/Patient/ea41e48d-7b6d-4c9e-a8a1-f9c4bcf30785",
    "resource": {
      "resourceType": "Patient",
      "id": "ea41e48d-7b6d-4c9e-a8a1-f9c4bcf30785",
      "meta": {
        "profile": [ "http://hl7.org/fhir/us/qicore/StructureDefinition/qicore-patient" ]
      },
      "text": {
        "status": "generated",
        "div": "<div xmlns=\"http://www.w3.org/1999/xhtml\"><div class=\"hapiHeaderText\">CMOdurED_ED&gt;1hrObs&gt;1hrBFEnc <b>DENEXFAIL </b></div><table class=\"hapiPropertyTable\"><tbody><tr><td>Identifier</td><td>e5df08ea2344cb20f6fa2d8f47afc61dfe83551ed3f95587fd02a84cb071d263</td></tr><tr><td>Date of birth</td><td><span>21 August 1994</span></td></tr></tbody></table></div>"
      },
      "extension": [ {
        "url": "http://hl7.org/fhir/us/core/StructureDefinition/us-core-race",
        "extension": [ {
          "url": "ombCategory",
          "valueCoding": {
            "system": "urn:oid:2.16.840.1.113883.6.238",
            "code": "1002-5",
            "display": "American Indian or Alaska Native",
            "userSelected": true
          }
        }, {
          "url": "detailed",
          "valueCoding": {
            "system": "urn:oid:2.16.840.1.113883.6.238",
            "code": "2036-2",
            "display": "Filipino"
          }
        }, {
          "url": "text",
          "valueString": "American Indian or Alaska Native"
        } ]
      }, {
        "url": "http://hl7.org/fhir/us/core/StructureDefinition/us-core-ethnicity",
        "extension": [ {
          "url": "ombCategory",
          "valueCoding": {
            "system": "urn:oid:2.16.840.1.113883.6.238",
            "code": "2135-2",
            "display": "Hispanic or Latino",
            "userSelected": true
          }
        }, {
          "url": "text",
          "valueString": "Hispanic or Latino"
        }, {
          "url": "detailed",
          "valueCoding": {
            "system": "urn:oid:2.16.840.1.113883.6.238",
            "code": "2153-5",
            "display": "Mexican American Indian"
          }
        } ]
      } ],
      "identifier": [ {
        "type": {
          "coding": [ {
            "system": "http://terminology.hl7.org/CodeSystem/v2-0203",
            "code": "MR"
          } ]
        },
        "system": "https://bonnie-fhir.healthit.gov/",
        "value": "6129134f02c62a011f2e7238"
      } ],
      "active": true,
      "name": [ {
        "use": "usual",
        "family": "DENEXFail",
        "given": [ "CMOdurED_ED>1hrObs>1hrBFEnc" ]
      } ],
      "gender": "male",
      "birthDate": "1995-08-21"
    },
    "request": {
      "method": "PUT",
      "url": "Patient/ea41e48d-7b6d-4c9e-a8a1-f9c4bcf30785"
    }
  }, {
    "fullUrl": "https://madie.cms.gov/Encounter/62130bd7-0613-44be-9b40-6ff4769e831d",
    "resource": {
      "resourceType": "Encounter",
      "id": "62130bd7-0613-44be-9b40-6ff4769e831d",
      "meta": {
        "profile": [ "http://hl7.org/fhir/us/qicore/StructureDefinition/qicore-encounter" ]
      },
      "status": "finished",
      "class": {
        "system": "http://terminology.hl7.org/CodeSystem/v3-ActCode",
        "code": "EMER",
        "display": "emergency",
        "userSelected": true
      },
      "type": [ {
        "coding": [ {
          "system": "http://snomed.info/sct",
          "code": "4525004"
        } ]
      } ],
      "subject": {
        "reference": "Patient/ea41e48d-7b6d-4c9e-a8a1-f9c4bcf30785"
      },
      "period": {
        "start": "2026-10-10T10:28:00Z",
        "end": "2026-10-10T10:30:00.000+00:00"
      },
      "length": {
        "value": 0,
        "unit": "days"
      }
    },
    "request": {
      "method": "PUT",
      "url": "Encounter/62130bd7-0613-44be-9b40-6ff4769e831d"
    }
  }, {
    "fullUrl": "https://madie.cms.gov/Encounter/deb5ac2d-0841-436d-b0b8-ace8c1ab3c1a",
    "resource": {
      "resourceType": "Encounter",
      "id": "deb5ac2d-0841-436d-b0b8-ace8c1ab3c1a",
      "meta": {
        "profile": [ "http://hl7.org/fhir/us/qicore/StructureDefinition/qicore-encounter" ]
      },
      "status": "finished",
      "class": {
        "system": "http://terminology.hl7.org/CodeSystem/v3-ActCode",
        "code": "OBSENC",
        "display": "observation encounter",
        "userSelected": true
      },
      "type": [ {
        "coding": [ {
          "system": "http://snomed.info/sct",
          "code": "448851000124103"
        } ]
      } ],
      "subject": {
        "reference": "Patient/ea41e48d-7b6d-4c9e-a8a1-f9c4bcf30785"
      },
      "period": {
        "start": "2026-10-10T11:31:00Z",
        "end": "2026-10-10T11:35:00.000+00:00"
      },
      "length": {
        "value": 0,
        "unit": "days"
      }
    },
    "request": {
      "method": "PUT",
      "url": "Encounter/deb5ac2d-0841-436d-b0b8-ace8c1ab3c1a"
    }
  }, {
    "fullUrl": "https://madie.cms.gov/Encounter/3152ea06-868d-40a3-b0bd-cde8656c95e2",
    "resource": {
      "resourceType": "Encounter",
      "id": "3152ea06-868d-40a3-b0bd-cde8656c95e2",
      "meta": {
        "profile": [ "http://hl7.org/fhir/us/qicore/StructureDefinition/qicore-encounter" ]
      },
      "status": "finished",
      "class": {
        "system": "http://terminology.hl7.org/CodeSystem/v3-ActCode",
        "code": "IMP",
        "display": "inpatient encounter",
        "userSelected": true
      },
      "type": [ {
        "coding": [ {
          "system": "http://snomed.info/sct",
          "code": "32485007"
        } ]
      } ],
      "subject": {
        "reference": "Patient/ea41e48d-7b6d-4c9e-a8a1-f9c4bcf30785"
      },
      "period": {
        "start": "2026-10-10T12:36:00Z",
        "end": "2026-10-12T11:30:00.000+00:00"
      },
      "length": {
        "value": 2,
        "unit": "days"
      },
      "diagnosis": [ {
        "condition": {
          "reference": "Condition/9cd31cd8-2efb-47ed-a3be-b5dae3c3550e"
        },
        "use": {
          "coding": [ {
            "system": "http://terminology.hl7.org/CodeSystem/diagnosis-role",
            "code": "billing",
            "display": "Billing"
          } ]
        },
        "rank": 1
      } ]
    },
    "request": {
      "method": "PUT",
      "url": "Encounter/3152ea06-868d-40a3-b0bd-cde8656c95e2"
    }
  }, {
    "fullUrl": "https://madie.cms.gov/ServiceRequest/948241e9-bd24-4f43-aecc-66c832993d6e",
    "resource": {
      "resourceType": "ServiceRequest",
      "id": "948241e9-bd24-4f43-aecc-66c832993d6e",
      "meta": {
        "profile": [ "http://hl7.org/fhir/us/qicore/StructureDefinition/qicore-servicerequest" ]
      },
      "status": "active",
      "intent": "order",
      "code": {
        "coding": [ {
          "system": "http://snomed.info/sct",
          "code": "133918004"
        } ]
      },
      "subject": {
        "reference": "Patient/ea41e48d-7b6d-4c9e-a8a1-f9c4bcf30785"
      },
      "authoredOn": "2026-10-10T10:30:00Z"
    },
    "request": {
      "method": "PUT",
      "url": "ServiceRequest/948241e9-bd24-4f43-aecc-66c832993d6e"
    }
  }, {
    "fullUrl": "https://madie.cms.gov/Condition/9cd31cd8-2efb-47ed-a3be-b5dae3c3550e",
    "resource": {
      "resourceType": "Condition",
      "id": "9cd31cd8-2efb-47ed-a3be-b5dae3c3550e",
      "meta": {
        "profile": [ "http://hl7.org/fhir/us/qicore/StructureDefinition/qicore-condition" ]
      },
      "clinicalStatus": {
        "coding": [ {
          "system": "http://terminology.hl7.org/CodeSystem/condition-clinical",
          "code": "active"
        } ]
      },
      "verificationStatus": {
        "coding": [ {
          "system": "http://terminology.hl7.org/CodeSystem/condition-ver-status",
          "code": "confirmed"
        } ]
      },
      "category": [ {
        "coding": [ {
          "system": "http://terminology.hl7.org/CodeSystem/condition-category",
          "code": "encounter-diagnosis",
          "display": "Encounter Diagnosis"
        } ]
      } ],
      "code": {
        "coding": [ {
          "system": "http://snomed.info/sct",
          "version": "2020-09",
          "code": "111297002",
          "display": "Nonparalytic stroke (disorder)",
          "userSelected": true
        } ]
      },
      "subject": {
        "reference": "Patient/ea41e48d-7b6d-4c9e-a8a1-f9c4bcf30785"
      },
      "recordedDate": "2026-07-14T08:00:00Z"
    },
    "request": {
      "method": "PUT",
      "url": "Condition/9cd31cd8-2efb-47ed-a3be-b5dae3c3550e"
    }
  }, {
    "fullUrl": "https://madie.cms.gov/claim/5ca62962b8484628b8de1ec5",
    "resource": {
      "resourceType": "Claim",
      "id": "5ca62962b8484628b8de1ec5",
      "meta": {
        "profile": [ "http://hl7.org/fhir/us/qicore/StructureDefinition/qicore-claim" ]
      },
      "status": "active",
      "type": {
        "coding": [ {
          "system": "http://terminology.hl7.org/CodeSystem/claim-type",
          "code": "institutional"
        } ]
      },
      "use": "claim",
      "patient": {
        "reference": "Patient/d170a0a8-b5ad-4303-b6df-e304dd5f92ad"
      },
      "created": "2026-12-01",
      "provider": {
        "reference": "Practitioner/practitioner-123456"
      },
      "priority": {
        "coding": [ {
          "system": "http://terminology.hl7.org/CodeSystem/processpriority",
          "code": "normal"
        } ]
      },
      "diagnosis": [ {
        "sequence": 1,
        "diagnosisCodeableConcept": {
          "coding": [ {
            "system": "http://hl7.org/fhir/sid/icd-10-cm",
            "code": "I63.00"
          } ]
        },
        "type": [ {
          "coding": [ {
            "system": "http://terminology.hl7.org/CodeSystem/ex-diagnosistype",
            "code": "principal"
          } ]
        } ]
      } ],
      "insurance": [ {
        "sequence": 1,
        "focal": true,
        "coverage": {
          "reference": "Coverage/5fa041661c76ba66d9959367"
        }
      } ],
      "item": [ {
        "sequence": 1,
        "diagnosisSequence": [ 1 ],
        "productOrService": {
          "coding": [ {
            "system": "http://terminology.hl7.org/CodeSystem/ex-USCLS",
            "code": "99555"
          } ]
        },
        "encounter": [ {
          "reference": "Encounter/3152ea06-868d-40a3-b0bd-cde8656c95e2"
        } ]
      } ]
    },
    "request": {
      "method": "PUT",
      "url": "Claim/5ca62962b8484628b8de1ec5"
    }
  }, {
    "fullUrl": "https://madie.cms.gov/Coverage/c87e462b-3271-4722-a76b-f5f959e76798",
    "resource": {
      "resourceType": "Coverage",
      "id": "c87e462b-3271-4722-a76b-f5f959e76798",
      "meta": {
        "profile": [ "http://hl7.org/fhir/us/qicore/StructureDefinition/qicore-coverage" ]
      },
      "status": "active",
      "subscriberId": "523435",
      "beneficiary": {
        "reference": "Patient/ea41e48d-7b6d-4c9e-a8a1-f9c4bcf30785"
      },
      "relationship": {
        "coding": [ {
          "system": "http://terminology.hl7.org/CodeSystem/subscriber-relationship",
          "code": "self"
        } ]
      },
      "payor": [ {
        "reference": "Organization/4f845dc7-07b0-480c-929d-cd40f7639d86"
      } ]
    },
    "request": {
      "method": "PUT",
      "url": "Coverage/c87e462b-3271-4722-a76b-f5f959e76798"
    }
  }, {
    "fullUrl": "https://madie.cms.gov/Organization/4f845dc7-07b0-480c-929d-cd40f7639d86",
    "resource": {
      "resourceType": "Organization",
      "id": "4f845dc7-07b0-480c-929d-cd40f7639d86",
      "meta": {
        "profile": [ "http://hl7.org/fhir/us/qicore/StructureDefinition/qicore-organization" ]
      },
      "identifier": [ {
        "use": "temp",
        "system": "urn:oid:2.16.840.1.113883.4.4",
        "value": "21-3259825"
      } ],
      "active": true,
      "type": [ {
        "coding": [ {
          "system": "http://terminology.hl7.org/CodeSystem/organization-type",
          "code": "pay",
          "display": "Payer"
        } ]
      } ],
      "name": "Blue Cross Blue Shield of Texas",
      "telecom": [ {
        "system": "phone",
        "value": "(+1) 972-766-6900"
      } ],
      "address": [ {
        "use": "billing",
        "type": "postal",
        "line": [ "P.O. Box 660044" ],
        "city": "Dallas",
        "state": "TX",
        "postalCode": "75266-0044",
        "country": "USA"
      } ]
    },
    "request": {
      "method": "PUT",
      "url": "Organization/4f845dc7-07b0-480c-929d-cd40f7639d86"
    }
  }, {
    "fullUrl": "https://madie.cms.gov/MeasureReport/d7825d77-2dba-4f1f-b8f9-cefb6972c2ba",
    "resource": {
      "resourceType": "MeasureReport",
      "id": "d7825d77-2dba-4f1f-b8f9-cefb6972c2ba",
      "meta": {
        "profile": [ "http://hl7.org/fhir/us/cqfmeasures/StructureDefinition/test-case-cqfm" ]
      },
      "contained": [ {
        "resourceType": "Parameters",
        "id": "26d5cddc-c2e4-4e28-95ab-2ae5a2552157-parameters",
        "parameter": [ {
          "name": "subject",
          "valueString": "ea41e48d-7b6d-4c9e-a8a1-f9c4bcf30785"
        } ]
      } ],
      "extension": [ {
        "url": "http://hl7.org/fhir/StructureDefinition/cqf-inputParameters",
        "valueReference": {
          "reference": "#26d5cddc-c2e4-4e28-95ab-2ae5a2552157-parameters"
        }
      }, {
        "url": "http://hl7.org/fhir/us/cqfmeasures/StructureDefinition/cqfm-testCaseDescription",
        "valueMarkdown": "Patient receives CMO during ED. ED ends 61 minute before Obs. Obs ends 61 min before inpatient encounter start. Testing day of operator with HospitalizationWithObservation function."
      } ],
      "modifierExtension": [ {
        "url": "http://hl7.org/fhir/us/cqfmeasures/StructureDefinition/cqfm-isTestCase",
        "valueBoolean": true
      } ],
      "status": "complete",
      "type": "individual",
      "measure": "https://madie.cms.gov/Measure/CMS104FHIRSTKDCAntithrombotic",
      "period": {
        "start": "2026-01-01",
        "end": "2026-12-31"
      },
      "group": [ {
        "id": "Group_1",
        "population": [ {
          "id": "InitialPopulation_1",
          "code": {
            "coding": [ {
              "system": "http://terminology.hl7.org/CodeSystem/measure-population",
              "code": "initial-population",
              "display": "Initial Population"
            } ]
          },
          "count": 1
        }, {
          "id": "Denominator_1",
          "code": {
            "coding": [ {
              "system": "http://terminology.hl7.org/CodeSystem/measure-population",
              "code": "denominator",
              "display": "Denominator"
            } ]
          },
          "count": 1
        }, {
          "id": "DenominatorExclusion_1",
          "code": {
            "coding": [ {
              "system": "http://terminology.hl7.org/CodeSystem/measure-population",
              "code": "denominator-exclusion",
              "display": "Denominator Exclusion"
            } ]
          },
          "count": 0
        }, {
          "id": "Numerator_1",
          "code": {
            "coding": [ {
              "system": "http://terminology.hl7.org/CodeSystem/measure-population",
              "code": "numerator",
              "display": "Numerator"
            } ]
          },
          "count": 0
        }, {
          "id": "DenominatorException_1",
          "code": {
            "coding": [ {
              "system": "http://terminology.hl7.org/CodeSystem/measure-population",
              "code": "denominator-exception",
              "display": "Denominator Exception"
            } ]
          },
          "count": 0
        } ],
        "measureScore": {
          "value": 0.0
        }
      } ],
      "evaluatedResource": [ {
        "reference": "Patient/ea41e48d-7b6d-4c9e-a8a1-f9c4bcf30785"
      }, {
        "reference": "Encounter/62130bd7-0613-44be-9b40-6ff4769e831d"
      }, {
        "reference": "Encounter/deb5ac2d-0841-436d-b0b8-ace8c1ab3c1a"
      }, {
        "reference": "Encounter/3152ea06-868d-40a3-b0bd-cde8656c95e2"
      }, {
        "reference": "ServiceRequest/948241e9-bd24-4f43-aecc-66c832993d6e"
      }, {
        "reference": "Condition/9cd31cd8-2efb-47ed-a3be-b5dae3c3550e"
      }, {
        "reference": "Claim/5ca62962b8484628b8de1ec5"
      }, {
        "reference": "Coverage/c87e462b-3271-4722-a76b-f5f959e76798"
      }, {
        "reference": "Organization/4f845dc7-07b0-480c-929d-cd40f7639d86"
      } ]
    },
    "request": {
      "method": "PUT",
      "url": "MeasureReport/d7825d77-2dba-4f1f-b8f9-cefb6972c2ba"
    }
  } ]
}