{
  "resourceType": "Bundle",
  "id": "612e6e7d02c62a011f2ee909",
  "type": "transaction",
  "entry": [ {
    "fullUrl": "https://madie.cms.gov/Patient/2346628d-419a-491b-81d8-08c74ca8ea61",
    "resource": {
      "resourceType": "Patient",
      "id": "2346628d-419a-491b-81d8-08c74ca8ea61",
      "meta": {
        "profile": [ "http://hl7.org/fhir/us/qicore/StructureDefinition/qicore-patient" ]
      },
      "text": {
        "status": "generated",
        "div": "<div xmlns=\"http://www.w3.org/1999/xhtml\"><div class=\"hapiHeaderText\">CMODuringEDDoNotPerformFalse <b>DENEXPass </b></div><table class=\"hapiPropertyTable\"><tbody><tr><td>Identifier</td><td>45452ea1dc23640e1878befc89e45fab</td></tr><tr><td>Date of birth</td><td><span>03 March 1974</span></td></tr></tbody></table></div>"
      },
      "extension": [ {
        "url": "http://hl7.org/fhir/us/core/StructureDefinition/us-core-race",
        "extension": [ {
          "url": "ombCategory",
          "valueCoding": {
            "system": "urn:oid:2.16.840.1.113883.6.238",
            "code": "1002-5",
            "display": "American Indian or Alaska Native",
            "userSelected": true
          }
        }, {
          "url": "text",
          "valueString": "American Indian or Alaska Native"
        } ]
      }, {
        "url": "http://hl7.org/fhir/us/core/StructureDefinition/us-core-ethnicity",
        "extension": [ {
          "url": "ombCategory",
          "valueCoding": {
            "system": "urn:oid:2.16.840.1.113883.6.238",
            "code": "2135-2",
            "display": "Hispanic or Latino",
            "userSelected": true
          }
        }, {
          "url": "text",
          "valueString": "Hispanic or Latino"
        } ]
      } ],
      "identifier": [ {
        "type": {
          "coding": [ {
            "system": "http://terminology.hl7.org/CodeSystem/v2-0203",
            "code": "MR"
          } ]
        },
        "system": "https://bonnie-fhir.healthit.gov/",
        "value": "612e6e7d02c62a011f2ee909"
      } ],
      "active": true,
      "name": [ {
        "use": "usual",
        "family": "DENEXPass",
        "given": [ "CMODuringEDDoNotPerformFalse" ]
      } ],
      "gender": "female",
      "birthDate": "1975-03-03"
    },
    "request": {
      "method": "PUT",
      "url": "Patient/2346628d-419a-491b-81d8-08c74ca8ea61"
    }
  }, {
    "fullUrl": "https://madie.cms.gov/Encounter/b2724edc-4267-4cff-8add-4db8ac6168b3",
    "resource": {
      "resourceType": "Encounter",
      "id": "b2724edc-4267-4cff-8add-4db8ac6168b3",
      "meta": {
        "profile": [ "http://hl7.org/fhir/us/qicore/StructureDefinition/qicore-encounter" ]
      },
      "status": "finished",
      "class": {
        "system": "http://terminology.hl7.org/CodeSystem/v3-ActCode",
        "code": "EMER",
        "display": "emergency"
      },
      "type": [ {
        "coding": [ {
          "system": "http://snomed.info/sct",
          "code": "4525004"
        } ]
      } ],
      "subject": {
        "reference": "Patient/2346628d-419a-491b-81d8-08c74ca8ea61"
      },
      "period": {
        "start": "2026-12-04T06:00:00.000+00:00",
        "end": "2026-12-04T07:15:00.000+00:00"
      },
      "length": {
        "value": 0,
        "unit": "days"
      }
    },
    "request": {
      "method": "PUT",
      "url": "Encounter/b2724edc-4267-4cff-8add-4db8ac6168b3"
    }
  }, {
    "fullUrl": "https://madie.cms.gov/Encounter/3f03da7c-1527-4c83-b5e4-557f7bc87dcf",
    "resource": {
      "resourceType": "Encounter",
      "id": "3f03da7c-1527-4c83-b5e4-557f7bc87dcf",
      "meta": {
        "profile": [ "http://hl7.org/fhir/us/qicore/StructureDefinition/qicore-encounter" ]
      },
      "status": "finished",
      "class": {
        "system": "http://terminology.hl7.org/CodeSystem/v3-ActCode",
        "code": "IMP",
        "display": "inpatient encounter"
      },
      "type": [ {
        "coding": [ {
          "system": "http://snomed.info/sct",
          "code": "8715000"
        } ]
      } ],
      "subject": {
        "reference": "Patient/2346628d-419a-491b-81d8-08c74ca8ea61"
      },
      "period": {
        "start": "2026-12-04T08:00:00.000+00:00",
        "end": "2026-12-30T08:15:00.000+00:00"
      },
      "length": {
        "value": 26,
        "unit": "days"
      },
      "location": [ {
        "location": {
          "reference": "Location/f44a9648-955d-4e1f-8f09-4953b31e315f"
        },
        "period": {
          "start": "2026-12-26T08:00:00.000+00:00",
          "end": "2026-12-28T08:15:00.000+00:00"
        }
      } ]
    },
    "request": {
      "method": "PUT",
      "url": "Encounter/3f03da7c-1527-4c83-b5e4-557f7bc87dcf"
    }
  }, {
    "fullUrl": "https://madie.cms.gov/ServiceRequest/b552691f-3a3d-474a-91cf-f57eaf2538a1",
    "resource": {
      "resourceType": "ServiceRequest",
      "id": "b552691f-3a3d-474a-91cf-f57eaf2538a1",
      "meta": {
        "profile": [ "http://hl7.org/fhir/us/qicore/StructureDefinition/qicore-servicerequest" ]
      },
      "status": "completed",
      "intent": "order",
      "doNotPerform": false,
      "code": {
        "coding": [ {
          "system": "http://snomed.info/sct",
          "code": "133918004"
        } ]
      },
      "subject": {
        "reference": "Patient/2346628d-419a-491b-81d8-08c74ca8ea61"
      },
      "authoredOn": "2026-12-04T06:30:00.000+00:00"
    },
    "request": {
      "method": "PUT",
      "url": "ServiceRequest/b552691f-3a3d-474a-91cf-f57eaf2538a1"
    }
  }, {
    "fullUrl": "https://madie.cms.gov/Coverage/31e0f9c3-a06b-4fed-8fdc-63cae76dd37a",
    "resource": {
      "resourceType": "Coverage",
      "id": "31e0f9c3-a06b-4fed-8fdc-63cae76dd37a",
      "status": "active",
      "beneficiary": {
        "reference": "Patient/2346628d-419a-491b-81d8-08c74ca8ea61"
      },
      "period": {
        "start": "1975-03-03T08:00:00.000+00:00"
      },
      "payor": [ {
        "reference": "Organization/d16d05d4-8d26-4c3a-b72d-c72ba4a0e1f7"
      } ]
    },
    "request": {
      "method": "PUT",
      "url": "Coverage/31e0f9c3-a06b-4fed-8fdc-63cae76dd37a"
    }
  }, {
    "fullUrl": "https://madie.cms.gov/Location/07097872-8041-4e26-857b-48eb5b8c3949",
    "resource": {
      "resourceType": "Location",
      "id": "07097872-8041-4e26-857b-48eb5b8c3949",
      "type": [ {
        "coding": [ {
          "system": "http://cts.nlm.nih.gov/fhir/cs/hsloc",
          "version": "2020",
          "code": "1025-6",
          "display": "Trauma Critical Care",
          "userSelected": true
        } ]
      } ]
    },
    "request": {
      "method": "PUT",
      "url": "Location/07097872-8041-4e26-857b-48eb5b8c3949"
    }
  }, {
    "fullUrl": "https://madie.cms.gov/Location/f44a9648-955d-4e1f-8f09-4953b31e315f",
    "resource": {
      "resourceType": "Location",
      "id": "f44a9648-955d-4e1f-8f09-4953b31e315f",
      "meta": {
        "profile": [ "http://hl7.org/fhir/us/qicore/StructureDefinition/qicore-location" ]
      },
      "identifier": [ {
        "use": "usual",
        "system": "http://exampleoflocation.com",
        "value": "B1-S.F2"
      } ],
      "name": "Medical Surgical East, first floor",
      "type": [ {
        "coding": [ {
          "system": "https://www.cdc.gov/nhsn/cdaportal/terminology/codesystem/hsloc.html",
          "code": "1025-6",
          "display": "Trauma Critical Care",
          "userSelected": true
        } ]
      } ]
    },
    "request": {
      "method": "PUT",
      "url": "Location/f44a9648-955d-4e1f-8f09-4953b31e315f"
    }
  }, {
    "fullUrl": "https://madie.cms.gov/Organization/d16d05d4-8d26-4c3a-b72d-c72ba4a0e1f7",
    "resource": {
      "resourceType": "Organization",
      "id": "d16d05d4-8d26-4c3a-b72d-c72ba4a0e1f7",
      "meta": {
        "profile": [ "http://hl7.org/fhir/us/qicore/StructureDefinition/qicore-organization" ]
      },
      "identifier": [ {
        "use": "temp",
        "system": "urn:oid:2.16.840.1.113883.4.4",
        "value": "21-3259825"
      } ],
      "active": true,
      "type": [ {
        "coding": [ {
          "system": "http://terminology.hl7.org/CodeSystem/organization-type",
          "code": "pay",
          "display": "Payer"
        } ]
      } ],
      "name": "Blue Cross Blue Shield of Texas",
      "telecom": [ {
        "system": "phone",
        "value": "(+1) 972-766-6900"
      } ],
      "address": [ {
        "use": "billing",
        "type": "postal",
        "line": [ "P.O. Box 660044" ],
        "city": "Dallas",
        "state": "TX",
        "postalCode": "75266-0044",
        "country": "USA"
      } ]
    },
    "request": {
      "method": "PUT",
      "url": "Organization/d16d05d4-8d26-4c3a-b72d-c72ba4a0e1f7"
    }
  }, {
    "fullUrl": "https://madie.cms.gov/Practitioner/f8f37546-294b-4409-a821-1ad44f43c017",
    "resource": {
      "resourceType": "Practitioner",
      "id": "f8f37546-294b-4409-a821-1ad44f43c017",
      "identifier": [ {
        "system": "http://hl7.org/fhir/sid/us-npi",
        "value": "123456"
      } ],
      "name": [ {
        "family": "Evil",
        "prefix": [ "Dr" ]
      } ]
    },
    "request": {
      "method": "PUT",
      "url": "Practitioner/f8f37546-294b-4409-a821-1ad44f43c017"
    }
  }, {
    "fullUrl": "https://madie.cms.gov/MeasureReport/f2d5c63b-3523-4135-930e-cbe087b59a0a",
    "resource": {
      "resourceType": "MeasureReport",
      "id": "f2d5c63b-3523-4135-930e-cbe087b59a0a",
      "meta": {
        "profile": [ "http://hl7.org/fhir/us/cqfmeasures/StructureDefinition/test-case-cqfm" ]
      },
      "contained": [ {
        "resourceType": "Parameters",
        "id": "028a3bf4-f6c0-40db-abe6-57e491f97383-parameters",
        "parameter": [ {
          "name": "subject",
          "valueString": "2346628d-419a-491b-81d8-08c74ca8ea61"
        } ]
      } ],
      "extension": [ {
        "url": "http://hl7.org/fhir/StructureDefinition/cqf-inputParameters",
        "valueReference": {
          "reference": "#028a3bf4-f6c0-40db-abe6-57e491f97383-parameters"
        }
      }, {
        "url": "http://hl7.org/fhir/us/cqfmeasures/StructureDefinition/cqfm-testCaseDescription",
        "valueMarkdown": "test and cover servicerequest do not perform is false"
      } ],
      "modifierExtension": [ {
        "url": "http://hl7.org/fhir/us/cqfmeasures/StructureDefinition/cqfm-isTestCase",
        "valueBoolean": true
      } ],
      "status": "complete",
      "type": "individual",
      "measure": "https://madie.cms.gov/Measure/CMS190VTEProphylaxisICUFHIR",
      "period": {
        "start": "2026-01-01",
        "end": "2026-12-31"
      },
      "group": [ {
        "id": "Group_1",
        "population": [ {
          "id": "InitialPopulation_1",
          "code": {
            "coding": [ {
              "system": "http://terminology.hl7.org/CodeSystem/measure-population",
              "code": "initial-population",
              "display": "Initial Population"
            } ]
          },
          "count": 1
        }, {
          "id": "Denominator_1",
          "code": {
            "coding": [ {
              "system": "http://terminology.hl7.org/CodeSystem/measure-population",
              "code": "denominator",
              "display": "Denominator"
            } ]
          },
          "count": 1
        }, {
          "id": "DenominatorExclusion_1",
          "code": {
            "coding": [ {
              "system": "http://terminology.hl7.org/CodeSystem/measure-population",
              "code": "denominator-exclusion",
              "display": "Denominator Exclusion"
            } ]
          },
          "count": 1
        }, {
          "id": "Numerator_1",
          "code": {
            "coding": [ {
              "system": "http://terminology.hl7.org/CodeSystem/measure-population",
              "code": "numerator",
              "display": "Numerator"
            } ]
          },
          "count": 0
        }, {
          "id": "DenominatorException_1",
          "code": {
            "coding": [ {
              "system": "http://terminology.hl7.org/CodeSystem/measure-population",
              "code": "denominator-exception",
              "display": "Denominator Exception"
            } ]
          },
          "count": 0
        } ],
        "measureScore": {
          "value": 0.0
        }
      } ],
      "evaluatedResource": [ {
        "reference": "Patient/2346628d-419a-491b-81d8-08c74ca8ea61"
      }, {
        "reference": "Encounter/b2724edc-4267-4cff-8add-4db8ac6168b3"
      }, {
        "reference": "Encounter/3f03da7c-1527-4c83-b5e4-557f7bc87dcf"
      }, {
        "reference": "ServiceRequest/b552691f-3a3d-474a-91cf-f57eaf2538a1"
      }, {
        "reference": "Coverage/31e0f9c3-a06b-4fed-8fdc-63cae76dd37a"
      }, {
        "reference": "Location/07097872-8041-4e26-857b-48eb5b8c3949"
      }, {
        "reference": "Location/f44a9648-955d-4e1f-8f09-4953b31e315f"
      }, {
        "reference": "Organization/d16d05d4-8d26-4c3a-b72d-c72ba4a0e1f7"
      }, {
        "reference": "Practitioner/f8f37546-294b-4409-a821-1ad44f43c017"
      } ]
    },
    "request": {
      "method": "PUT",
      "url": "MeasureReport/f2d5c63b-3523-4135-930e-cbe087b59a0a"
    }
  } ]
}