{
  "resourceType": "Bundle",
  "id": "633c9d030968f8012250fc83",
  "type": "transaction",
  "entry": [ {
    "fullUrl": "https://madie.cms.gov/Patient/2ed389dd-10d2-49b1-966b-f8bada7df530",
    "resource": {
      "resourceType": "Patient",
      "id": "2ed389dd-10d2-49b1-966b-f8bada7df530",
      "meta": {
        "profile": [ "http://hl7.org/fhir/us/qicore/StructureDefinition/qicore-patient" ]
      },
      "text": {
        "status": "generated",
        "div": "<div xmlns=\"http://www.w3.org/1999/xhtml\"><div class=\"hapiHeaderText\">CMOdurEnc_ED=1hrNoObsBFEnc <b>DENEXPASS </b></div><table class=\"hapiPropertyTable\"><tbody><tr><td>Identifier</td><td>c13349494c162d88448cb3ad5c0d4a05</td></tr><tr><td>Date of birth</td><td><span>18 September 1985</span></td></tr></tbody></table></div>"
      },
      "extension": [ {
        "url": "http://hl7.org/fhir/us/core/StructureDefinition/us-core-race",
        "extension": [ {
          "url": "ombCategory",
          "valueCoding": {
            "system": "urn:oid:2.16.840.1.113883.6.238",
            "code": "1002-5",
            "display": "American Indian or Alaska Native",
            "userSelected": true
          }
        }, {
          "url": "text",
          "valueString": "American Indian or Alaska Native"
        } ]
      }, {
        "url": "http://hl7.org/fhir/us/core/StructureDefinition/us-core-ethnicity",
        "extension": [ {
          "url": "ombCategory",
          "valueCoding": {
            "system": "urn:oid:2.16.840.1.113883.6.238",
            "code": "2135-2",
            "display": "Hispanic or Latino",
            "userSelected": true
          }
        }, {
          "url": "text",
          "valueString": "Hispanic or Latino"
        } ]
      } ],
      "identifier": [ {
        "type": {
          "coding": [ {
            "system": "http://terminology.hl7.org/CodeSystem/v2-0203",
            "code": "MR"
          } ]
        },
        "system": "https://bonnie-fhir.healthit.gov/",
        "value": "633c9d030968f8012250fc83"
      } ],
      "active": true,
      "name": [ {
        "use": "usual",
        "family": "DENEXPass",
        "given": [ "CMOdurEnc_ED=1hrNoObsBFEnc" ]
      } ],
      "gender": "female",
      "birthDate": "1986-09-18"
    },
    "request": {
      "method": "PUT",
      "url": "Patient/2ed389dd-10d2-49b1-966b-f8bada7df530"
    }
  }, {
    "fullUrl": "https://madie.cms.gov/Condition/47b0acb9-8003-42c5-9944-89e27fa8670f",
    "resource": {
      "resourceType": "Condition",
      "id": "47b0acb9-8003-42c5-9944-89e27fa8670f",
      "meta": {
        "profile": [ "http://hl7.org/fhir/us/qicore/StructureDefinition/qicore-condition-problems-health-concerns" ]
      },
      "clinicalStatus": {
        "coding": [ {
          "system": "http://terminology.hl7.org/CodeSystem/condition-clinical",
          "code": "inactive"
        } ]
      },
      "verificationStatus": {
        "coding": [ {
          "system": "http://terminology.hl7.org/CodeSystem/condition-ver-status",
          "code": "confirmed"
        } ]
      },
      "category": [ {
        "coding": [ {
          "system": "http://terminology.hl7.org/CodeSystem/condition-category",
          "code": "encounter-diagnosis",
          "display": "Encounter Diagnosis"
        } ]
      } ],
      "code": {
        "coding": [ {
          "system": "http://hl7.org/fhir/sid/icd-10-cm",
          "code": "I48.20"
        }, {
          "system": "http://hl7.org/fhir/sid/icd-10-cm",
          "code": "I48.0"
        }, {
          "system": "http://snomed.info/sct",
          "code": "5370000"
        } ]
      },
      "subject": {
        "reference": "Patient/2ed389dd-10d2-49b1-966b-f8bada7df530"
      },
      "onsetDateTime": "2026-10-01T09:00:00Z",
      "abatementDateTime": "2026-10-12T00:15:00.000+00:00"
    },
    "request": {
      "method": "PUT",
      "url": "Condition/47b0acb9-8003-42c5-9944-89e27fa8670f"
    }
  }, {
    "fullUrl": "https://madie.cms.gov/Encounter/7964d3b5-ae42-4f8d-b5d7-d7e1fd8f9cdd",
    "resource": {
      "resourceType": "Encounter",
      "id": "7964d3b5-ae42-4f8d-b5d7-d7e1fd8f9cdd",
      "meta": {
        "profile": [ "http://hl7.org/fhir/us/qicore/StructureDefinition/qicore-encounter" ]
      },
      "status": "finished",
      "class": {
        "system": "http://terminology.hl7.org/CodeSystem/v3-ActCode",
        "code": "EMER",
        "display": "emergency"
      },
      "type": [ {
        "coding": [ {
          "system": "http://snomed.info/sct",
          "code": "4525004"
        } ]
      } ],
      "subject": {
        "reference": "Patient/2ed389dd-10d2-49b1-966b-f8bada7df530"
      },
      "period": {
        "start": "2026-10-01T08:00:00Z",
        "end": "2026-10-01T09:00:00.000+00:00"
      },
      "length": {
        "value": 0,
        "unit": "days"
      }
    },
    "request": {
      "method": "PUT",
      "url": "Encounter/7964d3b5-ae42-4f8d-b5d7-d7e1fd8f9cdd"
    }
  }, {
    "fullUrl": "https://madie.cms.gov/Encounter/5182841c-e191-4cde-b0c2-54af0548bd78",
    "resource": {
      "resourceType": "Encounter",
      "id": "5182841c-e191-4cde-b0c2-54af0548bd78",
      "meta": {
        "profile": [ "http://hl7.org/fhir/us/qicore/StructureDefinition/qicore-encounter" ]
      },
      "status": "finished",
      "class": {
        "system": "http://terminology.hl7.org/CodeSystem/v3-ActCode",
        "code": "IMP",
        "display": "inpatient encounter"
      },
      "type": [ {
        "coding": [ {
          "system": "http://snomed.info/sct",
          "code": "32485007"
        } ]
      } ],
      "subject": {
        "reference": "Patient/2ed389dd-10d2-49b1-966b-f8bada7df530"
      },
      "period": {
        "start": "2026-10-01T09:00:00Z",
        "end": "2026-10-12T00:15:00.000+00:00"
      },
      "length": {
        "value": 11,
        "unit": "days"
      },
      "reasonReference": [ {
        "reference": "Condition/47b0acb9-8003-42c5-9944-89e27fa8670f"
      } ]
    },
    "request": {
      "method": "PUT",
      "url": "Encounter/5182841c-e191-4cde-b0c2-54af0548bd78"
    }
  }, {
    "fullUrl": "https://madie.cms.gov/ServiceRequest/2a80b6d6-cbba-44d5-b66c-968250310602",
    "resource": {
      "resourceType": "ServiceRequest",
      "id": "2a80b6d6-cbba-44d5-b66c-968250310602",
      "meta": {
        "profile": [ "http://hl7.org/fhir/us/qicore/StructureDefinition/qicore-servicerequest" ]
      },
      "status": "active",
      "intent": "order",
      "code": {
        "coding": [ {
          "system": "http://snomed.info/sct",
          "code": "133918004"
        } ]
      },
      "subject": {
        "reference": "Patient/2ed389dd-10d2-49b1-966b-f8bada7df530"
      },
      "authoredOn": "2026-10-01T09:15:00Z"
    },
    "request": {
      "method": "PUT",
      "url": "ServiceRequest/2a80b6d6-cbba-44d5-b66c-968250310602"
    }
  }, {
    "fullUrl": "https://madie.cms.gov/claim/5ca62962b8484628b8de1ec5",
    "resource": {
      "resourceType": "Claim",
      "id": "5ca62962b8484628b8de1ec5",
      "meta": {
        "profile": [ "http://hl7.org/fhir/us/qicore/StructureDefinition/qicore-claim" ]
      },
      "status": "active",
      "type": {
        "coding": [ {
          "system": "http://terminology.hl7.org/CodeSystem/claim-type",
          "code": "institutional"
        } ]
      },
      "use": "claim",
      "patient": {
        "reference": "Patient/d170a0a8-b5ad-4303-b6df-e304dd5f92ad"
      },
      "created": "2026-12-01",
      "provider": {
        "reference": "Practitioner/8369a156-161b-498e-ae03-79294c4c2773"
      },
      "priority": {
        "coding": [ {
          "system": "http://terminology.hl7.org/CodeSystem/processpriority",
          "code": "normal"
        } ]
      },
      "diagnosis": [ {
        "sequence": 1,
        "diagnosisCodeableConcept": {
          "coding": [ {
            "system": "http://hl7.org/fhir/sid/icd-10-cm",
            "code": "I63.00"
          } ]
        },
        "type": [ {
          "coding": [ {
            "system": "http://terminology.hl7.org/CodeSystem/ex-diagnosistype",
            "code": "principal"
          } ]
        } ]
      } ],
      "insurance": [ {
        "sequence": 1,
        "focal": true,
        "coverage": {
          "reference": "Coverage/5fa041661c76ba66d9959367"
        }
      } ],
      "item": [ {
        "sequence": 1,
        "diagnosisSequence": [ 1 ],
        "productOrService": {
          "coding": [ {
            "system": "http://terminology.hl7.org/CodeSystem/ex-USCLS",
            "code": "99555"
          } ]
        },
        "encounter": [ {
          "reference": "Encounter/5182841c-e191-4cde-b0c2-54af0548bd78"
        } ]
      } ]
    },
    "request": {
      "method": "PUT",
      "url": "Claim/5ca62962b8484628b8de1ec5"
    }
  }, {
    "fullUrl": "https://madie.cms.gov/Coverage/ea650aa5-5f3d-4e91-8e23-d715374e1101",
    "resource": {
      "resourceType": "Coverage",
      "id": "ea650aa5-5f3d-4e91-8e23-d715374e1101",
      "status": "active",
      "subscriberId": "523435",
      "beneficiary": {
        "reference": "Patient/2ed389dd-10d2-49b1-966b-f8bada7df530"
      },
      "relationship": {
        "coding": [ {
          "system": "http://terminology.hl7.org/CodeSystem/subscriber-relationship",
          "code": "self"
        } ]
      },
      "period": {
        "start": "1986-09-18T08:00:00Z"
      },
      "payor": [ {
        "reference": "Organization/4fc25687-aacc-4b81-8549-b58f08079aaf"
      } ]
    },
    "request": {
      "method": "PUT",
      "url": "Coverage/ea650aa5-5f3d-4e91-8e23-d715374e1101"
    }
  }, {
    "fullUrl": "https://madie.cms.gov/Condition/8d7f429a-a97e-4afb-a6aa-614e3140b039",
    "resource": {
      "resourceType": "Condition",
      "id": "8d7f429a-a97e-4afb-a6aa-614e3140b039",
      "meta": {
        "profile": [ "http://hl7.org/fhir/us/qicore/StructureDefinition/qicore-condition-problems-health-concerns" ]
      },
      "clinicalStatus": {
        "coding": [ {
          "system": "http://terminology.hl7.org/CodeSystem/condition-clinical",
          "code": "active"
        } ]
      },
      "verificationStatus": {
        "coding": [ {
          "system": "http://terminology.hl7.org/CodeSystem/condition-ver-status",
          "code": "confirmed"
        } ]
      },
      "category": [ {
        "coding": [ {
          "system": "http://terminology.hl7.org/CodeSystem/condition-category",
          "code": "encounter-diagnosis",
          "display": "Encounter Diagnosis"
        } ]
      } ],
      "code": {
        "coding": [ {
          "system": "http://snomed.info/sct",
          "version": "2021-09",
          "code": "111297002",
          "display": "Nonparalytic stroke (disorder)",
          "userSelected": true
        } ]
      },
      "subject": {
        "reference": "Patient/2ed389dd-10d2-49b1-966b-f8bada7df530"
      },
      "recordedDate": "2026-10-13T08:00:00Z"
    },
    "request": {
      "method": "PUT",
      "url": "Condition/8d7f429a-a97e-4afb-a6aa-614e3140b039"
    }
  }, {
    "fullUrl": "https://madie.cms.gov/Organization/4fc25687-aacc-4b81-8549-b58f08079aaf",
    "resource": {
      "resourceType": "Organization",
      "id": "4fc25687-aacc-4b81-8549-b58f08079aaf",
      "meta": {
        "profile": [ "http://hl7.org/fhir/us/qicore/StructureDefinition/qicore-organization" ]
      },
      "identifier": [ {
        "use": "temp",
        "system": "urn:oid:2.16.840.1.113883.4.4",
        "value": "21-3259825"
      } ],
      "active": true,
      "type": [ {
        "coding": [ {
          "system": "http://terminology.hl7.org/CodeSystem/organization-type",
          "code": "pay",
          "display": "Payer"
        } ]
      } ],
      "name": "Blue Cross Blue Shield of Texas",
      "telecom": [ {
        "system": "phone",
        "value": "(+1) 972-766-6900"
      } ],
      "address": [ {
        "use": "billing",
        "type": "postal",
        "line": [ "P.O. Box 660044" ],
        "city": "Dallas",
        "state": "TX",
        "postalCode": "75266-0044",
        "country": "USA"
      } ]
    },
    "request": {
      "method": "PUT",
      "url": "Organization/4fc25687-aacc-4b81-8549-b58f08079aaf"
    }
  }, {
    "fullUrl": "https://madie.cms.gov/Practitioner/8369a156-161b-498e-ae03-79294c4c2773",
    "resource": {
      "resourceType": "Practitioner",
      "id": "8369a156-161b-498e-ae03-79294c4c2773",
      "meta": {
        "profile": [ "http://hl7.org/fhir/us/qicore/StructureDefinition/qicore-practitioner" ]
      },
      "identifier": [ {
        "system": "http://hl7.org/fhir/sid/us-npi",
        "value": "9999999896"
      } ],
      "name": [ {
        "family": "Evil",
        "prefix": [ "Dr" ]
      } ]
    },
    "request": {
      "method": "PUT",
      "url": "Practitioner/8369a156-161b-498e-ae03-79294c4c2773"
    }
  }, {
    "fullUrl": "https://madie.cms.gov/MeasureReport/95145a63-72ef-444b-80de-ad9db161611d",
    "resource": {
      "resourceType": "MeasureReport",
      "id": "95145a63-72ef-444b-80de-ad9db161611d",
      "meta": {
        "profile": [ "http://hl7.org/fhir/us/cqfmeasures/StructureDefinition/test-case-cqfm" ]
      },
      "contained": [ {
        "resourceType": "Parameters",
        "id": "b9e4662a-02e0-4be8-b274-f1a527a394e5-parameters",
        "parameter": [ {
          "name": "subject",
          "valueString": "2ed389dd-10d2-49b1-966b-f8bada7df530"
        } ]
      } ],
      "extension": [ {
        "url": "http://hl7.org/fhir/StructureDefinition/cqf-inputParameters",
        "valueReference": {
          "reference": "#b9e4662a-02e0-4be8-b274-f1a527a394e5-parameters"
        }
      }, {
        "url": "http://hl7.org/fhir/us/cqfmeasures/StructureDefinition/cqfm-testCaseDescription",
        "valueMarkdown": "Patient receives CMO during inpatient encounter. ED starts 60 minutes before inpatient encounter start. No Observation. Testing HospitalizationWithObservation function.\n"
      } ],
      "modifierExtension": [ {
        "url": "http://hl7.org/fhir/us/cqfmeasures/StructureDefinition/cqfm-isTestCase",
        "valueBoolean": true
      } ],
      "status": "complete",
      "type": "individual",
      "measure": "https://madie.cms.gov/Measure/CMS71FHIRSTKAnticoagAFFlutter",
      "period": {
        "start": "2026-01-01",
        "end": "2026-12-31"
      },
      "group": [ {
        "id": "Group_1",
        "population": [ {
          "id": "InitialPopulation_1",
          "code": {
            "coding": [ {
              "system": "http://terminology.hl7.org/CodeSystem/measure-population",
              "code": "initial-population",
              "display": "Initial Population"
            } ]
          },
          "count": 1
        }, {
          "id": "Denominator_1",
          "code": {
            "coding": [ {
              "system": "http://terminology.hl7.org/CodeSystem/measure-population",
              "code": "denominator",
              "display": "Denominator"
            } ]
          },
          "count": 1
        }, {
          "id": "DenominatorExclusion_1",
          "code": {
            "coding": [ {
              "system": "http://terminology.hl7.org/CodeSystem/measure-population",
              "code": "denominator-exclusion",
              "display": "Denominator Exclusion"
            } ]
          },
          "count": 1
        }, {
          "id": "Numerator_1",
          "code": {
            "coding": [ {
              "system": "http://terminology.hl7.org/CodeSystem/measure-population",
              "code": "numerator",
              "display": "Numerator"
            } ]
          },
          "count": 0
        }, {
          "id": "DenominatorException_1",
          "code": {
            "coding": [ {
              "system": "http://terminology.hl7.org/CodeSystem/measure-population",
              "code": "denominator-exception",
              "display": "Denominator Exception"
            } ]
          },
          "count": 0
        } ],
        "measureScore": {
          "value": 0.0
        }
      } ],
      "evaluatedResource": [ {
        "reference": "Patient/2ed389dd-10d2-49b1-966b-f8bada7df530"
      }, {
        "reference": "Condition/47b0acb9-8003-42c5-9944-89e27fa8670f"
      }, {
        "reference": "Encounter/7964d3b5-ae42-4f8d-b5d7-d7e1fd8f9cdd"
      }, {
        "reference": "Encounter/5182841c-e191-4cde-b0c2-54af0548bd78"
      }, {
        "reference": "ServiceRequest/2a80b6d6-cbba-44d5-b66c-968250310602"
      }, {
        "reference": "Claim/5ca62962b8484628b8de1ec5"
      }, {
        "reference": "Coverage/ea650aa5-5f3d-4e91-8e23-d715374e1101"
      }, {
        "reference": "Condition/8d7f429a-a97e-4afb-a6aa-614e3140b039"
      }, {
        "reference": "Organization/4fc25687-aacc-4b81-8549-b58f08079aaf"
      }, {
        "reference": "Practitioner/8369a156-161b-498e-ae03-79294c4c2773"
      } ]
    },
    "request": {
      "method": "PUT",
      "url": "MeasureReport/95145a63-72ef-444b-80de-ad9db161611d"
    }
  } ]
}