{
  "resourceType": "Bundle",
  "id": "612e6a6002c62a011f2e9dfd",
  "type": "transaction",
  "entry": [ {
    "fullUrl": "https://madie.cms.gov/Patient/0f3bb677-2879-45da-b93d-70efd50381e1",
    "resource": {
      "resourceType": "Patient",
      "id": "0f3bb677-2879-45da-b93d-70efd50381e1",
      "meta": {
        "profile": [ "http://hl7.org/fhir/us/qicore/StructureDefinition/qicore-patient" ]
      },
      "text": {
        "status": "generated",
        "div": "<div xmlns=\"http://www.w3.org/1999/xhtml\"><div class=\"hapiHeaderText\">PtRef_MA_InjXa_DayOfAnes <b>NUMERPASS </b></div><table class=\"hapiPropertyTable\"><tbody><tr><td>Identifier</td><td>bec2580a47ed4bf7691b191e0654b2de</td></tr><tr><td>Date of birth</td><td><span>02 January 1974</span></td></tr></tbody></table></div>"
      },
      "extension": [ {
        "url": "http://hl7.org/fhir/us/core/StructureDefinition/us-core-race",
        "extension": [ {
          "url": "ombCategory",
          "valueCoding": {
            "system": "urn:oid:2.16.840.1.113883.6.238",
            "code": "1002-5",
            "display": "American Indian or Alaska Native",
            "userSelected": true
          }
        }, {
          "url": "text",
          "valueString": "American Indian or Alaska Native"
        } ]
      }, {
        "url": "http://hl7.org/fhir/us/core/StructureDefinition/us-core-ethnicity",
        "extension": [ {
          "url": "ombCategory",
          "valueCoding": {
            "system": "urn:oid:2.16.840.1.113883.6.238",
            "code": "2135-2",
            "display": "Hispanic or Latino",
            "userSelected": true
          }
        }, {
          "url": "text",
          "valueString": "Hispanic or Latino"
        } ]
      } ],
      "identifier": [ {
        "type": {
          "coding": [ {
            "system": "http://terminology.hl7.org/CodeSystem/v2-0203",
            "code": "MR"
          } ]
        },
        "system": "https://bonnie-fhir.healthit.gov/",
        "value": "612e6a6002c62a011f2e9dfd"
      } ],
      "active": true,
      "name": [ {
        "use": "usual",
        "family": "NUMERPass",
        "given": [ "MAPtRefInjXaDayOfAnes" ]
      } ],
      "gender": "male",
      "birthDate": "1975-01-02"
    },
    "request": {
      "method": "PUT",
      "url": "Patient/0f3bb677-2879-45da-b93d-70efd50381e1"
    }
  }, {
    "fullUrl": "https://madie.cms.gov/Encounter/dfff66fb-6c97-4366-a6d8-43209a411891",
    "resource": {
      "resourceType": "Encounter",
      "id": "dfff66fb-6c97-4366-a6d8-43209a411891",
      "meta": {
        "profile": [ "http://hl7.org/fhir/us/qicore/StructureDefinition/qicore-encounter" ]
      },
      "status": "finished",
      "class": {
        "system": "http://terminology.hl7.org/CodeSystem/v3-ActCode",
        "code": "IMP",
        "display": "inpatient encounter"
      },
      "type": [ {
        "coding": [ {
          "system": "http://snomed.info/sct",
          "code": "8715000"
        } ]
      } ],
      "subject": {
        "reference": "Patient/0f3bb677-2879-45da-b93d-70efd50381e1"
      },
      "period": {
        "start": "2026-11-01T08:00:00.000+00:00",
        "end": "2026-11-26T08:15:00.000+00:00"
      },
      "length": {
        "value": 25,
        "unit": "days"
      }
    },
    "request": {
      "method": "PUT",
      "url": "Encounter/dfff66fb-6c97-4366-a6d8-43209a411891"
    }
  }, {
    "fullUrl": "https://madie.cms.gov/Coverage/19eaae4b-b2ab-45d0-820d-c73cdcafb91b",
    "resource": {
      "resourceType": "Coverage",
      "id": "19eaae4b-b2ab-45d0-820d-c73cdcafb91b",
      "status": "active",
      "beneficiary": {
        "reference": "Patient/0f3bb677-2879-45da-b93d-70efd50381e1"
      },
      "period": {
        "start": "1975-01-02T08:00:00.000+00:00"
      },
      "payor": [ {
        "reference": "Organization/ea665f97-d011-4ac6-a5c5-673f11e1dc7f"
      } ]
    },
    "request": {
      "method": "PUT",
      "url": "Coverage/19eaae4b-b2ab-45d0-820d-c73cdcafb91b"
    }
  }, {
    "fullUrl": "https://madie.cms.gov/MedicationAdministration/8b461999-9cc5-4687-9596-b6800dc5400b",
    "resource": {
      "resourceType": "MedicationAdministration",
      "id": "8b461999-9cc5-4687-9596-b6800dc5400b",
      "meta": {
        "profile": [ "http://hl7.org/fhir/us/qicore/StructureDefinition/qicore-medicationadministrationnotdone" ]
      },
      "extension": [ {
        "url": "http://hl7.org/fhir/us/qicore/StructureDefinition/qicore-recorded",
        "valueDateTime": "2026-11-02T11:00:00.000+00:00"
      } ],
      "status": "not-done",
      "statusReason": [ {
        "coding": [ {
          "system": "http://snomed.info/sct",
          "code": "443390004",
          "display": "Refused (qualifier value)",
          "userSelected": true
        } ]
      } ],
      "medicationCodeableConcept": {
        "coding": [ {
          "system": "http://www.nlm.nih.gov/research/umls/rxnorm",
          "code": "861356"
        } ]
      },
      "subject": {
        "reference": "Patient/0f3bb677-2879-45da-b93d-70efd50381e1"
      },
      "effectivePeriod": {
        "start": "2026-11-02T11:00:00.000+00:00"
      }
    },
    "request": {
      "method": "PUT",
      "url": "MedicationAdministration/8b461999-9cc5-4687-9596-b6800dc5400b"
    }
  }, {
    "fullUrl": "https://madie.cms.gov/Procedure/9d6ca942-4fed-4994-ad4e-a95bcc9057df",
    "resource": {
      "resourceType": "Procedure",
      "id": "9d6ca942-4fed-4994-ad4e-a95bcc9057df",
      "meta": {
        "profile": [ "http://hl7.org/fhir/us/qicore/StructureDefinition/qicore-procedure" ]
      },
      "extension": [ {
        "url": "http://hl7.org/fhir/us/qicore/StructureDefinition/qicore-recorded",
        "valueDateTime": "2013-11-19T13:35:00.000+00:00"
      } ],
      "status": "completed",
      "code": {
        "coding": [ {
          "system": "http://snomed.info/sct",
          "code": "18946005"
        } ]
      },
      "subject": {
        "reference": "Patient/0f3bb677-2879-45da-b93d-70efd50381e1"
      },
      "performedPeriod": {
        "start": "2026-11-02T09:00:00.000+00:00",
        "end": "2026-11-02T09:15:00.000+00:00"
      }
    },
    "request": {
      "method": "PUT",
      "url": "Procedure/9d6ca942-4fed-4994-ad4e-a95bcc9057df"
    }
  }, {
    "fullUrl": "https://madie.cms.gov/Organization/ea665f97-d011-4ac6-a5c5-673f11e1dc7f",
    "resource": {
      "resourceType": "Organization",
      "id": "ea665f97-d011-4ac6-a5c5-673f11e1dc7f",
      "meta": {
        "profile": [ "http://hl7.org/fhir/us/qicore/StructureDefinition/qicore-organization" ]
      },
      "identifier": [ {
        "use": "temp",
        "system": "urn:oid:2.16.840.1.113883.4.4",
        "value": "21-3259825"
      } ],
      "active": true,
      "type": [ {
        "coding": [ {
          "system": "http://terminology.hl7.org/CodeSystem/organization-type",
          "code": "pay",
          "display": "Payer"
        } ]
      } ],
      "name": "Blue Cross Blue Shield of Texas",
      "telecom": [ {
        "system": "phone",
        "value": "(+1) 972-766-6900"
      } ],
      "address": [ {
        "use": "billing",
        "type": "postal",
        "line": [ "P.O. Box 660044" ],
        "city": "Dallas",
        "state": "TX",
        "postalCode": "75266-0044",
        "country": "USA"
      } ]
    },
    "request": {
      "method": "PUT",
      "url": "Organization/ea665f97-d011-4ac6-a5c5-673f11e1dc7f"
    }
  }, {
    "fullUrl": "https://madie.cms.gov/Practitioner/a3205f4d-8a44-4499-b614-feda5cc1fbdf",
    "resource": {
      "resourceType": "Practitioner",
      "id": "a3205f4d-8a44-4499-b614-feda5cc1fbdf",
      "identifier": [ {
        "system": "http://hl7.org/fhir/sid/us-npi",
        "value": "123456"
      } ],
      "name": [ {
        "family": "Evil",
        "prefix": [ "Dr" ]
      } ]
    },
    "request": {
      "method": "PUT",
      "url": "Practitioner/a3205f4d-8a44-4499-b614-feda5cc1fbdf"
    }
  }, {
    "fullUrl": "https://madie.cms.gov/MeasureReport/00058b39-64dc-4480-bae4-6a09de66eb44",
    "resource": {
      "resourceType": "MeasureReport",
      "id": "00058b39-64dc-4480-bae4-6a09de66eb44",
      "meta": {
        "profile": [ "http://hl7.org/fhir/us/cqfmeasures/StructureDefinition/test-case-cqfm" ]
      },
      "contained": [ {
        "resourceType": "Parameters",
        "id": "14d2b15c-b192-483d-87ee-f7789cfc8eb6-parameters",
        "parameter": [ {
          "name": "subject",
          "valueString": "0f3bb677-2879-45da-b93d-70efd50381e1"
        } ]
      } ],
      "extension": [ {
        "url": "http://hl7.org/fhir/StructureDefinition/cqf-inputParameters",
        "valueReference": {
          "reference": "#14d2b15c-b192-483d-87ee-f7789cfc8eb6-parameters"
        }
      }, {
        "url": "http://hl7.org/fhir/us/cqfmeasures/StructureDefinition/cqfm-testCaseDescription",
        "valueMarkdown": "factor Xa refused <= 1 day after end of anesthesia\n"
      } ],
      "modifierExtension": [ {
        "url": "http://hl7.org/fhir/us/cqfmeasures/StructureDefinition/cqfm-isTestCase",
        "valueBoolean": true
      } ],
      "status": "complete",
      "type": "individual",
      "measure": "https://madie.cms.gov/Measure/CMS108FHIRVTEProphylaxis",
      "period": {
        "start": "2026-01-01",
        "end": "2026-12-31"
      },
      "group": [ {
        "id": "Group_1",
        "population": [ {
          "id": "InitialPopulation_1",
          "code": {
            "coding": [ {
              "system": "http://terminology.hl7.org/CodeSystem/measure-population",
              "code": "initial-population",
              "display": "Initial Population"
            } ]
          },
          "count": 1
        }, {
          "id": "Denominator_1",
          "code": {
            "coding": [ {
              "system": "http://terminology.hl7.org/CodeSystem/measure-population",
              "code": "denominator",
              "display": "Denominator"
            } ]
          },
          "count": 1
        }, {
          "id": "DenominatorExclusion_1",
          "code": {
            "coding": [ {
              "system": "http://terminology.hl7.org/CodeSystem/measure-population",
              "code": "denominator-exclusion",
              "display": "Denominator Exclusion"
            } ]
          },
          "count": 0
        }, {
          "id": "Numerator_1",
          "code": {
            "coding": [ {
              "system": "http://terminology.hl7.org/CodeSystem/measure-population",
              "code": "numerator",
              "display": "Numerator"
            } ]
          },
          "count": 1
        } ],
        "measureScore": {
          "value": 0.0
        }
      } ],
      "evaluatedResource": [ {
        "reference": "Patient/0f3bb677-2879-45da-b93d-70efd50381e1"
      }, {
        "reference": "Encounter/dfff66fb-6c97-4366-a6d8-43209a411891"
      }, {
        "reference": "Coverage/19eaae4b-b2ab-45d0-820d-c73cdcafb91b"
      }, {
        "reference": "MedicationAdministration/8b461999-9cc5-4687-9596-b6800dc5400b"
      }, {
        "reference": "Procedure/9d6ca942-4fed-4994-ad4e-a95bcc9057df"
      }, {
        "reference": "Organization/ea665f97-d011-4ac6-a5c5-673f11e1dc7f"
      }, {
        "reference": "Practitioner/a3205f4d-8a44-4499-b614-feda5cc1fbdf"
      } ]
    },
    "request": {
      "method": "PUT",
      "url": "MeasureReport/00058b39-64dc-4480-bae4-6a09de66eb44"
    }
  } ]
}