{"resourceType":"Bundle","id":"tests-87fc86a7-5863-474f-98e2-618189d8da9b-bundle","type":"transaction","entry":[{"fullUrl":"Condition/60669da1-b4ab-4d28-b523-d3ff48faef2e","resource":{"resourceType":"Condition","id":"60669da1-b4ab-4d28-b523-d3ff48faef2e","meta":{"profile":["http://hl7.org/fhir/us/qicore/StructureDefinition/qicore-condition-encounter-diagnosis"]},"category":[{"coding":[{"system":"http://terminology.hl7.org/CodeSystem/condition-category","code":"encounter-diagnosis","display":"Encounter Diagnosis"}]}],"code":{"coding":[{"system":"http://snomed.info/sct","version":"2022-09","code":"169826009","display":"Single live birth from singleton pregnancy (finding)","userSelected":true}]},"subject":{"reference":"Patient/87fc86a7-5863-474f-98e2-618189d8da9b"},"encounter":{"reference":"Encounter/380eedd9-b9f6-4abc-b283-c7cfaa1f2964"},"recordedDate":"2026-10-21T08:00:00.000+00:00"},"request":{"method":"PUT","url":"Condition/60669da1-b4ab-4d28-b523-d3ff48faef2e"}},{"fullUrl":"Bundle/63487c300968f801225401cd","resource":{"resourceType":"Bundle","id":"63487c300968f801225401cd","type":"transaction","entry":[{"fullUrl":"https://madie.cms.gov/Patient/87fc86a7-5863-474f-98e2-618189d8da9b","resource":{"resourceType":"Patient","id":"87fc86a7-5863-474f-98e2-618189d8da9b","meta":{"profile":["http://hl7.org/fhir/us/qicore/StructureDefinition/qicore-patient"]},"text":{"status":"generated","div":"<div xmlns=\"http://www.w3.org/1999/xhtml\"><div class=\"hapiHeaderText\">AssessPResultIsNull <b>DENOMFail</b></div><table class=\"hapiPropertyTable\"><tbody><tr><td>Identifier</td><td>cb4a87fae0aeb4667064306e289209af09ca2376f26fb181f5d5ea03cba5dc53</td></tr><tr><td>Date of birth</td><td><span>14 February 1985</span></td></tr></tbody></table></div>"},"extension":[{"url":"http://hl7.org/fhir/us/core/StructureDefinition/us-core-race","extension":[{"url":"ombCategory","valueCoding":{"system":"urn:oid:2.16.840.1.113883.6.238","code":"1002-5","display":"American Indian or Alaska Native","userSelected":true}},{"url":"text","valueString":"American Indian or Alaska Native"}]},{"url":"http://hl7.org/fhir/us/core/StructureDefinition/us-core-ethnicity","extension":[{"url":"ombCategory","valueCoding":{"system":"urn:oid:2.16.840.1.113883.6.238","code":"2135-2","display":"Hispanic or Latino","userSelected":true}},{"url":"text","valueString":"Hispanic or Latino"}]}],"identifier":[{"type":{"coding":[{"system":"http://terminology.hl7.org/CodeSystem/v2-0203","code":"MR"}]},"system":"https://bonnie-fhir.healthit.gov/","value":"63487c300968f801225401cd"}],"active":true,"name":[{"use":"usual","family":"DENOMFail","given":["AssessPResultIsNull"]}],"gender":"female","birthDate":"1998-02-14"},"request":{"method":"PUT","url":"Patient/87fc86a7-5863-474f-98e2-618189d8da9b"}},{"fullUrl":"https://madie.cms.gov/Observation/61aa4122-5f9f-431d-9675-0bbf25c447d0","resource":{"resourceType":"Observation","id":"61aa4122-5f9f-431d-9675-0bbf25c447d0","meta":{"profile":["http://hl7.org/fhir/us/qicore/StructureDefinition/qicore-simple-observation"]},"status":"final","category":[{"coding":[{"system":"http://terminology.hl7.org/CodeSystem/observation-category","code":"exam","display":"exam","userSelected":true}]}],"code":{"coding":[{"system":"http://loinc.org","code":"11977-6"}]},"subject":{"reference":"Patient/87fc86a7-5863-474f-98e2-618189d8da9b"},"effectiveDateTime":"2026-06-08T19:59:00.000+00:00"},"request":{"method":"PUT","url":"Observation/61aa4122-5f9f-431d-9675-0bbf25c447d0"}},{"fullUrl":"https://madie.cms.gov/Observation/17e2cb6c-ee05-4876-9fde-6f8fb9ef6a80","resource":{"resourceType":"Observation","id":"17e2cb6c-ee05-4876-9fde-6f8fb9ef6a80","meta":{"profile":["http://hl7.org/fhir/us/qicore/StructureDefinition/qicore-simple-observation"]},"status":"final","category":[{"coding":[{"system":"http://terminology.hl7.org/CodeSystem/observation-category","code":"exam","display":"exam","userSelected":true}]}],"code":{"coding":[{"system":"http://loinc.org","code":"11884-4"}]},"subject":{"reference":"Patient/87fc86a7-5863-474f-98e2-618189d8da9b"},"effectiveDateTime":"2026-06-08T20:00:00.000+00:00","valueQuantity":{"value":37,"system":"http://unitsofmeasure.org","code":"wk"}},"request":{"method":"PUT","url":"Observation/17e2cb6c-ee05-4876-9fde-6f8fb9ef6a80"}},{"fullUrl":"https://madie.cms.gov/Observation/5958fa6a-f624-4e53-b50b-64a2d74de164","resource":{"resourceType":"Observation","id":"5958fa6a-f624-4e53-b50b-64a2d74de164","meta":{"profile":["http://hl7.org/fhir/us/qicore/StructureDefinition/qicore-simple-observation"]},"status":"final","category":[{"coding":[{"system":"http://terminology.hl7.org/CodeSystem/observation-category","code":"exam","display":"exam","userSelected":true}]}],"code":{"coding":[{"system":"http://loinc.org","code":"93857-1"}]},"subject":{"reference":"Patient/87fc86a7-5863-474f-98e2-618189d8da9b"},"effectiveDateTime":"2026-06-08T20:00:00.000+00:00","valueDateTime":"2026-06-08T20:00:00.000+00:00"},"request":{"method":"PUT","url":"Observation/5958fa6a-f624-4e53-b50b-64a2d74de164"}},{"fullUrl":"https://madie.cms.gov/Encounter/380eedd9-b9f6-4abc-b283-c7cfaa1f2964","resource":{"resourceType":"Encounter","id":"380eedd9-b9f6-4abc-b283-c7cfaa1f2964","meta":{"profile":["http://hl7.org/fhir/us/qicore/StructureDefinition/qicore-encounter"]},"status":"finished","class":{"system":"http://terminology.hl7.org/CodeSystem/v3-ActCode","code":"IMP","display":"inpatient encounter"},"type":[{"coding":[{"system":"http://snomed.info/sct","code":"8715000"}]}],"subject":{"reference":"Patient/87fc86a7-5863-474f-98e2-618189d8da9b"},"period":{"start":"2026-06-08T08:00:00.000+00:00","end":"2026-06-10T08:15:00.000+00:00"},"length":{"value":2,"unit":"days"},"reasonReference":[{"reference":"Condition/60669da1-b4ab-4d28-b523-d3ff48faef2e"}]},"request":{"method":"PUT","url":"Encounter/380eedd9-b9f6-4abc-b283-c7cfaa1f2964"}},{"fullUrl":"https://madie.cms.gov/Procedure/d0459494-edff-41aa-91cf-ca09f0eeff2c","resource":{"resourceType":"Procedure","id":"d0459494-edff-41aa-91cf-ca09f0eeff2c","meta":{"profile":["http://hl7.org/fhir/us/qicore/StructureDefinition/qicore-procedure"]},"extension":[{"url":"http://hl7.org/fhir/us/qicore/StructureDefinition/qicore-recorded","valueDateTime":"2014-04-05T13:35:00.000+00:00"}],"status":"completed","code":{"coding":[{"system":"http://www.cms.gov/Medicare/Coding/ICD10","code":"10D00Z0"},{"system":"http://snomed.info/sct","code":"4504004"}]},"subject":{"reference":"Patient/87fc86a7-5863-474f-98e2-618189d8da9b"},"performedPeriod":{"start":"2026-06-08T20:00:00.000+00:00","end":"2026-06-08T20:15:00.000+00:00"}},"request":{"method":"PUT","url":"Procedure/d0459494-edff-41aa-91cf-ca09f0eeff2c"}},{"fullUrl":"https://madie.cms.gov/Condition/60669da1-b4ab-4d28-b523-d3ff48faef2e","resource":{"resourceType":"Condition","id":"60669da1-b4ab-4d28-b523-d3ff48faef2e","meta":{"profile":["http://hl7.org/fhir/us/qicore/StructureDefinition/qicore-condition-encounter-diagnosis"]},"category":[{"coding":[{"system":"http://terminology.hl7.org/CodeSystem/condition-category","code":"encounter-diagnosis","display":"Encounter Diagnosis"}]}],"code":{"coding":[{"system":"http://snomed.info/sct","version":"2022-09","code":"169826009","display":"Single live birth from singleton pregnancy (finding)","userSelected":true}]},"subject":{"reference":"Patient/87fc86a7-5863-474f-98e2-618189d8da9b"},"encounter":{"reference":"Encounter/380eedd9-b9f6-4abc-b283-c7cfaa1f2964"},"recordedDate":"2026-10-21T08:00:00.000+00:00"},"request":{"method":"PUT","url":"Condition/60669da1-b4ab-4d28-b523-d3ff48faef2e"}},{"fullUrl":"https://madie.cms.gov/Coverage/f4df5463-5b26-46f1-b078-826e4598ddc4","resource":{"resourceType":"Coverage","id":"f4df5463-5b26-46f1-b078-826e4598ddc4","meta":{"profile":["http://hl7.org/fhir/us/qicore/StructureDefinition/qicore-coverage"]},"status":"active","subscriberId":"523435","beneficiary":{"reference":"Patient/87fc86a7-5863-474f-98e2-618189d8da9b"},"relationship":{"coding":[{"system":"http://terminology.hl7.org/CodeSystem/subscriber-relationship","code":"self"}]},"payor":[{"reference":"Organization/6d6b3ea5-0174-4eca-af3f-213f80ec5b00"}]},"request":{"method":"PUT","url":"Coverage/f4df5463-5b26-46f1-b078-826e4598ddc4"}},{"fullUrl":"https://madie.cms.gov/Organization/6d6b3ea5-0174-4eca-af3f-213f80ec5b00","resource":{"resourceType":"Organization","id":"6d6b3ea5-0174-4eca-af3f-213f80ec5b00","meta":{"profile":["http://hl7.org/fhir/us/qicore/StructureDefinition/qicore-organization"]},"identifier":[{"use":"temp","system":"urn:oid:2.16.840.1.113883.4.4","value":"21-3259825"}],"active":true,"type":[{"coding":[{"system":"http://terminology.hl7.org/CodeSystem/organization-type","code":"pay","display":"Payer"}]}],"name":"Blue Cross Blue Shield of Texas","telecom":[{"system":"phone","value":"(+1) 972-766-6900"}],"address":[{"use":"billing","type":"postal","line":["P.O. Box 660044"],"city":"Dallas","state":"TX","postalCode":"75266-0044","country":"USA"}]},"request":{"method":"PUT","url":"Organization/6d6b3ea5-0174-4eca-af3f-213f80ec5b00"}},{"fullUrl":"https://madie.cms.gov/Practitioner/154287ba-09fd-404d-93b0-775c916839b1","resource":{"resourceType":"Practitioner","id":"154287ba-09fd-404d-93b0-775c916839b1","meta":{"profile":["http://hl7.org/fhir/us/qicore/StructureDefinition/qicore-practitioner"]},"identifier":[{"system":"http://hl7.org/fhir/sid/us-npi","value":"1234567890"}],"name":[{"family":"Evil","prefix":["Dr"]}]},"request":{"method":"PUT","url":"Practitioner/154287ba-09fd-404d-93b0-775c916839b1"}},{"fullUrl":"https://madie.cms.gov/MeasureReport/255b404a-6e84-44e2-a4eb-6d920fd5de19","resource":{"resourceType":"MeasureReport","id":"255b404a-6e84-44e2-a4eb-6d920fd5de19","meta":{"profile":["http://hl7.org/fhir/us/cqfmeasures/StructureDefinition/test-case-cqfm"]},"contained":[{"resourceType":"Parameters","id":"55a92187-b355-4ce1-869f-7d5d27bb0cfa-parameters","parameter":[{"name":"subject","valueString":"87fc86a7-5863-474f-98e2-618189d8da9b"}]}],"extension":[{"url":"http://hl7.org/fhir/StructureDefinition/cqf-inputParameters","valueReference":{"reference":"#55a92187-b355-4ce1-869f-7d5d27bb0cfa-parameters"}},{"url":"http://hl7.org/fhir/us/cqfmeasures/StructureDefinition/cqfm-testCaseDescription","valueMarkdown":"Parity Result is Null, relevant date/time same date but time less than delivery date/time\n"}],"modifierExtension":[{"url":"http://hl7.org/fhir/us/cqfmeasures/StructureDefinition/cqfm-isTestCase","valueBoolean":true}],"status":"complete","type":"individual","measure":"https://madie.cms.gov/Measure/CMS0334FHIRPCCesareanBirth","period":{"start":"2026-01-01","end":"2026-12-31"},"group":[{"id":"Group_1","population":[{"id":"InitialPopulation_1","code":{"coding":[{"system":"http://terminology.hl7.org/CodeSystem/measure-population","code":"initial-population","display":"Initial Population"}]},"count":1},{"id":"Denominator_1","code":{"coding":[{"system":"http://terminology.hl7.org/CodeSystem/measure-population","code":"denominator","display":"Denominator"}]},"count":0},{"id":"DenominatorExclusion_1","code":{"coding":[{"system":"http://terminology.hl7.org/CodeSystem/measure-population","code":"denominator-exclusion","display":"Denominator Exclusion"}]},"count":0},{"id":"Numerator_1","code":{"coding":[{"system":"http://terminology.hl7.org/CodeSystem/measure-population","code":"numerator","display":"Numerator"}]},"count":0}],"measureScore":{"value":0.0}}],"evaluatedResource":[{"reference":"Patient/87fc86a7-5863-474f-98e2-618189d8da9b"},{"reference":"Observation/61aa4122-5f9f-431d-9675-0bbf25c447d0"},{"reference":"Observation/17e2cb6c-ee05-4876-9fde-6f8fb9ef6a80"},{"reference":"Observation/5958fa6a-f624-4e53-b50b-64a2d74de164"},{"reference":"Encounter/380eedd9-b9f6-4abc-b283-c7cfaa1f2964"},{"reference":"Procedure/d0459494-edff-41aa-91cf-ca09f0eeff2c"},{"reference":"Condition/60669da1-b4ab-4d28-b523-d3ff48faef2e"},{"reference":"Coverage/f4df5463-5b26-46f1-b078-826e4598ddc4"},{"reference":"Organization/6d6b3ea5-0174-4eca-af3f-213f80ec5b00"},{"reference":"Practitioner/154287ba-09fd-404d-93b0-775c916839b1"}]},"request":{"method":"PUT","url":"MeasureReport/255b404a-6e84-44e2-a4eb-6d920fd5de19"}}]},"request":{"method":"PUT","url":"Bundle/63487c300968f801225401cd"}},{"fullUrl":"Procedure/d0459494-edff-41aa-91cf-ca09f0eeff2c","resource":{"resourceType":"Procedure","id":"d0459494-edff-41aa-91cf-ca09f0eeff2c","meta":{"profile":["http://hl7.org/fhir/us/qicore/StructureDefinition/qicore-procedure"]},"extension":[{"url":"http://hl7.org/fhir/us/qicore/StructureDefinition/qicore-recorded","valueDateTime":"2014-04-05T13:35:00.000+00:00"}],"status":"completed","code":{"coding":[{"system":"http://www.cms.gov/Medicare/Coding/ICD10","code":"10D00Z0"},{"system":"http://snomed.info/sct","code":"4504004"}]},"subject":{"reference":"Patient/87fc86a7-5863-474f-98e2-618189d8da9b"},"performedPeriod":{"start":"2026-06-08T20:00:00.000+00:00","end":"2026-06-08T20:15:00.000+00:00"}},"request":{"method":"PUT","url":"Procedure/d0459494-edff-41aa-91cf-ca09f0eeff2c"}},{"fullUrl":"Observation/61aa4122-5f9f-431d-9675-0bbf25c447d0","resource":{"resourceType":"Observation","id":"61aa4122-5f9f-431d-9675-0bbf25c447d0","meta":{"profile":["http://hl7.org/fhir/us/qicore/StructureDefinition/qicore-simple-observation"]},"status":"final","category":[{"coding":[{"system":"http://terminology.hl7.org/CodeSystem/observation-category","code":"exam","display":"exam","userSelected":true}]}],"code":{"coding":[{"system":"http://loinc.org","code":"11977-6"}]},"subject":{"reference":"Patient/87fc86a7-5863-474f-98e2-618189d8da9b"},"effectiveDateTime":"2026-06-08T19:59:00.000+00:00"},"request":{"method":"PUT","url":"Observation/61aa4122-5f9f-431d-9675-0bbf25c447d0"}},{"fullUrl":"MeasureReport/255b404a-6e84-44e2-a4eb-6d920fd5de19","resource":{"resourceType":"MeasureReport","id":"255b404a-6e84-44e2-a4eb-6d920fd5de19","meta":{"profile":["http://hl7.org/fhir/us/cqfmeasures/StructureDefinition/test-case-cqfm"]},"contained":[{"resourceType":"Parameters","id":"55a92187-b355-4ce1-869f-7d5d27bb0cfa-parameters","parameter":[{"name":"subject","valueString":"87fc86a7-5863-474f-98e2-618189d8da9b"}]}],"extension":[{"url":"http://hl7.org/fhir/StructureDefinition/cqf-inputParameters","valueReference":{"reference":"#55a92187-b355-4ce1-869f-7d5d27bb0cfa-parameters"}},{"url":"http://hl7.org/fhir/us/cqfmeasures/StructureDefinition/cqfm-testCaseDescription","valueMarkdown":"Parity Result is Null, relevant date/time same date but time less than delivery date/time\n"}],"modifierExtension":[{"url":"http://hl7.org/fhir/us/cqfmeasures/StructureDefinition/cqfm-isTestCase","valueBoolean":true}],"status":"complete","type":"individual","measure":"https://madie.cms.gov/Measure/CMS0334FHIRPCCesareanBirth","period":{"start":"2026-01-01","end":"2026-12-31"},"group":[{"id":"Group_1","population":[{"id":"InitialPopulation_1","code":{"coding":[{"system":"http://terminology.hl7.org/CodeSystem/measure-population","code":"initial-population","display":"Initial Population"}]},"count":1},{"id":"Denominator_1","code":{"coding":[{"system":"http://terminology.hl7.org/CodeSystem/measure-population","code":"denominator","display":"Denominator"}]},"count":0},{"id":"DenominatorExclusion_1","code":{"coding":[{"system":"http://terminology.hl7.org/CodeSystem/measure-population","code":"denominator-exclusion","display":"Denominator Exclusion"}]},"count":0},{"id":"Numerator_1","code":{"coding":[{"system":"http://terminology.hl7.org/CodeSystem/measure-population","code":"numerator","display":"Numerator"}]},"count":0}],"measureScore":{"value":0.0}}],"evaluatedResource":[{"reference":"Patient/87fc86a7-5863-474f-98e2-618189d8da9b"},{"reference":"Observation/61aa4122-5f9f-431d-9675-0bbf25c447d0"},{"reference":"Observation/17e2cb6c-ee05-4876-9fde-6f8fb9ef6a80"},{"reference":"Observation/5958fa6a-f624-4e53-b50b-64a2d74de164"},{"reference":"Encounter/380eedd9-b9f6-4abc-b283-c7cfaa1f2964"},{"reference":"Procedure/d0459494-edff-41aa-91cf-ca09f0eeff2c"},{"reference":"Condition/60669da1-b4ab-4d28-b523-d3ff48faef2e"},{"reference":"Coverage/f4df5463-5b26-46f1-b078-826e4598ddc4"},{"reference":"Organization/6d6b3ea5-0174-4eca-af3f-213f80ec5b00"},{"reference":"Practitioner/154287ba-09fd-404d-93b0-775c916839b1"}]},"request":{"method":"PUT","url":"MeasureReport/255b404a-6e84-44e2-a4eb-6d920fd5de19"}},{"fullUrl":"Observation/5958fa6a-f624-4e53-b50b-64a2d74de164","resource":{"resourceType":"Observation","id":"5958fa6a-f624-4e53-b50b-64a2d74de164","meta":{"profile":["http://hl7.org/fhir/us/qicore/StructureDefinition/qicore-simple-observation"]},"status":"final","category":[{"coding":[{"system":"http://terminology.hl7.org/CodeSystem/observation-category","code":"exam","display":"exam","userSelected":true}]}],"code":{"coding":[{"system":"http://loinc.org","code":"93857-1"}]},"subject":{"reference":"Patient/87fc86a7-5863-474f-98e2-618189d8da9b"},"effectiveDateTime":"2026-06-08T20:00:00.000+00:00","valueDateTime":"2026-06-08T20:00:00.000+00:00"},"request":{"method":"PUT","url":"Observation/5958fa6a-f624-4e53-b50b-64a2d74de164"}},{"fullUrl":"Practitioner/154287ba-09fd-404d-93b0-775c916839b1","resource":{"resourceType":"Practitioner","id":"154287ba-09fd-404d-93b0-775c916839b1","meta":{"profile":["http://hl7.org/fhir/us/qicore/StructureDefinition/qicore-practitioner"]},"identifier":[{"system":"http://hl7.org/fhir/sid/us-npi","value":"1234567890"}],"name":[{"family":"Evil","prefix":["Dr"]}]},"request":{"method":"PUT","url":"Practitioner/154287ba-09fd-404d-93b0-775c916839b1"}},{"fullUrl":"Coverage/f4df5463-5b26-46f1-b078-826e4598ddc4","resource":{"resourceType":"Coverage","id":"f4df5463-5b26-46f1-b078-826e4598ddc4","meta":{"profile":["http://hl7.org/fhir/us/qicore/StructureDefinition/qicore-coverage"]},"status":"active","subscriberId":"523435","beneficiary":{"reference":"Patient/87fc86a7-5863-474f-98e2-618189d8da9b"},"relationship":{"coding":[{"system":"http://terminology.hl7.org/CodeSystem/subscriber-relationship","code":"self"}]},"payor":[{"reference":"Organization/6d6b3ea5-0174-4eca-af3f-213f80ec5b00"}]},"request":{"method":"PUT","url":"Coverage/f4df5463-5b26-46f1-b078-826e4598ddc4"}},{"fullUrl":"Encounter/380eedd9-b9f6-4abc-b283-c7cfaa1f2964","resource":{"resourceType":"Encounter","id":"380eedd9-b9f6-4abc-b283-c7cfaa1f2964","meta":{"profile":["http://hl7.org/fhir/us/qicore/StructureDefinition/qicore-encounter"]},"status":"finished","class":{"system":"http://terminology.hl7.org/CodeSystem/v3-ActCode","code":"IMP","display":"inpatient encounter"},"type":[{"coding":[{"system":"http://snomed.info/sct","code":"8715000"}]}],"subject":{"reference":"Patient/87fc86a7-5863-474f-98e2-618189d8da9b"},"period":{"start":"2026-06-08T08:00:00.000+00:00","end":"2026-06-10T08:15:00.000+00:00"},"length":{"value":2,"unit":"days"},"reasonReference":[{"reference":"Condition/60669da1-b4ab-4d28-b523-d3ff48faef2e"}]},"request":{"method":"PUT","url":"Encounter/380eedd9-b9f6-4abc-b283-c7cfaa1f2964"}},{"fullUrl":"Patient/87fc86a7-5863-474f-98e2-618189d8da9b","resource":{"resourceType":"Patient","id":"87fc86a7-5863-474f-98e2-618189d8da9b","meta":{"profile":["http://hl7.org/fhir/us/qicore/StructureDefinition/qicore-patient"]},"text":{"status":"generated","div":"<div xmlns=\"http://www.w3.org/1999/xhtml\"><div class=\"hapiHeaderText\">AssessPResultIsNull <b>DENOMFail</b></div><table class=\"hapiPropertyTable\"><tbody><tr><td>Identifier</td><td>cb4a87fae0aeb4667064306e289209af09ca2376f26fb181f5d5ea03cba5dc53</td></tr><tr><td>Date of birth</td><td><span>14 February 1985</span></td></tr></tbody></table></div>"},"extension":[{"url":"http://hl7.org/fhir/us/core/StructureDefinition/us-core-race","extension":[{"url":"ombCategory","valueCoding":{"system":"urn:oid:2.16.840.1.113883.6.238","code":"1002-5","display":"American Indian or Alaska Native","userSelected":true}},{"url":"text","valueString":"American Indian or Alaska Native"}]},{"url":"http://hl7.org/fhir/us/core/StructureDefinition/us-core-ethnicity","extension":[{"url":"ombCategory","valueCoding":{"system":"urn:oid:2.16.840.1.113883.6.238","code":"2135-2","display":"Hispanic or Latino","userSelected":true}},{"url":"text","valueString":"Hispanic or Latino"}]}],"identifier":[{"type":{"coding":[{"system":"http://terminology.hl7.org/CodeSystem/v2-0203","code":"MR"}]},"system":"https://bonnie-fhir.healthit.gov/","value":"63487c300968f801225401cd"}],"active":true,"name":[{"use":"usual","family":"DENOMFail","given":["AssessPResultIsNull"]}],"gender":"female","birthDate":"1998-02-14"},"request":{"method":"PUT","url":"Patient/87fc86a7-5863-474f-98e2-618189d8da9b"}},{"fullUrl":"Organization/6d6b3ea5-0174-4eca-af3f-213f80ec5b00","resource":{"resourceType":"Organization","id":"6d6b3ea5-0174-4eca-af3f-213f80ec5b00","meta":{"profile":["http://hl7.org/fhir/us/qicore/StructureDefinition/qicore-organization"]},"identifier":[{"use":"temp","system":"urn:oid:2.16.840.1.113883.4.4","value":"21-3259825"}],"active":true,"type":[{"coding":[{"system":"http://terminology.hl7.org/CodeSystem/organization-type","code":"pay","display":"Payer"}]}],"name":"Blue Cross Blue Shield of Texas","telecom":[{"system":"phone","value":"(+1) 972-766-6900"}],"address":[{"use":"billing","type":"postal","line":["P.O. Box 660044"],"city":"Dallas","state":"TX","postalCode":"75266-0044","country":"USA"}]},"request":{"method":"PUT","url":"Organization/6d6b3ea5-0174-4eca-af3f-213f80ec5b00"}},{"fullUrl":"Observation/17e2cb6c-ee05-4876-9fde-6f8fb9ef6a80","resource":{"resourceType":"Observation","id":"17e2cb6c-ee05-4876-9fde-6f8fb9ef6a80","meta":{"profile":["http://hl7.org/fhir/us/qicore/StructureDefinition/qicore-simple-observation"]},"status":"final","category":[{"coding":[{"system":"http://terminology.hl7.org/CodeSystem/observation-category","code":"exam","display":"exam","userSelected":true}]}],"code":{"coding":[{"system":"http://loinc.org","code":"11884-4"}]},"subject":{"reference":"Patient/87fc86a7-5863-474f-98e2-618189d8da9b"},"effectiveDateTime":"2026-06-08T20:00:00.000+00:00","valueQuantity":{"value":37,"system":"http://unitsofmeasure.org","code":"wk"}},"request":{"method":"PUT","url":"Observation/17e2cb6c-ee05-4876-9fde-6f8fb9ef6a80"}}]}