{"resourceType":"Bundle","id":"tests-848869fc-b6bc-41cb-b441-cfba930e2cc4-bundle","type":"transaction","entry":[{"fullUrl":"Organization/fefbcdd7-d09a-4ee3-8f02-20722d8a92e9","resource":{"resourceType":"Organization","id":"fefbcdd7-d09a-4ee3-8f02-20722d8a92e9","meta":{"profile":["http://hl7.org/fhir/us/qicore/StructureDefinition/qicore-organization"]},"identifier":[{"use":"temp","system":"urn:oid:2.16.840.1.113883.4.4","value":"21-3259825"}],"active":true,"type":[{"coding":[{"system":"http://terminology.hl7.org/CodeSystem/organization-type","code":"pay","display":"Payer"}]}],"name":"Blue Cross Blue Shield of Texas","telecom":[{"system":"phone","value":"(+1) 972-766-6900"}],"address":[{"use":"billing","type":"postal","line":["P.O. Box 660044"],"city":"Dallas","state":"TX","postalCode":"75266-0044","country":"USA"}]},"request":{"method":"PUT","url":"Organization/fefbcdd7-d09a-4ee3-8f02-20722d8a92e9"}},{"fullUrl":"Condition/4822e4d9-2a00-4c7a-97dd-e73fc4c00052","resource":{"resourceType":"Condition","id":"4822e4d9-2a00-4c7a-97dd-e73fc4c00052","meta":{"profile":["http://hl7.org/fhir/us/qicore/StructureDefinition/qicore-condition-encounter-diagnosis"]},"category":[{"coding":[{"system":"http://terminology.hl7.org/CodeSystem/condition-category","code":"encounter-diagnosis","display":"Encounter Diagnosis"}]}],"code":{"coding":[{"system":"http://snomed.info/sct","version":"2022-09","code":"169826009","display":"Single live birth (finding)","userSelected":true}]},"subject":{"reference":"Patient/848869fc-b6bc-41cb-b441-cfba930e2cc4"},"recordedDate":"2026-10-18T08:00:00.000+00:00"},"request":{"method":"PUT","url":"Condition/4822e4d9-2a00-4c7a-97dd-e73fc4c00052"}},{"fullUrl":"Encounter/63a1eec5-e3c3-4551-84bc-8d9d14fb778e","resource":{"resourceType":"Encounter","id":"63a1eec5-e3c3-4551-84bc-8d9d14fb778e","meta":{"profile":["http://hl7.org/fhir/us/qicore/StructureDefinition/qicore-encounter"]},"status":"finished","class":{"system":"http://terminology.hl7.org/CodeSystem/v3-ActCode","code":"IMP","display":"inpatient encounter"},"type":[{"coding":[{"system":"http://snomed.info/sct","code":"183452005"}]}],"subject":{"reference":"Patient/848869fc-b6bc-41cb-b441-cfba930e2cc4"},"period":{"start":"2026-06-08T08:00:00.000+00:00","end":"2026-06-10T08:15:00.000+00:00"},"length":{"value":2,"unit":"days"},"reasonCode":[{"coding":[{"system":"http://snomed.info/sct","code":"169826009","display":"Single live birth from singleton pregnancy (finding)"}]}]},"request":{"method":"PUT","url":"Encounter/63a1eec5-e3c3-4551-84bc-8d9d14fb778e"}},{"fullUrl":"Observation/55f6cc6d-d255-4b2c-b46e-6fd3dcffaa90","resource":{"resourceType":"Observation","id":"55f6cc6d-d255-4b2c-b46e-6fd3dcffaa90","meta":{"profile":["http://hl7.org/fhir/us/qicore/StructureDefinition/qicore-simple-observation"]},"status":"final","category":[{"coding":[{"system":"http://terminology.hl7.org/CodeSystem/observation-category","code":"exam","display":"exam","userSelected":true}]}],"code":{"coding":[{"system":"http://loinc.org","code":"11996-6"}]},"subject":{"reference":"Patient/848869fc-b6bc-41cb-b441-cfba930e2cc4"},"effectiveDateTime":"2026-06-08T19:59:00.000+00:00","performer":[{"reference":"Organization/example1","display":"Hendricks Country Hospital"}],"valueInteger":1},"request":{"method":"PUT","url":"Observation/55f6cc6d-d255-4b2c-b46e-6fd3dcffaa90"}},{"fullUrl":"Practitioner/be473b6c-93c3-4dcb-97b4-8f44dbc336d2","resource":{"resourceType":"Practitioner","id":"be473b6c-93c3-4dcb-97b4-8f44dbc336d2","meta":{"profile":["http://hl7.org/fhir/us/qicore/StructureDefinition/qicore-practitioner"]},"identifier":[{"system":"http://hl7.org/fhir/sid/us-npi","value":"1234567890"}],"name":[{"family":"Evil","prefix":["Dr"]}]},"request":{"method":"PUT","url":"Practitioner/be473b6c-93c3-4dcb-97b4-8f44dbc336d2"}},{"fullUrl":"Observation/438df307-bf66-4941-bb50-de42120bbd96","resource":{"resourceType":"Observation","id":"438df307-bf66-4941-bb50-de42120bbd96","meta":{"profile":["http://hl7.org/fhir/us/qicore/StructureDefinition/qicore-simple-observation"]},"status":"final","category":[{"coding":[{"system":"http://terminology.hl7.org/CodeSystem/observation-category","code":"exam","display":"exam","userSelected":true}]}],"code":{"coding":[{"system":"http://loinc.org","code":"11884-4"}]},"subject":{"reference":"Patient/848869fc-b6bc-41cb-b441-cfba930e2cc4"},"effectiveDateTime":"2026-06-08T09:15:00.000+00:00","performer":[{"reference":"Organization/example1","display":"Hendricks Country Hospital"}],"valueQuantity":{"value":38,"system":"http://unitsofmeasure.org","code":"wk"}},"request":{"method":"PUT","url":"Observation/438df307-bf66-4941-bb50-de42120bbd96"}},{"fullUrl":"Observation/b47df53b-12f3-4b10-b2af-185b6d16fa8b","resource":{"resourceType":"Observation","id":"b47df53b-12f3-4b10-b2af-185b6d16fa8b","meta":{"profile":["http://hl7.org/fhir/us/qicore/StructureDefinition/qicore-simple-observation"]},"status":"final","category":[{"coding":[{"system":"http://terminology.hl7.org/CodeSystem/observation-category","code":"exam","display":"exam","userSelected":true}]}],"code":{"coding":[{"system":"http://loinc.org","code":"93857-1"}]},"subject":{"reference":"Patient/848869fc-b6bc-41cb-b441-cfba930e2cc4"},"effectiveDateTime":"2026-06-08T20:00:00.000+00:00","performer":[{"reference":"Organization/example1","display":"Hendricks Country Hospital"}],"valueDateTime":"2026-06-08T20:00:00.000+00:00"},"request":{"method":"PUT","url":"Observation/b47df53b-12f3-4b10-b2af-185b6d16fa8b"}},{"fullUrl":"Coverage/34ebbc94-0529-4dd9-bbe8-3674c41f9186","resource":{"resourceType":"Coverage","id":"34ebbc94-0529-4dd9-bbe8-3674c41f9186","meta":{"profile":["http://hl7.org/fhir/us/qicore/StructureDefinition/qicore-coverage"]},"status":"active","subscriberId":"523435","beneficiary":{"reference":"Patient/848869fc-b6bc-41cb-b441-cfba930e2cc4"},"relationship":{"coding":[{"system":"http://terminology.hl7.org/CodeSystem/subscriber-relationship","code":"self"}]},"payor":[{"reference":"Organization/fefbcdd7-d09a-4ee3-8f02-20722d8a92e9"}]},"request":{"method":"PUT","url":"Coverage/34ebbc94-0529-4dd9-bbe8-3674c41f9186"}},{"fullUrl":"Patient/848869fc-b6bc-41cb-b441-cfba930e2cc4","resource":{"resourceType":"Patient","id":"848869fc-b6bc-41cb-b441-cfba930e2cc4","meta":{"profile":["http://hl7.org/fhir/us/qicore/StructureDefinition/qicore-patient"]},"text":{"status":"generated","div":"<div xmlns=\"http://www.w3.org/1999/xhtml\"><div class=\"hapiHeaderText\">AssessG1RelDtTimeLTTimeOfDelivRelDtTime<b>DENPASS</b></div><table class=\"hapiPropertyTable\"><tbody><tr><td>Identifier</td><td>919742ce7259ec7b9de1654b5e814cf859dc5253e7d4839ac3b7c6fbe1734140</td></tr><tr><td>Date of birth</td><td><span>14 February 1985</span></td></tr></tbody></table></div>"},"extension":[{"url":"http://hl7.org/fhir/us/core/StructureDefinition/us-core-race","extension":[{"url":"ombCategory","valueCoding":{"system":"urn:oid:2.16.840.1.113883.6.238","code":"1002-5","display":"American Indian or Alaska Native","userSelected":true}},{"url":"text","valueString":"American Indian or Alaska Native"}]},{"url":"http://hl7.org/fhir/us/core/StructureDefinition/us-core-ethnicity","extension":[{"url":"ombCategory","valueCoding":{"system":"urn:oid:2.16.840.1.113883.6.238","code":"2135-2","display":"Hispanic or Latino","userSelected":true}},{"url":"text","valueString":"Hispanic or Latino"}]}],"identifier":[{"type":{"coding":[{"system":"http://terminology.hl7.org/CodeSystem/v2-0203","code":"MR"}]},"system":"https://bonnie-fhir.healthit.gov/","value":"63487c2e0968f80122540179"}],"active":true,"name":[{"use":"usual","family":"DENPass","given":["AssessG1RelDtTimeLTTimeOfDelivRelDtTime"]}],"gender":"female","birthDate":"1998-02-14"},"request":{"method":"PUT","url":"Patient/848869fc-b6bc-41cb-b441-cfba930e2cc4"}},{"fullUrl":"Procedure/e1d65e0f-437c-4857-90d8-af76b91bd4a3","resource":{"resourceType":"Procedure","id":"e1d65e0f-437c-4857-90d8-af76b91bd4a3","meta":{"profile":["http://hl7.org/fhir/us/qicore/StructureDefinition/qicore-procedure"]},"extension":[{"url":"http://hl7.org/fhir/us/qicore/StructureDefinition/qicore-recorded","valueDateTime":"2014-04-05T13:35:00.000+00:00"}],"status":"completed","code":{"coding":[{"system":"http://www.cms.gov/Medicare/Coding/ICD10","code":"10D07Z3"}]},"subject":{"reference":"Patient/848869fc-b6bc-41cb-b441-cfba930e2cc4"},"performedPeriod":{"start":"2026-06-08T08:10:00.000+00:00","end":"2026-06-08T09:14:00.000+00:00"}},"request":{"method":"PUT","url":"Procedure/e1d65e0f-437c-4857-90d8-af76b91bd4a3"}},{"fullUrl":"Bundle/63487c2e0968f80122540179","resource":{"resourceType":"Bundle","id":"63487c2e0968f80122540179","type":"transaction","entry":[{"fullUrl":"https://madie.cms.gov/Patient/848869fc-b6bc-41cb-b441-cfba930e2cc4","resource":{"resourceType":"Patient","id":"848869fc-b6bc-41cb-b441-cfba930e2cc4","meta":{"profile":["http://hl7.org/fhir/us/qicore/StructureDefinition/qicore-patient"]},"text":{"status":"generated","div":"<div xmlns=\"http://www.w3.org/1999/xhtml\"><div class=\"hapiHeaderText\">AssessG1RelDtTimeLTTimeOfDelivRelDtTime<b>DENPASS</b></div><table class=\"hapiPropertyTable\"><tbody><tr><td>Identifier</td><td>919742ce7259ec7b9de1654b5e814cf859dc5253e7d4839ac3b7c6fbe1734140</td></tr><tr><td>Date of birth</td><td><span>14 February 1985</span></td></tr></tbody></table></div>"},"extension":[{"url":"http://hl7.org/fhir/us/core/StructureDefinition/us-core-race","extension":[{"url":"ombCategory","valueCoding":{"system":"urn:oid:2.16.840.1.113883.6.238","code":"1002-5","display":"American Indian or Alaska Native","userSelected":true}},{"url":"text","valueString":"American Indian or Alaska Native"}]},{"url":"http://hl7.org/fhir/us/core/StructureDefinition/us-core-ethnicity","extension":[{"url":"ombCategory","valueCoding":{"system":"urn:oid:2.16.840.1.113883.6.238","code":"2135-2","display":"Hispanic or Latino","userSelected":true}},{"url":"text","valueString":"Hispanic or Latino"}]}],"identifier":[{"type":{"coding":[{"system":"http://terminology.hl7.org/CodeSystem/v2-0203","code":"MR"}]},"system":"https://bonnie-fhir.healthit.gov/","value":"63487c2e0968f80122540179"}],"active":true,"name":[{"use":"usual","family":"DENPass","given":["AssessG1RelDtTimeLTTimeOfDelivRelDtTime"]}],"gender":"female","birthDate":"1998-02-14"},"request":{"method":"PUT","url":"Patient/848869fc-b6bc-41cb-b441-cfba930e2cc4"}},{"fullUrl":"https://madie.cms.gov/Observation/438df307-bf66-4941-bb50-de42120bbd96","resource":{"resourceType":"Observation","id":"438df307-bf66-4941-bb50-de42120bbd96","meta":{"profile":["http://hl7.org/fhir/us/qicore/StructureDefinition/qicore-simple-observation"]},"status":"final","category":[{"coding":[{"system":"http://terminology.hl7.org/CodeSystem/observation-category","code":"exam","display":"exam","userSelected":true}]}],"code":{"coding":[{"system":"http://loinc.org","code":"11884-4"}]},"subject":{"reference":"Patient/848869fc-b6bc-41cb-b441-cfba930e2cc4"},"effectiveDateTime":"2026-06-08T09:15:00.000+00:00","performer":[{"reference":"Organization/example1","display":"Hendricks Country Hospital"}],"valueQuantity":{"value":38,"system":"http://unitsofmeasure.org","code":"wk"}},"request":{"method":"PUT","url":"Observation/438df307-bf66-4941-bb50-de42120bbd96"}},{"fullUrl":"https://madie.cms.gov/Observation/55f6cc6d-d255-4b2c-b46e-6fd3dcffaa90","resource":{"resourceType":"Observation","id":"55f6cc6d-d255-4b2c-b46e-6fd3dcffaa90","meta":{"profile":["http://hl7.org/fhir/us/qicore/StructureDefinition/qicore-simple-observation"]},"status":"final","category":[{"coding":[{"system":"http://terminology.hl7.org/CodeSystem/observation-category","code":"exam","display":"exam","userSelected":true}]}],"code":{"coding":[{"system":"http://loinc.org","code":"11996-6"}]},"subject":{"reference":"Patient/848869fc-b6bc-41cb-b441-cfba930e2cc4"},"effectiveDateTime":"2026-06-08T19:59:00.000+00:00","performer":[{"reference":"Organization/example1","display":"Hendricks Country Hospital"}],"valueInteger":1},"request":{"method":"PUT","url":"Observation/55f6cc6d-d255-4b2c-b46e-6fd3dcffaa90"}},{"fullUrl":"https://madie.cms.gov/Observation/b47df53b-12f3-4b10-b2af-185b6d16fa8b","resource":{"resourceType":"Observation","id":"b47df53b-12f3-4b10-b2af-185b6d16fa8b","meta":{"profile":["http://hl7.org/fhir/us/qicore/StructureDefinition/qicore-simple-observation"]},"status":"final","category":[{"coding":[{"system":"http://terminology.hl7.org/CodeSystem/observation-category","code":"exam","display":"exam","userSelected":true}]}],"code":{"coding":[{"system":"http://loinc.org","code":"93857-1"}]},"subject":{"reference":"Patient/848869fc-b6bc-41cb-b441-cfba930e2cc4"},"effectiveDateTime":"2026-06-08T20:00:00.000+00:00","performer":[{"reference":"Organization/example1","display":"Hendricks Country Hospital"}],"valueDateTime":"2026-06-08T20:00:00.000+00:00"},"request":{"method":"PUT","url":"Observation/b47df53b-12f3-4b10-b2af-185b6d16fa8b"}},{"fullUrl":"https://madie.cms.gov/Encounter/63a1eec5-e3c3-4551-84bc-8d9d14fb778e","resource":{"resourceType":"Encounter","id":"63a1eec5-e3c3-4551-84bc-8d9d14fb778e","meta":{"profile":["http://hl7.org/fhir/us/qicore/StructureDefinition/qicore-encounter"]},"status":"finished","class":{"system":"http://terminology.hl7.org/CodeSystem/v3-ActCode","code":"IMP","display":"inpatient encounter"},"type":[{"coding":[{"system":"http://snomed.info/sct","code":"183452005"}]}],"subject":{"reference":"Patient/848869fc-b6bc-41cb-b441-cfba930e2cc4"},"period":{"start":"2026-06-08T08:00:00.000+00:00","end":"2026-06-10T08:15:00.000+00:00"},"length":{"value":2,"unit":"days"},"reasonCode":[{"coding":[{"system":"http://snomed.info/sct","code":"169826009","display":"Single live birth from singleton pregnancy (finding)"}]}]},"request":{"method":"PUT","url":"Encounter/63a1eec5-e3c3-4551-84bc-8d9d14fb778e"}},{"fullUrl":"https://madie.cms.gov/Procedure/e1d65e0f-437c-4857-90d8-af76b91bd4a3","resource":{"resourceType":"Procedure","id":"e1d65e0f-437c-4857-90d8-af76b91bd4a3","meta":{"profile":["http://hl7.org/fhir/us/qicore/StructureDefinition/qicore-procedure"]},"extension":[{"url":"http://hl7.org/fhir/us/qicore/StructureDefinition/qicore-recorded","valueDateTime":"2014-04-05T13:35:00.000+00:00"}],"status":"completed","code":{"coding":[{"system":"http://www.cms.gov/Medicare/Coding/ICD10","code":"10D07Z3"}]},"subject":{"reference":"Patient/848869fc-b6bc-41cb-b441-cfba930e2cc4"},"performedPeriod":{"start":"2026-06-08T08:10:00.000+00:00","end":"2026-06-08T09:14:00.000+00:00"}},"request":{"method":"PUT","url":"Procedure/e1d65e0f-437c-4857-90d8-af76b91bd4a3"}},{"fullUrl":"https://madie.cms.gov/Condition/4822e4d9-2a00-4c7a-97dd-e73fc4c00052","resource":{"resourceType":"Condition","id":"4822e4d9-2a00-4c7a-97dd-e73fc4c00052","meta":{"profile":["http://hl7.org/fhir/us/qicore/StructureDefinition/qicore-condition-encounter-diagnosis"]},"category":[{"coding":[{"system":"http://terminology.hl7.org/CodeSystem/condition-category","code":"encounter-diagnosis","display":"Encounter Diagnosis"}]}],"code":{"coding":[{"system":"http://snomed.info/sct","version":"2022-09","code":"169826009","display":"Single live birth (finding)","userSelected":true}]},"subject":{"reference":"Patient/848869fc-b6bc-41cb-b441-cfba930e2cc4"},"recordedDate":"2026-10-18T08:00:00.000+00:00"},"request":{"method":"PUT","url":"Condition/4822e4d9-2a00-4c7a-97dd-e73fc4c00052"}},{"fullUrl":"https://madie.cms.gov/Coverage/34ebbc94-0529-4dd9-bbe8-3674c41f9186","resource":{"resourceType":"Coverage","id":"34ebbc94-0529-4dd9-bbe8-3674c41f9186","meta":{"profile":["http://hl7.org/fhir/us/qicore/StructureDefinition/qicore-coverage"]},"status":"active","subscriberId":"523435","beneficiary":{"reference":"Patient/848869fc-b6bc-41cb-b441-cfba930e2cc4"},"relationship":{"coding":[{"system":"http://terminology.hl7.org/CodeSystem/subscriber-relationship","code":"self"}]},"payor":[{"reference":"Organization/fefbcdd7-d09a-4ee3-8f02-20722d8a92e9"}]},"request":{"method":"PUT","url":"Coverage/34ebbc94-0529-4dd9-bbe8-3674c41f9186"}},{"fullUrl":"https://madie.cms.gov/Organization/fefbcdd7-d09a-4ee3-8f02-20722d8a92e9","resource":{"resourceType":"Organization","id":"fefbcdd7-d09a-4ee3-8f02-20722d8a92e9","meta":{"profile":["http://hl7.org/fhir/us/qicore/StructureDefinition/qicore-organization"]},"identifier":[{"use":"temp","system":"urn:oid:2.16.840.1.113883.4.4","value":"21-3259825"}],"active":true,"type":[{"coding":[{"system":"http://terminology.hl7.org/CodeSystem/organization-type","code":"pay","display":"Payer"}]}],"name":"Blue Cross Blue Shield of Texas","telecom":[{"system":"phone","value":"(+1) 972-766-6900"}],"address":[{"use":"billing","type":"postal","line":["P.O. Box 660044"],"city":"Dallas","state":"TX","postalCode":"75266-0044","country":"USA"}]},"request":{"method":"PUT","url":"Organization/fefbcdd7-d09a-4ee3-8f02-20722d8a92e9"}},{"fullUrl":"https://madie.cms.gov/Practitioner/be473b6c-93c3-4dcb-97b4-8f44dbc336d2","resource":{"resourceType":"Practitioner","id":"be473b6c-93c3-4dcb-97b4-8f44dbc336d2","meta":{"profile":["http://hl7.org/fhir/us/qicore/StructureDefinition/qicore-practitioner"]},"identifier":[{"system":"http://hl7.org/fhir/sid/us-npi","value":"1234567890"}],"name":[{"family":"Evil","prefix":["Dr"]}]},"request":{"method":"PUT","url":"Practitioner/be473b6c-93c3-4dcb-97b4-8f44dbc336d2"}},{"fullUrl":"https://madie.cms.gov/MeasureReport/aab22d4c-6024-4ff7-bcb4-1780d29b93ca","resource":{"resourceType":"MeasureReport","id":"aab22d4c-6024-4ff7-bcb4-1780d29b93ca","meta":{"profile":["http://hl7.org/fhir/us/cqfmeasures/StructureDefinition/test-case-cqfm"]},"contained":[{"resourceType":"Parameters","id":"1432af80-f287-4420-8931-fa43c2807e1d-parameters","parameter":[{"name":"subject","valueString":"848869fc-b6bc-41cb-b441-cfba930e2cc4"}]}],"extension":[{"url":"http://hl7.org/fhir/StructureDefinition/cqf-inputParameters","valueReference":{"reference":"#1432af80-f287-4420-8931-fa43c2807e1d-parameters"}},{"url":"http://hl7.org/fhir/us/cqfmeasures/StructureDefinition/cqfm-testCaseDescription","valueMarkdown":"Passes: IP, Pt is 27 years of age,  encounter dx delivery of singleton, gravida=1 rel dt/time before time of delivery time, EGA @ 38 weeks\n"}],"modifierExtension":[{"url":"http://hl7.org/fhir/us/cqfmeasures/StructureDefinition/cqfm-isTestCase","valueBoolean":true}],"status":"complete","type":"individual","measure":"https://madie.cms.gov/Measure/CMS0334FHIRPCCesareanBirth","period":{"start":"2026-01-01","end":"2026-12-31"},"group":[{"id":"Group_1","population":[{"id":"InitialPopulation_1","code":{"coding":[{"system":"http://terminology.hl7.org/CodeSystem/measure-population","code":"initial-population","display":"Initial Population"}]},"count":1},{"id":"Denominator_1","code":{"coding":[{"system":"http://terminology.hl7.org/CodeSystem/measure-population","code":"denominator","display":"Denominator"}]},"count":1},{"id":"DenominatorExclusion_1","code":{"coding":[{"system":"http://terminology.hl7.org/CodeSystem/measure-population","code":"denominator-exclusion","display":"Denominator Exclusion"}]},"count":0},{"id":"Numerator_1","code":{"coding":[{"system":"http://terminology.hl7.org/CodeSystem/measure-population","code":"numerator","display":"Numerator"}]},"count":0}],"measureScore":{"value":0.0}}],"evaluatedResource":[{"reference":"Patient/848869fc-b6bc-41cb-b441-cfba930e2cc4"},{"reference":"Observation/438df307-bf66-4941-bb50-de42120bbd96"},{"reference":"Observation/55f6cc6d-d255-4b2c-b46e-6fd3dcffaa90"},{"reference":"Observation/b47df53b-12f3-4b10-b2af-185b6d16fa8b"},{"reference":"Encounter/63a1eec5-e3c3-4551-84bc-8d9d14fb778e"},{"reference":"Procedure/e1d65e0f-437c-4857-90d8-af76b91bd4a3"},{"reference":"Condition/4822e4d9-2a00-4c7a-97dd-e73fc4c00052"},{"reference":"Coverage/34ebbc94-0529-4dd9-bbe8-3674c41f9186"},{"reference":"Organization/fefbcdd7-d09a-4ee3-8f02-20722d8a92e9"},{"reference":"Practitioner/be473b6c-93c3-4dcb-97b4-8f44dbc336d2"}]},"request":{"method":"PUT","url":"MeasureReport/aab22d4c-6024-4ff7-bcb4-1780d29b93ca"}}]},"request":{"method":"PUT","url":"Bundle/63487c2e0968f80122540179"}},{"fullUrl":"MeasureReport/aab22d4c-6024-4ff7-bcb4-1780d29b93ca","resource":{"resourceType":"MeasureReport","id":"aab22d4c-6024-4ff7-bcb4-1780d29b93ca","meta":{"profile":["http://hl7.org/fhir/us/cqfmeasures/StructureDefinition/test-case-cqfm"]},"contained":[{"resourceType":"Parameters","id":"1432af80-f287-4420-8931-fa43c2807e1d-parameters","parameter":[{"name":"subject","valueString":"848869fc-b6bc-41cb-b441-cfba930e2cc4"}]}],"extension":[{"url":"http://hl7.org/fhir/StructureDefinition/cqf-inputParameters","valueReference":{"reference":"#1432af80-f287-4420-8931-fa43c2807e1d-parameters"}},{"url":"http://hl7.org/fhir/us/cqfmeasures/StructureDefinition/cqfm-testCaseDescription","valueMarkdown":"Passes: IP, Pt is 27 years of age,  encounter dx delivery of singleton, gravida=1 rel dt/time before time of delivery time, EGA @ 38 weeks\n"}],"modifierExtension":[{"url":"http://hl7.org/fhir/us/cqfmeasures/StructureDefinition/cqfm-isTestCase","valueBoolean":true}],"status":"complete","type":"individual","measure":"https://madie.cms.gov/Measure/CMS0334FHIRPCCesareanBirth","period":{"start":"2026-01-01","end":"2026-12-31"},"group":[{"id":"Group_1","population":[{"id":"InitialPopulation_1","code":{"coding":[{"system":"http://terminology.hl7.org/CodeSystem/measure-population","code":"initial-population","display":"Initial Population"}]},"count":1},{"id":"Denominator_1","code":{"coding":[{"system":"http://terminology.hl7.org/CodeSystem/measure-population","code":"denominator","display":"Denominator"}]},"count":1},{"id":"DenominatorExclusion_1","code":{"coding":[{"system":"http://terminology.hl7.org/CodeSystem/measure-population","code":"denominator-exclusion","display":"Denominator Exclusion"}]},"count":0},{"id":"Numerator_1","code":{"coding":[{"system":"http://terminology.hl7.org/CodeSystem/measure-population","code":"numerator","display":"Numerator"}]},"count":0}],"measureScore":{"value":0.0}}],"evaluatedResource":[{"reference":"Patient/848869fc-b6bc-41cb-b441-cfba930e2cc4"},{"reference":"Observation/438df307-bf66-4941-bb50-de42120bbd96"},{"reference":"Observation/55f6cc6d-d255-4b2c-b46e-6fd3dcffaa90"},{"reference":"Observation/b47df53b-12f3-4b10-b2af-185b6d16fa8b"},{"reference":"Encounter/63a1eec5-e3c3-4551-84bc-8d9d14fb778e"},{"reference":"Procedure/e1d65e0f-437c-4857-90d8-af76b91bd4a3"},{"reference":"Condition/4822e4d9-2a00-4c7a-97dd-e73fc4c00052"},{"reference":"Coverage/34ebbc94-0529-4dd9-bbe8-3674c41f9186"},{"reference":"Organization/fefbcdd7-d09a-4ee3-8f02-20722d8a92e9"},{"reference":"Practitioner/be473b6c-93c3-4dcb-97b4-8f44dbc336d2"}]},"request":{"method":"PUT","url":"MeasureReport/aab22d4c-6024-4ff7-bcb4-1780d29b93ca"}}]}