{"resourceType":"Bundle","id":"tests-ebbb9064-6bf2-4ad1-ad56-5ee93afde52d-bundle","type":"transaction","entry":[{"resource":{"resourceType":"Observation","id":"a539efc6-0b6a-4da9-8531-1134f40e31ec","meta":{"profile":["http://hl7.org/fhir/us/qicore/StructureDefinition/qicore-simple-observation"]},"status":"final","category":[{"coding":[{"system":"http://terminology.hl7.org/CodeSystem/observation-category","code":"exam","display":"exam","userSelected":true}]}],"code":{"coding":[{"system":"http://loinc.org","code":"11977-6"}]},"subject":{"reference":"Patient/ebbb9064-6bf2-4ad1-ad56-5ee93afde52d"},"effectiveDateTime":"2026-06-08T19:59:00.000+00:00","valueInteger":0},"request":{"method":"PUT","url":"Observation/a539efc6-0b6a-4da9-8531-1134f40e31ec"}},{"resource":{"resourceType":"Patient","id":"ebbb9064-6bf2-4ad1-ad56-5ee93afde52d","meta":{"profile":["http://hl7.org/fhir/us/qicore/StructureDefinition/qicore-patient"]},"text":{"status":"generated","div":"<div xmlns=\"http://www.w3.org/1999/xhtml\"><div class=\"hapiHeaderText\">AssessP0RelDtTimeLTTimeOfDeliv <b>DENPASS </b></div><table class=\"hapiPropertyTable\"><tbody><tr><td>Identifier</td><td>cb4a87fae0aeb4667064306e289209af09ca2376f26fb181f5d5ea03cba5dc53</td></tr><tr><td>Date of birth</td><td><span>14 February 1985</span></td></tr></tbody></table></div>"},"extension":[{"url":"http://hl7.org/fhir/us/core/StructureDefinition/us-core-race","extension":[{"url":"ombCategory","valueCoding":{"system":"urn:oid:2.16.840.1.113883.6.238","code":"1002-5","display":"American Indian or Alaska Native","userSelected":true}},{"url":"text","valueString":"American Indian or Alaska Native"}]},{"url":"http://hl7.org/fhir/us/core/StructureDefinition/us-core-ethnicity","extension":[{"url":"ombCategory","valueCoding":{"system":"urn:oid:2.16.840.1.113883.6.238","code":"2135-2","display":"Hispanic or Latino","userSelected":true}},{"url":"text","valueString":"Hispanic or Latino"}]}],"identifier":[{"type":{"coding":[{"system":"http://terminology.hl7.org/CodeSystem/v2-0203","code":"MR"}]},"system":"https://bonnie-fhir.healthit.gov/","value":"63487c2e0968f8012254017a"}],"active":true,"name":[{"use":"usual","family":"DENPass","given":["AssessP0RelDtTimeLTTimeOfDeliv"]}],"gender":"female","birthDate":"1998-02-14"},"request":{"method":"PUT","url":"Patient/ebbb9064-6bf2-4ad1-ad56-5ee93afde52d"}},{"resource":{"resourceType":"Practitioner","id":"375f1651-42d3-4eb8-8306-73a6b870ac12","meta":{"profile":["http://hl7.org/fhir/us/qicore/StructureDefinition/qicore-practitioner"]},"identifier":[{"system":"http://hl7.org/fhir/sid/us-npi","value":"1234567890"}],"name":[{"family":"Evil","prefix":["Dr"]}]},"request":{"method":"PUT","url":"Practitioner/375f1651-42d3-4eb8-8306-73a6b870ac12"}},{"resource":{"resourceType":"Encounter","id":"a95d0b58-0c63-4de5-978c-81aff9ca4a30","meta":{"profile":["http://hl7.org/fhir/us/qicore/StructureDefinition/qicore-encounter"]},"status":"finished","class":{"system":"http://terminology.hl7.org/CodeSystem/v3-ActCode","code":"IMP","display":"inpatient encounter"},"type":[{"coding":[{"system":"http://snomed.info/sct","code":"8715000"}]}],"subject":{"reference":"Patient/ebbb9064-6bf2-4ad1-ad56-5ee93afde52d"},"period":{"start":"2026-06-08T08:00:00.000+00:00","end":"2026-06-10T08:15:00.000+00:00"},"length":{"value":2,"unit":"days"},"reasonReference":[{"reference":"Condition/c812f01d-2f04-4735-93b4-89d51579ae7e"}]},"request":{"method":"PUT","url":"Encounter/a95d0b58-0c63-4de5-978c-81aff9ca4a30"}},{"resource":{"resourceType":"Coverage","id":"68b01527-c5df-44a5-bbe1-d22e22f80d90","meta":{"profile":["http://hl7.org/fhir/us/qicore/StructureDefinition/qicore-coverage"]},"status":"active","subscriberId":"523435","beneficiary":{"reference":"Patient/ebbb9064-6bf2-4ad1-ad56-5ee93afde52d"},"relationship":{"coding":[{"system":"http://terminology.hl7.org/CodeSystem/subscriber-relationship","code":"self"}]},"payor":[{"reference":"Organization/022e2043-90fa-47d0-925d-0070aa3ada4b"}]},"request":{"method":"PUT","url":"Coverage/68b01527-c5df-44a5-bbe1-d22e22f80d90"}},{"resource":{"resourceType":"Bundle","id":"63487c2e0968f8012254017a","type":"transaction","entry":[{"fullUrl":"https://madie.cms.gov/Patient/ebbb9064-6bf2-4ad1-ad56-5ee93afde52d","resource":{"resourceType":"Patient","id":"ebbb9064-6bf2-4ad1-ad56-5ee93afde52d","meta":{"profile":["http://hl7.org/fhir/us/qicore/StructureDefinition/qicore-patient"]},"text":{"status":"generated","div":"<div xmlns=\"http://www.w3.org/1999/xhtml\"><div class=\"hapiHeaderText\">AssessP0RelDtTimeLTTimeOfDeliv <b>DENPASS </b></div><table class=\"hapiPropertyTable\"><tbody><tr><td>Identifier</td><td>cb4a87fae0aeb4667064306e289209af09ca2376f26fb181f5d5ea03cba5dc53</td></tr><tr><td>Date of birth</td><td><span>14 February 1985</span></td></tr></tbody></table></div>"},"extension":[{"url":"http://hl7.org/fhir/us/core/StructureDefinition/us-core-race","extension":[{"url":"ombCategory","valueCoding":{"system":"urn:oid:2.16.840.1.113883.6.238","code":"1002-5","display":"American Indian or Alaska Native","userSelected":true}},{"url":"text","valueString":"American Indian or Alaska Native"}]},{"url":"http://hl7.org/fhir/us/core/StructureDefinition/us-core-ethnicity","extension":[{"url":"ombCategory","valueCoding":{"system":"urn:oid:2.16.840.1.113883.6.238","code":"2135-2","display":"Hispanic or Latino","userSelected":true}},{"url":"text","valueString":"Hispanic or Latino"}]}],"identifier":[{"type":{"coding":[{"system":"http://terminology.hl7.org/CodeSystem/v2-0203","code":"MR"}]},"system":"https://bonnie-fhir.healthit.gov/","value":"63487c2e0968f8012254017a"}],"active":true,"name":[{"use":"usual","family":"DENPass","given":["AssessP0RelDtTimeLTTimeOfDeliv"]}],"gender":"female","birthDate":"1998-02-14"},"request":{"method":"PUT","url":"Patient/ebbb9064-6bf2-4ad1-ad56-5ee93afde52d"}},{"fullUrl":"https://madie.cms.gov/Observation/a539efc6-0b6a-4da9-8531-1134f40e31ec","resource":{"resourceType":"Observation","id":"a539efc6-0b6a-4da9-8531-1134f40e31ec","meta":{"profile":["http://hl7.org/fhir/us/qicore/StructureDefinition/qicore-simple-observation"]},"status":"final","category":[{"coding":[{"system":"http://terminology.hl7.org/CodeSystem/observation-category","code":"exam","display":"exam","userSelected":true}]}],"code":{"coding":[{"system":"http://loinc.org","code":"11977-6"}]},"subject":{"reference":"Patient/ebbb9064-6bf2-4ad1-ad56-5ee93afde52d"},"effectiveDateTime":"2026-06-08T19:59:00.000+00:00","valueInteger":0},"request":{"method":"PUT","url":"Observation/a539efc6-0b6a-4da9-8531-1134f40e31ec"}},{"fullUrl":"https://madie.cms.gov/Observation/3c9cc92d-7827-467f-8d4c-c3ca7850671d","resource":{"resourceType":"Observation","id":"3c9cc92d-7827-467f-8d4c-c3ca7850671d","meta":{"profile":["http://hl7.org/fhir/us/qicore/StructureDefinition/qicore-simple-observation"]},"status":"final","category":[{"coding":[{"system":"http://terminology.hl7.org/CodeSystem/observation-category","code":"exam","display":"exam","userSelected":true}]}],"code":{"coding":[{"system":"http://loinc.org","code":"11884-4"}]},"subject":{"reference":"Patient/ebbb9064-6bf2-4ad1-ad56-5ee93afde52d"},"effectiveDateTime":"2026-06-08T20:00:00.000+00:00","valueQuantity":{"value":37,"system":"http://unitsofmeasure.org","code":"wk"}},"request":{"method":"PUT","url":"Observation/3c9cc92d-7827-467f-8d4c-c3ca7850671d"}},{"fullUrl":"https://madie.cms.gov/Observation/dd5e5619-10cb-4a52-8dd8-d3cf6f2d0706","resource":{"resourceType":"Observation","id":"dd5e5619-10cb-4a52-8dd8-d3cf6f2d0706","meta":{"profile":["http://hl7.org/fhir/us/qicore/StructureDefinition/qicore-simple-observation"]},"status":"final","category":[{"coding":[{"system":"http://terminology.hl7.org/CodeSystem/observation-category","code":"exam","display":"exam","userSelected":true}]}],"code":{"coding":[{"system":"http://loinc.org","code":"93857-1"}]},"subject":{"reference":"Patient/ebbb9064-6bf2-4ad1-ad56-5ee93afde52d"},"effectiveDateTime":"2026-06-08T20:00:00.000+00:00","valueDateTime":"2026-06-08T20:00:00.000+00:00"},"request":{"method":"PUT","url":"Observation/dd5e5619-10cb-4a52-8dd8-d3cf6f2d0706"}},{"fullUrl":"https://madie.cms.gov/Encounter/a95d0b58-0c63-4de5-978c-81aff9ca4a30","resource":{"resourceType":"Encounter","id":"a95d0b58-0c63-4de5-978c-81aff9ca4a30","meta":{"profile":["http://hl7.org/fhir/us/qicore/StructureDefinition/qicore-encounter"]},"status":"finished","class":{"system":"http://terminology.hl7.org/CodeSystem/v3-ActCode","code":"IMP","display":"inpatient encounter"},"type":[{"coding":[{"system":"http://snomed.info/sct","code":"8715000"}]}],"subject":{"reference":"Patient/ebbb9064-6bf2-4ad1-ad56-5ee93afde52d"},"period":{"start":"2026-06-08T08:00:00.000+00:00","end":"2026-06-10T08:15:00.000+00:00"},"length":{"value":2,"unit":"days"},"reasonReference":[{"reference":"Condition/c812f01d-2f04-4735-93b4-89d51579ae7e"}]},"request":{"method":"PUT","url":"Encounter/a95d0b58-0c63-4de5-978c-81aff9ca4a30"}},{"fullUrl":"https://madie.cms.gov/Procedure/29ea3811-cc2d-4518-bcad-0644486b6610","resource":{"resourceType":"Procedure","id":"29ea3811-cc2d-4518-bcad-0644486b6610","meta":{"profile":["http://hl7.org/fhir/us/qicore/StructureDefinition/qicore-procedure"]},"extension":[{"url":"http://hl7.org/fhir/us/qicore/StructureDefinition/qicore-recorded","valueDateTime":"2014-04-05T13:35:00.000+00:00"}],"status":"completed","code":{"coding":[{"system":"http://www.cms.gov/Medicare/Coding/ICD10","code":"10D00Z0"}]},"subject":{"reference":"Patient/ebbb9064-6bf2-4ad1-ad56-5ee93afde52d"},"performedPeriod":{"start":"2026-06-08T20:00:00.000+00:00","end":"2026-06-08T20:15:00.000+00:00"}},"request":{"method":"PUT","url":"Procedure/29ea3811-cc2d-4518-bcad-0644486b6610"}},{"fullUrl":"https://madie.cms.gov/Condition/c812f01d-2f04-4735-93b4-89d51579ae7e","resource":{"resourceType":"Condition","id":"c812f01d-2f04-4735-93b4-89d51579ae7e","meta":{"profile":["http://hl7.org/fhir/us/qicore/StructureDefinition/qicore-condition-encounter-diagnosis"]},"category":[{"coding":[{"system":"http://terminology.hl7.org/CodeSystem/condition-category","code":"encounter-diagnosis","display":"Encounter Diagnosis"}]}],"code":{"coding":[{"system":"http://snomed.info/sct","version":"2022-09","code":"169826009","display":"Single live birth from singleton pregnancy (finding)","userSelected":true}]},"subject":{"reference":"Patient/ebbb9064-6bf2-4ad1-ad56-5ee93afde52d"},"encounter":{"reference":"Encounter/a95d0b58-0c63-4de5-978c-81aff9ca4a30"},"recordedDate":"2026-10-18T08:00:00.000+00:00"},"request":{"method":"PUT","url":"Condition/c812f01d-2f04-4735-93b4-89d51579ae7e"}},{"fullUrl":"https://madie.cms.gov/Coverage/68b01527-c5df-44a5-bbe1-d22e22f80d90","resource":{"resourceType":"Coverage","id":"68b01527-c5df-44a5-bbe1-d22e22f80d90","meta":{"profile":["http://hl7.org/fhir/us/qicore/StructureDefinition/qicore-coverage"]},"status":"active","subscriberId":"523435","beneficiary":{"reference":"Patient/ebbb9064-6bf2-4ad1-ad56-5ee93afde52d"},"relationship":{"coding":[{"system":"http://terminology.hl7.org/CodeSystem/subscriber-relationship","code":"self"}]},"payor":[{"reference":"Organization/022e2043-90fa-47d0-925d-0070aa3ada4b"}]},"request":{"method":"PUT","url":"Coverage/68b01527-c5df-44a5-bbe1-d22e22f80d90"}},{"fullUrl":"https://madie.cms.gov/Organization/022e2043-90fa-47d0-925d-0070aa3ada4b","resource":{"resourceType":"Organization","id":"022e2043-90fa-47d0-925d-0070aa3ada4b","meta":{"profile":["http://hl7.org/fhir/us/qicore/StructureDefinition/qicore-organization"]},"identifier":[{"use":"temp","system":"urn:oid:2.16.840.1.113883.4.4","value":"21-3259825"}],"active":true,"type":[{"coding":[{"system":"http://terminology.hl7.org/CodeSystem/organization-type","code":"pay","display":"Payer"}]}],"name":"Blue Cross Blue Shield of Texas","telecom":[{"system":"phone","value":"(+1) 972-766-6900"}],"address":[{"use":"billing","type":"postal","line":["P.O. Box 660044"],"city":"Dallas","state":"TX","postalCode":"75266-0044","country":"USA"}]},"request":{"method":"PUT","url":"Organization/022e2043-90fa-47d0-925d-0070aa3ada4b"}},{"fullUrl":"https://madie.cms.gov/Practitioner/375f1651-42d3-4eb8-8306-73a6b870ac12","resource":{"resourceType":"Practitioner","id":"375f1651-42d3-4eb8-8306-73a6b870ac12","meta":{"profile":["http://hl7.org/fhir/us/qicore/StructureDefinition/qicore-practitioner"]},"identifier":[{"system":"http://hl7.org/fhir/sid/us-npi","value":"1234567890"}],"name":[{"family":"Evil","prefix":["Dr"]}]},"request":{"method":"PUT","url":"Practitioner/375f1651-42d3-4eb8-8306-73a6b870ac12"}},{"fullUrl":"https://madie.cms.gov/MeasureReport/cac504f8-3ece-4c21-9b0a-584f9206c23a","resource":{"resourceType":"MeasureReport","id":"cac504f8-3ece-4c21-9b0a-584f9206c23a","meta":{"profile":["http://hl7.org/fhir/us/cqfmeasures/StructureDefinition/test-case-cqfm"]},"contained":[{"resourceType":"Parameters","id":"9b9d1b21-cb26-44c8-939d-3c05fc0d0f0e-parameters","parameter":[{"name":"subject","valueString":"ebbb9064-6bf2-4ad1-ad56-5ee93afde52d"}]}],"extension":[{"url":"http://hl7.org/fhir/StructureDefinition/cqf-inputParameters","valueReference":{"reference":"#9b9d1b21-cb26-44c8-939d-3c05fc0d0f0e-parameters"}},{"url":"http://hl7.org/fhir/us/cqfmeasures/StructureDefinition/cqfm-testCaseDescription","valueMarkdown":"Parity=0, relevant date/time same date but time less than delivery date/time\n"}],"modifierExtension":[{"url":"http://hl7.org/fhir/us/cqfmeasures/StructureDefinition/cqfm-isTestCase","valueBoolean":true}],"status":"complete","type":"individual","measure":"https://madie.cms.gov/Measure/CMS0334FHIRPCCesareanBirth","period":{"start":"2026-01-01","end":"2026-12-31"},"group":[{"id":"Group_1","population":[{"id":"InitialPopulation_1","code":{"coding":[{"system":"http://terminology.hl7.org/CodeSystem/measure-population","code":"initial-population","display":"Initial Population"}]},"count":1},{"id":"Denominator_1","code":{"coding":[{"system":"http://terminology.hl7.org/CodeSystem/measure-population","code":"denominator","display":"Denominator"}]},"count":1},{"id":"DenominatorExclusion_1","code":{"coding":[{"system":"http://terminology.hl7.org/CodeSystem/measure-population","code":"denominator-exclusion","display":"Denominator Exclusion"}]},"count":0},{"id":"Numerator_1","code":{"coding":[{"system":"http://terminology.hl7.org/CodeSystem/measure-population","code":"numerator","display":"Numerator"}]},"count":1}],"measureScore":{"value":0.0}}],"evaluatedResource":[{"reference":"Patient/ebbb9064-6bf2-4ad1-ad56-5ee93afde52d"},{"reference":"Observation/a539efc6-0b6a-4da9-8531-1134f40e31ec"},{"reference":"Observation/3c9cc92d-7827-467f-8d4c-c3ca7850671d"},{"reference":"Observation/dd5e5619-10cb-4a52-8dd8-d3cf6f2d0706"},{"reference":"Encounter/a95d0b58-0c63-4de5-978c-81aff9ca4a30"},{"reference":"Procedure/29ea3811-cc2d-4518-bcad-0644486b6610"},{"reference":"Condition/c812f01d-2f04-4735-93b4-89d51579ae7e"},{"reference":"Coverage/68b01527-c5df-44a5-bbe1-d22e22f80d90"},{"reference":"Organization/022e2043-90fa-47d0-925d-0070aa3ada4b"},{"reference":"Practitioner/375f1651-42d3-4eb8-8306-73a6b870ac12"}]},"request":{"method":"PUT","url":"MeasureReport/cac504f8-3ece-4c21-9b0a-584f9206c23a"}}]},"request":{"method":"PUT","url":"Bundle/63487c2e0968f8012254017a"}},{"resource":{"resourceType":"Condition","id":"c812f01d-2f04-4735-93b4-89d51579ae7e","meta":{"profile":["http://hl7.org/fhir/us/qicore/StructureDefinition/qicore-condition-encounter-diagnosis"]},"category":[{"coding":[{"system":"http://terminology.hl7.org/CodeSystem/condition-category","code":"encounter-diagnosis","display":"Encounter Diagnosis"}]}],"code":{"coding":[{"system":"http://snomed.info/sct","version":"2022-09","code":"169826009","display":"Single live birth from singleton pregnancy (finding)","userSelected":true}]},"subject":{"reference":"Patient/ebbb9064-6bf2-4ad1-ad56-5ee93afde52d"},"encounter":{"reference":"Encounter/a95d0b58-0c63-4de5-978c-81aff9ca4a30"},"recordedDate":"2026-10-18T08:00:00.000+00:00"},"request":{"method":"PUT","url":"Condition/c812f01d-2f04-4735-93b4-89d51579ae7e"}},{"resource":{"resourceType":"Observation","id":"dd5e5619-10cb-4a52-8dd8-d3cf6f2d0706","meta":{"profile":["http://hl7.org/fhir/us/qicore/StructureDefinition/qicore-simple-observation"]},"status":"final","category":[{"coding":[{"system":"http://terminology.hl7.org/CodeSystem/observation-category","code":"exam","display":"exam","userSelected":true}]}],"code":{"coding":[{"system":"http://loinc.org","code":"93857-1"}]},"subject":{"reference":"Patient/ebbb9064-6bf2-4ad1-ad56-5ee93afde52d"},"effectiveDateTime":"2026-06-08T20:00:00.000+00:00","valueDateTime":"2026-06-08T20:00:00.000+00:00"},"request":{"method":"PUT","url":"Observation/dd5e5619-10cb-4a52-8dd8-d3cf6f2d0706"}},{"resource":{"resourceType":"MeasureReport","id":"cac504f8-3ece-4c21-9b0a-584f9206c23a","meta":{"profile":["http://hl7.org/fhir/us/cqfmeasures/StructureDefinition/test-case-cqfm"]},"contained":[{"resourceType":"Parameters","id":"9b9d1b21-cb26-44c8-939d-3c05fc0d0f0e-parameters","parameter":[{"name":"subject","valueString":"ebbb9064-6bf2-4ad1-ad56-5ee93afde52d"}]}],"extension":[{"url":"http://hl7.org/fhir/StructureDefinition/cqf-inputParameters","valueReference":{"reference":"#9b9d1b21-cb26-44c8-939d-3c05fc0d0f0e-parameters"}},{"url":"http://hl7.org/fhir/us/cqfmeasures/StructureDefinition/cqfm-testCaseDescription","valueMarkdown":"Parity=0, relevant date/time same date but time less than delivery date/time\n"}],"modifierExtension":[{"url":"http://hl7.org/fhir/us/cqfmeasures/StructureDefinition/cqfm-isTestCase","valueBoolean":true}],"status":"complete","type":"individual","measure":"https://madie.cms.gov/Measure/CMS0334FHIRPCCesareanBirth","period":{"start":"2026-01-01","end":"2026-12-31"},"group":[{"id":"Group_1","population":[{"id":"InitialPopulation_1","code":{"coding":[{"system":"http://terminology.hl7.org/CodeSystem/measure-population","code":"initial-population","display":"Initial Population"}]},"count":1},{"id":"Denominator_1","code":{"coding":[{"system":"http://terminology.hl7.org/CodeSystem/measure-population","code":"denominator","display":"Denominator"}]},"count":1},{"id":"DenominatorExclusion_1","code":{"coding":[{"system":"http://terminology.hl7.org/CodeSystem/measure-population","code":"denominator-exclusion","display":"Denominator Exclusion"}]},"count":0},{"id":"Numerator_1","code":{"coding":[{"system":"http://terminology.hl7.org/CodeSystem/measure-population","code":"numerator","display":"Numerator"}]},"count":1}],"measureScore":{"value":0.0}}],"evaluatedResource":[{"reference":"Patient/ebbb9064-6bf2-4ad1-ad56-5ee93afde52d"},{"reference":"Observation/a539efc6-0b6a-4da9-8531-1134f40e31ec"},{"reference":"Observation/3c9cc92d-7827-467f-8d4c-c3ca7850671d"},{"reference":"Observation/dd5e5619-10cb-4a52-8dd8-d3cf6f2d0706"},{"reference":"Encounter/a95d0b58-0c63-4de5-978c-81aff9ca4a30"},{"reference":"Procedure/29ea3811-cc2d-4518-bcad-0644486b6610"},{"reference":"Condition/c812f01d-2f04-4735-93b4-89d51579ae7e"},{"reference":"Coverage/68b01527-c5df-44a5-bbe1-d22e22f80d90"},{"reference":"Organization/022e2043-90fa-47d0-925d-0070aa3ada4b"},{"reference":"Practitioner/375f1651-42d3-4eb8-8306-73a6b870ac12"}]},"request":{"method":"PUT","url":"MeasureReport/cac504f8-3ece-4c21-9b0a-584f9206c23a"}},{"resource":{"resourceType":"Procedure","id":"29ea3811-cc2d-4518-bcad-0644486b6610","meta":{"profile":["http://hl7.org/fhir/us/qicore/StructureDefinition/qicore-procedure"]},"extension":[{"url":"http://hl7.org/fhir/us/qicore/StructureDefinition/qicore-recorded","valueDateTime":"2014-04-05T13:35:00.000+00:00"}],"status":"completed","code":{"coding":[{"system":"http://www.cms.gov/Medicare/Coding/ICD10","code":"10D00Z0"}]},"subject":{"reference":"Patient/ebbb9064-6bf2-4ad1-ad56-5ee93afde52d"},"performedPeriod":{"start":"2026-06-08T20:00:00.000+00:00","end":"2026-06-08T20:15:00.000+00:00"}},"request":{"method":"PUT","url":"Procedure/29ea3811-cc2d-4518-bcad-0644486b6610"}},{"resource":{"resourceType":"Organization","id":"022e2043-90fa-47d0-925d-0070aa3ada4b","meta":{"profile":["http://hl7.org/fhir/us/qicore/StructureDefinition/qicore-organization"]},"identifier":[{"use":"temp","system":"urn:oid:2.16.840.1.113883.4.4","value":"21-3259825"}],"active":true,"type":[{"coding":[{"system":"http://terminology.hl7.org/CodeSystem/organization-type","code":"pay","display":"Payer"}]}],"name":"Blue Cross Blue Shield of Texas","telecom":[{"system":"phone","value":"(+1) 972-766-6900"}],"address":[{"use":"billing","type":"postal","line":["P.O. Box 660044"],"city":"Dallas","state":"TX","postalCode":"75266-0044","country":"USA"}]},"request":{"method":"PUT","url":"Organization/022e2043-90fa-47d0-925d-0070aa3ada4b"}},{"resource":{"resourceType":"Observation","id":"3c9cc92d-7827-467f-8d4c-c3ca7850671d","meta":{"profile":["http://hl7.org/fhir/us/qicore/StructureDefinition/qicore-simple-observation"]},"status":"final","category":[{"coding":[{"system":"http://terminology.hl7.org/CodeSystem/observation-category","code":"exam","display":"exam","userSelected":true}]}],"code":{"coding":[{"system":"http://loinc.org","code":"11884-4"}]},"subject":{"reference":"Patient/ebbb9064-6bf2-4ad1-ad56-5ee93afde52d"},"effectiveDateTime":"2026-06-08T20:00:00.000+00:00","valueQuantity":{"value":37,"system":"http://unitsofmeasure.org","code":"wk"}},"request":{"method":"PUT","url":"Observation/3c9cc92d-7827-467f-8d4c-c3ca7850671d"}}]}