{"resourceType":"Bundle","id":"tests-36c39312-74f4-4e86-9ef8-0c7e191000eb-bundle","type":"transaction","entry":[{"fullUrl":"Patient/36c39312-74f4-4e86-9ef8-0c7e191000eb","resource":{"resourceType":"Patient","id":"36c39312-74f4-4e86-9ef8-0c7e191000eb","meta":{"profile":["http://hl7.org/fhir/us/qicore/StructureDefinition/qicore-patient"]},"text":{"status":"generated","div":"<div xmlns=\"http://www.w3.org/1999/xhtml\"><div class=\"hapiHeaderText\">AssessG1RelDateTime42wks1MinB4TimeOfDeliv <b>DENFAIL </b></div><table class=\"hapiPropertyTable\"><tbody><tr><td>Identifier</td><td>0f2eb4e282584341b7686ff02bcd96001425e71741a668fc2710a83bd8038817</td></tr><tr><td>Date of birth</td><td><span>14 February 1985</span></td></tr></tbody></table></div>"},"extension":[{"url":"http://hl7.org/fhir/us/core/StructureDefinition/us-core-race","extension":[{"url":"ombCategory","valueCoding":{"system":"urn:oid:2.16.840.1.113883.6.238","code":"1002-5","display":"American Indian or Alaska Native","userSelected":true}},{"url":"text","valueString":"American Indian or Alaska Native"}]},{"url":"http://hl7.org/fhir/us/core/StructureDefinition/us-core-ethnicity","extension":[{"url":"ombCategory","valueCoding":{"system":"urn:oid:2.16.840.1.113883.6.238","code":"2135-2","display":"Hispanic or Latino","userSelected":true}},{"url":"text","valueString":"Hispanic or Latino"}]}],"identifier":[{"type":{"coding":[{"system":"http://terminology.hl7.org/CodeSystem/v2-0203","code":"MR"}]},"system":"https://bonnie-fhir.healthit.gov/","value":"63487c2e0968f8012254016d"}],"active":true,"name":[{"use":"usual","family":"DENFail","given":["AssessG1RelDateTime42wks1MinB4TimeOfDeliv"]}],"gender":"female","birthDate":"1998-02-14"},"request":{"method":"PUT","url":"Patient/36c39312-74f4-4e86-9ef8-0c7e191000eb"}},{"fullUrl":"Organization/d8c07919-79e6-4a3f-852c-35405e54374e","resource":{"resourceType":"Organization","id":"d8c07919-79e6-4a3f-852c-35405e54374e","meta":{"profile":["http://hl7.org/fhir/us/qicore/StructureDefinition/qicore-organization"]},"identifier":[{"use":"temp","system":"urn:oid:2.16.840.1.113883.4.4","value":"21-3259825"}],"active":true,"type":[{"coding":[{"system":"http://terminology.hl7.org/CodeSystem/organization-type","code":"pay","display":"Payer"}]}],"name":"Blue Cross Blue Shield of Texas","telecom":[{"system":"phone","value":"(+1) 972-766-6900"}],"address":[{"use":"billing","type":"postal","line":["P.O. Box 660044"],"city":"Dallas","state":"TX","postalCode":"75266-0044","country":"USA"}]},"request":{"method":"PUT","url":"Organization/d8c07919-79e6-4a3f-852c-35405e54374e"}},{"fullUrl":"Coverage/5971658b-2a3c-4b7c-9d6a-9c581eee1114","resource":{"resourceType":"Coverage","id":"5971658b-2a3c-4b7c-9d6a-9c581eee1114","meta":{"profile":["http://hl7.org/fhir/us/qicore/StructureDefinition/qicore-coverage"]},"status":"active","subscriberId":"523435","beneficiary":{"reference":"Patient/36c39312-74f4-4e86-9ef8-0c7e191000eb"},"relationship":{"coding":[{"system":"http://terminology.hl7.org/CodeSystem/subscriber-relationship","code":"self"}]},"payor":[{"reference":"Organization/d8c07919-79e6-4a3f-852c-35405e54374e"}]},"request":{"method":"PUT","url":"Coverage/5971658b-2a3c-4b7c-9d6a-9c581eee1114"}},{"fullUrl":"MeasureReport/6e9f60d4-bbe8-4357-8afb-61c968c3faa4","resource":{"resourceType":"MeasureReport","id":"6e9f60d4-bbe8-4357-8afb-61c968c3faa4","meta":{"profile":["http://hl7.org/fhir/us/cqfmeasures/StructureDefinition/test-case-cqfm"]},"contained":[{"resourceType":"Parameters","id":"5e9fa1f8-7fc4-42ba-8f87-89ea808c2f48-parameters","parameter":[{"name":"subject","valueString":"36c39312-74f4-4e86-9ef8-0c7e191000eb"}]}],"extension":[{"url":"http://hl7.org/fhir/StructureDefinition/cqf-inputParameters","valueReference":{"reference":"#5e9fa1f8-7fc4-42ba-8f87-89ea808c2f48-parameters"}},{"url":"http://hl7.org/fhir/us/cqfmeasures/StructureDefinition/cqfm-testCaseDescription","valueMarkdown":"Tests that Assess Gravida Rel  Date/Time is no more than 42 weeks before the Time of Delivery  Date/Time.  This case is 42 weeks and 1 min.\n"}],"modifierExtension":[{"url":"http://hl7.org/fhir/us/cqfmeasures/StructureDefinition/cqfm-isTestCase","valueBoolean":true}],"status":"complete","type":"individual","measure":"https://madie.cms.gov/Measure/CMS0334FHIRPCCesareanBirth","period":{"start":"2026-01-01","end":"2026-12-31"},"group":[{"id":"Group_1","population":[{"id":"InitialPopulation_1","code":{"coding":[{"system":"http://terminology.hl7.org/CodeSystem/measure-population","code":"initial-population","display":"Initial Population"}]},"count":1},{"id":"Denominator_1","code":{"coding":[{"system":"http://terminology.hl7.org/CodeSystem/measure-population","code":"denominator","display":"Denominator"}]},"count":0},{"id":"DenominatorExclusion_1","code":{"coding":[{"system":"http://terminology.hl7.org/CodeSystem/measure-population","code":"denominator-exclusion","display":"Denominator Exclusion"}]},"count":0},{"id":"Numerator_1","code":{"coding":[{"system":"http://terminology.hl7.org/CodeSystem/measure-population","code":"numerator","display":"Numerator"}]},"count":0}],"measureScore":{"value":0.0}}],"evaluatedResource":[{"reference":"Patient/36c39312-74f4-4e86-9ef8-0c7e191000eb"},{"reference":"Observation/65cd232c-2f64-4163-b354-fa875259576e"},{"reference":"Observation/7caa1b09-8697-4ea7-933b-5b672af6bab8"},{"reference":"Observation/6acb95d7-c382-4e6a-8681-11cfc05bc8ca"},{"reference":"Encounter/8119864a-d71a-474c-9ca9-18a5b5ae4ca3"},{"reference":"Procedure/840d87aa-ffa8-424a-9b57-dbce4f72c9f1"},{"reference":"Coverage/5971658b-2a3c-4b7c-9d6a-9c581eee1114"},{"reference":"Organization/d8c07919-79e6-4a3f-852c-35405e54374e"},{"reference":"Condition/d181a105-9053-4c6d-b1d6-9da55f05e2a2"},{"reference":"Practitioner/e04d99d8-2845-4045-9f37-4e0b37c0959c"}]},"request":{"method":"PUT","url":"MeasureReport/6e9f60d4-bbe8-4357-8afb-61c968c3faa4"}},{"fullUrl":"Observation/6acb95d7-c382-4e6a-8681-11cfc05bc8ca","resource":{"resourceType":"Observation","id":"6acb95d7-c382-4e6a-8681-11cfc05bc8ca","meta":{"profile":["http://hl7.org/fhir/us/qicore/StructureDefinition/qicore-simple-observation"]},"status":"final","category":[{"coding":[{"system":"http://terminology.hl7.org/CodeSystem/observation-category","code":"exam","display":"exam","userSelected":true}]}],"code":{"coding":[{"system":"http://loinc.org","code":"93857-1"}]},"subject":{"reference":"Patient/36c39312-74f4-4e86-9ef8-0c7e191000eb"},"effectiveDateTime":"2026-06-08T19:00:00.000+00:00","valueDateTime":"2026-06-08T19:00:00.000+00:00"},"request":{"method":"PUT","url":"Observation/6acb95d7-c382-4e6a-8681-11cfc05bc8ca"}},{"fullUrl":"Practitioner/e04d99d8-2845-4045-9f37-4e0b37c0959c","resource":{"resourceType":"Practitioner","id":"e04d99d8-2845-4045-9f37-4e0b37c0959c","meta":{"profile":["http://hl7.org/fhir/us/qicore/StructureDefinition/qicore-practitioner"]},"identifier":[{"system":"http://hl7.org/fhir/sid/us-npi","value":"1234567890"}],"name":[{"family":"Evil","prefix":["Dr"]}]},"request":{"method":"PUT","url":"Practitioner/e04d99d8-2845-4045-9f37-4e0b37c0959c"}},{"fullUrl":"Encounter/8119864a-d71a-474c-9ca9-18a5b5ae4ca3","resource":{"resourceType":"Encounter","id":"8119864a-d71a-474c-9ca9-18a5b5ae4ca3","meta":{"profile":["http://hl7.org/fhir/us/qicore/StructureDefinition/qicore-encounter"]},"status":"finished","class":{"system":"http://terminology.hl7.org/CodeSystem/v3-ActCode","code":"IMP","display":"inpatient encounter"},"type":[{"coding":[{"system":"http://snomed.info/sct","code":"183452005"}]}],"subject":{"reference":"Patient/36c39312-74f4-4e86-9ef8-0c7e191000eb"},"period":{"start":"2026-06-08T08:00:00.000+00:00","end":"2026-06-10T08:15:00.000+00:00"},"length":{"value":2,"unit":"days"},"reasonReference":[{"reference":"Condition/d181a105-9053-4c6d-b1d6-9da55f05e2a2"}]},"request":{"method":"PUT","url":"Encounter/8119864a-d71a-474c-9ca9-18a5b5ae4ca3"}},{"fullUrl":"Observation/65cd232c-2f64-4163-b354-fa875259576e","resource":{"resourceType":"Observation","id":"65cd232c-2f64-4163-b354-fa875259576e","meta":{"profile":["http://hl7.org/fhir/us/qicore/StructureDefinition/qicore-simple-observation"]},"status":"final","category":[{"coding":[{"system":"http://terminology.hl7.org/CodeSystem/observation-category","code":"exam","display":"exam","userSelected":true}]}],"code":{"coding":[{"system":"http://loinc.org","code":"11996-6"}]},"subject":{"reference":"Patient/36c39312-74f4-4e86-9ef8-0c7e191000eb"},"effectiveDateTime":"2026-06-25T18:59:00.000+00:00","valueInteger":1},"request":{"method":"PUT","url":"Observation/65cd232c-2f64-4163-b354-fa875259576e"}},{"fullUrl":"Procedure/840d87aa-ffa8-424a-9b57-dbce4f72c9f1","resource":{"resourceType":"Procedure","id":"840d87aa-ffa8-424a-9b57-dbce4f72c9f1","meta":{"profile":["http://hl7.org/fhir/us/qicore/StructureDefinition/qicore-procedure"]},"extension":[{"url":"http://hl7.org/fhir/us/qicore/StructureDefinition/qicore-recorded","valueDateTime":"2014-04-05T13:35:00.000+00:00"}],"status":"completed","code":{"coding":[{"system":"http://www.cms.gov/Medicare/Coding/ICD10","code":"10D07Z3"}]},"subject":{"reference":"Patient/36c39312-74f4-4e86-9ef8-0c7e191000eb"},"performedPeriod":{"start":"2026-06-08T08:10:00.000+00:00","end":"2026-06-08T09:14:00.000+00:00"}},"request":{"method":"PUT","url":"Procedure/840d87aa-ffa8-424a-9b57-dbce4f72c9f1"}},{"fullUrl":"Observation/7caa1b09-8697-4ea7-933b-5b672af6bab8","resource":{"resourceType":"Observation","id":"7caa1b09-8697-4ea7-933b-5b672af6bab8","meta":{"profile":["http://hl7.org/fhir/us/qicore/StructureDefinition/qicore-simple-observation"]},"status":"final","category":[{"coding":[{"system":"http://terminology.hl7.org/CodeSystem/observation-category","code":"exam","display":"exam","userSelected":true}]}],"code":{"coding":[{"system":"http://loinc.org","code":"11884-4"}]},"subject":{"reference":"Patient/36c39312-74f4-4e86-9ef8-0c7e191000eb"},"effectiveDateTime":"2026-06-08T09:15:00.000+00:00","valueQuantity":{"value":38,"system":"http://unitsofmeasure.org","code":"wk"}},"request":{"method":"PUT","url":"Observation/7caa1b09-8697-4ea7-933b-5b672af6bab8"}},{"fullUrl":"Condition/d181a105-9053-4c6d-b1d6-9da55f05e2a2","resource":{"resourceType":"Condition","id":"d181a105-9053-4c6d-b1d6-9da55f05e2a2","meta":{"profile":["http://hl7.org/fhir/us/qicore/StructureDefinition/qicore-condition-encounter-diagnosis"]},"category":[{"coding":[{"system":"http://terminology.hl7.org/CodeSystem/condition-category","code":"encounter-diagnosis","display":"Encounter Diagnosis"}]}],"code":{"coding":[{"system":"http://snomed.info/sct","code":"169826009","display":"Single live birth (finding)"}]},"subject":{"reference":"Patient/36c39312-74f4-4e86-9ef8-0c7e191000eb"},"encounter":{"reference":"Encounter/8119864a-d71a-474c-9ca9-18a5b5ae4ca3"}},"request":{"method":"PUT","url":"Condition/d181a105-9053-4c6d-b1d6-9da55f05e2a2"}},{"fullUrl":"Bundle/63487c2e0968f8012254016d","resource":{"resourceType":"Bundle","id":"63487c2e0968f8012254016d","type":"transaction","entry":[{"fullUrl":"https://madie.cms.gov/Patient/36c39312-74f4-4e86-9ef8-0c7e191000eb","resource":{"resourceType":"Patient","id":"36c39312-74f4-4e86-9ef8-0c7e191000eb","meta":{"profile":["http://hl7.org/fhir/us/qicore/StructureDefinition/qicore-patient"]},"text":{"status":"generated","div":"<div xmlns=\"http://www.w3.org/1999/xhtml\"><div class=\"hapiHeaderText\">AssessG1RelDateTime42wks1MinB4TimeOfDeliv <b>DENFAIL </b></div><table class=\"hapiPropertyTable\"><tbody><tr><td>Identifier</td><td>0f2eb4e282584341b7686ff02bcd96001425e71741a668fc2710a83bd8038817</td></tr><tr><td>Date of birth</td><td><span>14 February 1985</span></td></tr></tbody></table></div>"},"extension":[{"url":"http://hl7.org/fhir/us/core/StructureDefinition/us-core-race","extension":[{"url":"ombCategory","valueCoding":{"system":"urn:oid:2.16.840.1.113883.6.238","code":"1002-5","display":"American Indian or Alaska Native","userSelected":true}},{"url":"text","valueString":"American Indian or Alaska Native"}]},{"url":"http://hl7.org/fhir/us/core/StructureDefinition/us-core-ethnicity","extension":[{"url":"ombCategory","valueCoding":{"system":"urn:oid:2.16.840.1.113883.6.238","code":"2135-2","display":"Hispanic or Latino","userSelected":true}},{"url":"text","valueString":"Hispanic or Latino"}]}],"identifier":[{"type":{"coding":[{"system":"http://terminology.hl7.org/CodeSystem/v2-0203","code":"MR"}]},"system":"https://bonnie-fhir.healthit.gov/","value":"63487c2e0968f8012254016d"}],"active":true,"name":[{"use":"usual","family":"DENFail","given":["AssessG1RelDateTime42wks1MinB4TimeOfDeliv"]}],"gender":"female","birthDate":"1998-02-14"},"request":{"method":"PUT","url":"Patient/36c39312-74f4-4e86-9ef8-0c7e191000eb"}},{"fullUrl":"https://madie.cms.gov/Observation/65cd232c-2f64-4163-b354-fa875259576e","resource":{"resourceType":"Observation","id":"65cd232c-2f64-4163-b354-fa875259576e","meta":{"profile":["http://hl7.org/fhir/us/qicore/StructureDefinition/qicore-simple-observation"]},"status":"final","category":[{"coding":[{"system":"http://terminology.hl7.org/CodeSystem/observation-category","code":"exam","display":"exam","userSelected":true}]}],"code":{"coding":[{"system":"http://loinc.org","code":"11996-6"}]},"subject":{"reference":"Patient/36c39312-74f4-4e86-9ef8-0c7e191000eb"},"effectiveDateTime":"2026-06-25T18:59:00.000+00:00","valueInteger":1},"request":{"method":"PUT","url":"Observation/65cd232c-2f64-4163-b354-fa875259576e"}},{"fullUrl":"https://madie.cms.gov/Observation/7caa1b09-8697-4ea7-933b-5b672af6bab8","resource":{"resourceType":"Observation","id":"7caa1b09-8697-4ea7-933b-5b672af6bab8","meta":{"profile":["http://hl7.org/fhir/us/qicore/StructureDefinition/qicore-simple-observation"]},"status":"final","category":[{"coding":[{"system":"http://terminology.hl7.org/CodeSystem/observation-category","code":"exam","display":"exam","userSelected":true}]}],"code":{"coding":[{"system":"http://loinc.org","code":"11884-4"}]},"subject":{"reference":"Patient/36c39312-74f4-4e86-9ef8-0c7e191000eb"},"effectiveDateTime":"2026-06-08T09:15:00.000+00:00","valueQuantity":{"value":38,"system":"http://unitsofmeasure.org","code":"wk"}},"request":{"method":"PUT","url":"Observation/7caa1b09-8697-4ea7-933b-5b672af6bab8"}},{"fullUrl":"https://madie.cms.gov/Observation/6acb95d7-c382-4e6a-8681-11cfc05bc8ca","resource":{"resourceType":"Observation","id":"6acb95d7-c382-4e6a-8681-11cfc05bc8ca","meta":{"profile":["http://hl7.org/fhir/us/qicore/StructureDefinition/qicore-simple-observation"]},"status":"final","category":[{"coding":[{"system":"http://terminology.hl7.org/CodeSystem/observation-category","code":"exam","display":"exam","userSelected":true}]}],"code":{"coding":[{"system":"http://loinc.org","code":"93857-1"}]},"subject":{"reference":"Patient/36c39312-74f4-4e86-9ef8-0c7e191000eb"},"effectiveDateTime":"2026-06-08T19:00:00.000+00:00","valueDateTime":"2026-06-08T19:00:00.000+00:00"},"request":{"method":"PUT","url":"Observation/6acb95d7-c382-4e6a-8681-11cfc05bc8ca"}},{"fullUrl":"https://madie.cms.gov/Encounter/8119864a-d71a-474c-9ca9-18a5b5ae4ca3","resource":{"resourceType":"Encounter","id":"8119864a-d71a-474c-9ca9-18a5b5ae4ca3","meta":{"profile":["http://hl7.org/fhir/us/qicore/StructureDefinition/qicore-encounter"]},"status":"finished","class":{"system":"http://terminology.hl7.org/CodeSystem/v3-ActCode","code":"IMP","display":"inpatient encounter"},"type":[{"coding":[{"system":"http://snomed.info/sct","code":"183452005"}]}],"subject":{"reference":"Patient/36c39312-74f4-4e86-9ef8-0c7e191000eb"},"period":{"start":"2026-06-08T08:00:00.000+00:00","end":"2026-06-10T08:15:00.000+00:00"},"length":{"value":2,"unit":"days"},"reasonReference":[{"reference":"Condition/d181a105-9053-4c6d-b1d6-9da55f05e2a2"}]},"request":{"method":"PUT","url":"Encounter/8119864a-d71a-474c-9ca9-18a5b5ae4ca3"}},{"fullUrl":"https://madie.cms.gov/Procedure/840d87aa-ffa8-424a-9b57-dbce4f72c9f1","resource":{"resourceType":"Procedure","id":"840d87aa-ffa8-424a-9b57-dbce4f72c9f1","meta":{"profile":["http://hl7.org/fhir/us/qicore/StructureDefinition/qicore-procedure"]},"extension":[{"url":"http://hl7.org/fhir/us/qicore/StructureDefinition/qicore-recorded","valueDateTime":"2014-04-05T13:35:00.000+00:00"}],"status":"completed","code":{"coding":[{"system":"http://www.cms.gov/Medicare/Coding/ICD10","code":"10D07Z3"}]},"subject":{"reference":"Patient/36c39312-74f4-4e86-9ef8-0c7e191000eb"},"performedPeriod":{"start":"2026-06-08T08:10:00.000+00:00","end":"2026-06-08T09:14:00.000+00:00"}},"request":{"method":"PUT","url":"Procedure/840d87aa-ffa8-424a-9b57-dbce4f72c9f1"}},{"fullUrl":"https://madie.cms.gov/Coverage/5971658b-2a3c-4b7c-9d6a-9c581eee1114","resource":{"resourceType":"Coverage","id":"5971658b-2a3c-4b7c-9d6a-9c581eee1114","meta":{"profile":["http://hl7.org/fhir/us/qicore/StructureDefinition/qicore-coverage"]},"status":"active","subscriberId":"523435","beneficiary":{"reference":"Patient/36c39312-74f4-4e86-9ef8-0c7e191000eb"},"relationship":{"coding":[{"system":"http://terminology.hl7.org/CodeSystem/subscriber-relationship","code":"self"}]},"payor":[{"reference":"Organization/d8c07919-79e6-4a3f-852c-35405e54374e"}]},"request":{"method":"PUT","url":"Coverage/5971658b-2a3c-4b7c-9d6a-9c581eee1114"}},{"fullUrl":"https://madie.cms.gov/Organization/d8c07919-79e6-4a3f-852c-35405e54374e","resource":{"resourceType":"Organization","id":"d8c07919-79e6-4a3f-852c-35405e54374e","meta":{"profile":["http://hl7.org/fhir/us/qicore/StructureDefinition/qicore-organization"]},"identifier":[{"use":"temp","system":"urn:oid:2.16.840.1.113883.4.4","value":"21-3259825"}],"active":true,"type":[{"coding":[{"system":"http://terminology.hl7.org/CodeSystem/organization-type","code":"pay","display":"Payer"}]}],"name":"Blue Cross Blue Shield of Texas","telecom":[{"system":"phone","value":"(+1) 972-766-6900"}],"address":[{"use":"billing","type":"postal","line":["P.O. Box 660044"],"city":"Dallas","state":"TX","postalCode":"75266-0044","country":"USA"}]},"request":{"method":"PUT","url":"Organization/d8c07919-79e6-4a3f-852c-35405e54374e"}},{"fullUrl":"https://madie.cms.gov/Condition/d181a105-9053-4c6d-b1d6-9da55f05e2a2","resource":{"resourceType":"Condition","id":"d181a105-9053-4c6d-b1d6-9da55f05e2a2","meta":{"profile":["http://hl7.org/fhir/us/qicore/StructureDefinition/qicore-condition-encounter-diagnosis"]},"category":[{"coding":[{"system":"http://terminology.hl7.org/CodeSystem/condition-category","code":"encounter-diagnosis","display":"Encounter Diagnosis"}]}],"code":{"coding":[{"system":"http://snomed.info/sct","code":"169826009","display":"Single live birth (finding)"}]},"subject":{"reference":"Patient/36c39312-74f4-4e86-9ef8-0c7e191000eb"},"encounter":{"reference":"Encounter/8119864a-d71a-474c-9ca9-18a5b5ae4ca3"}},"request":{"method":"PUT","url":"Condition/d181a105-9053-4c6d-b1d6-9da55f05e2a2"}},{"fullUrl":"https://madie.cms.gov/Practitioner/e04d99d8-2845-4045-9f37-4e0b37c0959c","resource":{"resourceType":"Practitioner","id":"e04d99d8-2845-4045-9f37-4e0b37c0959c","meta":{"profile":["http://hl7.org/fhir/us/qicore/StructureDefinition/qicore-practitioner"]},"identifier":[{"system":"http://hl7.org/fhir/sid/us-npi","value":"1234567890"}],"name":[{"family":"Evil","prefix":["Dr"]}]},"request":{"method":"PUT","url":"Practitioner/e04d99d8-2845-4045-9f37-4e0b37c0959c"}},{"fullUrl":"https://madie.cms.gov/MeasureReport/6e9f60d4-bbe8-4357-8afb-61c968c3faa4","resource":{"resourceType":"MeasureReport","id":"6e9f60d4-bbe8-4357-8afb-61c968c3faa4","meta":{"profile":["http://hl7.org/fhir/us/cqfmeasures/StructureDefinition/test-case-cqfm"]},"contained":[{"resourceType":"Parameters","id":"5e9fa1f8-7fc4-42ba-8f87-89ea808c2f48-parameters","parameter":[{"name":"subject","valueString":"36c39312-74f4-4e86-9ef8-0c7e191000eb"}]}],"extension":[{"url":"http://hl7.org/fhir/StructureDefinition/cqf-inputParameters","valueReference":{"reference":"#5e9fa1f8-7fc4-42ba-8f87-89ea808c2f48-parameters"}},{"url":"http://hl7.org/fhir/us/cqfmeasures/StructureDefinition/cqfm-testCaseDescription","valueMarkdown":"Tests that Assess Gravida Rel  Date/Time is no more than 42 weeks before the Time of Delivery  Date/Time.  This case is 42 weeks and 1 min.\n"}],"modifierExtension":[{"url":"http://hl7.org/fhir/us/cqfmeasures/StructureDefinition/cqfm-isTestCase","valueBoolean":true}],"status":"complete","type":"individual","measure":"https://madie.cms.gov/Measure/CMS0334FHIRPCCesareanBirth","period":{"start":"2026-01-01","end":"2026-12-31"},"group":[{"id":"Group_1","population":[{"id":"InitialPopulation_1","code":{"coding":[{"system":"http://terminology.hl7.org/CodeSystem/measure-population","code":"initial-population","display":"Initial Population"}]},"count":1},{"id":"Denominator_1","code":{"coding":[{"system":"http://terminology.hl7.org/CodeSystem/measure-population","code":"denominator","display":"Denominator"}]},"count":0},{"id":"DenominatorExclusion_1","code":{"coding":[{"system":"http://terminology.hl7.org/CodeSystem/measure-population","code":"denominator-exclusion","display":"Denominator Exclusion"}]},"count":0},{"id":"Numerator_1","code":{"coding":[{"system":"http://terminology.hl7.org/CodeSystem/measure-population","code":"numerator","display":"Numerator"}]},"count":0}],"measureScore":{"value":0.0}}],"evaluatedResource":[{"reference":"Patient/36c39312-74f4-4e86-9ef8-0c7e191000eb"},{"reference":"Observation/65cd232c-2f64-4163-b354-fa875259576e"},{"reference":"Observation/7caa1b09-8697-4ea7-933b-5b672af6bab8"},{"reference":"Observation/6acb95d7-c382-4e6a-8681-11cfc05bc8ca"},{"reference":"Encounter/8119864a-d71a-474c-9ca9-18a5b5ae4ca3"},{"reference":"Procedure/840d87aa-ffa8-424a-9b57-dbce4f72c9f1"},{"reference":"Coverage/5971658b-2a3c-4b7c-9d6a-9c581eee1114"},{"reference":"Organization/d8c07919-79e6-4a3f-852c-35405e54374e"},{"reference":"Condition/d181a105-9053-4c6d-b1d6-9da55f05e2a2"},{"reference":"Practitioner/e04d99d8-2845-4045-9f37-4e0b37c0959c"}]},"request":{"method":"PUT","url":"MeasureReport/6e9f60d4-bbe8-4357-8afb-61c968c3faa4"}}]},"request":{"method":"PUT","url":"Bundle/63487c2e0968f8012254016d"}}]}