{"resourceType":"Bundle","id":"tests-d819c502-0f8e-43a3-a9c3-639c8cc24a49-bundle","type":"transaction","entry":[{"fullUrl":"Observation/b8c0d581-4fd9-457f-ba39-e4831f567c69","resource":{"resourceType":"Observation","id":"b8c0d581-4fd9-457f-ba39-e4831f567c69","meta":{"profile":["http://hl7.org/fhir/us/qicore/StructureDefinition/qicore-simple-observation"]},"status":"final","category":[{"coding":[{"system":"http://terminology.hl7.org/CodeSystem/observation-category","code":"exam","display":"exam","userSelected":true}]}],"code":{"coding":[{"system":"http://loinc.org","code":"11637-6"}]},"subject":{"reference":"Patient/d819c502-0f8e-43a3-a9c3-639c8cc24a49"},"effectiveDateTime":"2025-08-19T21:15:00.000+00:00","performer":[{"reference":"Organization/example1","display":"Hendricks Country Hospital"}],"valueInteger":0},"request":{"method":"PUT","url":"Observation/b8c0d581-4fd9-457f-ba39-e4831f567c69"}},{"fullUrl":"Organization/3721ab70-1f68-45e9-ab74-91c8c70e2c1a","resource":{"resourceType":"Organization","id":"3721ab70-1f68-45e9-ab74-91c8c70e2c1a","meta":{"profile":["http://hl7.org/fhir/us/qicore/StructureDefinition/qicore-organization"]},"identifier":[{"use":"temp","system":"urn:oid:2.16.840.1.113883.4.4","value":"21-3259825"}],"active":true,"type":[{"coding":[{"system":"http://terminology.hl7.org/CodeSystem/organization-type","code":"pay","display":"Payer"}]}],"name":"Blue Cross Blue Shield of Texas","telecom":[{"system":"phone","value":"(+1) 972-766-6900"}],"address":[{"use":"billing","type":"postal","line":["P.O. Box 660044"],"city":"Dallas","state":"TX","postalCode":"75266-0044","country":"USA"}]},"request":{"method":"PUT","url":"Organization/3721ab70-1f68-45e9-ab74-91c8c70e2c1a"}},{"fullUrl":"Observation/dc3c65d3-7e19-42e1-be4b-ce0487461656","resource":{"resourceType":"Observation","id":"dc3c65d3-7e19-42e1-be4b-ce0487461656","meta":{"profile":["http://hl7.org/fhir/us/qicore/StructureDefinition/qicore-simple-observation"]},"status":"final","category":[{"coding":[{"system":"http://terminology.hl7.org/CodeSystem/observation-category","code":"exam","display":"exam","userSelected":true}]}],"code":{"coding":[{"system":"http://loinc.org","code":"11639-2"}]},"subject":{"reference":"Patient/d819c502-0f8e-43a3-a9c3-639c8cc24a49"},"effectiveDateTime":"2025-08-19T21:15:00.000+00:00","performer":[{"reference":"Organization/example1","display":"Hendricks Country Hospital"}],"valueInteger":0},"request":{"method":"PUT","url":"Observation/dc3c65d3-7e19-42e1-be4b-ce0487461656"}},{"fullUrl":"Encounter/60ab883f-cc9a-4ed4-ac83-5e90d9822406","resource":{"resourceType":"Encounter","id":"60ab883f-cc9a-4ed4-ac83-5e90d9822406","meta":{"profile":["http://hl7.org/fhir/us/qicore/StructureDefinition/qicore-encounter"]},"status":"finished","class":{"system":"http://terminology.hl7.org/CodeSystem/v3-ActCode","code":"IMP","display":"inpatient encounter"},"type":[{"coding":[{"system":"http://snomed.info/sct","code":"8715000"}]}],"subject":{"reference":"Patient/d819c502-0f8e-43a3-a9c3-639c8cc24a49"},"period":{"start":"2026-06-08T08:00:00.000+00:00","end":"2026-06-10T08:15:00.000+00:00"},"length":{"value":2,"unit":"days"},"reasonCode":[{"coding":[{"system":"http://snomed.info/sct","code":"169826009","display":"Single live birth from singleton pregnancy (finding)"}]}]},"request":{"method":"PUT","url":"Encounter/60ab883f-cc9a-4ed4-ac83-5e90d9822406"}},{"fullUrl":"Observation/cb566ae5-2b8e-4e9e-b577-69b9d2a965c0","resource":{"resourceType":"Observation","id":"cb566ae5-2b8e-4e9e-b577-69b9d2a965c0","meta":{"profile":["http://hl7.org/fhir/us/qicore/StructureDefinition/qicore-simple-observation"]},"status":"final","category":[{"coding":[{"system":"http://terminology.hl7.org/CodeSystem/observation-category","code":"exam","display":"exam","userSelected":true}]}],"code":{"coding":[{"system":"http://loinc.org","code":"11637-6"}]},"subject":{"reference":"Patient/d819c502-0f8e-43a3-a9c3-639c8cc24a49"},"effectiveDateTime":"2025-08-19T21:14:00.000+00:00","performer":[{"reference":"Organization/example1","display":"Hendricks Country Hospital"}],"valueInteger":1},"request":{"method":"PUT","url":"Observation/cb566ae5-2b8e-4e9e-b577-69b9d2a965c0"}},{"fullUrl":"Condition/69a9683f-1331-4755-b1b6-496efd37a747","resource":{"resourceType":"Condition","id":"69a9683f-1331-4755-b1b6-496efd37a747","meta":{"profile":["http://hl7.org/fhir/us/qicore/StructureDefinition/qicore-condition"]},"category":[{"coding":[{"system":"http://terminology.hl7.org/CodeSystem/condition-category","code":"encounter-diagnosis","display":"Encounter Diagnosis"}]}],"code":{"coding":[{"system":"http://snomed.info/sct","version":"2022-09","code":"169826009","display":"Single live birth (finding)","userSelected":true}]},"subject":{"reference":"Patient/d819c502-0f8e-43a3-a9c3-639c8cc24a49"},"recordedDate":"2026-10-20T08:00:00.000+00:00"},"request":{"method":"PUT","url":"Condition/69a9683f-1331-4755-b1b6-496efd37a747"}},{"fullUrl":"Bundle/63487c2d0968f80122540165","resource":{"resourceType":"Bundle","id":"63487c2d0968f80122540165","type":"transaction","entry":[{"fullUrl":"https://madie.cms.gov/Patient/d819c502-0f8e-43a3-a9c3-639c8cc24a49","resource":{"resourceType":"Patient","id":"d819c502-0f8e-43a3-a9c3-639c8cc24a49","meta":{"profile":["http://hl7.org/fhir/us/qicore/StructureDefinition/qicore-patient"]},"text":{"status":"generated","div":"<div xmlns=\"http://www.w3.org/1999/xhtml\"><div class=\"hapiHeaderText\">2AssessPreTerm<b>DENOMPass</b></div><table class=\"hapiPropertyTable\"><tbody><tr><td>Identifier</td><td>64127fc9d7fd126eace3c4b20a012fe3796c9abd90c573be4c372bf5eb0ed0f9</td></tr><tr><td>Date of birth</td><td><span>14 February 1985</span></td></tr></tbody></table></div>"},"extension":[{"url":"http://hl7.org/fhir/us/core/StructureDefinition/us-core-race","extension":[{"url":"ombCategory","valueCoding":{"system":"urn:oid:2.16.840.1.113883.6.238","code":"1002-5","display":"American Indian or Alaska Native","userSelected":true}},{"url":"text","valueString":"American Indian or Alaska Native"}]},{"url":"http://hl7.org/fhir/us/core/StructureDefinition/us-core-ethnicity","extension":[{"url":"ombCategory","valueCoding":{"system":"urn:oid:2.16.840.1.113883.6.238","code":"2135-2","display":"Hispanic or Latino","userSelected":true}},{"url":"text","valueString":"Hispanic or Latino"}]}],"identifier":[{"type":{"coding":[{"system":"http://terminology.hl7.org/CodeSystem/v2-0203","code":"MR"}]},"system":"https://bonnie-fhir.healthit.gov/","value":"63487c2d0968f80122540165"}],"active":true,"name":[{"use":"usual","family":"DENOMPass","given":["2AssessPreTerm"]}],"gender":"female","birthDate":"1998-02-14"},"request":{"method":"PUT","url":"Patient/d819c502-0f8e-43a3-a9c3-639c8cc24a49"}},{"fullUrl":"https://madie.cms.gov/Observation/dc3c65d3-7e19-42e1-be4b-ce0487461656","resource":{"resourceType":"Observation","id":"dc3c65d3-7e19-42e1-be4b-ce0487461656","meta":{"profile":["http://hl7.org/fhir/us/qicore/StructureDefinition/qicore-simple-observation"]},"status":"final","category":[{"coding":[{"system":"http://terminology.hl7.org/CodeSystem/observation-category","code":"exam","display":"exam","userSelected":true}]}],"code":{"coding":[{"system":"http://loinc.org","code":"11639-2"}]},"subject":{"reference":"Patient/d819c502-0f8e-43a3-a9c3-639c8cc24a49"},"effectiveDateTime":"2025-08-19T21:15:00.000+00:00","performer":[{"reference":"Organization/example1","display":"Hendricks Country Hospital"}],"valueInteger":0},"request":{"method":"PUT","url":"Observation/dc3c65d3-7e19-42e1-be4b-ce0487461656"}},{"fullUrl":"https://madie.cms.gov/Observation/b8c0d581-4fd9-457f-ba39-e4831f567c69","resource":{"resourceType":"Observation","id":"b8c0d581-4fd9-457f-ba39-e4831f567c69","meta":{"profile":["http://hl7.org/fhir/us/qicore/StructureDefinition/qicore-simple-observation"]},"status":"final","category":[{"coding":[{"system":"http://terminology.hl7.org/CodeSystem/observation-category","code":"exam","display":"exam","userSelected":true}]}],"code":{"coding":[{"system":"http://loinc.org","code":"11637-6"}]},"subject":{"reference":"Patient/d819c502-0f8e-43a3-a9c3-639c8cc24a49"},"effectiveDateTime":"2025-08-19T21:15:00.000+00:00","performer":[{"reference":"Organization/example1","display":"Hendricks Country Hospital"}],"valueInteger":0},"request":{"method":"PUT","url":"Observation/b8c0d581-4fd9-457f-ba39-e4831f567c69"}},{"fullUrl":"https://madie.cms.gov/Observation/cb566ae5-2b8e-4e9e-b577-69b9d2a965c0","resource":{"resourceType":"Observation","id":"cb566ae5-2b8e-4e9e-b577-69b9d2a965c0","meta":{"profile":["http://hl7.org/fhir/us/qicore/StructureDefinition/qicore-simple-observation"]},"status":"final","category":[{"coding":[{"system":"http://terminology.hl7.org/CodeSystem/observation-category","code":"exam","display":"exam","userSelected":true}]}],"code":{"coding":[{"system":"http://loinc.org","code":"11637-6"}]},"subject":{"reference":"Patient/d819c502-0f8e-43a3-a9c3-639c8cc24a49"},"effectiveDateTime":"2025-08-19T21:14:00.000+00:00","performer":[{"reference":"Organization/example1","display":"Hendricks Country Hospital"}],"valueInteger":1},"request":{"method":"PUT","url":"Observation/cb566ae5-2b8e-4e9e-b577-69b9d2a965c0"}},{"fullUrl":"https://madie.cms.gov/Observation/4c0e253d-602f-4780-b37e-22fab45f319b","resource":{"resourceType":"Observation","id":"4c0e253d-602f-4780-b37e-22fab45f319b","meta":{"profile":["http://hl7.org/fhir/us/qicore/StructureDefinition/qicore-simple-observation"]},"status":"final","category":[{"coding":[{"system":"http://terminology.hl7.org/CodeSystem/observation-category","code":"exam","display":"exam","userSelected":true}]}],"code":{"coding":[{"system":"http://loinc.org","code":"11884-4"}]},"subject":{"reference":"Patient/d819c502-0f8e-43a3-a9c3-639c8cc24a49"},"effectiveDateTime":"2026-06-08T21:15:00.000+00:00","performer":[{"reference":"Organization/example1","display":"Hendricks Country Hospital"}],"valueQuantity":{"value":37,"system":"http://unitsofmeasure.org","code":"wk"}},"request":{"method":"PUT","url":"Observation/4c0e253d-602f-4780-b37e-22fab45f319b"}},{"fullUrl":"https://madie.cms.gov/Observation/b2be7ca9-682e-4529-b623-481d4758f5db","resource":{"resourceType":"Observation","id":"b2be7ca9-682e-4529-b623-481d4758f5db","meta":{"profile":["http://hl7.org/fhir/us/qicore/StructureDefinition/qicore-simple-observation"]},"status":"final","category":[{"coding":[{"system":"http://terminology.hl7.org/CodeSystem/observation-category","code":"exam","display":"exam","userSelected":true}]}],"code":{"coding":[{"system":"http://loinc.org","code":"93857-1"}]},"subject":{"reference":"Patient/d819c502-0f8e-43a3-a9c3-639c8cc24a49"},"effectiveDateTime":"2026-06-08T21:15:00.000+00:00","performer":[{"reference":"Organization/example1","display":"Hendricks Country Hospital"}],"valueDateTime":"2026-06-08T21:15:00.000+00:00"},"request":{"method":"PUT","url":"Observation/b2be7ca9-682e-4529-b623-481d4758f5db"}},{"fullUrl":"https://madie.cms.gov/Encounter/60ab883f-cc9a-4ed4-ac83-5e90d9822406","resource":{"resourceType":"Encounter","id":"60ab883f-cc9a-4ed4-ac83-5e90d9822406","meta":{"profile":["http://hl7.org/fhir/us/qicore/StructureDefinition/qicore-encounter"]},"status":"finished","class":{"system":"http://terminology.hl7.org/CodeSystem/v3-ActCode","code":"IMP","display":"inpatient encounter"},"type":[{"coding":[{"system":"http://snomed.info/sct","code":"8715000"}]}],"subject":{"reference":"Patient/d819c502-0f8e-43a3-a9c3-639c8cc24a49"},"period":{"start":"2026-06-08T08:00:00.000+00:00","end":"2026-06-10T08:15:00.000+00:00"},"length":{"value":2,"unit":"days"},"reasonCode":[{"coding":[{"system":"http://snomed.info/sct","code":"169826009","display":"Single live birth from singleton pregnancy (finding)"}]}]},"request":{"method":"PUT","url":"Encounter/60ab883f-cc9a-4ed4-ac83-5e90d9822406"}},{"fullUrl":"https://madie.cms.gov/Procedure/eb412987-a4d7-4d27-ab63-0a0b1cda2681","resource":{"resourceType":"Procedure","id":"eb412987-a4d7-4d27-ab63-0a0b1cda2681","meta":{"profile":["http://hl7.org/fhir/us/qicore/StructureDefinition/qicore-procedure"]},"extension":[{"url":"http://hl7.org/fhir/us/qicore/StructureDefinition/qicore-recorded","valueDateTime":"2014-04-05T13:35:00.000+00:00"}],"status":"completed","code":{"coding":[{"system":"http://www.cms.gov/Medicare/Coding/ICD10","code":"10D00Z0"}]},"subject":{"reference":"Patient/d819c502-0f8e-43a3-a9c3-639c8cc24a49"},"performedPeriod":{"start":"2026-06-08T20:00:00.000+00:00","end":"2026-06-08T21:15:00.000+00:00"}},"request":{"method":"PUT","url":"Procedure/eb412987-a4d7-4d27-ab63-0a0b1cda2681"}},{"fullUrl":"https://madie.cms.gov/Condition/69a9683f-1331-4755-b1b6-496efd37a747","resource":{"resourceType":"Condition","id":"69a9683f-1331-4755-b1b6-496efd37a747","meta":{"profile":["http://hl7.org/fhir/us/qicore/StructureDefinition/qicore-condition"]},"category":[{"coding":[{"system":"http://terminology.hl7.org/CodeSystem/condition-category","code":"encounter-diagnosis","display":"Encounter Diagnosis"}]}],"code":{"coding":[{"system":"http://snomed.info/sct","version":"2022-09","code":"169826009","display":"Single live birth (finding)","userSelected":true}]},"subject":{"reference":"Patient/d819c502-0f8e-43a3-a9c3-639c8cc24a49"},"recordedDate":"2026-10-20T08:00:00.000+00:00"},"request":{"method":"PUT","url":"Condition/69a9683f-1331-4755-b1b6-496efd37a747"}},{"fullUrl":"https://madie.cms.gov/Coverage/cafe7da7-8815-4539-87d9-5f01849dac64","resource":{"resourceType":"Coverage","id":"cafe7da7-8815-4539-87d9-5f01849dac64","meta":{"profile":["http://hl7.org/fhir/us/qicore/StructureDefinition/qicore-coverage"]},"status":"active","subscriberId":"523435","beneficiary":{"reference":"Patient/d819c502-0f8e-43a3-a9c3-639c8cc24a49"},"relationship":{"coding":[{"system":"http://terminology.hl7.org/CodeSystem/subscriber-relationship","code":"self"}]},"payor":[{"reference":"Organization/3721ab70-1f68-45e9-ab74-91c8c70e2c1a"}]},"request":{"method":"PUT","url":"Coverage/cafe7da7-8815-4539-87d9-5f01849dac64"}},{"fullUrl":"https://madie.cms.gov/Organization/3721ab70-1f68-45e9-ab74-91c8c70e2c1a","resource":{"resourceType":"Organization","id":"3721ab70-1f68-45e9-ab74-91c8c70e2c1a","meta":{"profile":["http://hl7.org/fhir/us/qicore/StructureDefinition/qicore-organization"]},"identifier":[{"use":"temp","system":"urn:oid:2.16.840.1.113883.4.4","value":"21-3259825"}],"active":true,"type":[{"coding":[{"system":"http://terminology.hl7.org/CodeSystem/organization-type","code":"pay","display":"Payer"}]}],"name":"Blue Cross Blue Shield of Texas","telecom":[{"system":"phone","value":"(+1) 972-766-6900"}],"address":[{"use":"billing","type":"postal","line":["P.O. Box 660044"],"city":"Dallas","state":"TX","postalCode":"75266-0044","country":"USA"}]},"request":{"method":"PUT","url":"Organization/3721ab70-1f68-45e9-ab74-91c8c70e2c1a"}},{"fullUrl":"https://madie.cms.gov/Practitioner/551289d3-0ed2-48f3-96d5-b4e5705099bb","resource":{"resourceType":"Practitioner","id":"551289d3-0ed2-48f3-96d5-b4e5705099bb","meta":{"profile":["http://hl7.org/fhir/us/qicore/StructureDefinition/qicore-practitioner"]},"identifier":[{"system":"http://hl7.org/fhir/sid/us-npi","value":"1234567890"}],"name":[{"family":"Evil","prefix":["Dr"]}]},"request":{"method":"PUT","url":"Practitioner/551289d3-0ed2-48f3-96d5-b4e5705099bb"}},{"fullUrl":"https://madie.cms.gov/MeasureReport/a650bdf6-390c-4adc-9b1a-450e72b51dd0","resource":{"resourceType":"MeasureReport","id":"a650bdf6-390c-4adc-9b1a-450e72b51dd0","meta":{"profile":["http://hl7.org/fhir/us/cqfmeasures/StructureDefinition/test-case-cqfm"]},"contained":[{"resourceType":"Parameters","id":"dcd6a619-fbd8-4fc0-82bd-dfa09b86e4cb-parameters","parameter":[{"name":"subject","valueString":"d819c502-0f8e-43a3-a9c3-639c8cc24a49"}]}],"extension":[{"url":"http://hl7.org/fhir/StructureDefinition/cqf-inputParameters","valueReference":{"reference":"#dcd6a619-fbd8-4fc0-82bd-dfa09b86e4cb-parameters"}},{"url":"http://hl7.org/fhir/us/cqfmeasures/StructureDefinition/cqfm-testCaseDescription","valueMarkdown":"2 assessments of PreTermBirths.  One relevant start time is 42 weeks before delivery, other is 42 weeks and 1 minute.  Denom is met as LAST is applied and the one meets.."}],"modifierExtension":[{"url":"http://hl7.org/fhir/us/cqfmeasures/StructureDefinition/cqfm-isTestCase","valueBoolean":true}],"status":"complete","type":"individual","measure":"https://madie.cms.gov/Measure/CMS0334FHIRPCCesareanBirth","period":{"start":"2026-01-01","end":"2026-12-31"},"group":[{"id":"Group_1","population":[{"id":"InitialPopulation_1","code":{"coding":[{"system":"http://terminology.hl7.org/CodeSystem/measure-population","code":"initial-population","display":"Initial Population"}]},"count":1},{"id":"Denominator_1","code":{"coding":[{"system":"http://terminology.hl7.org/CodeSystem/measure-population","code":"denominator","display":"Denominator"}]},"count":1},{"id":"DenominatorExclusion_1","code":{"coding":[{"system":"http://terminology.hl7.org/CodeSystem/measure-population","code":"denominator-exclusion","display":"Denominator Exclusion"}]},"count":0},{"id":"Numerator_1","code":{"coding":[{"system":"http://terminology.hl7.org/CodeSystem/measure-population","code":"numerator","display":"Numerator"}]},"count":1}],"measureScore":{"value":0.0}}],"evaluatedResource":[{"reference":"Patient/d819c502-0f8e-43a3-a9c3-639c8cc24a49"},{"reference":"Observation/dc3c65d3-7e19-42e1-be4b-ce0487461656"},{"reference":"Observation/b8c0d581-4fd9-457f-ba39-e4831f567c69"},{"reference":"Observation/cb566ae5-2b8e-4e9e-b577-69b9d2a965c0"},{"reference":"Observation/4c0e253d-602f-4780-b37e-22fab45f319b"},{"reference":"Observation/b2be7ca9-682e-4529-b623-481d4758f5db"},{"reference":"Encounter/60ab883f-cc9a-4ed4-ac83-5e90d9822406"},{"reference":"Procedure/eb412987-a4d7-4d27-ab63-0a0b1cda2681"},{"reference":"Condition/69a9683f-1331-4755-b1b6-496efd37a747"},{"reference":"Coverage/cafe7da7-8815-4539-87d9-5f01849dac64"},{"reference":"Organization/3721ab70-1f68-45e9-ab74-91c8c70e2c1a"},{"reference":"Practitioner/551289d3-0ed2-48f3-96d5-b4e5705099bb"}]},"request":{"method":"PUT","url":"MeasureReport/a650bdf6-390c-4adc-9b1a-450e72b51dd0"}}]},"request":{"method":"PUT","url":"Bundle/63487c2d0968f80122540165"}},{"fullUrl":"Coverage/cafe7da7-8815-4539-87d9-5f01849dac64","resource":{"resourceType":"Coverage","id":"cafe7da7-8815-4539-87d9-5f01849dac64","meta":{"profile":["http://hl7.org/fhir/us/qicore/StructureDefinition/qicore-coverage"]},"status":"active","subscriberId":"523435","beneficiary":{"reference":"Patient/d819c502-0f8e-43a3-a9c3-639c8cc24a49"},"relationship":{"coding":[{"system":"http://terminology.hl7.org/CodeSystem/subscriber-relationship","code":"self"}]},"payor":[{"reference":"Organization/3721ab70-1f68-45e9-ab74-91c8c70e2c1a"}]},"request":{"method":"PUT","url":"Coverage/cafe7da7-8815-4539-87d9-5f01849dac64"}},{"fullUrl":"Practitioner/551289d3-0ed2-48f3-96d5-b4e5705099bb","resource":{"resourceType":"Practitioner","id":"551289d3-0ed2-48f3-96d5-b4e5705099bb","meta":{"profile":["http://hl7.org/fhir/us/qicore/StructureDefinition/qicore-practitioner"]},"identifier":[{"system":"http://hl7.org/fhir/sid/us-npi","value":"1234567890"}],"name":[{"family":"Evil","prefix":["Dr"]}]},"request":{"method":"PUT","url":"Practitioner/551289d3-0ed2-48f3-96d5-b4e5705099bb"}},{"fullUrl":"Procedure/eb412987-a4d7-4d27-ab63-0a0b1cda2681","resource":{"resourceType":"Procedure","id":"eb412987-a4d7-4d27-ab63-0a0b1cda2681","meta":{"profile":["http://hl7.org/fhir/us/qicore/StructureDefinition/qicore-procedure"]},"extension":[{"url":"http://hl7.org/fhir/us/qicore/StructureDefinition/qicore-recorded","valueDateTime":"2014-04-05T13:35:00.000+00:00"}],"status":"completed","code":{"coding":[{"system":"http://www.cms.gov/Medicare/Coding/ICD10","code":"10D00Z0"}]},"subject":{"reference":"Patient/d819c502-0f8e-43a3-a9c3-639c8cc24a49"},"performedPeriod":{"start":"2026-06-08T20:00:00.000+00:00","end":"2026-06-08T21:15:00.000+00:00"}},"request":{"method":"PUT","url":"Procedure/eb412987-a4d7-4d27-ab63-0a0b1cda2681"}},{"fullUrl":"MeasureReport/a650bdf6-390c-4adc-9b1a-450e72b51dd0","resource":{"resourceType":"MeasureReport","id":"a650bdf6-390c-4adc-9b1a-450e72b51dd0","meta":{"profile":["http://hl7.org/fhir/us/cqfmeasures/StructureDefinition/test-case-cqfm"]},"contained":[{"resourceType":"Parameters","id":"dcd6a619-fbd8-4fc0-82bd-dfa09b86e4cb-parameters","parameter":[{"name":"subject","valueString":"d819c502-0f8e-43a3-a9c3-639c8cc24a49"}]}],"extension":[{"url":"http://hl7.org/fhir/StructureDefinition/cqf-inputParameters","valueReference":{"reference":"#dcd6a619-fbd8-4fc0-82bd-dfa09b86e4cb-parameters"}},{"url":"http://hl7.org/fhir/us/cqfmeasures/StructureDefinition/cqfm-testCaseDescription","valueMarkdown":"2 assessments of PreTermBirths.  One relevant start time is 42 weeks before delivery, other is 42 weeks and 1 minute.  Denom is met as LAST is applied and the one meets.."}],"modifierExtension":[{"url":"http://hl7.org/fhir/us/cqfmeasures/StructureDefinition/cqfm-isTestCase","valueBoolean":true}],"status":"complete","type":"individual","measure":"https://madie.cms.gov/Measure/CMS0334FHIRPCCesareanBirth","period":{"start":"2026-01-01","end":"2026-12-31"},"group":[{"id":"Group_1","population":[{"id":"InitialPopulation_1","code":{"coding":[{"system":"http://terminology.hl7.org/CodeSystem/measure-population","code":"initial-population","display":"Initial Population"}]},"count":1},{"id":"Denominator_1","code":{"coding":[{"system":"http://terminology.hl7.org/CodeSystem/measure-population","code":"denominator","display":"Denominator"}]},"count":1},{"id":"DenominatorExclusion_1","code":{"coding":[{"system":"http://terminology.hl7.org/CodeSystem/measure-population","code":"denominator-exclusion","display":"Denominator Exclusion"}]},"count":0},{"id":"Numerator_1","code":{"coding":[{"system":"http://terminology.hl7.org/CodeSystem/measure-population","code":"numerator","display":"Numerator"}]},"count":1}],"measureScore":{"value":0.0}}],"evaluatedResource":[{"reference":"Patient/d819c502-0f8e-43a3-a9c3-639c8cc24a49"},{"reference":"Observation/dc3c65d3-7e19-42e1-be4b-ce0487461656"},{"reference":"Observation/b8c0d581-4fd9-457f-ba39-e4831f567c69"},{"reference":"Observation/cb566ae5-2b8e-4e9e-b577-69b9d2a965c0"},{"reference":"Observation/4c0e253d-602f-4780-b37e-22fab45f319b"},{"reference":"Observation/b2be7ca9-682e-4529-b623-481d4758f5db"},{"reference":"Encounter/60ab883f-cc9a-4ed4-ac83-5e90d9822406"},{"reference":"Procedure/eb412987-a4d7-4d27-ab63-0a0b1cda2681"},{"reference":"Condition/69a9683f-1331-4755-b1b6-496efd37a747"},{"reference":"Coverage/cafe7da7-8815-4539-87d9-5f01849dac64"},{"reference":"Organization/3721ab70-1f68-45e9-ab74-91c8c70e2c1a"},{"reference":"Practitioner/551289d3-0ed2-48f3-96d5-b4e5705099bb"}]},"request":{"method":"PUT","url":"MeasureReport/a650bdf6-390c-4adc-9b1a-450e72b51dd0"}},{"fullUrl":"Patient/d819c502-0f8e-43a3-a9c3-639c8cc24a49","resource":{"resourceType":"Patient","id":"d819c502-0f8e-43a3-a9c3-639c8cc24a49","meta":{"profile":["http://hl7.org/fhir/us/qicore/StructureDefinition/qicore-patient"]},"text":{"status":"generated","div":"<div xmlns=\"http://www.w3.org/1999/xhtml\"><div class=\"hapiHeaderText\">2AssessPreTerm<b>DENOMPass</b></div><table class=\"hapiPropertyTable\"><tbody><tr><td>Identifier</td><td>64127fc9d7fd126eace3c4b20a012fe3796c9abd90c573be4c372bf5eb0ed0f9</td></tr><tr><td>Date of birth</td><td><span>14 February 1985</span></td></tr></tbody></table></div>"},"extension":[{"url":"http://hl7.org/fhir/us/core/StructureDefinition/us-core-race","extension":[{"url":"ombCategory","valueCoding":{"system":"urn:oid:2.16.840.1.113883.6.238","code":"1002-5","display":"American Indian or Alaska Native","userSelected":true}},{"url":"text","valueString":"American Indian or Alaska Native"}]},{"url":"http://hl7.org/fhir/us/core/StructureDefinition/us-core-ethnicity","extension":[{"url":"ombCategory","valueCoding":{"system":"urn:oid:2.16.840.1.113883.6.238","code":"2135-2","display":"Hispanic or Latino","userSelected":true}},{"url":"text","valueString":"Hispanic or Latino"}]}],"identifier":[{"type":{"coding":[{"system":"http://terminology.hl7.org/CodeSystem/v2-0203","code":"MR"}]},"system":"https://bonnie-fhir.healthit.gov/","value":"63487c2d0968f80122540165"}],"active":true,"name":[{"use":"usual","family":"DENOMPass","given":["2AssessPreTerm"]}],"gender":"female","birthDate":"1998-02-14"},"request":{"method":"PUT","url":"Patient/d819c502-0f8e-43a3-a9c3-639c8cc24a49"}},{"fullUrl":"Observation/b2be7ca9-682e-4529-b623-481d4758f5db","resource":{"resourceType":"Observation","id":"b2be7ca9-682e-4529-b623-481d4758f5db","meta":{"profile":["http://hl7.org/fhir/us/qicore/StructureDefinition/qicore-simple-observation"]},"status":"final","category":[{"coding":[{"system":"http://terminology.hl7.org/CodeSystem/observation-category","code":"exam","display":"exam","userSelected":true}]}],"code":{"coding":[{"system":"http://loinc.org","code":"93857-1"}]},"subject":{"reference":"Patient/d819c502-0f8e-43a3-a9c3-639c8cc24a49"},"effectiveDateTime":"2026-06-08T21:15:00.000+00:00","performer":[{"reference":"Organization/example1","display":"Hendricks Country Hospital"}],"valueDateTime":"2026-06-08T21:15:00.000+00:00"},"request":{"method":"PUT","url":"Observation/b2be7ca9-682e-4529-b623-481d4758f5db"}},{"fullUrl":"Observation/4c0e253d-602f-4780-b37e-22fab45f319b","resource":{"resourceType":"Observation","id":"4c0e253d-602f-4780-b37e-22fab45f319b","meta":{"profile":["http://hl7.org/fhir/us/qicore/StructureDefinition/qicore-simple-observation"]},"status":"final","category":[{"coding":[{"system":"http://terminology.hl7.org/CodeSystem/observation-category","code":"exam","display":"exam","userSelected":true}]}],"code":{"coding":[{"system":"http://loinc.org","code":"11884-4"}]},"subject":{"reference":"Patient/d819c502-0f8e-43a3-a9c3-639c8cc24a49"},"effectiveDateTime":"2026-06-08T21:15:00.000+00:00","performer":[{"reference":"Organization/example1","display":"Hendricks Country Hospital"}],"valueQuantity":{"value":37,"system":"http://unitsofmeasure.org","code":"wk"}},"request":{"method":"PUT","url":"Observation/4c0e253d-602f-4780-b37e-22fab45f319b"}}]}