{"resourceType":"Bundle","id":"tests-ef3e4256-a321-4ce0-812b-ec7e7158085a-bundle","type":"transaction","entry":[{"fullUrl":"Condition/98505a0c-9406-4643-9251-b332949232df","resource":{"resourceType":"Condition","id":"98505a0c-9406-4643-9251-b332949232df","meta":{"profile":["http://hl7.org/fhir/us/qicore/StructureDefinition/qicore-condition-encounter-diagnosis"]},"category":[{"coding":[{"system":"http://terminology.hl7.org/CodeSystem/condition-category","code":"encounter-diagnosis","display":"Encounter Diagnosis"}]}],"code":{"coding":[{"system":"http://snomed.info/sct","version":"2022-09","code":"18559007","display":"Frank breech presentation (finding)","userSelected":true}]},"subject":{"reference":"Patient/ef3e4256-a321-4ce0-812b-ec7e7158085a"},"encounter":{"reference":"Encounter/a6ed66aa-943a-411d-be2e-a080f65e121a"},"recordedDate":"2026-10-21T08:00:00.000+00:00"},"request":{"method":"PUT","url":"Condition/98505a0c-9406-4643-9251-b332949232df"}},{"fullUrl":"Patient/ef3e4256-a321-4ce0-812b-ec7e7158085a","resource":{"resourceType":"Patient","id":"ef3e4256-a321-4ce0-812b-ec7e7158085a","meta":{"profile":["http://hl7.org/fhir/us/qicore/StructureDefinition/qicore-patient"]},"text":{"status":"generated","div":"<div xmlns=\"http://www.w3.org/1999/xhtml\"><div class=\"hapiHeaderText\">EGAGT37weeks<b>DENEXPASS </b></div><table class=\"hapiPropertyTable\"><tbody><tr><td>Identifier</td><td>3d63596528a6709b3c477184d2beceba721ef15e438ac396acce60f49e6f846c</td></tr><tr><td>Date of birth</td><td><span>14 February 1985</span></td></tr></tbody></table></div>"},"extension":[{"url":"http://hl7.org/fhir/us/core/StructureDefinition/us-core-race","extension":[{"url":"ombCategory","valueCoding":{"system":"urn:oid:2.16.840.1.113883.6.238","code":"1002-5","display":"American Indian or Alaska Native","userSelected":true}},{"url":"text","valueString":"American Indian or Alaska Native"}]},{"url":"http://hl7.org/fhir/us/core/StructureDefinition/us-core-ethnicity","extension":[{"url":"ombCategory","valueCoding":{"system":"urn:oid:2.16.840.1.113883.6.238","code":"2135-2","display":"Hispanic or Latino","userSelected":true}},{"url":"text","valueString":"Hispanic or Latino"}]}],"identifier":[{"type":{"coding":[{"system":"http://terminology.hl7.org/CodeSystem/v2-0203","code":"MR"}]},"system":"https://bonnie-fhir.healthit.gov/","value":"63487c2e0968f8012254016f"}],"active":true,"name":[{"use":"usual","family":"DENEXPass","given":["EGAGT37weeks"]}],"gender":"female","birthDate":"1998-02-14"},"request":{"method":"PUT","url":"Patient/ef3e4256-a321-4ce0-812b-ec7e7158085a"}},{"fullUrl":"Bundle/63487c2e0968f8012254016f","resource":{"resourceType":"Bundle","id":"63487c2e0968f8012254016f","type":"transaction","entry":[{"fullUrl":"https://madie.cms.gov/Patient/ef3e4256-a321-4ce0-812b-ec7e7158085a","resource":{"resourceType":"Patient","id":"ef3e4256-a321-4ce0-812b-ec7e7158085a","meta":{"profile":["http://hl7.org/fhir/us/qicore/StructureDefinition/qicore-patient"]},"text":{"status":"generated","div":"<div xmlns=\"http://www.w3.org/1999/xhtml\"><div class=\"hapiHeaderText\">EGAGT37weeks<b>DENEXPASS </b></div><table class=\"hapiPropertyTable\"><tbody><tr><td>Identifier</td><td>3d63596528a6709b3c477184d2beceba721ef15e438ac396acce60f49e6f846c</td></tr><tr><td>Date of birth</td><td><span>14 February 1985</span></td></tr></tbody></table></div>"},"extension":[{"url":"http://hl7.org/fhir/us/core/StructureDefinition/us-core-race","extension":[{"url":"ombCategory","valueCoding":{"system":"urn:oid:2.16.840.1.113883.6.238","code":"1002-5","display":"American Indian or Alaska Native","userSelected":true}},{"url":"text","valueString":"American Indian or Alaska Native"}]},{"url":"http://hl7.org/fhir/us/core/StructureDefinition/us-core-ethnicity","extension":[{"url":"ombCategory","valueCoding":{"system":"urn:oid:2.16.840.1.113883.6.238","code":"2135-2","display":"Hispanic or Latino","userSelected":true}},{"url":"text","valueString":"Hispanic or Latino"}]}],"identifier":[{"type":{"coding":[{"system":"http://terminology.hl7.org/CodeSystem/v2-0203","code":"MR"}]},"system":"https://bonnie-fhir.healthit.gov/","value":"63487c2e0968f8012254016f"}],"active":true,"name":[{"use":"usual","family":"DENEXPass","given":["EGAGT37weeks"]}],"gender":"female","birthDate":"1998-02-14"},"request":{"method":"PUT","url":"Patient/ef3e4256-a321-4ce0-812b-ec7e7158085a"}},{"fullUrl":"https://madie.cms.gov/Observation/bf5c30c5-cb3a-4baf-8ae9-c7382a054216","resource":{"resourceType":"Observation","id":"bf5c30c5-cb3a-4baf-8ae9-c7382a054216","meta":{"profile":["http://hl7.org/fhir/us/qicore/StructureDefinition/qicore-simple-observation"]},"status":"final","category":[{"coding":[{"system":"http://terminology.hl7.org/CodeSystem/observation-category","code":"exam","display":"exam","userSelected":true}]}],"code":{"coding":[{"system":"http://loinc.org","code":"11996-6"}]},"subject":{"reference":"Patient/ef3e4256-a321-4ce0-812b-ec7e7158085a"},"effectiveDateTime":"2026-06-08T08:00:00.000+00:00","performer":[{"reference":"Organization/example1","display":"Hendricks Country Hospital"}],"valueInteger":1},"request":{"method":"PUT","url":"Observation/bf5c30c5-cb3a-4baf-8ae9-c7382a054216"}},{"fullUrl":"https://madie.cms.gov/Observation/1e899f83-888d-40ef-94a1-6ba8f3af0508","resource":{"resourceType":"Observation","id":"1e899f83-888d-40ef-94a1-6ba8f3af0508","meta":{"profile":["http://hl7.org/fhir/us/qicore/StructureDefinition/qicore-simple-observation"]},"status":"final","category":[{"coding":[{"system":"http://terminology.hl7.org/CodeSystem/observation-category","code":"exam","display":"exam","userSelected":true}]}],"code":{"coding":[{"system":"http://loinc.org","code":"11884-4"}]},"subject":{"reference":"Patient/ef3e4256-a321-4ce0-812b-ec7e7158085a"},"effectiveDateTime":"2026-06-08T09:15:00.000+00:00","performer":[{"reference":"Organization/example1","display":"Hendricks Country Hospital"}],"valueQuantity":{"value":38,"system":"http://unitsofmeasure.org","code":"wk"}},"request":{"method":"PUT","url":"Observation/1e899f83-888d-40ef-94a1-6ba8f3af0508"}},{"fullUrl":"https://madie.cms.gov/Observation/75e00159-98fe-4b79-934a-b509e104a029","resource":{"resourceType":"Observation","id":"75e00159-98fe-4b79-934a-b509e104a029","meta":{"profile":["http://hl7.org/fhir/us/qicore/StructureDefinition/qicore-simple-observation"]},"status":"final","category":[{"coding":[{"system":"http://terminology.hl7.org/CodeSystem/observation-category","code":"exam","display":"exam","userSelected":true}]}],"code":{"coding":[{"system":"http://loinc.org","code":"93857-1"}]},"subject":{"reference":"Patient/ef3e4256-a321-4ce0-812b-ec7e7158085a"},"effectiveDateTime":"2026-06-08T09:15:00.000+00:00","performer":[{"reference":"Organization/example1","display":"Hendricks Country Hospital"}],"valueDateTime":"2026-06-08T09:15:00.000+00:00"},"request":{"method":"PUT","url":"Observation/75e00159-98fe-4b79-934a-b509e104a029"}},{"fullUrl":"https://madie.cms.gov/Encounter/a6ed66aa-943a-411d-be2e-a080f65e121a","resource":{"resourceType":"Encounter","id":"a6ed66aa-943a-411d-be2e-a080f65e121a","meta":{"profile":["http://hl7.org/fhir/us/qicore/StructureDefinition/qicore-encounter"]},"status":"finished","class":{"system":"http://terminology.hl7.org/CodeSystem/v3-ActCode","code":"IMP","display":"inpatient encounter"},"type":[{"coding":[{"system":"http://snomed.info/sct","code":"183452005"}]}],"subject":{"reference":"Patient/ef3e4256-a321-4ce0-812b-ec7e7158085a"},"period":{"start":"2026-06-08T08:00:00.000+00:00","end":"2026-06-10T08:15:00.000+00:00"},"length":{"value":2,"unit":"days"},"reasonCode":[{"coding":[{"system":"http://snomed.info/sct","code":"169826009","display":"Single live birth from singleton pregnancy (finding)"}]}],"reasonReference":[{"reference":"Condition/98505a0c-9406-4643-9251-b332949232df"}]},"request":{"method":"PUT","url":"Encounter/a6ed66aa-943a-411d-be2e-a080f65e121a"}},{"fullUrl":"https://madie.cms.gov/Coverage/8645d5db-9566-4cf1-ba4f-d8fa305a53e3","resource":{"resourceType":"Coverage","id":"8645d5db-9566-4cf1-ba4f-d8fa305a53e3","meta":{"profile":["http://hl7.org/fhir/us/qicore/StructureDefinition/qicore-coverage"]},"status":"active","subscriberId":"523435","beneficiary":{"reference":"Patient/ef3e4256-a321-4ce0-812b-ec7e7158085a"},"relationship":{"coding":[{"system":"http://terminology.hl7.org/CodeSystem/subscriber-relationship","code":"self"}]},"payor":[{"reference":"Organization/d2103b1e-0025-4795-84cb-02aa6e953b4c"}]},"request":{"method":"PUT","url":"Coverage/8645d5db-9566-4cf1-ba4f-d8fa305a53e3"}},{"fullUrl":"https://madie.cms.gov/Procedure/b693f30a-aeb1-4043-b3d3-4274664c6ab7","resource":{"resourceType":"Procedure","id":"b693f30a-aeb1-4043-b3d3-4274664c6ab7","meta":{"profile":["http://hl7.org/fhir/us/qicore/StructureDefinition/qicore-procedure"]},"extension":[{"url":"http://hl7.org/fhir/us/qicore/StructureDefinition/qicore-recorded","valueDateTime":"2014-04-05T13:35:00.000+00:00"}],"status":"completed","code":{"coding":[{"system":"http://www.cms.gov/Medicare/Coding/ICD10","code":"10D00Z0"}]},"subject":{"reference":"Patient/ef3e4256-a321-4ce0-812b-ec7e7158085a"},"performedPeriod":{"start":"2026-06-08T08:00:00.000+00:00","end":"2026-06-08T09:15:00.000+00:00"}},"request":{"method":"PUT","url":"Procedure/b693f30a-aeb1-4043-b3d3-4274664c6ab7"}},{"fullUrl":"https://madie.cms.gov/Condition/98505a0c-9406-4643-9251-b332949232df","resource":{"resourceType":"Condition","id":"98505a0c-9406-4643-9251-b332949232df","meta":{"profile":["http://hl7.org/fhir/us/qicore/StructureDefinition/qicore-condition-encounter-diagnosis"]},"category":[{"coding":[{"system":"http://terminology.hl7.org/CodeSystem/condition-category","code":"encounter-diagnosis","display":"Encounter Diagnosis"}]}],"code":{"coding":[{"system":"http://snomed.info/sct","version":"2022-09","code":"18559007","display":"Frank breech presentation (finding)","userSelected":true}]},"subject":{"reference":"Patient/ef3e4256-a321-4ce0-812b-ec7e7158085a"},"encounter":{"reference":"Encounter/a6ed66aa-943a-411d-be2e-a080f65e121a"},"recordedDate":"2026-10-21T08:00:00.000+00:00"},"request":{"method":"PUT","url":"Condition/98505a0c-9406-4643-9251-b332949232df"}},{"fullUrl":"https://madie.cms.gov/Organization/d2103b1e-0025-4795-84cb-02aa6e953b4c","resource":{"resourceType":"Organization","id":"d2103b1e-0025-4795-84cb-02aa6e953b4c","meta":{"profile":["http://hl7.org/fhir/us/qicore/StructureDefinition/qicore-organization"]},"identifier":[{"use":"temp","system":"urn:oid:2.16.840.1.113883.4.4","value":"21-3259825"}],"active":true,"type":[{"coding":[{"system":"http://terminology.hl7.org/CodeSystem/organization-type","code":"pay","display":"Payer"}]}],"name":"Blue Cross Blue Shield of Texas","telecom":[{"system":"phone","value":"(+1) 972-766-6900"}],"address":[{"use":"billing","type":"postal","line":["P.O. Box 660044"],"city":"Dallas","state":"TX","postalCode":"75266-0044","country":"USA"}]},"request":{"method":"PUT","url":"Organization/d2103b1e-0025-4795-84cb-02aa6e953b4c"}},{"fullUrl":"https://madie.cms.gov/Practitioner/32ebdd2a-b9a1-4b6d-a549-6d91cc312d5d","resource":{"resourceType":"Practitioner","id":"32ebdd2a-b9a1-4b6d-a549-6d91cc312d5d","meta":{"profile":["http://hl7.org/fhir/us/qicore/StructureDefinition/qicore-practitioner"]},"identifier":[{"system":"http://hl7.org/fhir/sid/us-npi","value":"1234567890"}],"name":[{"family":"Evil","prefix":["Dr"]}]},"request":{"method":"PUT","url":"Practitioner/32ebdd2a-b9a1-4b6d-a549-6d91cc312d5d"}},{"fullUrl":"https://madie.cms.gov/MeasureReport/76d7b9f7-8abb-424b-a533-0bfa957907cf","resource":{"resourceType":"MeasureReport","id":"76d7b9f7-8abb-424b-a533-0bfa957907cf","meta":{"profile":["http://hl7.org/fhir/us/cqfmeasures/StructureDefinition/test-case-cqfm"]},"contained":[{"resourceType":"Parameters","id":"4a3c8922-3027-42c2-9d82-201954ef6e88-parameters","parameter":[{"name":"subject","valueString":"ef3e4256-a321-4ce0-812b-ec7e7158085a"}]}],"extension":[{"url":"http://hl7.org/fhir/StructureDefinition/cqf-inputParameters","valueReference":{"reference":"#4a3c8922-3027-42c2-9d82-201954ef6e88-parameters"}},{"url":"http://hl7.org/fhir/us/cqfmeasures/StructureDefinition/cqfm-testCaseDescription","valueMarkdown":"Passes: IP, Pt is 27 years of age, encounter dx of delivery of singleton, gravida1, EGA38 weeks, abnormal presentation: frank breech presentation \n"}],"modifierExtension":[{"url":"http://hl7.org/fhir/us/cqfmeasures/StructureDefinition/cqfm-isTestCase","valueBoolean":true}],"status":"complete","type":"individual","measure":"https://madie.cms.gov/Measure/CMS0334FHIRPCCesareanBirth","period":{"start":"2026-01-01","end":"2026-12-31"},"group":[{"id":"Group_1","population":[{"id":"InitialPopulation_1","code":{"coding":[{"system":"http://terminology.hl7.org/CodeSystem/measure-population","code":"initial-population","display":"Initial Population"}]},"count":1},{"id":"Denominator_1","code":{"coding":[{"system":"http://terminology.hl7.org/CodeSystem/measure-population","code":"denominator","display":"Denominator"}]},"count":1},{"id":"DenominatorExclusion_1","code":{"coding":[{"system":"http://terminology.hl7.org/CodeSystem/measure-population","code":"denominator-exclusion","display":"Denominator Exclusion"}]},"count":1},{"id":"Numerator_1","code":{"coding":[{"system":"http://terminology.hl7.org/CodeSystem/measure-population","code":"numerator","display":"Numerator"}]},"count":0}],"measureScore":{"value":0.0}}],"evaluatedResource":[{"reference":"Patient/ef3e4256-a321-4ce0-812b-ec7e7158085a"},{"reference":"Observation/bf5c30c5-cb3a-4baf-8ae9-c7382a054216"},{"reference":"Observation/1e899f83-888d-40ef-94a1-6ba8f3af0508"},{"reference":"Observation/75e00159-98fe-4b79-934a-b509e104a029"},{"reference":"Encounter/a6ed66aa-943a-411d-be2e-a080f65e121a"},{"reference":"Coverage/8645d5db-9566-4cf1-ba4f-d8fa305a53e3"},{"reference":"Procedure/b693f30a-aeb1-4043-b3d3-4274664c6ab7"},{"reference":"Condition/98505a0c-9406-4643-9251-b332949232df"},{"reference":"Organization/d2103b1e-0025-4795-84cb-02aa6e953b4c"},{"reference":"Practitioner/32ebdd2a-b9a1-4b6d-a549-6d91cc312d5d"}]},"request":{"method":"PUT","url":"MeasureReport/76d7b9f7-8abb-424b-a533-0bfa957907cf"}}]},"request":{"method":"PUT","url":"Bundle/63487c2e0968f8012254016f"}},{"fullUrl":"Organization/d2103b1e-0025-4795-84cb-02aa6e953b4c","resource":{"resourceType":"Organization","id":"d2103b1e-0025-4795-84cb-02aa6e953b4c","meta":{"profile":["http://hl7.org/fhir/us/qicore/StructureDefinition/qicore-organization"]},"identifier":[{"use":"temp","system":"urn:oid:2.16.840.1.113883.4.4","value":"21-3259825"}],"active":true,"type":[{"coding":[{"system":"http://terminology.hl7.org/CodeSystem/organization-type","code":"pay","display":"Payer"}]}],"name":"Blue Cross Blue Shield of Texas","telecom":[{"system":"phone","value":"(+1) 972-766-6900"}],"address":[{"use":"billing","type":"postal","line":["P.O. Box 660044"],"city":"Dallas","state":"TX","postalCode":"75266-0044","country":"USA"}]},"request":{"method":"PUT","url":"Organization/d2103b1e-0025-4795-84cb-02aa6e953b4c"}},{"fullUrl":"Encounter/a6ed66aa-943a-411d-be2e-a080f65e121a","resource":{"resourceType":"Encounter","id":"a6ed66aa-943a-411d-be2e-a080f65e121a","meta":{"profile":["http://hl7.org/fhir/us/qicore/StructureDefinition/qicore-encounter"]},"status":"finished","class":{"system":"http://terminology.hl7.org/CodeSystem/v3-ActCode","code":"IMP","display":"inpatient encounter"},"type":[{"coding":[{"system":"http://snomed.info/sct","code":"183452005"}]}],"subject":{"reference":"Patient/ef3e4256-a321-4ce0-812b-ec7e7158085a"},"period":{"start":"2026-06-08T08:00:00.000+00:00","end":"2026-06-10T08:15:00.000+00:00"},"length":{"value":2,"unit":"days"},"reasonCode":[{"coding":[{"system":"http://snomed.info/sct","code":"169826009","display":"Single live birth from singleton pregnancy (finding)"}]}],"reasonReference":[{"reference":"Condition/98505a0c-9406-4643-9251-b332949232df"}]},"request":{"method":"PUT","url":"Encounter/a6ed66aa-943a-411d-be2e-a080f65e121a"}},{"fullUrl":"Observation/1e899f83-888d-40ef-94a1-6ba8f3af0508","resource":{"resourceType":"Observation","id":"1e899f83-888d-40ef-94a1-6ba8f3af0508","meta":{"profile":["http://hl7.org/fhir/us/qicore/StructureDefinition/qicore-simple-observation"]},"status":"final","category":[{"coding":[{"system":"http://terminology.hl7.org/CodeSystem/observation-category","code":"exam","display":"exam","userSelected":true}]}],"code":{"coding":[{"system":"http://loinc.org","code":"11884-4"}]},"subject":{"reference":"Patient/ef3e4256-a321-4ce0-812b-ec7e7158085a"},"effectiveDateTime":"2026-06-08T09:15:00.000+00:00","performer":[{"reference":"Organization/example1","display":"Hendricks Country Hospital"}],"valueQuantity":{"value":38,"system":"http://unitsofmeasure.org","code":"wk"}},"request":{"method":"PUT","url":"Observation/1e899f83-888d-40ef-94a1-6ba8f3af0508"}},{"fullUrl":"Practitioner/32ebdd2a-b9a1-4b6d-a549-6d91cc312d5d","resource":{"resourceType":"Practitioner","id":"32ebdd2a-b9a1-4b6d-a549-6d91cc312d5d","meta":{"profile":["http://hl7.org/fhir/us/qicore/StructureDefinition/qicore-practitioner"]},"identifier":[{"system":"http://hl7.org/fhir/sid/us-npi","value":"1234567890"}],"name":[{"family":"Evil","prefix":["Dr"]}]},"request":{"method":"PUT","url":"Practitioner/32ebdd2a-b9a1-4b6d-a549-6d91cc312d5d"}},{"fullUrl":"Coverage/8645d5db-9566-4cf1-ba4f-d8fa305a53e3","resource":{"resourceType":"Coverage","id":"8645d5db-9566-4cf1-ba4f-d8fa305a53e3","meta":{"profile":["http://hl7.org/fhir/us/qicore/StructureDefinition/qicore-coverage"]},"status":"active","subscriberId":"523435","beneficiary":{"reference":"Patient/ef3e4256-a321-4ce0-812b-ec7e7158085a"},"relationship":{"coding":[{"system":"http://terminology.hl7.org/CodeSystem/subscriber-relationship","code":"self"}]},"payor":[{"reference":"Organization/d2103b1e-0025-4795-84cb-02aa6e953b4c"}]},"request":{"method":"PUT","url":"Coverage/8645d5db-9566-4cf1-ba4f-d8fa305a53e3"}},{"fullUrl":"Observation/75e00159-98fe-4b79-934a-b509e104a029","resource":{"resourceType":"Observation","id":"75e00159-98fe-4b79-934a-b509e104a029","meta":{"profile":["http://hl7.org/fhir/us/qicore/StructureDefinition/qicore-simple-observation"]},"status":"final","category":[{"coding":[{"system":"http://terminology.hl7.org/CodeSystem/observation-category","code":"exam","display":"exam","userSelected":true}]}],"code":{"coding":[{"system":"http://loinc.org","code":"93857-1"}]},"subject":{"reference":"Patient/ef3e4256-a321-4ce0-812b-ec7e7158085a"},"effectiveDateTime":"2026-06-08T09:15:00.000+00:00","performer":[{"reference":"Organization/example1","display":"Hendricks Country Hospital"}],"valueDateTime":"2026-06-08T09:15:00.000+00:00"},"request":{"method":"PUT","url":"Observation/75e00159-98fe-4b79-934a-b509e104a029"}},{"fullUrl":"Procedure/b693f30a-aeb1-4043-b3d3-4274664c6ab7","resource":{"resourceType":"Procedure","id":"b693f30a-aeb1-4043-b3d3-4274664c6ab7","meta":{"profile":["http://hl7.org/fhir/us/qicore/StructureDefinition/qicore-procedure"]},"extension":[{"url":"http://hl7.org/fhir/us/qicore/StructureDefinition/qicore-recorded","valueDateTime":"2014-04-05T13:35:00.000+00:00"}],"status":"completed","code":{"coding":[{"system":"http://www.cms.gov/Medicare/Coding/ICD10","code":"10D00Z0"}]},"subject":{"reference":"Patient/ef3e4256-a321-4ce0-812b-ec7e7158085a"},"performedPeriod":{"start":"2026-06-08T08:00:00.000+00:00","end":"2026-06-08T09:15:00.000+00:00"}},"request":{"method":"PUT","url":"Procedure/b693f30a-aeb1-4043-b3d3-4274664c6ab7"}},{"fullUrl":"MeasureReport/76d7b9f7-8abb-424b-a533-0bfa957907cf","resource":{"resourceType":"MeasureReport","id":"76d7b9f7-8abb-424b-a533-0bfa957907cf","meta":{"profile":["http://hl7.org/fhir/us/cqfmeasures/StructureDefinition/test-case-cqfm"]},"contained":[{"resourceType":"Parameters","id":"4a3c8922-3027-42c2-9d82-201954ef6e88-parameters","parameter":[{"name":"subject","valueString":"ef3e4256-a321-4ce0-812b-ec7e7158085a"}]}],"extension":[{"url":"http://hl7.org/fhir/StructureDefinition/cqf-inputParameters","valueReference":{"reference":"#4a3c8922-3027-42c2-9d82-201954ef6e88-parameters"}},{"url":"http://hl7.org/fhir/us/cqfmeasures/StructureDefinition/cqfm-testCaseDescription","valueMarkdown":"Passes: IP, Pt is 27 years of age, encounter dx of delivery of singleton, gravida1, EGA38 weeks, abnormal presentation: frank breech presentation \n"}],"modifierExtension":[{"url":"http://hl7.org/fhir/us/cqfmeasures/StructureDefinition/cqfm-isTestCase","valueBoolean":true}],"status":"complete","type":"individual","measure":"https://madie.cms.gov/Measure/CMS0334FHIRPCCesareanBirth","period":{"start":"2026-01-01","end":"2026-12-31"},"group":[{"id":"Group_1","population":[{"id":"InitialPopulation_1","code":{"coding":[{"system":"http://terminology.hl7.org/CodeSystem/measure-population","code":"initial-population","display":"Initial Population"}]},"count":1},{"id":"Denominator_1","code":{"coding":[{"system":"http://terminology.hl7.org/CodeSystem/measure-population","code":"denominator","display":"Denominator"}]},"count":1},{"id":"DenominatorExclusion_1","code":{"coding":[{"system":"http://terminology.hl7.org/CodeSystem/measure-population","code":"denominator-exclusion","display":"Denominator Exclusion"}]},"count":1},{"id":"Numerator_1","code":{"coding":[{"system":"http://terminology.hl7.org/CodeSystem/measure-population","code":"numerator","display":"Numerator"}]},"count":0}],"measureScore":{"value":0.0}}],"evaluatedResource":[{"reference":"Patient/ef3e4256-a321-4ce0-812b-ec7e7158085a"},{"reference":"Observation/bf5c30c5-cb3a-4baf-8ae9-c7382a054216"},{"reference":"Observation/1e899f83-888d-40ef-94a1-6ba8f3af0508"},{"reference":"Observation/75e00159-98fe-4b79-934a-b509e104a029"},{"reference":"Encounter/a6ed66aa-943a-411d-be2e-a080f65e121a"},{"reference":"Coverage/8645d5db-9566-4cf1-ba4f-d8fa305a53e3"},{"reference":"Procedure/b693f30a-aeb1-4043-b3d3-4274664c6ab7"},{"reference":"Condition/98505a0c-9406-4643-9251-b332949232df"},{"reference":"Organization/d2103b1e-0025-4795-84cb-02aa6e953b4c"},{"reference":"Practitioner/32ebdd2a-b9a1-4b6d-a549-6d91cc312d5d"}]},"request":{"method":"PUT","url":"MeasureReport/76d7b9f7-8abb-424b-a533-0bfa957907cf"}},{"fullUrl":"Observation/bf5c30c5-cb3a-4baf-8ae9-c7382a054216","resource":{"resourceType":"Observation","id":"bf5c30c5-cb3a-4baf-8ae9-c7382a054216","meta":{"profile":["http://hl7.org/fhir/us/qicore/StructureDefinition/qicore-simple-observation"]},"status":"final","category":[{"coding":[{"system":"http://terminology.hl7.org/CodeSystem/observation-category","code":"exam","display":"exam","userSelected":true}]}],"code":{"coding":[{"system":"http://loinc.org","code":"11996-6"}]},"subject":{"reference":"Patient/ef3e4256-a321-4ce0-812b-ec7e7158085a"},"effectiveDateTime":"2026-06-08T08:00:00.000+00:00","performer":[{"reference":"Organization/example1","display":"Hendricks Country Hospital"}],"valueInteger":1},"request":{"method":"PUT","url":"Observation/bf5c30c5-cb3a-4baf-8ae9-c7382a054216"}}]}