{"resourceType":"Bundle","id":"tests-6c971e14-ca68-41a3-ae18-1c5b7954cf50-bundle","type":"transaction","entry":[{"fullUrl":"Coverage/d128c612-6828-4e4d-b1be-ffffe3120cbb","resource":{"resourceType":"Coverage","id":"d128c612-6828-4e4d-b1be-ffffe3120cbb","meta":{"profile":["http://hl7.org/fhir/us/qicore/StructureDefinition/qicore-coverage"]},"status":"active","beneficiary":{"reference":"Patient/6c971e14-ca68-41a3-ae18-1c5b7954cf50"},"payor":[{"reference":"Organization/6be3aa28-67b5-4919-a91b-c164d70e789c"}]},"request":{"method":"PUT","url":"Coverage/d128c612-6828-4e4d-b1be-ffffe3120cbb"}},{"fullUrl":"Observation/79526b9d-645d-4aad-9589-97a0b847bdab","resource":{"resourceType":"Observation","id":"79526b9d-645d-4aad-9589-97a0b847bdab","meta":{"profile":["http://hl7.org/fhir/us/qicore/StructureDefinition/qicore-simple-observation"]},"status":"final","category":[{"coding":[{"system":"http://terminology.hl7.org/CodeSystem/observation-category","code":"exam","display":"exam","userSelected":true}]}],"code":{"coding":[{"system":"http://loinc.org","code":"11778-8"}]},"subject":{"reference":"Patient/6c971e14-ca68-41a3-ae18-1c5b7954cf50"}},"request":{"method":"PUT","url":"Observation/79526b9d-645d-4aad-9589-97a0b847bdab"}},{"fullUrl":"MeasureReport/79824a84-9e30-4c0f-bb10-03bf793ad865","resource":{"resourceType":"MeasureReport","id":"79824a84-9e30-4c0f-bb10-03bf793ad865","meta":{"profile":["http://hl7.org/fhir/us/cqfmeasures/StructureDefinition/test-case-cqfm"]},"contained":[{"resourceType":"Parameters","id":"0baaeeb1-0cd1-4ae0-92e9-b14217a322e8-parameters","parameter":[{"name":"subject","valueString":"6c971e14-ca68-41a3-ae18-1c5b7954cf50"}]}],"extension":[{"url":"http://hl7.org/fhir/StructureDefinition/cqf-inputParameters","valueReference":{"reference":"#0baaeeb1-0cd1-4ae0-92e9-b14217a322e8-parameters"}},{"url":"http://hl7.org/fhir/us/cqfmeasures/StructureDefinition/cqfm-testCaseDescription","valueMarkdown":" Pt is 27 years of age,  encounter dx delivery of singleton, gravida=1authored less than 42 weeks prior to delivery.  Last Est Deliv is NULL, however previous meets.\n"}],"modifierExtension":[{"url":"http://hl7.org/fhir/us/cqfmeasures/StructureDefinition/cqfm-isTestCase","valueBoolean":true}],"status":"complete","type":"individual","measure":"https://madie.cms.gov/Measure/CMS0334FHIRPCCesareanBirth","period":{"start":"2026-01-01","end":"2026-12-31"},"group":[{"id":"Group_1","population":[{"id":"InitialPopulation_1","code":{"coding":[{"system":"http://terminology.hl7.org/CodeSystem/measure-population","code":"initial-population","display":"Initial Population"}]},"count":1},{"id":"Denominator_1","code":{"coding":[{"system":"http://terminology.hl7.org/CodeSystem/measure-population","code":"denominator","display":"Denominator"}]},"count":1},{"id":"DenominatorExclusion_1","code":{"coding":[{"system":"http://terminology.hl7.org/CodeSystem/measure-population","code":"denominator-exclusion","display":"Denominator Exclusion"}]},"count":0},{"id":"Numerator_1","code":{"coding":[{"system":"http://terminology.hl7.org/CodeSystem/measure-population","code":"numerator","display":"Numerator"}]},"count":0}],"measureScore":{"value":0.0}}],"evaluatedResource":[{"reference":"Patient/6c971e14-ca68-41a3-ae18-1c5b7954cf50"},{"reference":"Observation/89eccc9f-0eed-478b-9b32-0b5faecb3ddc"},{"reference":"Observation/215780c3-c6ec-4f71-9e61-b0412b326e74"},{"reference":"Observation/df6e06e3-0fcc-46cd-b219-5552be3b7d3e"},{"reference":"Observation/79526b9d-645d-4aad-9589-97a0b847bdab"},{"reference":"Encounter/f6cbdfa2-6098-4fec-a1f2-4a7171cfb7b5"},{"reference":"Encounter/d1a38b56-5c4d-48fc-b464-b83b93cede0e"},{"reference":"Procedure/3b994c02-d849-4c53-ad17-f6d8ac9a9539"},{"reference":"Condition/acbef2d4-2725-414f-ad96-05f9bf3540ce"},{"reference":"Coverage/d128c612-6828-4e4d-b1be-ffffe3120cbb"},{"reference":"Organization/6be3aa28-67b5-4919-a91b-c164d70e789c"},{"reference":"Practitioner/c72d7fa3-a8bc-49e3-af15-aa9b6b0101e2"}]},"request":{"method":"PUT","url":"MeasureReport/79824a84-9e30-4c0f-bb10-03bf793ad865"}},{"fullUrl":"Encounter/d1a38b56-5c4d-48fc-b464-b83b93cede0e","resource":{"resourceType":"Encounter","id":"d1a38b56-5c4d-48fc-b464-b83b93cede0e","meta":{"profile":["http://hl7.org/fhir/us/qicore/StructureDefinition/qicore-encounter"]},"status":"finished","class":{"system":"http://terminology.hl7.org/CodeSystem/v3-ActCode","code":"IMP","display":"inpatient encounter"},"type":[{"coding":[{"system":"http://snomed.info/sct","code":"448951000124107"}]}],"subject":{"reference":"Patient/6c971e14-ca68-41a3-ae18-1c5b7954cf50"},"period":{"start":"2026-01-15T06:00:00.000+00:00","end":"2026-01-15T07:15:00.000+00:00"}},"request":{"method":"PUT","url":"Encounter/d1a38b56-5c4d-48fc-b464-b83b93cede0e"}},{"fullUrl":"Encounter/f6cbdfa2-6098-4fec-a1f2-4a7171cfb7b5","resource":{"resourceType":"Encounter","id":"f6cbdfa2-6098-4fec-a1f2-4a7171cfb7b5","meta":{"profile":["http://hl7.org/fhir/us/qicore/StructureDefinition/qicore-encounter"]},"status":"finished","class":{"system":"http://terminology.hl7.org/CodeSystem/v3-ActCode","code":"IMP","display":"inpatient encounter"},"type":[{"coding":[{"system":"http://snomed.info/sct","code":"183452005"}]}],"subject":{"reference":"Patient/6c971e14-ca68-41a3-ae18-1c5b7954cf50"},"period":{"start":"2026-01-15T08:00:00.000+00:00","end":"2026-01-20T08:15:00.000+00:00"},"reasonReference":[{"reference":"Condition/acbef2d4-2725-414f-ad96-05f9bf3540ce"}]},"request":{"method":"PUT","url":"Encounter/f6cbdfa2-6098-4fec-a1f2-4a7171cfb7b5"}},{"fullUrl":"Condition/acbef2d4-2725-414f-ad96-05f9bf3540ce","resource":{"resourceType":"Condition","id":"acbef2d4-2725-414f-ad96-05f9bf3540ce","meta":{"profile":["http://hl7.org/fhir/us/qicore/StructureDefinition/qicore-condition-encounter-diagnosis"]},"category":[{"coding":[{"system":"http://terminology.hl7.org/CodeSystem/condition-category","code":"encounter-diagnosis","display":"Encounter Diagnosis"}]}],"code":{"coding":[{"system":"http://snomed.info/sct","version":"2022-09","code":"169826009","display":"Single live birth from singleton pregnancy (finding)","userSelected":true}]},"subject":{"reference":"Patient/6c971e14-ca68-41a3-ae18-1c5b7954cf50"},"encounter":{"reference":"Encounter/f6cbdfa2-6098-4fec-a1f2-4a7171cfb7b5"},"recordedDate":"2026-10-20T08:00:00.000+00:00"},"request":{"method":"PUT","url":"Condition/acbef2d4-2725-414f-ad96-05f9bf3540ce"}},{"fullUrl":"Observation/df6e06e3-0fcc-46cd-b219-5552be3b7d3e","resource":{"resourceType":"Observation","id":"df6e06e3-0fcc-46cd-b219-5552be3b7d3e","meta":{"profile":["http://hl7.org/fhir/us/qicore/StructureDefinition/qicore-simple-observation"]},"status":"final","category":[{"coding":[{"system":"http://terminology.hl7.org/CodeSystem/observation-category","code":"exam","display":"exam","userSelected":true}]}],"code":{"coding":[{"system":"http://loinc.org","code":"11996-6"}]},"subject":{"reference":"Patient/6c971e14-ca68-41a3-ae18-1c5b7954cf50"},"effectiveDateTime":"2026-01-15T07:59:00.000+00:00","valueInteger":1},"request":{"method":"PUT","url":"Observation/df6e06e3-0fcc-46cd-b219-5552be3b7d3e"}},{"fullUrl":"Observation/215780c3-c6ec-4f71-9e61-b0412b326e74","resource":{"resourceType":"Observation","id":"215780c3-c6ec-4f71-9e61-b0412b326e74","meta":{"profile":["http://hl7.org/fhir/us/qicore/StructureDefinition/qicore-simple-observation"]},"status":"final","category":[{"coding":[{"system":"http://terminology.hl7.org/CodeSystem/observation-category","code":"exam","display":"exam","userSelected":true}]}],"code":{"coding":[{"system":"http://loinc.org","code":"11778-8"}]},"subject":{"reference":"Patient/6c971e14-ca68-41a3-ae18-1c5b7954cf50"},"effectiveDateTime":"2026-01-15T07:00:00.000+00:00","valueDateTime":"2026-02-04T08:00:00.000+00:00"},"request":{"method":"PUT","url":"Observation/215780c3-c6ec-4f71-9e61-b0412b326e74"}},{"fullUrl":"Patient/6c971e14-ca68-41a3-ae18-1c5b7954cf50","resource":{"resourceType":"Patient","id":"6c971e14-ca68-41a3-ae18-1c5b7954cf50","meta":{"profile":["http://hl7.org/fhir/us/qicore/StructureDefinition/qicore-patient"]},"text":{"status":"generated","div":"<div xmlns=\"http://www.w3.org/1999/xhtml\"><div class=\"hapiHeaderText\">CalcEGALastEstDelivNULL_EDDRvltPeriodDuringObserv <b>DENPASS </b></div><table class=\"hapiPropertyTable\"><tbody><tr><td>Identifier</td><td>b00b06f67015bda652373741cca10f65466d828e3a674df9528f73ec417ce0bb</td></tr><tr><td>Date of birth</td><td><span>14 February 1985</span></td></tr></tbody></table></div>"},"extension":[{"url":"http://hl7.org/fhir/us/core/StructureDefinition/us-core-race","extension":[{"url":"ombCategory","valueCoding":{"system":"urn:oid:2.16.840.1.113883.6.238","code":"1002-5","display":"American Indian or Alaska Native","userSelected":true}},{"url":"text","valueString":"American Indian or Alaska Native"}]},{"url":"http://hl7.org/fhir/us/core/StructureDefinition/us-core-ethnicity","extension":[{"url":"ombCategory","valueCoding":{"system":"urn:oid:2.16.840.1.113883.6.238","code":"2135-2","display":"Hispanic or Latino","userSelected":true}},{"url":"text","valueString":"Hispanic or Latino"}]}],"identifier":[{"type":{"coding":[{"system":"http://terminology.hl7.org/CodeSystem/v2-0203","code":"MR"}]},"system":"https://bonnie-fhir.healthit.gov/","value":"63487c2f0968f801225401a5"}],"active":true,"name":[{"use":"usual","family":"DENPass","given":["CalcEGALastEstDelivNULL_EDDRvltPeriodDuringObserv"]}],"gender":"female","birthDate":"1998-02-14"},"request":{"method":"PUT","url":"Patient/6c971e14-ca68-41a3-ae18-1c5b7954cf50"}},{"fullUrl":"Practitioner/c72d7fa3-a8bc-49e3-af15-aa9b6b0101e2","resource":{"resourceType":"Practitioner","id":"c72d7fa3-a8bc-49e3-af15-aa9b6b0101e2","identifier":[{"system":"http://hl7.org/fhir/sid/us-npi","value":"123456"}],"name":[{"family":"Evil","prefix":["Dr"]}]},"request":{"method":"PUT","url":"Practitioner/c72d7fa3-a8bc-49e3-af15-aa9b6b0101e2"}},{"fullUrl":"Procedure/3b994c02-d849-4c53-ad17-f6d8ac9a9539","resource":{"resourceType":"Procedure","id":"3b994c02-d849-4c53-ad17-f6d8ac9a9539","meta":{"profile":["http://hl7.org/fhir/us/qicore/StructureDefinition/qicore-procedure"]},"extension":[{"url":"http://hl7.org/fhir/us/qicore/StructureDefinition/qicore-recorded","valueDateTime":"2014-04-05T13:35:00.000+00:00"}],"status":"completed","code":{"coding":[{"system":"http://www.cms.gov/Medicare/Coding/ICD10","code":"10D07Z3"}]},"subject":{"reference":"Patient/6c971e14-ca68-41a3-ae18-1c5b7954cf50"},"performedPeriod":{"start":"2026-01-15T08:10:00.000+00:00","end":"2026-01-15T09:14:00.000+00:00"}},"request":{"method":"PUT","url":"Procedure/3b994c02-d849-4c53-ad17-f6d8ac9a9539"}},{"fullUrl":"Observation/89eccc9f-0eed-478b-9b32-0b5faecb3ddc","resource":{"resourceType":"Observation","id":"89eccc9f-0eed-478b-9b32-0b5faecb3ddc","meta":{"profile":["http://hl7.org/fhir/us/qicore/StructureDefinition/qicore-simple-observation"]},"status":"final","category":[{"coding":[{"system":"http://terminology.hl7.org/CodeSystem/observation-category","code":"exam","display":"exam","userSelected":true}]}],"code":{"coding":[{"system":"http://loinc.org","code":"93857-1"}]},"subject":{"reference":"Patient/6c971e14-ca68-41a3-ae18-1c5b7954cf50"},"effectiveDateTime":"2026-01-15T08:00:00.000+00:00","valueDateTime":"2026-01-15T08:00:00.000+00:00"},"request":{"method":"PUT","url":"Observation/89eccc9f-0eed-478b-9b32-0b5faecb3ddc"}},{"fullUrl":"Organization/6be3aa28-67b5-4919-a91b-c164d70e789c","resource":{"resourceType":"Organization","id":"6be3aa28-67b5-4919-a91b-c164d70e789c","meta":{"profile":["http://hl7.org/fhir/us/qicore/StructureDefinition/qicore-organization"]},"identifier":[{"use":"temp","system":"urn:oid:2.16.840.1.113883.4.4","value":"21-3259825"}],"active":true,"type":[{"coding":[{"system":"http://terminology.hl7.org/CodeSystem/organization-type","code":"pay","display":"Payer"}]}],"name":"Blue Cross Blue Shield of Texas","telecom":[{"system":"phone","value":"(+1) 972-766-6900"}],"address":[{"use":"billing","type":"postal","line":["P.O. Box 660044"],"city":"Dallas","state":"TX","postalCode":"75266-0044","country":"USA"}]},"request":{"method":"PUT","url":"Organization/6be3aa28-67b5-4919-a91b-c164d70e789c"}},{"fullUrl":"Bundle/63487c2f0968f801225401a5","resource":{"resourceType":"Bundle","id":"63487c2f0968f801225401a5","type":"transaction","entry":[{"fullUrl":"https://madie.cms.gov/Patient/6c971e14-ca68-41a3-ae18-1c5b7954cf50","resource":{"resourceType":"Patient","id":"6c971e14-ca68-41a3-ae18-1c5b7954cf50","meta":{"profile":["http://hl7.org/fhir/us/qicore/StructureDefinition/qicore-patient"]},"text":{"status":"generated","div":"<div xmlns=\"http://www.w3.org/1999/xhtml\"><div class=\"hapiHeaderText\">CalcEGALastEstDelivNULL_EDDRvltPeriodDuringObserv <b>DENPASS </b></div><table class=\"hapiPropertyTable\"><tbody><tr><td>Identifier</td><td>b00b06f67015bda652373741cca10f65466d828e3a674df9528f73ec417ce0bb</td></tr><tr><td>Date of birth</td><td><span>14 February 1985</span></td></tr></tbody></table></div>"},"extension":[{"url":"http://hl7.org/fhir/us/core/StructureDefinition/us-core-race","extension":[{"url":"ombCategory","valueCoding":{"system":"urn:oid:2.16.840.1.113883.6.238","code":"1002-5","display":"American Indian or Alaska Native","userSelected":true}},{"url":"text","valueString":"American Indian or Alaska Native"}]},{"url":"http://hl7.org/fhir/us/core/StructureDefinition/us-core-ethnicity","extension":[{"url":"ombCategory","valueCoding":{"system":"urn:oid:2.16.840.1.113883.6.238","code":"2135-2","display":"Hispanic or Latino","userSelected":true}},{"url":"text","valueString":"Hispanic or Latino"}]}],"identifier":[{"type":{"coding":[{"system":"http://terminology.hl7.org/CodeSystem/v2-0203","code":"MR"}]},"system":"https://bonnie-fhir.healthit.gov/","value":"63487c2f0968f801225401a5"}],"active":true,"name":[{"use":"usual","family":"DENPass","given":["CalcEGALastEstDelivNULL_EDDRvltPeriodDuringObserv"]}],"gender":"female","birthDate":"1998-02-14"},"request":{"method":"PUT","url":"Patient/6c971e14-ca68-41a3-ae18-1c5b7954cf50"}},{"fullUrl":"https://madie.cms.gov/Observation/89eccc9f-0eed-478b-9b32-0b5faecb3ddc","resource":{"resourceType":"Observation","id":"89eccc9f-0eed-478b-9b32-0b5faecb3ddc","meta":{"profile":["http://hl7.org/fhir/us/qicore/StructureDefinition/qicore-simple-observation"]},"status":"final","category":[{"coding":[{"system":"http://terminology.hl7.org/CodeSystem/observation-category","code":"exam","display":"exam","userSelected":true}]}],"code":{"coding":[{"system":"http://loinc.org","code":"93857-1"}]},"subject":{"reference":"Patient/6c971e14-ca68-41a3-ae18-1c5b7954cf50"},"effectiveDateTime":"2026-01-15T08:00:00.000+00:00","valueDateTime":"2026-01-15T08:00:00.000+00:00"},"request":{"method":"PUT","url":"Observation/89eccc9f-0eed-478b-9b32-0b5faecb3ddc"}},{"fullUrl":"https://madie.cms.gov/Observation/215780c3-c6ec-4f71-9e61-b0412b326e74","resource":{"resourceType":"Observation","id":"215780c3-c6ec-4f71-9e61-b0412b326e74","meta":{"profile":["http://hl7.org/fhir/us/qicore/StructureDefinition/qicore-simple-observation"]},"status":"final","category":[{"coding":[{"system":"http://terminology.hl7.org/CodeSystem/observation-category","code":"exam","display":"exam","userSelected":true}]}],"code":{"coding":[{"system":"http://loinc.org","code":"11778-8"}]},"subject":{"reference":"Patient/6c971e14-ca68-41a3-ae18-1c5b7954cf50"},"effectiveDateTime":"2026-01-15T07:00:00.000+00:00","valueDateTime":"2026-02-04T08:00:00.000+00:00"},"request":{"method":"PUT","url":"Observation/215780c3-c6ec-4f71-9e61-b0412b326e74"}},{"fullUrl":"https://madie.cms.gov/Observation/df6e06e3-0fcc-46cd-b219-5552be3b7d3e","resource":{"resourceType":"Observation","id":"df6e06e3-0fcc-46cd-b219-5552be3b7d3e","meta":{"profile":["http://hl7.org/fhir/us/qicore/StructureDefinition/qicore-simple-observation"]},"status":"final","category":[{"coding":[{"system":"http://terminology.hl7.org/CodeSystem/observation-category","code":"exam","display":"exam","userSelected":true}]}],"code":{"coding":[{"system":"http://loinc.org","code":"11996-6"}]},"subject":{"reference":"Patient/6c971e14-ca68-41a3-ae18-1c5b7954cf50"},"effectiveDateTime":"2026-01-15T07:59:00.000+00:00","valueInteger":1},"request":{"method":"PUT","url":"Observation/df6e06e3-0fcc-46cd-b219-5552be3b7d3e"}},{"fullUrl":"https://madie.cms.gov/Observation/79526b9d-645d-4aad-9589-97a0b847bdab","resource":{"resourceType":"Observation","id":"79526b9d-645d-4aad-9589-97a0b847bdab","meta":{"profile":["http://hl7.org/fhir/us/qicore/StructureDefinition/qicore-simple-observation"]},"status":"final","category":[{"coding":[{"system":"http://terminology.hl7.org/CodeSystem/observation-category","code":"exam","display":"exam","userSelected":true}]}],"code":{"coding":[{"system":"http://loinc.org","code":"11778-8"}]},"subject":{"reference":"Patient/6c971e14-ca68-41a3-ae18-1c5b7954cf50"}},"request":{"method":"PUT","url":"Observation/79526b9d-645d-4aad-9589-97a0b847bdab"}},{"fullUrl":"https://madie.cms.gov/Encounter/f6cbdfa2-6098-4fec-a1f2-4a7171cfb7b5","resource":{"resourceType":"Encounter","id":"f6cbdfa2-6098-4fec-a1f2-4a7171cfb7b5","meta":{"profile":["http://hl7.org/fhir/us/qicore/StructureDefinition/qicore-encounter"]},"status":"finished","class":{"system":"http://terminology.hl7.org/CodeSystem/v3-ActCode","code":"IMP","display":"inpatient encounter"},"type":[{"coding":[{"system":"http://snomed.info/sct","code":"183452005"}]}],"subject":{"reference":"Patient/6c971e14-ca68-41a3-ae18-1c5b7954cf50"},"period":{"start":"2026-01-15T08:00:00.000+00:00","end":"2026-01-20T08:15:00.000+00:00"},"reasonReference":[{"reference":"Condition/acbef2d4-2725-414f-ad96-05f9bf3540ce"}]},"request":{"method":"PUT","url":"Encounter/f6cbdfa2-6098-4fec-a1f2-4a7171cfb7b5"}},{"fullUrl":"https://madie.cms.gov/Encounter/d1a38b56-5c4d-48fc-b464-b83b93cede0e","resource":{"resourceType":"Encounter","id":"d1a38b56-5c4d-48fc-b464-b83b93cede0e","meta":{"profile":["http://hl7.org/fhir/us/qicore/StructureDefinition/qicore-encounter"]},"status":"finished","class":{"system":"http://terminology.hl7.org/CodeSystem/v3-ActCode","code":"IMP","display":"inpatient encounter"},"type":[{"coding":[{"system":"http://snomed.info/sct","code":"448951000124107"}]}],"subject":{"reference":"Patient/6c971e14-ca68-41a3-ae18-1c5b7954cf50"},"period":{"start":"2026-01-15T06:00:00.000+00:00","end":"2026-01-15T07:15:00.000+00:00"}},"request":{"method":"PUT","url":"Encounter/d1a38b56-5c4d-48fc-b464-b83b93cede0e"}},{"fullUrl":"https://madie.cms.gov/Procedure/3b994c02-d849-4c53-ad17-f6d8ac9a9539","resource":{"resourceType":"Procedure","id":"3b994c02-d849-4c53-ad17-f6d8ac9a9539","meta":{"profile":["http://hl7.org/fhir/us/qicore/StructureDefinition/qicore-procedure"]},"extension":[{"url":"http://hl7.org/fhir/us/qicore/StructureDefinition/qicore-recorded","valueDateTime":"2014-04-05T13:35:00.000+00:00"}],"status":"completed","code":{"coding":[{"system":"http://www.cms.gov/Medicare/Coding/ICD10","code":"10D07Z3"}]},"subject":{"reference":"Patient/6c971e14-ca68-41a3-ae18-1c5b7954cf50"},"performedPeriod":{"start":"2026-01-15T08:10:00.000+00:00","end":"2026-01-15T09:14:00.000+00:00"}},"request":{"method":"PUT","url":"Procedure/3b994c02-d849-4c53-ad17-f6d8ac9a9539"}},{"fullUrl":"https://madie.cms.gov/Condition/acbef2d4-2725-414f-ad96-05f9bf3540ce","resource":{"resourceType":"Condition","id":"acbef2d4-2725-414f-ad96-05f9bf3540ce","meta":{"profile":["http://hl7.org/fhir/us/qicore/StructureDefinition/qicore-condition-encounter-diagnosis"]},"category":[{"coding":[{"system":"http://terminology.hl7.org/CodeSystem/condition-category","code":"encounter-diagnosis","display":"Encounter Diagnosis"}]}],"code":{"coding":[{"system":"http://snomed.info/sct","version":"2022-09","code":"169826009","display":"Single live birth from singleton pregnancy (finding)","userSelected":true}]},"subject":{"reference":"Patient/6c971e14-ca68-41a3-ae18-1c5b7954cf50"},"encounter":{"reference":"Encounter/f6cbdfa2-6098-4fec-a1f2-4a7171cfb7b5"},"recordedDate":"2026-10-20T08:00:00.000+00:00"},"request":{"method":"PUT","url":"Condition/acbef2d4-2725-414f-ad96-05f9bf3540ce"}},{"fullUrl":"https://madie.cms.gov/Coverage/d128c612-6828-4e4d-b1be-ffffe3120cbb","resource":{"resourceType":"Coverage","id":"d128c612-6828-4e4d-b1be-ffffe3120cbb","meta":{"profile":["http://hl7.org/fhir/us/qicore/StructureDefinition/qicore-coverage"]},"status":"active","beneficiary":{"reference":"Patient/6c971e14-ca68-41a3-ae18-1c5b7954cf50"},"payor":[{"reference":"Organization/6be3aa28-67b5-4919-a91b-c164d70e789c"}]},"request":{"method":"PUT","url":"Coverage/d128c612-6828-4e4d-b1be-ffffe3120cbb"}},{"fullUrl":"https://madie.cms.gov/Organization/6be3aa28-67b5-4919-a91b-c164d70e789c","resource":{"resourceType":"Organization","id":"6be3aa28-67b5-4919-a91b-c164d70e789c","meta":{"profile":["http://hl7.org/fhir/us/qicore/StructureDefinition/qicore-organization"]},"identifier":[{"use":"temp","system":"urn:oid:2.16.840.1.113883.4.4","value":"21-3259825"}],"active":true,"type":[{"coding":[{"system":"http://terminology.hl7.org/CodeSystem/organization-type","code":"pay","display":"Payer"}]}],"name":"Blue Cross Blue Shield of Texas","telecom":[{"system":"phone","value":"(+1) 972-766-6900"}],"address":[{"use":"billing","type":"postal","line":["P.O. Box 660044"],"city":"Dallas","state":"TX","postalCode":"75266-0044","country":"USA"}]},"request":{"method":"PUT","url":"Organization/6be3aa28-67b5-4919-a91b-c164d70e789c"}},{"fullUrl":"https://madie.cms.gov/Practitioner/c72d7fa3-a8bc-49e3-af15-aa9b6b0101e2","resource":{"resourceType":"Practitioner","id":"c72d7fa3-a8bc-49e3-af15-aa9b6b0101e2","identifier":[{"system":"http://hl7.org/fhir/sid/us-npi","value":"123456"}],"name":[{"family":"Evil","prefix":["Dr"]}]},"request":{"method":"PUT","url":"Practitioner/c72d7fa3-a8bc-49e3-af15-aa9b6b0101e2"}},{"fullUrl":"https://madie.cms.gov/MeasureReport/79824a84-9e30-4c0f-bb10-03bf793ad865","resource":{"resourceType":"MeasureReport","id":"79824a84-9e30-4c0f-bb10-03bf793ad865","meta":{"profile":["http://hl7.org/fhir/us/cqfmeasures/StructureDefinition/test-case-cqfm"]},"contained":[{"resourceType":"Parameters","id":"0baaeeb1-0cd1-4ae0-92e9-b14217a322e8-parameters","parameter":[{"name":"subject","valueString":"6c971e14-ca68-41a3-ae18-1c5b7954cf50"}]}],"extension":[{"url":"http://hl7.org/fhir/StructureDefinition/cqf-inputParameters","valueReference":{"reference":"#0baaeeb1-0cd1-4ae0-92e9-b14217a322e8-parameters"}},{"url":"http://hl7.org/fhir/us/cqfmeasures/StructureDefinition/cqfm-testCaseDescription","valueMarkdown":" Pt is 27 years of age,  encounter dx delivery of singleton, gravida=1authored less than 42 weeks prior to delivery.  Last Est Deliv is NULL, however previous meets.\n"}],"modifierExtension":[{"url":"http://hl7.org/fhir/us/cqfmeasures/StructureDefinition/cqfm-isTestCase","valueBoolean":true}],"status":"complete","type":"individual","measure":"https://madie.cms.gov/Measure/CMS0334FHIRPCCesareanBirth","period":{"start":"2026-01-01","end":"2026-12-31"},"group":[{"id":"Group_1","population":[{"id":"InitialPopulation_1","code":{"coding":[{"system":"http://terminology.hl7.org/CodeSystem/measure-population","code":"initial-population","display":"Initial Population"}]},"count":1},{"id":"Denominator_1","code":{"coding":[{"system":"http://terminology.hl7.org/CodeSystem/measure-population","code":"denominator","display":"Denominator"}]},"count":1},{"id":"DenominatorExclusion_1","code":{"coding":[{"system":"http://terminology.hl7.org/CodeSystem/measure-population","code":"denominator-exclusion","display":"Denominator Exclusion"}]},"count":0},{"id":"Numerator_1","code":{"coding":[{"system":"http://terminology.hl7.org/CodeSystem/measure-population","code":"numerator","display":"Numerator"}]},"count":0}],"measureScore":{"value":0.0}}],"evaluatedResource":[{"reference":"Patient/6c971e14-ca68-41a3-ae18-1c5b7954cf50"},{"reference":"Observation/89eccc9f-0eed-478b-9b32-0b5faecb3ddc"},{"reference":"Observation/215780c3-c6ec-4f71-9e61-b0412b326e74"},{"reference":"Observation/df6e06e3-0fcc-46cd-b219-5552be3b7d3e"},{"reference":"Observation/79526b9d-645d-4aad-9589-97a0b847bdab"},{"reference":"Encounter/f6cbdfa2-6098-4fec-a1f2-4a7171cfb7b5"},{"reference":"Encounter/d1a38b56-5c4d-48fc-b464-b83b93cede0e"},{"reference":"Procedure/3b994c02-d849-4c53-ad17-f6d8ac9a9539"},{"reference":"Condition/acbef2d4-2725-414f-ad96-05f9bf3540ce"},{"reference":"Coverage/d128c612-6828-4e4d-b1be-ffffe3120cbb"},{"reference":"Organization/6be3aa28-67b5-4919-a91b-c164d70e789c"},{"reference":"Practitioner/c72d7fa3-a8bc-49e3-af15-aa9b6b0101e2"}]},"request":{"method":"PUT","url":"MeasureReport/79824a84-9e30-4c0f-bb10-03bf793ad865"}}]},"request":{"method":"PUT","url":"Bundle/63487c2f0968f801225401a5"}}]}