{"resourceType":"Bundle","id":"tests-6b4ea20a-91ef-4b43-baca-a6b783395a57-bundle","type":"transaction","entry":[{"fullUrl":"Observation/98f44f79-ebe8-4cdc-ac85-2177228c2711","resource":{"resourceType":"Observation","id":"98f44f79-ebe8-4cdc-ac85-2177228c2711","meta":{"profile":["http://hl7.org/fhir/us/qicore/StructureDefinition/qicore-simple-observation"]},"status":"final","category":[{"coding":[{"system":"http://terminology.hl7.org/CodeSystem/observation-category","code":"exam","display":"exam","userSelected":true}]}],"code":{"coding":[{"system":"http://loinc.org","code":"11639-2"}]},"subject":{"reference":"Patient/6b4ea20a-91ef-4b43-baca-a6b783395a57"},"effectiveDateTime":"2025-09-19T09:00:00.000+00:00"},"request":{"method":"PUT","url":"Observation/98f44f79-ebe8-4cdc-ac85-2177228c2711"}},{"fullUrl":"Observation/983cf680-beb6-4315-a7fb-ad70a390c30e","resource":{"resourceType":"Observation","id":"983cf680-beb6-4315-a7fb-ad70a390c30e","meta":{"profile":["http://hl7.org/fhir/us/qicore/StructureDefinition/qicore-simple-observation"]},"status":"final","category":[{"coding":[{"system":"http://terminology.hl7.org/CodeSystem/observation-category","code":"exam","display":"exam","userSelected":true}]}],"code":{"coding":[{"system":"http://loinc.org","code":"93857-1"}]},"subject":{"reference":"Patient/6b4ea20a-91ef-4b43-baca-a6b783395a57"},"effectiveDateTime":"2026-06-08T20:00:00.000+00:00","valueDateTime":"2026-06-08T20:00:00.000+00:00"},"request":{"method":"PUT","url":"Observation/983cf680-beb6-4315-a7fb-ad70a390c30e"}},{"fullUrl":"Procedure/634da22c-77da-4e61-86f8-ab11cab8dc4d","resource":{"resourceType":"Procedure","id":"634da22c-77da-4e61-86f8-ab11cab8dc4d","meta":{"profile":["http://hl7.org/fhir/us/qicore/StructureDefinition/qicore-procedure"]},"extension":[{"url":"http://hl7.org/fhir/us/qicore/StructureDefinition/qicore-recorded","valueDateTime":"2014-04-05T13:35:00.000+00:00"}],"status":"completed","code":{"coding":[{"system":"http://www.cms.gov/Medicare/Coding/ICD10","code":"10D00Z0"},{"system":"http://snomed.info/sct","code":"4504004"}]},"subject":{"reference":"Patient/6b4ea20a-91ef-4b43-baca-a6b783395a57"},"performedPeriod":{"start":"2026-06-08T20:00:00.000+00:00","end":"2026-06-08T20:15:00.000+00:00"}},"request":{"method":"PUT","url":"Procedure/634da22c-77da-4e61-86f8-ab11cab8dc4d"}},{"fullUrl":"Practitioner/aa79dce1-045a-4f7c-93d2-b06a9b37947f","resource":{"resourceType":"Practitioner","id":"aa79dce1-045a-4f7c-93d2-b06a9b37947f","meta":{"profile":["http://hl7.org/fhir/us/qicore/StructureDefinition/qicore-practitioner"]},"identifier":[{"system":"http://hl7.org/fhir/sid/us-npi","value":"1234567890"}],"name":[{"family":"Evil","prefix":["Dr"]}]},"request":{"method":"PUT","url":"Practitioner/aa79dce1-045a-4f7c-93d2-b06a9b37947f"}},{"fullUrl":"Encounter/257f19e4-0832-4655-aba9-ee0403cfa84a","resource":{"resourceType":"Encounter","id":"257f19e4-0832-4655-aba9-ee0403cfa84a","meta":{"profile":["http://hl7.org/fhir/us/qicore/StructureDefinition/qicore-encounter"]},"status":"finished","class":{"system":"http://terminology.hl7.org/CodeSystem/v3-ActCode","code":"IMP","display":"inpatient encounter"},"type":[{"coding":[{"system":"http://snomed.info/sct","code":"8715000"}]}],"subject":{"reference":"Patient/6b4ea20a-91ef-4b43-baca-a6b783395a57"},"period":{"start":"2026-06-08T08:00:00.000+00:00","end":"2026-06-10T08:15:00.000+00:00"},"length":{"value":2,"unit":"days"},"reasonReference":[{"reference":"Condition/d0ca83d6-ae1e-4581-9605-f208130c24c7"}]},"request":{"method":"PUT","url":"Encounter/257f19e4-0832-4655-aba9-ee0403cfa84a"}},{"fullUrl":"Condition/d0ca83d6-ae1e-4581-9605-f208130c24c7","resource":{"resourceType":"Condition","id":"d0ca83d6-ae1e-4581-9605-f208130c24c7","meta":{"profile":["http://hl7.org/fhir/us/qicore/StructureDefinition/qicore-condition-encounter-diagnosis"]},"category":[{"coding":[{"system":"http://terminology.hl7.org/CodeSystem/condition-category","code":"encounter-diagnosis","display":"Encounter Diagnosis"}]}],"code":{"coding":[{"system":"http://snomed.info/sct","version":"2022-09","code":"169826009","display":"Single live birth from singleton pregnancy (finding)","userSelected":true}]},"subject":{"reference":"Patient/6b4ea20a-91ef-4b43-baca-a6b783395a57"},"encounter":{"reference":"Encounter/257f19e4-0832-4655-aba9-ee0403cfa84a"},"recordedDate":"2026-10-21T08:00:00.000+00:00"},"request":{"method":"PUT","url":"Condition/d0ca83d6-ae1e-4581-9605-f208130c24c7"}},{"fullUrl":"Organization/f40535cf-8b28-42f6-bdb4-62fa9f128363","resource":{"resourceType":"Organization","id":"f40535cf-8b28-42f6-bdb4-62fa9f128363","meta":{"profile":["http://hl7.org/fhir/us/qicore/StructureDefinition/qicore-organization"]},"identifier":[{"use":"temp","system":"urn:oid:2.16.840.1.113883.4.4","value":"21-3259825"}],"active":true,"type":[{"coding":[{"system":"http://terminology.hl7.org/CodeSystem/organization-type","code":"pay","display":"Payer"}]}],"name":"Blue Cross Blue Shield of Texas","telecom":[{"system":"phone","value":"(+1) 972-766-6900"}],"address":[{"use":"billing","type":"postal","line":["P.O. Box 660044"],"city":"Dallas","state":"TX","postalCode":"75266-0044","country":"USA"}]},"request":{"method":"PUT","url":"Organization/f40535cf-8b28-42f6-bdb4-62fa9f128363"}},{"fullUrl":"Coverage/5f7ec773-ca3d-46ab-9c45-dc9bfa93c1d1","resource":{"resourceType":"Coverage","id":"5f7ec773-ca3d-46ab-9c45-dc9bfa93c1d1","meta":{"profile":["http://hl7.org/fhir/us/qicore/StructureDefinition/qicore-coverage"]},"status":"active","subscriberId":"523435","beneficiary":{"reference":"Patient/6b4ea20a-91ef-4b43-baca-a6b783395a57"},"relationship":{"coding":[{"system":"http://terminology.hl7.org/CodeSystem/subscriber-relationship","code":"self"}]},"payor":[{"reference":"Organization/f40535cf-8b28-42f6-bdb4-62fa9f128363"}]},"request":{"method":"PUT","url":"Coverage/5f7ec773-ca3d-46ab-9c45-dc9bfa93c1d1"}},{"fullUrl":"Observation/20b5b52d-6c7d-4fb7-86fb-c79f94e5a687","resource":{"resourceType":"Observation","id":"20b5b52d-6c7d-4fb7-86fb-c79f94e5a687","meta":{"profile":["http://hl7.org/fhir/us/qicore/StructureDefinition/qicore-simple-observation"]},"status":"final","category":[{"coding":[{"system":"http://terminology.hl7.org/CodeSystem/observation-category","code":"exam","display":"exam","userSelected":true}]}],"code":{"coding":[{"system":"http://loinc.org","code":"11884-4"}]},"subject":{"reference":"Patient/6b4ea20a-91ef-4b43-baca-a6b783395a57"},"effectiveDateTime":"2026-06-08T20:00:00.000+00:00","valueQuantity":{"value":37,"system":"http://unitsofmeasure.org","code":"wk"}},"request":{"method":"PUT","url":"Observation/20b5b52d-6c7d-4fb7-86fb-c79f94e5a687"}},{"fullUrl":"Patient/6b4ea20a-91ef-4b43-baca-a6b783395a57","resource":{"resourceType":"Patient","id":"6b4ea20a-91ef-4b43-baca-a6b783395a57","meta":{"profile":["http://hl7.org/fhir/us/qicore/StructureDefinition/qicore-patient"]},"text":{"status":"generated","div":"<div xmlns=\"http://www.w3.org/1999/xhtml\"><div class=\"hapiHeaderText\">AssessTermMissingResult<b>DENOMFail</b></div><table class=\"hapiPropertyTable\"><tbody><tr><td>Identifier</td><td>e6e21c3fa4edfea41e3da1195d4a7d3d8dc72d010572e04bff4dafb21a72c78e</td></tr><tr><td>Date of birth</td><td><span>14 February 1985</span></td></tr></tbody></table></div>"},"extension":[{"url":"http://hl7.org/fhir/us/core/StructureDefinition/us-core-race","extension":[{"url":"ombCategory","valueCoding":{"system":"urn:oid:2.16.840.1.113883.6.238","code":"1002-5","display":"American Indian or Alaska Native","userSelected":true}},{"url":"text","valueString":"American Indian or Alaska Native"}]},{"url":"http://hl7.org/fhir/us/core/StructureDefinition/us-core-ethnicity","extension":[{"url":"ombCategory","valueCoding":{"system":"urn:oid:2.16.840.1.113883.6.238","code":"2135-2","display":"Hispanic or Latino","userSelected":true}},{"url":"text","valueString":"Hispanic or Latino"}]}],"identifier":[{"type":{"coding":[{"system":"http://terminology.hl7.org/CodeSystem/v2-0203","code":"MR"}]},"system":"https://bonnie-fhir.healthit.gov/","value":"63487c2d0968f8012254015c"}],"active":true,"name":[{"use":"usual","family":"DENFail","given":["AssessTermMissingResult"]}],"gender":"female","birthDate":"1998-02-14"},"request":{"method":"PUT","url":"Patient/6b4ea20a-91ef-4b43-baca-a6b783395a57"}},{"fullUrl":"Observation/149251b7-9df4-4daf-ab2f-a823ae9885af","resource":{"resourceType":"Observation","id":"149251b7-9df4-4daf-ab2f-a823ae9885af","meta":{"profile":["http://hl7.org/fhir/us/qicore/StructureDefinition/qicore-simple-observation"]},"status":"final","category":[{"coding":[{"system":"http://terminology.hl7.org/CodeSystem/observation-category","code":"exam","display":"exam","userSelected":true}]}],"code":{"coding":[{"system":"http://loinc.org","code":"11637-6"}]},"subject":{"reference":"Patient/6b4ea20a-91ef-4b43-baca-a6b783395a57"},"effectiveDateTime":"2025-09-19T09:00:00.000+00:00","valueInteger":0},"request":{"method":"PUT","url":"Observation/149251b7-9df4-4daf-ab2f-a823ae9885af"}},{"fullUrl":"MeasureReport/d477a2dc-bcf5-410a-907a-4cc03b400118","resource":{"resourceType":"MeasureReport","id":"d477a2dc-bcf5-410a-907a-4cc03b400118","meta":{"profile":["http://hl7.org/fhir/us/cqfmeasures/StructureDefinition/test-case-cqfm"]},"contained":[{"resourceType":"Parameters","id":"d326a94b-cf40-4b36-aad8-4b0736971fe1-parameters","parameter":[{"name":"subject","valueString":"6b4ea20a-91ef-4b43-baca-a6b783395a57"}]}],"extension":[{"url":"http://hl7.org/fhir/StructureDefinition/cqf-inputParameters","valueReference":{"reference":"#d326a94b-cf40-4b36-aad8-4b0736971fe1-parameters"}},{"url":"http://hl7.org/fhir/us/cqfmeasures/StructureDefinition/cqfm-testCaseDescription","valueMarkdown":"\"Preterm Births=0, Rel Date/time < 42weeks prior to delivery\nTerm Newborn missing result, Rel Date/time < 42weeks prior to delivery\"\n"}],"modifierExtension":[{"url":"http://hl7.org/fhir/us/cqfmeasures/StructureDefinition/cqfm-isTestCase","valueBoolean":true}],"status":"complete","type":"individual","measure":"https://madie.cms.gov/Measure/CMS0334FHIRPCCesareanBirth","period":{"start":"2026-01-01","end":"2026-12-31"},"group":[{"id":"Group_1","population":[{"id":"InitialPopulation_1","code":{"coding":[{"system":"http://terminology.hl7.org/CodeSystem/measure-population","code":"initial-population","display":"Initial Population"}]},"count":1},{"id":"Denominator_1","code":{"coding":[{"system":"http://terminology.hl7.org/CodeSystem/measure-population","code":"denominator","display":"Denominator"}]},"count":0},{"id":"DenominatorExclusion_1","code":{"coding":[{"system":"http://terminology.hl7.org/CodeSystem/measure-population","code":"denominator-exclusion","display":"Denominator Exclusion"}]},"count":0},{"id":"Numerator_1","code":{"coding":[{"system":"http://terminology.hl7.org/CodeSystem/measure-population","code":"numerator","display":"Numerator"}]},"count":0}],"measureScore":{"value":0.0}}],"evaluatedResource":[{"reference":"Patient/6b4ea20a-91ef-4b43-baca-a6b783395a57"},{"reference":"Observation/149251b7-9df4-4daf-ab2f-a823ae9885af"},{"reference":"Observation/98f44f79-ebe8-4cdc-ac85-2177228c2711"},{"reference":"Observation/20b5b52d-6c7d-4fb7-86fb-c79f94e5a687"},{"reference":"Observation/983cf680-beb6-4315-a7fb-ad70a390c30e"},{"reference":"Encounter/257f19e4-0832-4655-aba9-ee0403cfa84a"},{"reference":"Procedure/634da22c-77da-4e61-86f8-ab11cab8dc4d"},{"reference":"Condition/d0ca83d6-ae1e-4581-9605-f208130c24c7"},{"reference":"Coverage/5f7ec773-ca3d-46ab-9c45-dc9bfa93c1d1"},{"reference":"Organization/f40535cf-8b28-42f6-bdb4-62fa9f128363"},{"reference":"Practitioner/aa79dce1-045a-4f7c-93d2-b06a9b37947f"}]},"request":{"method":"PUT","url":"MeasureReport/d477a2dc-bcf5-410a-907a-4cc03b400118"}},{"fullUrl":"Bundle/63487c2d0968f8012254015c","resource":{"resourceType":"Bundle","id":"63487c2d0968f8012254015c","type":"transaction","entry":[{"fullUrl":"https://madie.cms.gov/Patient/6b4ea20a-91ef-4b43-baca-a6b783395a57","resource":{"resourceType":"Patient","id":"6b4ea20a-91ef-4b43-baca-a6b783395a57","meta":{"profile":["http://hl7.org/fhir/us/qicore/StructureDefinition/qicore-patient"]},"text":{"status":"generated","div":"<div xmlns=\"http://www.w3.org/1999/xhtml\"><div class=\"hapiHeaderText\">AssessTermMissingResult<b>DENOMFail</b></div><table class=\"hapiPropertyTable\"><tbody><tr><td>Identifier</td><td>e6e21c3fa4edfea41e3da1195d4a7d3d8dc72d010572e04bff4dafb21a72c78e</td></tr><tr><td>Date of birth</td><td><span>14 February 1985</span></td></tr></tbody></table></div>"},"extension":[{"url":"http://hl7.org/fhir/us/core/StructureDefinition/us-core-race","extension":[{"url":"ombCategory","valueCoding":{"system":"urn:oid:2.16.840.1.113883.6.238","code":"1002-5","display":"American Indian or Alaska Native","userSelected":true}},{"url":"text","valueString":"American Indian or Alaska Native"}]},{"url":"http://hl7.org/fhir/us/core/StructureDefinition/us-core-ethnicity","extension":[{"url":"ombCategory","valueCoding":{"system":"urn:oid:2.16.840.1.113883.6.238","code":"2135-2","display":"Hispanic or Latino","userSelected":true}},{"url":"text","valueString":"Hispanic or Latino"}]}],"identifier":[{"type":{"coding":[{"system":"http://terminology.hl7.org/CodeSystem/v2-0203","code":"MR"}]},"system":"https://bonnie-fhir.healthit.gov/","value":"63487c2d0968f8012254015c"}],"active":true,"name":[{"use":"usual","family":"DENFail","given":["AssessTermMissingResult"]}],"gender":"female","birthDate":"1998-02-14"},"request":{"method":"PUT","url":"Patient/6b4ea20a-91ef-4b43-baca-a6b783395a57"}},{"fullUrl":"https://madie.cms.gov/Observation/149251b7-9df4-4daf-ab2f-a823ae9885af","resource":{"resourceType":"Observation","id":"149251b7-9df4-4daf-ab2f-a823ae9885af","meta":{"profile":["http://hl7.org/fhir/us/qicore/StructureDefinition/qicore-simple-observation"]},"status":"final","category":[{"coding":[{"system":"http://terminology.hl7.org/CodeSystem/observation-category","code":"exam","display":"exam","userSelected":true}]}],"code":{"coding":[{"system":"http://loinc.org","code":"11637-6"}]},"subject":{"reference":"Patient/6b4ea20a-91ef-4b43-baca-a6b783395a57"},"effectiveDateTime":"2025-09-19T09:00:00.000+00:00","valueInteger":0},"request":{"method":"PUT","url":"Observation/149251b7-9df4-4daf-ab2f-a823ae9885af"}},{"fullUrl":"https://madie.cms.gov/Observation/98f44f79-ebe8-4cdc-ac85-2177228c2711","resource":{"resourceType":"Observation","id":"98f44f79-ebe8-4cdc-ac85-2177228c2711","meta":{"profile":["http://hl7.org/fhir/us/qicore/StructureDefinition/qicore-simple-observation"]},"status":"final","category":[{"coding":[{"system":"http://terminology.hl7.org/CodeSystem/observation-category","code":"exam","display":"exam","userSelected":true}]}],"code":{"coding":[{"system":"http://loinc.org","code":"11639-2"}]},"subject":{"reference":"Patient/6b4ea20a-91ef-4b43-baca-a6b783395a57"},"effectiveDateTime":"2025-09-19T09:00:00.000+00:00"},"request":{"method":"PUT","url":"Observation/98f44f79-ebe8-4cdc-ac85-2177228c2711"}},{"fullUrl":"https://madie.cms.gov/Observation/20b5b52d-6c7d-4fb7-86fb-c79f94e5a687","resource":{"resourceType":"Observation","id":"20b5b52d-6c7d-4fb7-86fb-c79f94e5a687","meta":{"profile":["http://hl7.org/fhir/us/qicore/StructureDefinition/qicore-simple-observation"]},"status":"final","category":[{"coding":[{"system":"http://terminology.hl7.org/CodeSystem/observation-category","code":"exam","display":"exam","userSelected":true}]}],"code":{"coding":[{"system":"http://loinc.org","code":"11884-4"}]},"subject":{"reference":"Patient/6b4ea20a-91ef-4b43-baca-a6b783395a57"},"effectiveDateTime":"2026-06-08T20:00:00.000+00:00","valueQuantity":{"value":37,"system":"http://unitsofmeasure.org","code":"wk"}},"request":{"method":"PUT","url":"Observation/20b5b52d-6c7d-4fb7-86fb-c79f94e5a687"}},{"fullUrl":"https://madie.cms.gov/Observation/983cf680-beb6-4315-a7fb-ad70a390c30e","resource":{"resourceType":"Observation","id":"983cf680-beb6-4315-a7fb-ad70a390c30e","meta":{"profile":["http://hl7.org/fhir/us/qicore/StructureDefinition/qicore-simple-observation"]},"status":"final","category":[{"coding":[{"system":"http://terminology.hl7.org/CodeSystem/observation-category","code":"exam","display":"exam","userSelected":true}]}],"code":{"coding":[{"system":"http://loinc.org","code":"93857-1"}]},"subject":{"reference":"Patient/6b4ea20a-91ef-4b43-baca-a6b783395a57"},"effectiveDateTime":"2026-06-08T20:00:00.000+00:00","valueDateTime":"2026-06-08T20:00:00.000+00:00"},"request":{"method":"PUT","url":"Observation/983cf680-beb6-4315-a7fb-ad70a390c30e"}},{"fullUrl":"https://madie.cms.gov/Encounter/257f19e4-0832-4655-aba9-ee0403cfa84a","resource":{"resourceType":"Encounter","id":"257f19e4-0832-4655-aba9-ee0403cfa84a","meta":{"profile":["http://hl7.org/fhir/us/qicore/StructureDefinition/qicore-encounter"]},"status":"finished","class":{"system":"http://terminology.hl7.org/CodeSystem/v3-ActCode","code":"IMP","display":"inpatient encounter"},"type":[{"coding":[{"system":"http://snomed.info/sct","code":"8715000"}]}],"subject":{"reference":"Patient/6b4ea20a-91ef-4b43-baca-a6b783395a57"},"period":{"start":"2026-06-08T08:00:00.000+00:00","end":"2026-06-10T08:15:00.000+00:00"},"length":{"value":2,"unit":"days"},"reasonReference":[{"reference":"Condition/d0ca83d6-ae1e-4581-9605-f208130c24c7"}]},"request":{"method":"PUT","url":"Encounter/257f19e4-0832-4655-aba9-ee0403cfa84a"}},{"fullUrl":"https://madie.cms.gov/Procedure/634da22c-77da-4e61-86f8-ab11cab8dc4d","resource":{"resourceType":"Procedure","id":"634da22c-77da-4e61-86f8-ab11cab8dc4d","meta":{"profile":["http://hl7.org/fhir/us/qicore/StructureDefinition/qicore-procedure"]},"extension":[{"url":"http://hl7.org/fhir/us/qicore/StructureDefinition/qicore-recorded","valueDateTime":"2014-04-05T13:35:00.000+00:00"}],"status":"completed","code":{"coding":[{"system":"http://www.cms.gov/Medicare/Coding/ICD10","code":"10D00Z0"},{"system":"http://snomed.info/sct","code":"4504004"}]},"subject":{"reference":"Patient/6b4ea20a-91ef-4b43-baca-a6b783395a57"},"performedPeriod":{"start":"2026-06-08T20:00:00.000+00:00","end":"2026-06-08T20:15:00.000+00:00"}},"request":{"method":"PUT","url":"Procedure/634da22c-77da-4e61-86f8-ab11cab8dc4d"}},{"fullUrl":"https://madie.cms.gov/Condition/d0ca83d6-ae1e-4581-9605-f208130c24c7","resource":{"resourceType":"Condition","id":"d0ca83d6-ae1e-4581-9605-f208130c24c7","meta":{"profile":["http://hl7.org/fhir/us/qicore/StructureDefinition/qicore-condition-encounter-diagnosis"]},"category":[{"coding":[{"system":"http://terminology.hl7.org/CodeSystem/condition-category","code":"encounter-diagnosis","display":"Encounter Diagnosis"}]}],"code":{"coding":[{"system":"http://snomed.info/sct","version":"2022-09","code":"169826009","display":"Single live birth from singleton pregnancy (finding)","userSelected":true}]},"subject":{"reference":"Patient/6b4ea20a-91ef-4b43-baca-a6b783395a57"},"encounter":{"reference":"Encounter/257f19e4-0832-4655-aba9-ee0403cfa84a"},"recordedDate":"2026-10-21T08:00:00.000+00:00"},"request":{"method":"PUT","url":"Condition/d0ca83d6-ae1e-4581-9605-f208130c24c7"}},{"fullUrl":"https://madie.cms.gov/Coverage/5f7ec773-ca3d-46ab-9c45-dc9bfa93c1d1","resource":{"resourceType":"Coverage","id":"5f7ec773-ca3d-46ab-9c45-dc9bfa93c1d1","meta":{"profile":["http://hl7.org/fhir/us/qicore/StructureDefinition/qicore-coverage"]},"status":"active","subscriberId":"523435","beneficiary":{"reference":"Patient/6b4ea20a-91ef-4b43-baca-a6b783395a57"},"relationship":{"coding":[{"system":"http://terminology.hl7.org/CodeSystem/subscriber-relationship","code":"self"}]},"payor":[{"reference":"Organization/f40535cf-8b28-42f6-bdb4-62fa9f128363"}]},"request":{"method":"PUT","url":"Coverage/5f7ec773-ca3d-46ab-9c45-dc9bfa93c1d1"}},{"fullUrl":"https://madie.cms.gov/Organization/f40535cf-8b28-42f6-bdb4-62fa9f128363","resource":{"resourceType":"Organization","id":"f40535cf-8b28-42f6-bdb4-62fa9f128363","meta":{"profile":["http://hl7.org/fhir/us/qicore/StructureDefinition/qicore-organization"]},"identifier":[{"use":"temp","system":"urn:oid:2.16.840.1.113883.4.4","value":"21-3259825"}],"active":true,"type":[{"coding":[{"system":"http://terminology.hl7.org/CodeSystem/organization-type","code":"pay","display":"Payer"}]}],"name":"Blue Cross Blue Shield of Texas","telecom":[{"system":"phone","value":"(+1) 972-766-6900"}],"address":[{"use":"billing","type":"postal","line":["P.O. Box 660044"],"city":"Dallas","state":"TX","postalCode":"75266-0044","country":"USA"}]},"request":{"method":"PUT","url":"Organization/f40535cf-8b28-42f6-bdb4-62fa9f128363"}},{"fullUrl":"https://madie.cms.gov/Practitioner/aa79dce1-045a-4f7c-93d2-b06a9b37947f","resource":{"resourceType":"Practitioner","id":"aa79dce1-045a-4f7c-93d2-b06a9b37947f","meta":{"profile":["http://hl7.org/fhir/us/qicore/StructureDefinition/qicore-practitioner"]},"identifier":[{"system":"http://hl7.org/fhir/sid/us-npi","value":"1234567890"}],"name":[{"family":"Evil","prefix":["Dr"]}]},"request":{"method":"PUT","url":"Practitioner/aa79dce1-045a-4f7c-93d2-b06a9b37947f"}},{"fullUrl":"https://madie.cms.gov/MeasureReport/d477a2dc-bcf5-410a-907a-4cc03b400118","resource":{"resourceType":"MeasureReport","id":"d477a2dc-bcf5-410a-907a-4cc03b400118","meta":{"profile":["http://hl7.org/fhir/us/cqfmeasures/StructureDefinition/test-case-cqfm"]},"contained":[{"resourceType":"Parameters","id":"d326a94b-cf40-4b36-aad8-4b0736971fe1-parameters","parameter":[{"name":"subject","valueString":"6b4ea20a-91ef-4b43-baca-a6b783395a57"}]}],"extension":[{"url":"http://hl7.org/fhir/StructureDefinition/cqf-inputParameters","valueReference":{"reference":"#d326a94b-cf40-4b36-aad8-4b0736971fe1-parameters"}},{"url":"http://hl7.org/fhir/us/cqfmeasures/StructureDefinition/cqfm-testCaseDescription","valueMarkdown":"\"Preterm Births=0, Rel Date/time < 42weeks prior to delivery\nTerm Newborn missing result, Rel Date/time < 42weeks prior to delivery\"\n"}],"modifierExtension":[{"url":"http://hl7.org/fhir/us/cqfmeasures/StructureDefinition/cqfm-isTestCase","valueBoolean":true}],"status":"complete","type":"individual","measure":"https://madie.cms.gov/Measure/CMS0334FHIRPCCesareanBirth","period":{"start":"2026-01-01","end":"2026-12-31"},"group":[{"id":"Group_1","population":[{"id":"InitialPopulation_1","code":{"coding":[{"system":"http://terminology.hl7.org/CodeSystem/measure-population","code":"initial-population","display":"Initial Population"}]},"count":1},{"id":"Denominator_1","code":{"coding":[{"system":"http://terminology.hl7.org/CodeSystem/measure-population","code":"denominator","display":"Denominator"}]},"count":0},{"id":"DenominatorExclusion_1","code":{"coding":[{"system":"http://terminology.hl7.org/CodeSystem/measure-population","code":"denominator-exclusion","display":"Denominator Exclusion"}]},"count":0},{"id":"Numerator_1","code":{"coding":[{"system":"http://terminology.hl7.org/CodeSystem/measure-population","code":"numerator","display":"Numerator"}]},"count":0}],"measureScore":{"value":0.0}}],"evaluatedResource":[{"reference":"Patient/6b4ea20a-91ef-4b43-baca-a6b783395a57"},{"reference":"Observation/149251b7-9df4-4daf-ab2f-a823ae9885af"},{"reference":"Observation/98f44f79-ebe8-4cdc-ac85-2177228c2711"},{"reference":"Observation/20b5b52d-6c7d-4fb7-86fb-c79f94e5a687"},{"reference":"Observation/983cf680-beb6-4315-a7fb-ad70a390c30e"},{"reference":"Encounter/257f19e4-0832-4655-aba9-ee0403cfa84a"},{"reference":"Procedure/634da22c-77da-4e61-86f8-ab11cab8dc4d"},{"reference":"Condition/d0ca83d6-ae1e-4581-9605-f208130c24c7"},{"reference":"Coverage/5f7ec773-ca3d-46ab-9c45-dc9bfa93c1d1"},{"reference":"Organization/f40535cf-8b28-42f6-bdb4-62fa9f128363"},{"reference":"Practitioner/aa79dce1-045a-4f7c-93d2-b06a9b37947f"}]},"request":{"method":"PUT","url":"MeasureReport/d477a2dc-bcf5-410a-907a-4cc03b400118"}}]},"request":{"method":"PUT","url":"Bundle/63487c2d0968f8012254015c"}}]}