{"resourceType":"Bundle","id":"tests-45a481a1-13fe-4a18-8e8d-3d8ae497d28f-bundle","type":"transaction","entry":[{"resource":{"resourceType":"Procedure","id":"577b2a47-e663-424e-95f1-024f65e0aa6b","meta":{"profile":["http://hl7.org/fhir/us/qicore/StructureDefinition/qicore-procedure"]},"extension":[{"url":"http://hl7.org/fhir/us/qicore/StructureDefinition/qicore-recorded","valueDateTime":"2014-04-05T13:35:00.000+00:00"}],"status":"completed","code":{"coding":[{"system":"http://snomed.info/sct","version":"2022-09","code":"10745001","display":"Delivery of transverse presentation (procedure)","userSelected":true}]},"subject":{"reference":"Patient/45a481a1-13fe-4a18-8e8d-3d8ae497d28f"},"performedPeriod":{"start":"2026-01-15T08:10:00.000+00:00","end":"2026-01-15T09:14:00.000+00:00"}},"request":{"method":"PUT","url":"Procedure/577b2a47-e663-424e-95f1-024f65e0aa6b"}},{"resource":{"resourceType":"Bundle","id":"63487c2f0968f801225401ac","type":"transaction","entry":[{"fullUrl":"https://madie.cms.gov/Patient/45a481a1-13fe-4a18-8e8d-3d8ae497d28f","resource":{"resourceType":"Patient","id":"45a481a1-13fe-4a18-8e8d-3d8ae497d28f","meta":{"profile":["http://hl7.org/fhir/us/qicore/StructureDefinition/qicore-patient"]},"text":{"status":"generated","div":"<div xmlns=\"http://www.w3.org/1999/xhtml\"><div class=\"hapiHeaderText\">AssessEDDRelDtTime24Hours1minB4TimeOfDeliv<b>DENPASS</b></div><table class=\"hapiPropertyTable\"><tbody><tr><td>Identifier</td><td>b00b06f67015bda652373741cca10f65466d828e3a674df9528f73ec417ce0bb</td></tr><tr><td>Date of birth</td><td><span>14 February 1985</span></td></tr></tbody></table></div>"},"extension":[{"url":"http://hl7.org/fhir/us/core/StructureDefinition/us-core-race","extension":[{"url":"ombCategory","valueCoding":{"system":"urn:oid:2.16.840.1.113883.6.238","code":"1002-5","display":"American Indian or Alaska Native","userSelected":true}},{"url":"text","valueString":"American Indian or Alaska Native"}]},{"url":"http://hl7.org/fhir/us/core/StructureDefinition/us-core-ethnicity","extension":[{"url":"ombCategory","valueCoding":{"system":"urn:oid:2.16.840.1.113883.6.238","code":"2135-2","display":"Hispanic or Latino","userSelected":true}},{"url":"text","valueString":"Hispanic or Latino"}]}],"identifier":[{"type":{"coding":[{"system":"http://terminology.hl7.org/CodeSystem/v2-0203","code":"MR"}]},"system":"https://bonnie-fhir.healthit.gov/","value":"63487c2f0968f801225401ac"}],"active":true,"name":[{"use":"usual","family":"DENPass","given":["AssessEDDRelDtTime24Hours1minB4TimeOfDeliv"]}],"gender":"female","birthDate":"1998-02-14"},"request":{"method":"PUT","url":"Patient/45a481a1-13fe-4a18-8e8d-3d8ae497d28f"}},{"fullUrl":"https://madie.cms.gov/Observation/85b2c492-c58e-4c77-8ef6-dc9600fcc263","resource":{"resourceType":"Observation","id":"85b2c492-c58e-4c77-8ef6-dc9600fcc263","meta":{"profile":["http://hl7.org/fhir/us/qicore/StructureDefinition/qicore-simple-observation"]},"status":"final","category":[{"coding":[{"system":"http://terminology.hl7.org/CodeSystem/observation-category","code":"exam","display":"exam","userSelected":true}]}],"code":{"coding":[{"system":"http://loinc.org","code":"93857-1","display":"Date and time of obstetric delivery"}]},"subject":{"reference":"Patient/45a481a1-13fe-4a18-8e8d-3d8ae497d28f"},"effectiveDateTime":"2026-01-15T08:00:00.000+00:00","issued":"2023-10-22T02:30:10.000+00:00","performer":[{"reference":"Organization/example1","display":"Hendricks Country Hospital"}],"valueDateTime":"2026-01-15T08:00:00.000+00:00"},"request":{"method":"PUT","url":"Observation/85b2c492-c58e-4c77-8ef6-dc9600fcc263"}},{"fullUrl":"https://madie.cms.gov/Observation/66f274d2-cbda-42a3-b126-b93c39291f79","resource":{"resourceType":"Observation","id":"66f274d2-cbda-42a3-b126-b93c39291f79","meta":{"profile":["http://hl7.org/fhir/us/qicore/StructureDefinition/qicore-simple-observation"]},"status":"final","category":[{"coding":[{"system":"http://terminology.hl7.org/CodeSystem/observation-category","code":"exam","display":"exam","userSelected":true}]}],"code":{"coding":[{"system":"http://loinc.org","code":"11778-8","display":"delivery date estimated"}]},"subject":{"reference":"Patient/45a481a1-13fe-4a18-8e8d-3d8ae497d28f"},"effectiveDateTime":"2026-01-14T07:59:00.000+00:00","issued":"2023-10-22T02:30:10.000+00:00","performer":[{"reference":"Organization/example1","display":"Hendricks Country Hospital"}],"valueDateTime":"2026-02-04T08:00:00.000+00:00"},"request":{"method":"PUT","url":"Observation/66f274d2-cbda-42a3-b126-b93c39291f79"}},{"fullUrl":"https://madie.cms.gov/Observation/9f3002d8-56b4-43ec-a9dd-70027158a3bc","resource":{"resourceType":"Observation","id":"9f3002d8-56b4-43ec-a9dd-70027158a3bc","meta":{"profile":["http://hl7.org/fhir/us/qicore/StructureDefinition/qicore-simple-observation"]},"status":"final","category":[{"coding":[{"system":"http://terminology.hl7.org/CodeSystem/observation-category","code":"exam","display":"exam","userSelected":true}]}],"code":{"coding":[{"system":"http://loinc.org","code":"11996-6","display":"Pregnancies"}]},"subject":{"reference":"Patient/45a481a1-13fe-4a18-8e8d-3d8ae497d28f"},"effectiveDateTime":"2026-01-15T07:59:00.000+00:00","issued":"2023-10-22T02:30:10.000+00:00","performer":[{"reference":"Organization/example1","display":"Hendricks Country Hospital"}],"valueInteger":1},"request":{"method":"PUT","url":"Observation/9f3002d8-56b4-43ec-a9dd-70027158a3bc"}},{"fullUrl":"https://madie.cms.gov/Encounter/1337cdd4-6423-4716-aa12-6d5ad07db74e","resource":{"resourceType":"Encounter","id":"1337cdd4-6423-4716-aa12-6d5ad07db74e","meta":{"profile":["http://hl7.org/fhir/us/qicore/StructureDefinition/qicore-encounter"]},"status":"finished","class":{"system":"http://terminology.hl7.org/CodeSystem/v3-ActCode","code":"IMP","display":"inpatient encounter"},"type":[{"coding":[{"system":"http://snomed.info/sct","code":"8715000"}]}],"subject":{"reference":"Patient/45a481a1-13fe-4a18-8e8d-3d8ae497d28f"},"period":{"start":"2026-01-15T08:00:00.000+00:00","end":"2026-01-20T08:15:00.000+00:00"},"reasonReference":[{"reference":"Condition/bf0f1770-1310-4257-8927-5bbe0aad932c"}]},"request":{"method":"PUT","url":"Encounter/1337cdd4-6423-4716-aa12-6d5ad07db74e"}},{"fullUrl":"https://madie.cms.gov/Procedure/577b2a47-e663-424e-95f1-024f65e0aa6b","resource":{"resourceType":"Procedure","id":"577b2a47-e663-424e-95f1-024f65e0aa6b","meta":{"profile":["http://hl7.org/fhir/us/qicore/StructureDefinition/qicore-procedure"]},"extension":[{"url":"http://hl7.org/fhir/us/qicore/StructureDefinition/qicore-recorded","valueDateTime":"2014-04-05T13:35:00.000+00:00"}],"status":"completed","code":{"coding":[{"system":"http://snomed.info/sct","version":"2022-09","code":"10745001","display":"Delivery of transverse presentation (procedure)","userSelected":true}]},"subject":{"reference":"Patient/45a481a1-13fe-4a18-8e8d-3d8ae497d28f"},"performedPeriod":{"start":"2026-01-15T08:10:00.000+00:00","end":"2026-01-15T09:14:00.000+00:00"}},"request":{"method":"PUT","url":"Procedure/577b2a47-e663-424e-95f1-024f65e0aa6b"}},{"fullUrl":"https://madie.cms.gov/Condition/bf0f1770-1310-4257-8927-5bbe0aad932c","resource":{"resourceType":"Condition","id":"bf0f1770-1310-4257-8927-5bbe0aad932c","meta":{"profile":["http://hl7.org/fhir/us/qicore/StructureDefinition/qicore-condition-encounter-diagnosis"]},"category":[{"coding":[{"system":"http://terminology.hl7.org/CodeSystem/condition-category","code":"encounter-diagnosis","display":"Encounter Diagnosis"}]}],"code":{"coding":[{"system":"http://snomed.info/sct","version":"2022-09","code":"169826009","display":"Single live birth from singleton pregnancy (finding)","userSelected":true}]},"subject":{"reference":"Patient/45a481a1-13fe-4a18-8e8d-3d8ae497d28f"},"encounter":{"reference":"Encounter/1337cdd4-6423-4716-aa12-6d5ad07db74e"},"recordedDate":"2026-10-14T08:00:00.000+00:00"},"request":{"method":"PUT","url":"Condition/bf0f1770-1310-4257-8927-5bbe0aad932c"}},{"fullUrl":"https://madie.cms.gov/Coverage/9cd72972-635f-4735-a584-604a3f774712","resource":{"resourceType":"Coverage","id":"9cd72972-635f-4735-a584-604a3f774712","meta":{"profile":["http://hl7.org/fhir/us/qicore/StructureDefinition/qicore-coverage"]},"status":"active","subscriberId":"523435","beneficiary":{"reference":"Patient/45a481a1-13fe-4a18-8e8d-3d8ae497d28f"},"relationship":{"coding":[{"system":"http://terminology.hl7.org/CodeSystem/subscriber-relationship","code":"self"}]},"payor":[{"reference":"Organization/429199df-ad7f-468c-86d2-dc1e880aa64e"}]},"request":{"method":"PUT","url":"Coverage/9cd72972-635f-4735-a584-604a3f774712"}},{"fullUrl":"https://madie.cms.gov/Organization/429199df-ad7f-468c-86d2-dc1e880aa64e","resource":{"resourceType":"Organization","id":"429199df-ad7f-468c-86d2-dc1e880aa64e","meta":{"profile":["http://hl7.org/fhir/us/qicore/StructureDefinition/qicore-organization"]},"identifier":[{"use":"temp","system":"urn:oid:2.16.840.1.113883.4.4","value":"21-3259825"}],"active":true,"type":[{"coding":[{"system":"http://terminology.hl7.org/CodeSystem/organization-type","code":"pay","display":"Payer"}]}],"name":"Blue Cross Blue Shield of Texas","telecom":[{"system":"phone","value":"(+1) 972-766-6900"}],"address":[{"use":"billing","type":"postal","line":["P.O. Box 660044"],"city":"Dallas","state":"TX","postalCode":"75266-0044","country":"USA"}]},"request":{"method":"PUT","url":"Organization/429199df-ad7f-468c-86d2-dc1e880aa64e"}},{"fullUrl":"https://madie.cms.gov/Practitioner/21b4cea7-4e14-4451-bfcb-b3d9c302fc2a","resource":{"resourceType":"Practitioner","id":"21b4cea7-4e14-4451-bfcb-b3d9c302fc2a","meta":{"profile":["http://hl7.org/fhir/us/qicore/StructureDefinition/qicore-practitioner"]},"identifier":[{"system":"http://hl7.org/fhir/sid/us-npi","value":"1234567890"}],"name":[{"family":"Evil","prefix":["Dr"]}]},"request":{"method":"PUT","url":"Practitioner/21b4cea7-4e14-4451-bfcb-b3d9c302fc2a"}},{"fullUrl":"https://madie.cms.gov/MeasureReport/5b32b046-9ea7-4040-95af-c4f6f066695e","resource":{"resourceType":"MeasureReport","id":"5b32b046-9ea7-4040-95af-c4f6f066695e","meta":{"profile":["http://hl7.org/fhir/us/cqfmeasures/StructureDefinition/test-case-cqfm"]},"contained":[{"resourceType":"Parameters","id":"7085afce-7882-49c0-ab60-b48215666354-parameters","parameter":[{"name":"subject","valueString":"45a481a1-13fe-4a18-8e8d-3d8ae497d28f"}]}],"extension":[{"url":"http://hl7.org/fhir/StructureDefinition/cqf-inputParameters","valueReference":{"reference":"#7085afce-7882-49c0-ab60-b48215666354-parameters"}},{"url":"http://hl7.org/fhir/us/cqfmeasures/StructureDefinition/cqfm-testCaseDescription","valueMarkdown":"Passes: IP, Pass DENOM, Pt is 27 years of age,  encounter dx delivery of singleton, gravida=1authored less than 42 weeks prior to delivery, Delivery date Estimated Relevant DateTime 24 hours and 1 minute before the Time of Delivery\n"}],"modifierExtension":[{"url":"http://hl7.org/fhir/us/cqfmeasures/StructureDefinition/cqfm-isTestCase","valueBoolean":true}],"status":"complete","type":"individual","measure":"https://madie.cms.gov/Measure/CMS0334FHIRPCCesareanBirth","period":{"start":"2026-01-01","end":"2026-12-31"},"group":[{"id":"Group_1","population":[{"id":"InitialPopulation_1","code":{"coding":[{"system":"http://terminology.hl7.org/CodeSystem/measure-population","code":"initial-population","display":"Initial Population"}]},"count":1},{"id":"Denominator_1","code":{"coding":[{"system":"http://terminology.hl7.org/CodeSystem/measure-population","code":"denominator","display":"Denominator"}]},"count":1},{"id":"DenominatorExclusion_1","code":{"coding":[{"system":"http://terminology.hl7.org/CodeSystem/measure-population","code":"denominator-exclusion","display":"Denominator Exclusion"}]},"count":0},{"id":"Numerator_1","code":{"coding":[{"system":"http://terminology.hl7.org/CodeSystem/measure-population","code":"numerator","display":"Numerator"}]},"count":0}],"measureScore":{"value":0.0}}],"evaluatedResource":[{"reference":"Patient/45a481a1-13fe-4a18-8e8d-3d8ae497d28f"},{"reference":"Observation/85b2c492-c58e-4c77-8ef6-dc9600fcc263"},{"reference":"Observation/66f274d2-cbda-42a3-b126-b93c39291f79"},{"reference":"Observation/9f3002d8-56b4-43ec-a9dd-70027158a3bc"},{"reference":"Encounter/1337cdd4-6423-4716-aa12-6d5ad07db74e"},{"reference":"Procedure/577b2a47-e663-424e-95f1-024f65e0aa6b"},{"reference":"Condition/bf0f1770-1310-4257-8927-5bbe0aad932c"},{"reference":"Coverage/9cd72972-635f-4735-a584-604a3f774712"},{"reference":"Organization/429199df-ad7f-468c-86d2-dc1e880aa64e"},{"reference":"Practitioner/21b4cea7-4e14-4451-bfcb-b3d9c302fc2a"}]},"request":{"method":"PUT","url":"MeasureReport/5b32b046-9ea7-4040-95af-c4f6f066695e"}}]},"request":{"method":"PUT","url":"Bundle/63487c2f0968f801225401ac"}},{"resource":{"resourceType":"Observation","id":"66f274d2-cbda-42a3-b126-b93c39291f79","meta":{"profile":["http://hl7.org/fhir/us/qicore/StructureDefinition/qicore-simple-observation"]},"status":"final","category":[{"coding":[{"system":"http://terminology.hl7.org/CodeSystem/observation-category","code":"exam","display":"exam","userSelected":true}]}],"code":{"coding":[{"system":"http://loinc.org","code":"11778-8","display":"delivery date estimated"}]},"subject":{"reference":"Patient/45a481a1-13fe-4a18-8e8d-3d8ae497d28f"},"effectiveDateTime":"2026-01-14T07:59:00.000+00:00","issued":"2023-10-22T02:30:10.000+00:00","performer":[{"reference":"Organization/example1","display":"Hendricks Country Hospital"}],"valueDateTime":"2026-02-04T08:00:00.000+00:00"},"request":{"method":"PUT","url":"Observation/66f274d2-cbda-42a3-b126-b93c39291f79"}},{"resource":{"resourceType":"Observation","id":"9f3002d8-56b4-43ec-a9dd-70027158a3bc","meta":{"profile":["http://hl7.org/fhir/us/qicore/StructureDefinition/qicore-simple-observation"]},"status":"final","category":[{"coding":[{"system":"http://terminology.hl7.org/CodeSystem/observation-category","code":"exam","display":"exam","userSelected":true}]}],"code":{"coding":[{"system":"http://loinc.org","code":"11996-6","display":"Pregnancies"}]},"subject":{"reference":"Patient/45a481a1-13fe-4a18-8e8d-3d8ae497d28f"},"effectiveDateTime":"2026-01-15T07:59:00.000+00:00","issued":"2023-10-22T02:30:10.000+00:00","performer":[{"reference":"Organization/example1","display":"Hendricks Country Hospital"}],"valueInteger":1},"request":{"method":"PUT","url":"Observation/9f3002d8-56b4-43ec-a9dd-70027158a3bc"}},{"resource":{"resourceType":"Observation","id":"85b2c492-c58e-4c77-8ef6-dc9600fcc263","meta":{"profile":["http://hl7.org/fhir/us/qicore/StructureDefinition/qicore-simple-observation"]},"status":"final","category":[{"coding":[{"system":"http://terminology.hl7.org/CodeSystem/observation-category","code":"exam","display":"exam","userSelected":true}]}],"code":{"coding":[{"system":"http://loinc.org","code":"93857-1","display":"Date and time of obstetric delivery"}]},"subject":{"reference":"Patient/45a481a1-13fe-4a18-8e8d-3d8ae497d28f"},"effectiveDateTime":"2026-01-15T08:00:00.000+00:00","issued":"2023-10-22T02:30:10.000+00:00","performer":[{"reference":"Organization/example1","display":"Hendricks Country Hospital"}],"valueDateTime":"2026-01-15T08:00:00.000+00:00"},"request":{"method":"PUT","url":"Observation/85b2c492-c58e-4c77-8ef6-dc9600fcc263"}},{"resource":{"resourceType":"Condition","id":"bf0f1770-1310-4257-8927-5bbe0aad932c","meta":{"profile":["http://hl7.org/fhir/us/qicore/StructureDefinition/qicore-condition-encounter-diagnosis"]},"category":[{"coding":[{"system":"http://terminology.hl7.org/CodeSystem/condition-category","code":"encounter-diagnosis","display":"Encounter Diagnosis"}]}],"code":{"coding":[{"system":"http://snomed.info/sct","version":"2022-09","code":"169826009","display":"Single live birth from singleton pregnancy (finding)","userSelected":true}]},"subject":{"reference":"Patient/45a481a1-13fe-4a18-8e8d-3d8ae497d28f"},"encounter":{"reference":"Encounter/1337cdd4-6423-4716-aa12-6d5ad07db74e"},"recordedDate":"2026-10-14T08:00:00.000+00:00"},"request":{"method":"PUT","url":"Condition/bf0f1770-1310-4257-8927-5bbe0aad932c"}},{"resource":{"resourceType":"Encounter","id":"1337cdd4-6423-4716-aa12-6d5ad07db74e","meta":{"profile":["http://hl7.org/fhir/us/qicore/StructureDefinition/qicore-encounter"]},"status":"finished","class":{"system":"http://terminology.hl7.org/CodeSystem/v3-ActCode","code":"IMP","display":"inpatient encounter"},"type":[{"coding":[{"system":"http://snomed.info/sct","code":"8715000"}]}],"subject":{"reference":"Patient/45a481a1-13fe-4a18-8e8d-3d8ae497d28f"},"period":{"start":"2026-01-15T08:00:00.000+00:00","end":"2026-01-20T08:15:00.000+00:00"},"reasonReference":[{"reference":"Condition/bf0f1770-1310-4257-8927-5bbe0aad932c"}]},"request":{"method":"PUT","url":"Encounter/1337cdd4-6423-4716-aa12-6d5ad07db74e"}},{"resource":{"resourceType":"Practitioner","id":"21b4cea7-4e14-4451-bfcb-b3d9c302fc2a","meta":{"profile":["http://hl7.org/fhir/us/qicore/StructureDefinition/qicore-practitioner"]},"identifier":[{"system":"http://hl7.org/fhir/sid/us-npi","value":"1234567890"}],"name":[{"family":"Evil","prefix":["Dr"]}]},"request":{"method":"PUT","url":"Practitioner/21b4cea7-4e14-4451-bfcb-b3d9c302fc2a"}},{"resource":{"resourceType":"Patient","id":"45a481a1-13fe-4a18-8e8d-3d8ae497d28f","meta":{"profile":["http://hl7.org/fhir/us/qicore/StructureDefinition/qicore-patient"]},"text":{"status":"generated","div":"<div xmlns=\"http://www.w3.org/1999/xhtml\"><div class=\"hapiHeaderText\">AssessEDDRelDtTime24Hours1minB4TimeOfDeliv<b>DENPASS</b></div><table class=\"hapiPropertyTable\"><tbody><tr><td>Identifier</td><td>b00b06f67015bda652373741cca10f65466d828e3a674df9528f73ec417ce0bb</td></tr><tr><td>Date of birth</td><td><span>14 February 1985</span></td></tr></tbody></table></div>"},"extension":[{"url":"http://hl7.org/fhir/us/core/StructureDefinition/us-core-race","extension":[{"url":"ombCategory","valueCoding":{"system":"urn:oid:2.16.840.1.113883.6.238","code":"1002-5","display":"American Indian or Alaska Native","userSelected":true}},{"url":"text","valueString":"American Indian or Alaska Native"}]},{"url":"http://hl7.org/fhir/us/core/StructureDefinition/us-core-ethnicity","extension":[{"url":"ombCategory","valueCoding":{"system":"urn:oid:2.16.840.1.113883.6.238","code":"2135-2","display":"Hispanic or Latino","userSelected":true}},{"url":"text","valueString":"Hispanic or Latino"}]}],"identifier":[{"type":{"coding":[{"system":"http://terminology.hl7.org/CodeSystem/v2-0203","code":"MR"}]},"system":"https://bonnie-fhir.healthit.gov/","value":"63487c2f0968f801225401ac"}],"active":true,"name":[{"use":"usual","family":"DENPass","given":["AssessEDDRelDtTime24Hours1minB4TimeOfDeliv"]}],"gender":"female","birthDate":"1998-02-14"},"request":{"method":"PUT","url":"Patient/45a481a1-13fe-4a18-8e8d-3d8ae497d28f"}},{"resource":{"resourceType":"MeasureReport","id":"5b32b046-9ea7-4040-95af-c4f6f066695e","meta":{"profile":["http://hl7.org/fhir/us/cqfmeasures/StructureDefinition/test-case-cqfm"]},"contained":[{"resourceType":"Parameters","id":"7085afce-7882-49c0-ab60-b48215666354-parameters","parameter":[{"name":"subject","valueString":"45a481a1-13fe-4a18-8e8d-3d8ae497d28f"}]}],"extension":[{"url":"http://hl7.org/fhir/StructureDefinition/cqf-inputParameters","valueReference":{"reference":"#7085afce-7882-49c0-ab60-b48215666354-parameters"}},{"url":"http://hl7.org/fhir/us/cqfmeasures/StructureDefinition/cqfm-testCaseDescription","valueMarkdown":"Passes: IP, Pass DENOM, Pt is 27 years of age,  encounter dx delivery of singleton, gravida=1authored less than 42 weeks prior to delivery, Delivery date Estimated Relevant DateTime 24 hours and 1 minute before the Time of Delivery\n"}],"modifierExtension":[{"url":"http://hl7.org/fhir/us/cqfmeasures/StructureDefinition/cqfm-isTestCase","valueBoolean":true}],"status":"complete","type":"individual","measure":"https://madie.cms.gov/Measure/CMS0334FHIRPCCesareanBirth","period":{"start":"2026-01-01","end":"2026-12-31"},"group":[{"id":"Group_1","population":[{"id":"InitialPopulation_1","code":{"coding":[{"system":"http://terminology.hl7.org/CodeSystem/measure-population","code":"initial-population","display":"Initial Population"}]},"count":1},{"id":"Denominator_1","code":{"coding":[{"system":"http://terminology.hl7.org/CodeSystem/measure-population","code":"denominator","display":"Denominator"}]},"count":1},{"id":"DenominatorExclusion_1","code":{"coding":[{"system":"http://terminology.hl7.org/CodeSystem/measure-population","code":"denominator-exclusion","display":"Denominator Exclusion"}]},"count":0},{"id":"Numerator_1","code":{"coding":[{"system":"http://terminology.hl7.org/CodeSystem/measure-population","code":"numerator","display":"Numerator"}]},"count":0}],"measureScore":{"value":0.0}}],"evaluatedResource":[{"reference":"Patient/45a481a1-13fe-4a18-8e8d-3d8ae497d28f"},{"reference":"Observation/85b2c492-c58e-4c77-8ef6-dc9600fcc263"},{"reference":"Observation/66f274d2-cbda-42a3-b126-b93c39291f79"},{"reference":"Observation/9f3002d8-56b4-43ec-a9dd-70027158a3bc"},{"reference":"Encounter/1337cdd4-6423-4716-aa12-6d5ad07db74e"},{"reference":"Procedure/577b2a47-e663-424e-95f1-024f65e0aa6b"},{"reference":"Condition/bf0f1770-1310-4257-8927-5bbe0aad932c"},{"reference":"Coverage/9cd72972-635f-4735-a584-604a3f774712"},{"reference":"Organization/429199df-ad7f-468c-86d2-dc1e880aa64e"},{"reference":"Practitioner/21b4cea7-4e14-4451-bfcb-b3d9c302fc2a"}]},"request":{"method":"PUT","url":"MeasureReport/5b32b046-9ea7-4040-95af-c4f6f066695e"}},{"resource":{"resourceType":"Organization","id":"429199df-ad7f-468c-86d2-dc1e880aa64e","meta":{"profile":["http://hl7.org/fhir/us/qicore/StructureDefinition/qicore-organization"]},"identifier":[{"use":"temp","system":"urn:oid:2.16.840.1.113883.4.4","value":"21-3259825"}],"active":true,"type":[{"coding":[{"system":"http://terminology.hl7.org/CodeSystem/organization-type","code":"pay","display":"Payer"}]}],"name":"Blue Cross Blue Shield of Texas","telecom":[{"system":"phone","value":"(+1) 972-766-6900"}],"address":[{"use":"billing","type":"postal","line":["P.O. Box 660044"],"city":"Dallas","state":"TX","postalCode":"75266-0044","country":"USA"}]},"request":{"method":"PUT","url":"Organization/429199df-ad7f-468c-86d2-dc1e880aa64e"}},{"resource":{"resourceType":"Coverage","id":"9cd72972-635f-4735-a584-604a3f774712","meta":{"profile":["http://hl7.org/fhir/us/qicore/StructureDefinition/qicore-coverage"]},"status":"active","subscriberId":"523435","beneficiary":{"reference":"Patient/45a481a1-13fe-4a18-8e8d-3d8ae497d28f"},"relationship":{"coding":[{"system":"http://terminology.hl7.org/CodeSystem/subscriber-relationship","code":"self"}]},"payor":[{"reference":"Organization/429199df-ad7f-468c-86d2-dc1e880aa64e"}]},"request":{"method":"PUT","url":"Coverage/9cd72972-635f-4735-a584-604a3f774712"}}]}