{"resourceType":"Bundle","id":"tests-3e948892-1ae0-4aa5-8a64-55248d3864f8-bundle","type":"transaction","entry":[{"resource":{"resourceType":"Condition","id":"bc2b1a10-3c34-4923-b0a9-65ac2e368c84","meta":{"profile":["http://hl7.org/fhir/us/qicore/StructureDefinition/qicore-condition-encounter-diagnosis"]},"category":[{"coding":[{"system":"http://terminology.hl7.org/CodeSystem/condition-category","code":"encounter-diagnosis","display":"Encounter Diagnosis"}]}],"code":{"coding":[{"system":"http://snomed.info/sct","version":"2022-09","code":"169826009","display":"Single live birth from singleton pregnancy (finding)","userSelected":true}]},"subject":{"reference":"Patient/3e948892-1ae0-4aa5-8a64-55248d3864f8"},"encounter":{"reference":"Encounter/2066ad42-c31e-4571-afc6-a8116143b589"},"recordedDate":"2026-10-20T08:00:00.000+00:00"},"request":{"method":"PUT","url":"Condition/bc2b1a10-3c34-4923-b0a9-65ac2e368c84"}},{"resource":{"resourceType":"Encounter","id":"2066ad42-c31e-4571-afc6-a8116143b589","meta":{"profile":["http://hl7.org/fhir/us/qicore/StructureDefinition/qicore-encounter"]},"status":"finished","class":{"system":"http://terminology.hl7.org/CodeSystem/v3-ActCode","code":"IMP","display":"inpatient encounter"},"type":[{"coding":[{"system":"http://snomed.info/sct","code":"183452005"}]}],"subject":{"reference":"Patient/3e948892-1ae0-4aa5-8a64-55248d3864f8"},"period":{"start":"2026-06-08T08:00:00.000+00:00","end":"2026-06-10T08:15:00.000+00:00"},"length":{"value":2,"unit":"days"},"reasonReference":[{"reference":"Condition/bc2b1a10-3c34-4923-b0a9-65ac2e368c84"}]},"request":{"method":"PUT","url":"Encounter/2066ad42-c31e-4571-afc6-a8116143b589"}},{"resource":{"resourceType":"Bundle","id":"63487c2e0968f80122540172","type":"transaction","entry":[{"fullUrl":"https://madie.cms.gov/Patient/3e948892-1ae0-4aa5-8a64-55248d3864f8","resource":{"resourceType":"Patient","id":"3e948892-1ae0-4aa5-8a64-55248d3864f8","meta":{"profile":["http://hl7.org/fhir/us/qicore/StructureDefinition/qicore-patient"]},"text":{"status":"generated","div":"<div xmlns=\"http://www.w3.org/1999/xhtml\"><div class=\"hapiHeaderText\">AssessTimeOfDelivRelvDateTimeEQDelivEncStart <b>DENPASS </b></div><table class=\"hapiPropertyTable\"><tbody><tr><td>Identifier</td><td>2b1f0141ffe85efd85bb0ba18ddf833ac147ccc7ffd86f1de2a9b7f23de6478b</td></tr><tr><td>Date of birth</td><td><span>14 February 1985</span></td></tr></tbody></table></div>"},"extension":[{"url":"http://hl7.org/fhir/us/core/StructureDefinition/us-core-race","extension":[{"url":"ombCategory","valueCoding":{"system":"urn:oid:2.16.840.1.113883.6.238","code":"1002-5","display":"American Indian or Alaska Native","userSelected":true}},{"url":"text","valueString":"American Indian or Alaska Native"}]},{"url":"http://hl7.org/fhir/us/core/StructureDefinition/us-core-ethnicity","extension":[{"url":"ombCategory","valueCoding":{"system":"urn:oid:2.16.840.1.113883.6.238","code":"2135-2","display":"Hispanic or Latino","userSelected":true}},{"url":"text","valueString":"Hispanic or Latino"}]}],"identifier":[{"type":{"coding":[{"system":"http://terminology.hl7.org/CodeSystem/v2-0203","code":"MR"}]},"system":"https://bonnie-fhir.healthit.gov/","value":"63487c2e0968f80122540172"}],"active":true,"name":[{"use":"usual","family":"DENPass","given":["AssessTimeOfDelivRelvDateTimeEQDelivEncStart"]}],"gender":"female","birthDate":"1998-02-14"},"request":{"method":"PUT","url":"Patient/3e948892-1ae0-4aa5-8a64-55248d3864f8"}},{"fullUrl":"https://madie.cms.gov/Observation/31fdca9b-e6b3-4364-8fc6-940892cafe3a","resource":{"resourceType":"Observation","id":"31fdca9b-e6b3-4364-8fc6-940892cafe3a","meta":{"profile":["http://hl7.org/fhir/us/qicore/StructureDefinition/qicore-simple-observation"]},"status":"final","category":[{"coding":[{"system":"http://terminology.hl7.org/CodeSystem/observation-category","code":"exam","display":"exam","userSelected":true}]}],"code":{"coding":[{"system":"http://loinc.org","code":"11884-4"}]},"subject":{"reference":"Patient/3e948892-1ae0-4aa5-8a64-55248d3864f8"},"effectiveDateTime":"2026-06-08T07:15:00.000+00:00","valueQuantity":{"value":38,"system":"http://unitsofmeasure.org","code":"wk"}},"request":{"method":"PUT","url":"Observation/31fdca9b-e6b3-4364-8fc6-940892cafe3a"}},{"fullUrl":"https://madie.cms.gov/Observation/9d0ee030-677b-4703-87a9-0213d2628322","resource":{"resourceType":"Observation","id":"9d0ee030-677b-4703-87a9-0213d2628322","meta":{"profile":["http://hl7.org/fhir/us/qicore/StructureDefinition/qicore-simple-observation"]},"status":"final","category":[{"coding":[{"system":"http://terminology.hl7.org/CodeSystem/observation-category","code":"exam","display":"exam","userSelected":true}]}],"code":{"coding":[{"system":"http://loinc.org","code":"11996-6"}]},"subject":{"reference":"Patient/3e948892-1ae0-4aa5-8a64-55248d3864f8"},"effectiveDateTime":"2026-06-08T07:59:00.000+00:00","valueInteger":1},"request":{"method":"PUT","url":"Observation/9d0ee030-677b-4703-87a9-0213d2628322"}},{"fullUrl":"https://madie.cms.gov/Observation/e440bcdd-4e63-4ead-99cf-54b32df61ff6","resource":{"resourceType":"Observation","id":"e440bcdd-4e63-4ead-99cf-54b32df61ff6","meta":{"profile":["http://hl7.org/fhir/us/qicore/StructureDefinition/qicore-simple-observation"]},"status":"final","category":[{"coding":[{"system":"http://terminology.hl7.org/CodeSystem/observation-category","code":"exam","display":"exam","userSelected":true}]}],"code":{"coding":[{"system":"http://loinc.org","code":"93857-1"}]},"subject":{"reference":"Patient/3e948892-1ae0-4aa5-8a64-55248d3864f8"},"effectiveDateTime":"2026-06-08T08:00:00.000+00:00","issued":"2026-06-08T08:00:00.000+00:00","valueDateTime":"2026-06-08T08:00:00.000+00:00"},"request":{"method":"PUT","url":"Observation/e440bcdd-4e63-4ead-99cf-54b32df61ff6"}},{"fullUrl":"https://madie.cms.gov/Encounter/2066ad42-c31e-4571-afc6-a8116143b589","resource":{"resourceType":"Encounter","id":"2066ad42-c31e-4571-afc6-a8116143b589","meta":{"profile":["http://hl7.org/fhir/us/qicore/StructureDefinition/qicore-encounter"]},"status":"finished","class":{"system":"http://terminology.hl7.org/CodeSystem/v3-ActCode","code":"IMP","display":"inpatient encounter"},"type":[{"coding":[{"system":"http://snomed.info/sct","code":"183452005"}]}],"subject":{"reference":"Patient/3e948892-1ae0-4aa5-8a64-55248d3864f8"},"period":{"start":"2026-06-08T08:00:00.000+00:00","end":"2026-06-10T08:15:00.000+00:00"},"length":{"value":2,"unit":"days"},"reasonReference":[{"reference":"Condition/bc2b1a10-3c34-4923-b0a9-65ac2e368c84"}]},"request":{"method":"PUT","url":"Encounter/2066ad42-c31e-4571-afc6-a8116143b589"}},{"fullUrl":"https://madie.cms.gov/Coverage/5f5f9e491c76ba674bb032f5","resource":{"resourceType":"Coverage","id":"5f5f9e491c76ba674bb032f5","meta":{"profile":["http://hl7.org/fhir/us/qicore/StructureDefinition/qicore-coverage"]},"status":"active","subscriberId":"523435","beneficiary":{"reference":"Patient/3e948892-1ae0-4aa5-8a64-55248d3864f8"},"relationship":{"coding":[{"system":"http://terminology.hl7.org/CodeSystem/subscriber-relationship","code":"self"}]},"period":{"start":"1986-02-14T08:00:00.000+00:00"},"payor":[{"reference":"Organization/7420cd45-8740-4be5-8f64-1a85a1ebb699"}]},"request":{"method":"PUT","url":"Coverage/5f5f9e491c76ba674bb032f5"}},{"fullUrl":"https://madie.cms.gov/Procedure/3c686511-cf5c-45af-9b60-a41fb682388c","resource":{"resourceType":"Procedure","id":"3c686511-cf5c-45af-9b60-a41fb682388c","meta":{"profile":["http://hl7.org/fhir/us/qicore/StructureDefinition/qicore-procedure"]},"extension":[{"url":"http://hl7.org/fhir/us/qicore/StructureDefinition/qicore-recorded","valueDateTime":"2014-04-05T13:35:00.000+00:00"}],"status":"completed","code":{"coding":[{"system":"http://www.cms.gov/Medicare/Coding/ICD10","code":"10D00Z0"}]},"subject":{"reference":"Patient/3e948892-1ae0-4aa5-8a64-55248d3864f8"},"performedPeriod":{"start":"2026-06-08T08:00:00.000+00:00","end":"2026-06-08T09:15:00.000+00:00"}},"request":{"method":"PUT","url":"Procedure/3c686511-cf5c-45af-9b60-a41fb682388c"}},{"fullUrl":"https://madie.cms.gov/Condition/bc2b1a10-3c34-4923-b0a9-65ac2e368c84","resource":{"resourceType":"Condition","id":"bc2b1a10-3c34-4923-b0a9-65ac2e368c84","meta":{"profile":["http://hl7.org/fhir/us/qicore/StructureDefinition/qicore-condition-encounter-diagnosis"]},"category":[{"coding":[{"system":"http://terminology.hl7.org/CodeSystem/condition-category","code":"encounter-diagnosis","display":"Encounter Diagnosis"}]}],"code":{"coding":[{"system":"http://snomed.info/sct","version":"2022-09","code":"169826009","display":"Single live birth from singleton pregnancy (finding)","userSelected":true}]},"subject":{"reference":"Patient/3e948892-1ae0-4aa5-8a64-55248d3864f8"},"encounter":{"reference":"Encounter/2066ad42-c31e-4571-afc6-a8116143b589"},"recordedDate":"2026-10-20T08:00:00.000+00:00"},"request":{"method":"PUT","url":"Condition/bc2b1a10-3c34-4923-b0a9-65ac2e368c84"}},{"fullUrl":"https://madie.cms.gov/Organization/7420cd45-8740-4be5-8f64-1a85a1ebb699","resource":{"resourceType":"Organization","id":"7420cd45-8740-4be5-8f64-1a85a1ebb699","meta":{"profile":["http://hl7.org/fhir/us/qicore/StructureDefinition/qicore-organization"]},"identifier":[{"use":"temp","system":"urn:oid:2.16.840.1.113883.4.4","value":"21-3259825"}],"active":true,"type":[{"coding":[{"system":"http://terminology.hl7.org/CodeSystem/organization-type","code":"pay","display":"Payer"}]}],"name":"Blue Cross Blue Shield of Texas","telecom":[{"system":"phone","value":"(+1) 972-766-6900"}],"address":[{"use":"billing","type":"postal","line":["P.O. Box 660044"],"city":"Dallas","state":"TX","postalCode":"75266-0044","country":"USA"}]},"request":{"method":"PUT","url":"Organization/7420cd45-8740-4be5-8f64-1a85a1ebb699"}},{"fullUrl":"https://madie.cms.gov/Practitioner/395459f5-a77e-446d-8f3f-e43aab728331","resource":{"resourceType":"Practitioner","id":"395459f5-a77e-446d-8f3f-e43aab728331","meta":{"profile":["http://hl7.org/fhir/us/qicore/StructureDefinition/qicore-practitioner"]},"identifier":[{"system":"http://hl7.org/fhir/sid/us-npi","value":"1234567890"}],"name":[{"family":"Evil","prefix":["Dr"]}]},"request":{"method":"PUT","url":"Practitioner/395459f5-a77e-446d-8f3f-e43aab728331"}},{"fullUrl":"https://madie.cms.gov/MeasureReport/6cb4ff10-aa24-4e83-baba-02afffb59631","resource":{"resourceType":"MeasureReport","id":"6cb4ff10-aa24-4e83-baba-02afffb59631","meta":{"profile":["http://hl7.org/fhir/us/cqfmeasures/StructureDefinition/test-case-cqfm"]},"contained":[{"resourceType":"Parameters","id":"9f769a50-3dad-4901-9dcc-315aed8a3f5e-parameters","parameter":[{"name":"subject","valueString":"3e948892-1ae0-4aa5-8a64-55248d3864f8"}]}],"extension":[{"url":"http://hl7.org/fhir/StructureDefinition/cqf-inputParameters","valueReference":{"reference":"#9f769a50-3dad-4901-9dcc-315aed8a3f5e-parameters"}},{"url":"http://hl7.org/fhir/us/cqfmeasures/StructureDefinition/cqfm-testCaseDescription","valueMarkdown":"Passes: IP, Pt is 27 years of age,  encounter dx of delivery of singleton, gravida, EGA( >37 ) and @ 38 weeks, AsseDelivTm Is DelivEncStart.  Tests \"TimeOfDelivery.relevantDatetime during DeliveryEncounters.relevantPeriod\".\n"}],"modifierExtension":[{"url":"http://hl7.org/fhir/us/cqfmeasures/StructureDefinition/cqfm-isTestCase","valueBoolean":true}],"status":"complete","type":"individual","measure":"https://madie.cms.gov/Measure/CMS0334FHIRPCCesareanBirth","period":{"start":"2026-01-01","end":"2026-12-31"},"group":[{"id":"Group_1","population":[{"id":"InitialPopulation_1","code":{"coding":[{"system":"http://terminology.hl7.org/CodeSystem/measure-population","code":"initial-population","display":"Initial Population"}]},"count":1},{"id":"Denominator_1","code":{"coding":[{"system":"http://terminology.hl7.org/CodeSystem/measure-population","code":"denominator","display":"Denominator"}]},"count":1},{"id":"DenominatorExclusion_1","code":{"coding":[{"system":"http://terminology.hl7.org/CodeSystem/measure-population","code":"denominator-exclusion","display":"Denominator Exclusion"}]},"count":0},{"id":"Numerator_1","code":{"coding":[{"system":"http://terminology.hl7.org/CodeSystem/measure-population","code":"numerator","display":"Numerator"}]},"count":1}],"measureScore":{"value":0.0}}],"evaluatedResource":[{"reference":"Patient/3e948892-1ae0-4aa5-8a64-55248d3864f8"},{"reference":"Observation/31fdca9b-e6b3-4364-8fc6-940892cafe3a"},{"reference":"Observation/9d0ee030-677b-4703-87a9-0213d2628322"},{"reference":"Observation/e440bcdd-4e63-4ead-99cf-54b32df61ff6"},{"reference":"Encounter/2066ad42-c31e-4571-afc6-a8116143b589"},{"reference":"Coverage/5f5f9e491c76ba674bb032f5"},{"reference":"Procedure/3c686511-cf5c-45af-9b60-a41fb682388c"},{"reference":"Condition/bc2b1a10-3c34-4923-b0a9-65ac2e368c84"},{"reference":"Organization/7420cd45-8740-4be5-8f64-1a85a1ebb699"},{"reference":"Practitioner/395459f5-a77e-446d-8f3f-e43aab728331"}]},"request":{"method":"PUT","url":"MeasureReport/6cb4ff10-aa24-4e83-baba-02afffb59631"}}]},"request":{"method":"PUT","url":"Bundle/63487c2e0968f80122540172"}},{"resource":{"resourceType":"MeasureReport","id":"6cb4ff10-aa24-4e83-baba-02afffb59631","meta":{"profile":["http://hl7.org/fhir/us/cqfmeasures/StructureDefinition/test-case-cqfm"]},"contained":[{"resourceType":"Parameters","id":"9f769a50-3dad-4901-9dcc-315aed8a3f5e-parameters","parameter":[{"name":"subject","valueString":"3e948892-1ae0-4aa5-8a64-55248d3864f8"}]}],"extension":[{"url":"http://hl7.org/fhir/StructureDefinition/cqf-inputParameters","valueReference":{"reference":"#9f769a50-3dad-4901-9dcc-315aed8a3f5e-parameters"}},{"url":"http://hl7.org/fhir/us/cqfmeasures/StructureDefinition/cqfm-testCaseDescription","valueMarkdown":"Passes: IP, Pt is 27 years of age,  encounter dx of delivery of singleton, gravida, EGA( >37 ) and @ 38 weeks, AsseDelivTm Is DelivEncStart.  Tests \"TimeOfDelivery.relevantDatetime during DeliveryEncounters.relevantPeriod\".\n"}],"modifierExtension":[{"url":"http://hl7.org/fhir/us/cqfmeasures/StructureDefinition/cqfm-isTestCase","valueBoolean":true}],"status":"complete","type":"individual","measure":"https://madie.cms.gov/Measure/CMS0334FHIRPCCesareanBirth","period":{"start":"2026-01-01","end":"2026-12-31"},"group":[{"id":"Group_1","population":[{"id":"InitialPopulation_1","code":{"coding":[{"system":"http://terminology.hl7.org/CodeSystem/measure-population","code":"initial-population","display":"Initial Population"}]},"count":1},{"id":"Denominator_1","code":{"coding":[{"system":"http://terminology.hl7.org/CodeSystem/measure-population","code":"denominator","display":"Denominator"}]},"count":1},{"id":"DenominatorExclusion_1","code":{"coding":[{"system":"http://terminology.hl7.org/CodeSystem/measure-population","code":"denominator-exclusion","display":"Denominator Exclusion"}]},"count":0},{"id":"Numerator_1","code":{"coding":[{"system":"http://terminology.hl7.org/CodeSystem/measure-population","code":"numerator","display":"Numerator"}]},"count":1}],"measureScore":{"value":0.0}}],"evaluatedResource":[{"reference":"Patient/3e948892-1ae0-4aa5-8a64-55248d3864f8"},{"reference":"Observation/31fdca9b-e6b3-4364-8fc6-940892cafe3a"},{"reference":"Observation/9d0ee030-677b-4703-87a9-0213d2628322"},{"reference":"Observation/e440bcdd-4e63-4ead-99cf-54b32df61ff6"},{"reference":"Encounter/2066ad42-c31e-4571-afc6-a8116143b589"},{"reference":"Coverage/5f5f9e491c76ba674bb032f5"},{"reference":"Procedure/3c686511-cf5c-45af-9b60-a41fb682388c"},{"reference":"Condition/bc2b1a10-3c34-4923-b0a9-65ac2e368c84"},{"reference":"Organization/7420cd45-8740-4be5-8f64-1a85a1ebb699"},{"reference":"Practitioner/395459f5-a77e-446d-8f3f-e43aab728331"}]},"request":{"method":"PUT","url":"MeasureReport/6cb4ff10-aa24-4e83-baba-02afffb59631"}},{"resource":{"resourceType":"Observation","id":"e440bcdd-4e63-4ead-99cf-54b32df61ff6","meta":{"profile":["http://hl7.org/fhir/us/qicore/StructureDefinition/qicore-simple-observation"]},"status":"final","category":[{"coding":[{"system":"http://terminology.hl7.org/CodeSystem/observation-category","code":"exam","display":"exam","userSelected":true}]}],"code":{"coding":[{"system":"http://loinc.org","code":"93857-1"}]},"subject":{"reference":"Patient/3e948892-1ae0-4aa5-8a64-55248d3864f8"},"effectiveDateTime":"2026-06-08T08:00:00.000+00:00","issued":"2026-06-08T08:00:00.000+00:00","valueDateTime":"2026-06-08T08:00:00.000+00:00"},"request":{"method":"PUT","url":"Observation/e440bcdd-4e63-4ead-99cf-54b32df61ff6"}},{"resource":{"resourceType":"Observation","id":"9d0ee030-677b-4703-87a9-0213d2628322","meta":{"profile":["http://hl7.org/fhir/us/qicore/StructureDefinition/qicore-simple-observation"]},"status":"final","category":[{"coding":[{"system":"http://terminology.hl7.org/CodeSystem/observation-category","code":"exam","display":"exam","userSelected":true}]}],"code":{"coding":[{"system":"http://loinc.org","code":"11996-6"}]},"subject":{"reference":"Patient/3e948892-1ae0-4aa5-8a64-55248d3864f8"},"effectiveDateTime":"2026-06-08T07:59:00.000+00:00","valueInteger":1},"request":{"method":"PUT","url":"Observation/9d0ee030-677b-4703-87a9-0213d2628322"}},{"resource":{"resourceType":"Patient","id":"3e948892-1ae0-4aa5-8a64-55248d3864f8","meta":{"profile":["http://hl7.org/fhir/us/qicore/StructureDefinition/qicore-patient"]},"text":{"status":"generated","div":"<div xmlns=\"http://www.w3.org/1999/xhtml\"><div class=\"hapiHeaderText\">AssessTimeOfDelivRelvDateTimeEQDelivEncStart <b>DENPASS </b></div><table class=\"hapiPropertyTable\"><tbody><tr><td>Identifier</td><td>2b1f0141ffe85efd85bb0ba18ddf833ac147ccc7ffd86f1de2a9b7f23de6478b</td></tr><tr><td>Date of birth</td><td><span>14 February 1985</span></td></tr></tbody></table></div>"},"extension":[{"url":"http://hl7.org/fhir/us/core/StructureDefinition/us-core-race","extension":[{"url":"ombCategory","valueCoding":{"system":"urn:oid:2.16.840.1.113883.6.238","code":"1002-5","display":"American Indian or Alaska Native","userSelected":true}},{"url":"text","valueString":"American Indian or Alaska Native"}]},{"url":"http://hl7.org/fhir/us/core/StructureDefinition/us-core-ethnicity","extension":[{"url":"ombCategory","valueCoding":{"system":"urn:oid:2.16.840.1.113883.6.238","code":"2135-2","display":"Hispanic or Latino","userSelected":true}},{"url":"text","valueString":"Hispanic or Latino"}]}],"identifier":[{"type":{"coding":[{"system":"http://terminology.hl7.org/CodeSystem/v2-0203","code":"MR"}]},"system":"https://bonnie-fhir.healthit.gov/","value":"63487c2e0968f80122540172"}],"active":true,"name":[{"use":"usual","family":"DENPass","given":["AssessTimeOfDelivRelvDateTimeEQDelivEncStart"]}],"gender":"female","birthDate":"1998-02-14"},"request":{"method":"PUT","url":"Patient/3e948892-1ae0-4aa5-8a64-55248d3864f8"}},{"resource":{"resourceType":"Procedure","id":"3c686511-cf5c-45af-9b60-a41fb682388c","meta":{"profile":["http://hl7.org/fhir/us/qicore/StructureDefinition/qicore-procedure"]},"extension":[{"url":"http://hl7.org/fhir/us/qicore/StructureDefinition/qicore-recorded","valueDateTime":"2014-04-05T13:35:00.000+00:00"}],"status":"completed","code":{"coding":[{"system":"http://www.cms.gov/Medicare/Coding/ICD10","code":"10D00Z0"}]},"subject":{"reference":"Patient/3e948892-1ae0-4aa5-8a64-55248d3864f8"},"performedPeriod":{"start":"2026-06-08T08:00:00.000+00:00","end":"2026-06-08T09:15:00.000+00:00"}},"request":{"method":"PUT","url":"Procedure/3c686511-cf5c-45af-9b60-a41fb682388c"}},{"resource":{"resourceType":"Coverage","id":"5f5f9e491c76ba674bb032f5","meta":{"profile":["http://hl7.org/fhir/us/qicore/StructureDefinition/qicore-coverage"]},"status":"active","subscriberId":"523435","beneficiary":{"reference":"Patient/3e948892-1ae0-4aa5-8a64-55248d3864f8"},"relationship":{"coding":[{"system":"http://terminology.hl7.org/CodeSystem/subscriber-relationship","code":"self"}]},"period":{"start":"1986-02-14T08:00:00.000+00:00"},"payor":[{"reference":"Organization/7420cd45-8740-4be5-8f64-1a85a1ebb699"}]},"request":{"method":"PUT","url":"Coverage/5f5f9e491c76ba674bb032f5"}},{"resource":{"resourceType":"Practitioner","id":"395459f5-a77e-446d-8f3f-e43aab728331","meta":{"profile":["http://hl7.org/fhir/us/qicore/StructureDefinition/qicore-practitioner"]},"identifier":[{"system":"http://hl7.org/fhir/sid/us-npi","value":"1234567890"}],"name":[{"family":"Evil","prefix":["Dr"]}]},"request":{"method":"PUT","url":"Practitioner/395459f5-a77e-446d-8f3f-e43aab728331"}},{"resource":{"resourceType":"Observation","id":"31fdca9b-e6b3-4364-8fc6-940892cafe3a","meta":{"profile":["http://hl7.org/fhir/us/qicore/StructureDefinition/qicore-simple-observation"]},"status":"final","category":[{"coding":[{"system":"http://terminology.hl7.org/CodeSystem/observation-category","code":"exam","display":"exam","userSelected":true}]}],"code":{"coding":[{"system":"http://loinc.org","code":"11884-4"}]},"subject":{"reference":"Patient/3e948892-1ae0-4aa5-8a64-55248d3864f8"},"effectiveDateTime":"2026-06-08T07:15:00.000+00:00","valueQuantity":{"value":38,"system":"http://unitsofmeasure.org","code":"wk"}},"request":{"method":"PUT","url":"Observation/31fdca9b-e6b3-4364-8fc6-940892cafe3a"}},{"resource":{"resourceType":"Organization","id":"7420cd45-8740-4be5-8f64-1a85a1ebb699","meta":{"profile":["http://hl7.org/fhir/us/qicore/StructureDefinition/qicore-organization"]},"identifier":[{"use":"temp","system":"urn:oid:2.16.840.1.113883.4.4","value":"21-3259825"}],"active":true,"type":[{"coding":[{"system":"http://terminology.hl7.org/CodeSystem/organization-type","code":"pay","display":"Payer"}]}],"name":"Blue Cross Blue Shield of Texas","telecom":[{"system":"phone","value":"(+1) 972-766-6900"}],"address":[{"use":"billing","type":"postal","line":["P.O. Box 660044"],"city":"Dallas","state":"TX","postalCode":"75266-0044","country":"USA"}]},"request":{"method":"PUT","url":"Organization/7420cd45-8740-4be5-8f64-1a85a1ebb699"}}]}