{"resourceType":"Bundle","id":"tests-0623e2b5-f872-4574-934b-ef2e63d85b6d-bundle","type":"transaction","entry":[{"fullUrl":"Observation/24b405c7-affb-40b8-8915-64dbf6b829ef","resource":{"resourceType":"Observation","id":"24b405c7-affb-40b8-8915-64dbf6b829ef","meta":{"profile":["http://hl7.org/fhir/us/qicore/StructureDefinition/qicore-simple-observation"]},"status":"final","category":[{"coding":[{"system":"http://terminology.hl7.org/CodeSystem/observation-category","code":"exam","display":"exam","userSelected":true}]}],"code":{"coding":[{"system":"http://loinc.org","code":"93857-1"}]},"subject":{"reference":"Patient/0623e2b5-f872-4574-934b-ef2e63d85b6d"},"effectiveDateTime":"2026-06-08T20:00:00.000+00:00","performer":[{"reference":"Organization/example1","display":"Hendricks Country Hospital"}],"valueDateTime":"2026-06-08T20:00:00.000+00:00"},"request":{"method":"PUT","url":"Observation/24b405c7-affb-40b8-8915-64dbf6b829ef"}},{"fullUrl":"Coverage/a1c6df47-360b-4a99-9875-426a13f32496","resource":{"resourceType":"Coverage","id":"a1c6df47-360b-4a99-9875-426a13f32496","meta":{"profile":["http://hl7.org/fhir/us/qicore/StructureDefinition/qicore-coverage"]},"status":"active","beneficiary":{"reference":"Patient/0623e2b5-f872-4574-934b-ef2e63d85b6d"},"payor":[{"reference":"Organization/d422b8f9-1400-43e4-b9b8-b649de4d6cc2"}]},"request":{"method":"PUT","url":"Coverage/a1c6df47-360b-4a99-9875-426a13f32496"}},{"fullUrl":"Observation/0b07e149-72d3-45c0-aa71-319b105193a0","resource":{"resourceType":"Observation","id":"0b07e149-72d3-45c0-aa71-319b105193a0","meta":{"profile":["http://hl7.org/fhir/us/qicore/StructureDefinition/qicore-simple-observation"]},"status":"final","category":[{"coding":[{"system":"http://terminology.hl7.org/CodeSystem/observation-category","code":"exam","display":"exam","userSelected":true}]}],"code":{"coding":[{"system":"http://loinc.org","code":"11996-6"}]},"subject":{"reference":"Patient/0623e2b5-f872-4574-934b-ef2e63d85b6d"},"effectiveDateTime":"2026-06-08T08:00:00.000+00:00","performer":[{"reference":"Organization/example1","display":"Hendricks Country Hospital"}],"valueInteger":1},"request":{"method":"PUT","url":"Observation/0b07e149-72d3-45c0-aa71-319b105193a0"}},{"fullUrl":"Condition/536c62c5-2bf2-4e78-897f-054855584ec2","resource":{"resourceType":"Condition","id":"536c62c5-2bf2-4e78-897f-054855584ec2","meta":{"profile":["http://hl7.org/fhir/us/qicore/StructureDefinition/qicore-condition-encounter-diagnosis"]},"category":[{"coding":[{"system":"http://terminology.hl7.org/CodeSystem/condition-category","code":"encounter-diagnosis","display":"Encounter Diagnosis"}]}],"code":{"coding":[{"system":"http://snomed.info/sct","version":"2022-09","code":"169826009","display":"Single live birth (finding)","userSelected":true}]},"subject":{"reference":"Patient/0623e2b5-f872-4574-934b-ef2e63d85b6d"},"encounter":{"reference":"Encounter/5bb5ca92-eeee-4f45-bbb3-5114103c2fa0"},"recordedDate":"2026-10-17T08:00:00.000+00:00"},"request":{"method":"PUT","url":"Condition/536c62c5-2bf2-4e78-897f-054855584ec2"}},{"fullUrl":"Encounter/5bb5ca92-eeee-4f45-bbb3-5114103c2fa0","resource":{"resourceType":"Encounter","id":"5bb5ca92-eeee-4f45-bbb3-5114103c2fa0","meta":{"profile":["http://hl7.org/fhir/us/qicore/StructureDefinition/qicore-encounter"]},"status":"finished","class":{"system":"http://terminology.hl7.org/CodeSystem/v3-ActCode","code":"IMP","display":"inpatient encounter"},"type":[{"coding":[{"system":"http://snomed.info/sct","code":"8715000"}]}],"subject":{"reference":"Patient/0623e2b5-f872-4574-934b-ef2e63d85b6d"},"period":{"start":"2026-06-08T08:00:00.000+00:00","end":"2026-06-10T08:15:00.000+00:00"},"reasonCode":[{"coding":[{"system":"http://snomed.info/sct","code":"169826009","display":"Single live birth from singleton pregnancy (finding)"}]}]},"request":{"method":"PUT","url":"Encounter/5bb5ca92-eeee-4f45-bbb3-5114103c2fa0"}},{"fullUrl":"Observation/7c47d711-4bb6-41bb-9a11-4eb646dbf530","resource":{"resourceType":"Observation","id":"7c47d711-4bb6-41bb-9a11-4eb646dbf530","meta":{"profile":["http://hl7.org/fhir/us/qicore/StructureDefinition/qicore-simple-observation"]},"status":"final","category":[{"coding":[{"system":"http://terminology.hl7.org/CodeSystem/observation-category","code":"exam","display":"exam","userSelected":true}]}],"code":{"coding":[{"system":"http://loinc.org","code":"11884-4"}]},"subject":{"reference":"Patient/0623e2b5-f872-4574-934b-ef2e63d85b6d"},"effectiveDateTime":"2026-06-08T08:00:00.000+00:00","performer":[{"reference":"Organization/example1","display":"Hendricks Country Hospital"}],"valueQuantity":{"value":43,"system":"http://unitsofmeasure.org","code":"wk"}},"request":{"method":"PUT","url":"Observation/7c47d711-4bb6-41bb-9a11-4eb646dbf530"}},{"fullUrl":"Organization/d422b8f9-1400-43e4-b9b8-b649de4d6cc2","resource":{"resourceType":"Organization","id":"d422b8f9-1400-43e4-b9b8-b649de4d6cc2","meta":{"profile":["http://hl7.org/fhir/us/qicore/StructureDefinition/qicore-organization"]},"identifier":[{"use":"temp","system":"urn:oid:2.16.840.1.113883.4.4","value":"21-3259825"}],"active":true,"type":[{"coding":[{"system":"http://terminology.hl7.org/CodeSystem/organization-type","code":"pay","display":"Payer"}]}],"name":"Blue Cross Blue Shield of Texas","telecom":[{"system":"phone","value":"(+1) 972-766-6900"}],"address":[{"use":"billing","type":"postal","line":["P.O. Box 660044"],"city":"Dallas","state":"TX","postalCode":"75266-0044","country":"USA"}]},"request":{"method":"PUT","url":"Organization/d422b8f9-1400-43e4-b9b8-b649de4d6cc2"}},{"fullUrl":"Practitioner/2bb0a87a-f4b2-4eab-b087-23c5cb0ca203","resource":{"resourceType":"Practitioner","id":"2bb0a87a-f4b2-4eab-b087-23c5cb0ca203","meta":{"profile":["http://hl7.org/fhir/us/qicore/StructureDefinition/qicore-practitioner"]},"identifier":[{"system":"http://hl7.org/fhir/sid/us-npi","value":"1234567890"}],"name":[{"family":"Evil","prefix":["Dr"]}]},"request":{"method":"PUT","url":"Practitioner/2bb0a87a-f4b2-4eab-b087-23c5cb0ca203"}},{"fullUrl":"MeasureReport/05ef59c2-06ab-4914-9924-3534361bdafe","resource":{"resourceType":"MeasureReport","id":"05ef59c2-06ab-4914-9924-3534361bdafe","meta":{"profile":["http://hl7.org/fhir/us/cqfmeasures/StructureDefinition/test-case-cqfm"]},"contained":[{"resourceType":"Parameters","id":"65e7df20-9a77-46cd-ade6-b59ca73eb75e-parameters","parameter":[{"name":"subject","valueString":"0623e2b5-f872-4574-934b-ef2e63d85b6d"}]}],"extension":[{"url":"http://hl7.org/fhir/StructureDefinition/cqf-inputParameters","valueReference":{"reference":"#65e7df20-9a77-46cd-ade6-b59ca73eb75e-parameters"}},{"url":"http://hl7.org/fhir/us/cqfmeasures/StructureDefinition/cqfm-testCaseDescription","valueMarkdown":"EGA 43 weeks; Not abnormal presentation on encounter Attr dx, gravida 1, \n"}],"modifierExtension":[{"url":"http://hl7.org/fhir/us/cqfmeasures/StructureDefinition/cqfm-isTestCase","valueBoolean":true}],"status":"complete","type":"individual","measure":"https://madie.cms.gov/Measure/CMS0334FHIRPCCesareanBirth","period":{"start":"2026-01-01","end":"2026-12-31"},"group":[{"id":"Group_1","population":[{"id":"InitialPopulation_1","code":{"coding":[{"system":"http://terminology.hl7.org/CodeSystem/measure-population","code":"initial-population","display":"Initial Population"}]},"count":1},{"id":"Denominator_1","code":{"coding":[{"system":"http://terminology.hl7.org/CodeSystem/measure-population","code":"denominator","display":"Denominator"}]},"count":1},{"id":"DenominatorExclusion_1","code":{"coding":[{"system":"http://terminology.hl7.org/CodeSystem/measure-population","code":"denominator-exclusion","display":"Denominator Exclusion"}]},"count":0},{"id":"Numerator_1","code":{"coding":[{"system":"http://terminology.hl7.org/CodeSystem/measure-population","code":"numerator","display":"Numerator"}]},"count":0}],"measureScore":{"value":0.0}}],"evaluatedResource":[{"reference":"Patient/0623e2b5-f872-4574-934b-ef2e63d85b6d"},{"reference":"Observation/0b07e149-72d3-45c0-aa71-319b105193a0"},{"reference":"Observation/7c47d711-4bb6-41bb-9a11-4eb646dbf530"},{"reference":"Observation/24b405c7-affb-40b8-8915-64dbf6b829ef"},{"reference":"Encounter/5bb5ca92-eeee-4f45-bbb3-5114103c2fa0"},{"reference":"Procedure/c5db82ae-b32e-4e3e-9547-efce4ff6c7e3"},{"reference":"Condition/536c62c5-2bf2-4e78-897f-054855584ec2"},{"reference":"Coverage/a1c6df47-360b-4a99-9875-426a13f32496"},{"reference":"Organization/d422b8f9-1400-43e4-b9b8-b649de4d6cc2"},{"reference":"Practitioner/2bb0a87a-f4b2-4eab-b087-23c5cb0ca203"}]},"request":{"method":"PUT","url":"MeasureReport/05ef59c2-06ab-4914-9924-3534361bdafe"}},{"fullUrl":"Bundle/63487c2e0968f80122540187","resource":{"resourceType":"Bundle","id":"63487c2e0968f80122540187","type":"transaction","entry":[{"fullUrl":"https://madie.cms.gov/Patient/0623e2b5-f872-4574-934b-ef2e63d85b6d","resource":{"resourceType":"Patient","id":"0623e2b5-f872-4574-934b-ef2e63d85b6d","meta":{"profile":["http://hl7.org/fhir/us/qicore/StructureDefinition/qicore-patient"]},"text":{"status":"generated","div":"<div xmlns=\"http://www.w3.org/1999/xhtml\"><div class=\"hapiHeaderText\">EncDxNotAbnPres<b>DENEXFAIL</b></div><table class=\"hapiPropertyTable\"><tbody><tr><td>Identifier</td><td>7428b2b362015fd476ba0221287d599b0682523b1019318961fe8ec9cb029610</td></tr><tr><td>Date of birth</td><td><span>14 February 1985</span></td></tr></tbody></table></div>"},"extension":[{"url":"http://hl7.org/fhir/us/core/StructureDefinition/us-core-race","extension":[{"url":"ombCategory","valueCoding":{"system":"urn:oid:2.16.840.1.113883.6.238","code":"1002-5","display":"American Indian or Alaska Native","userSelected":true}},{"url":"text","valueString":"American Indian or Alaska Native"}]},{"url":"http://hl7.org/fhir/us/core/StructureDefinition/us-core-ethnicity","extension":[{"url":"ombCategory","valueCoding":{"system":"urn:oid:2.16.840.1.113883.6.238","code":"2135-2","display":"Hispanic or Latino","userSelected":true}},{"url":"text","valueString":"Hispanic or Latino"}]}],"identifier":[{"type":{"coding":[{"system":"http://terminology.hl7.org/CodeSystem/v2-0203","code":"MR"}]},"system":"https://bonnie-fhir.healthit.gov/","value":"63487c2e0968f80122540187"}],"active":true,"name":[{"use":"usual","family":"DENEXFail","given":["EncDxNotAbnPres"]}],"gender":"female","birthDate":"1998-02-14"},"request":{"method":"PUT","url":"Patient/0623e2b5-f872-4574-934b-ef2e63d85b6d"}},{"fullUrl":"https://madie.cms.gov/Observation/0b07e149-72d3-45c0-aa71-319b105193a0","resource":{"resourceType":"Observation","id":"0b07e149-72d3-45c0-aa71-319b105193a0","meta":{"profile":["http://hl7.org/fhir/us/qicore/StructureDefinition/qicore-simple-observation"]},"status":"final","category":[{"coding":[{"system":"http://terminology.hl7.org/CodeSystem/observation-category","code":"exam","display":"exam","userSelected":true}]}],"code":{"coding":[{"system":"http://loinc.org","code":"11996-6"}]},"subject":{"reference":"Patient/0623e2b5-f872-4574-934b-ef2e63d85b6d"},"effectiveDateTime":"2026-06-08T08:00:00.000+00:00","performer":[{"reference":"Organization/example1","display":"Hendricks Country Hospital"}],"valueInteger":1},"request":{"method":"PUT","url":"Observation/0b07e149-72d3-45c0-aa71-319b105193a0"}},{"fullUrl":"https://madie.cms.gov/Observation/7c47d711-4bb6-41bb-9a11-4eb646dbf530","resource":{"resourceType":"Observation","id":"7c47d711-4bb6-41bb-9a11-4eb646dbf530","meta":{"profile":["http://hl7.org/fhir/us/qicore/StructureDefinition/qicore-simple-observation"]},"status":"final","category":[{"coding":[{"system":"http://terminology.hl7.org/CodeSystem/observation-category","code":"exam","display":"exam","userSelected":true}]}],"code":{"coding":[{"system":"http://loinc.org","code":"11884-4"}]},"subject":{"reference":"Patient/0623e2b5-f872-4574-934b-ef2e63d85b6d"},"effectiveDateTime":"2026-06-08T08:00:00.000+00:00","performer":[{"reference":"Organization/example1","display":"Hendricks Country Hospital"}],"valueQuantity":{"value":43,"system":"http://unitsofmeasure.org","code":"wk"}},"request":{"method":"PUT","url":"Observation/7c47d711-4bb6-41bb-9a11-4eb646dbf530"}},{"fullUrl":"https://madie.cms.gov/Observation/24b405c7-affb-40b8-8915-64dbf6b829ef","resource":{"resourceType":"Observation","id":"24b405c7-affb-40b8-8915-64dbf6b829ef","meta":{"profile":["http://hl7.org/fhir/us/qicore/StructureDefinition/qicore-simple-observation"]},"status":"final","category":[{"coding":[{"system":"http://terminology.hl7.org/CodeSystem/observation-category","code":"exam","display":"exam","userSelected":true}]}],"code":{"coding":[{"system":"http://loinc.org","code":"93857-1"}]},"subject":{"reference":"Patient/0623e2b5-f872-4574-934b-ef2e63d85b6d"},"effectiveDateTime":"2026-06-08T20:00:00.000+00:00","performer":[{"reference":"Organization/example1","display":"Hendricks Country Hospital"}],"valueDateTime":"2026-06-08T20:00:00.000+00:00"},"request":{"method":"PUT","url":"Observation/24b405c7-affb-40b8-8915-64dbf6b829ef"}},{"fullUrl":"https://madie.cms.gov/Encounter/5bb5ca92-eeee-4f45-bbb3-5114103c2fa0","resource":{"resourceType":"Encounter","id":"5bb5ca92-eeee-4f45-bbb3-5114103c2fa0","meta":{"profile":["http://hl7.org/fhir/us/qicore/StructureDefinition/qicore-encounter"]},"status":"finished","class":{"system":"http://terminology.hl7.org/CodeSystem/v3-ActCode","code":"IMP","display":"inpatient encounter"},"type":[{"coding":[{"system":"http://snomed.info/sct","code":"8715000"}]}],"subject":{"reference":"Patient/0623e2b5-f872-4574-934b-ef2e63d85b6d"},"period":{"start":"2026-06-08T08:00:00.000+00:00","end":"2026-06-10T08:15:00.000+00:00"},"reasonCode":[{"coding":[{"system":"http://snomed.info/sct","code":"169826009","display":"Single live birth from singleton pregnancy (finding)"}]}]},"request":{"method":"PUT","url":"Encounter/5bb5ca92-eeee-4f45-bbb3-5114103c2fa0"}},{"fullUrl":"https://madie.cms.gov/Procedure/c5db82ae-b32e-4e3e-9547-efce4ff6c7e3","resource":{"resourceType":"Procedure","id":"c5db82ae-b32e-4e3e-9547-efce4ff6c7e3","meta":{"profile":["http://hl7.org/fhir/us/qicore/StructureDefinition/qicore-procedure"]},"extension":[{"url":"http://hl7.org/fhir/us/qicore/StructureDefinition/qicore-recorded","valueDateTime":"2014-04-05T13:35:00.000+00:00"}],"status":"completed","code":{"coding":[{"system":"http://snomed.info/sct","code":"4504004"},{"system":"http://www.icd10data.com/icd10pcs","code":"10D00Z0","userSelected":true}]},"subject":{"reference":"Patient/0623e2b5-f872-4574-934b-ef2e63d85b6d"},"performedDateTime":"2026-06-08T20:00:00.000+00:00"},"request":{"method":"PUT","url":"Procedure/c5db82ae-b32e-4e3e-9547-efce4ff6c7e3"}},{"fullUrl":"https://madie.cms.gov/Condition/536c62c5-2bf2-4e78-897f-054855584ec2","resource":{"resourceType":"Condition","id":"536c62c5-2bf2-4e78-897f-054855584ec2","meta":{"profile":["http://hl7.org/fhir/us/qicore/StructureDefinition/qicore-condition-encounter-diagnosis"]},"category":[{"coding":[{"system":"http://terminology.hl7.org/CodeSystem/condition-category","code":"encounter-diagnosis","display":"Encounter Diagnosis"}]}],"code":{"coding":[{"system":"http://snomed.info/sct","version":"2022-09","code":"169826009","display":"Single live birth (finding)","userSelected":true}]},"subject":{"reference":"Patient/0623e2b5-f872-4574-934b-ef2e63d85b6d"},"encounter":{"reference":"Encounter/5bb5ca92-eeee-4f45-bbb3-5114103c2fa0"},"recordedDate":"2026-10-17T08:00:00.000+00:00"},"request":{"method":"PUT","url":"Condition/536c62c5-2bf2-4e78-897f-054855584ec2"}},{"fullUrl":"https://madie.cms.gov/Coverage/a1c6df47-360b-4a99-9875-426a13f32496","resource":{"resourceType":"Coverage","id":"a1c6df47-360b-4a99-9875-426a13f32496","meta":{"profile":["http://hl7.org/fhir/us/qicore/StructureDefinition/qicore-coverage"]},"status":"active","beneficiary":{"reference":"Patient/0623e2b5-f872-4574-934b-ef2e63d85b6d"},"payor":[{"reference":"Organization/d422b8f9-1400-43e4-b9b8-b649de4d6cc2"}]},"request":{"method":"PUT","url":"Coverage/a1c6df47-360b-4a99-9875-426a13f32496"}},{"fullUrl":"https://madie.cms.gov/Organization/d422b8f9-1400-43e4-b9b8-b649de4d6cc2","resource":{"resourceType":"Organization","id":"d422b8f9-1400-43e4-b9b8-b649de4d6cc2","meta":{"profile":["http://hl7.org/fhir/us/qicore/StructureDefinition/qicore-organization"]},"identifier":[{"use":"temp","system":"urn:oid:2.16.840.1.113883.4.4","value":"21-3259825"}],"active":true,"type":[{"coding":[{"system":"http://terminology.hl7.org/CodeSystem/organization-type","code":"pay","display":"Payer"}]}],"name":"Blue Cross Blue Shield of Texas","telecom":[{"system":"phone","value":"(+1) 972-766-6900"}],"address":[{"use":"billing","type":"postal","line":["P.O. Box 660044"],"city":"Dallas","state":"TX","postalCode":"75266-0044","country":"USA"}]},"request":{"method":"PUT","url":"Organization/d422b8f9-1400-43e4-b9b8-b649de4d6cc2"}},{"fullUrl":"https://madie.cms.gov/Practitioner/2bb0a87a-f4b2-4eab-b087-23c5cb0ca203","resource":{"resourceType":"Practitioner","id":"2bb0a87a-f4b2-4eab-b087-23c5cb0ca203","meta":{"profile":["http://hl7.org/fhir/us/qicore/StructureDefinition/qicore-practitioner"]},"identifier":[{"system":"http://hl7.org/fhir/sid/us-npi","value":"1234567890"}],"name":[{"family":"Evil","prefix":["Dr"]}]},"request":{"method":"PUT","url":"Practitioner/2bb0a87a-f4b2-4eab-b087-23c5cb0ca203"}},{"fullUrl":"https://madie.cms.gov/MeasureReport/05ef59c2-06ab-4914-9924-3534361bdafe","resource":{"resourceType":"MeasureReport","id":"05ef59c2-06ab-4914-9924-3534361bdafe","meta":{"profile":["http://hl7.org/fhir/us/cqfmeasures/StructureDefinition/test-case-cqfm"]},"contained":[{"resourceType":"Parameters","id":"65e7df20-9a77-46cd-ade6-b59ca73eb75e-parameters","parameter":[{"name":"subject","valueString":"0623e2b5-f872-4574-934b-ef2e63d85b6d"}]}],"extension":[{"url":"http://hl7.org/fhir/StructureDefinition/cqf-inputParameters","valueReference":{"reference":"#65e7df20-9a77-46cd-ade6-b59ca73eb75e-parameters"}},{"url":"http://hl7.org/fhir/us/cqfmeasures/StructureDefinition/cqfm-testCaseDescription","valueMarkdown":"EGA 43 weeks; Not abnormal presentation on encounter Attr dx, gravida 1, \n"}],"modifierExtension":[{"url":"http://hl7.org/fhir/us/cqfmeasures/StructureDefinition/cqfm-isTestCase","valueBoolean":true}],"status":"complete","type":"individual","measure":"https://madie.cms.gov/Measure/CMS0334FHIRPCCesareanBirth","period":{"start":"2026-01-01","end":"2026-12-31"},"group":[{"id":"Group_1","population":[{"id":"InitialPopulation_1","code":{"coding":[{"system":"http://terminology.hl7.org/CodeSystem/measure-population","code":"initial-population","display":"Initial Population"}]},"count":1},{"id":"Denominator_1","code":{"coding":[{"system":"http://terminology.hl7.org/CodeSystem/measure-population","code":"denominator","display":"Denominator"}]},"count":1},{"id":"DenominatorExclusion_1","code":{"coding":[{"system":"http://terminology.hl7.org/CodeSystem/measure-population","code":"denominator-exclusion","display":"Denominator Exclusion"}]},"count":0},{"id":"Numerator_1","code":{"coding":[{"system":"http://terminology.hl7.org/CodeSystem/measure-population","code":"numerator","display":"Numerator"}]},"count":0}],"measureScore":{"value":0.0}}],"evaluatedResource":[{"reference":"Patient/0623e2b5-f872-4574-934b-ef2e63d85b6d"},{"reference":"Observation/0b07e149-72d3-45c0-aa71-319b105193a0"},{"reference":"Observation/7c47d711-4bb6-41bb-9a11-4eb646dbf530"},{"reference":"Observation/24b405c7-affb-40b8-8915-64dbf6b829ef"},{"reference":"Encounter/5bb5ca92-eeee-4f45-bbb3-5114103c2fa0"},{"reference":"Procedure/c5db82ae-b32e-4e3e-9547-efce4ff6c7e3"},{"reference":"Condition/536c62c5-2bf2-4e78-897f-054855584ec2"},{"reference":"Coverage/a1c6df47-360b-4a99-9875-426a13f32496"},{"reference":"Organization/d422b8f9-1400-43e4-b9b8-b649de4d6cc2"},{"reference":"Practitioner/2bb0a87a-f4b2-4eab-b087-23c5cb0ca203"}]},"request":{"method":"PUT","url":"MeasureReport/05ef59c2-06ab-4914-9924-3534361bdafe"}}]},"request":{"method":"PUT","url":"Bundle/63487c2e0968f80122540187"}},{"fullUrl":"Patient/0623e2b5-f872-4574-934b-ef2e63d85b6d","resource":{"resourceType":"Patient","id":"0623e2b5-f872-4574-934b-ef2e63d85b6d","meta":{"profile":["http://hl7.org/fhir/us/qicore/StructureDefinition/qicore-patient"]},"text":{"status":"generated","div":"<div xmlns=\"http://www.w3.org/1999/xhtml\"><div class=\"hapiHeaderText\">EncDxNotAbnPres<b>DENEXFAIL</b></div><table class=\"hapiPropertyTable\"><tbody><tr><td>Identifier</td><td>7428b2b362015fd476ba0221287d599b0682523b1019318961fe8ec9cb029610</td></tr><tr><td>Date of birth</td><td><span>14 February 1985</span></td></tr></tbody></table></div>"},"extension":[{"url":"http://hl7.org/fhir/us/core/StructureDefinition/us-core-race","extension":[{"url":"ombCategory","valueCoding":{"system":"urn:oid:2.16.840.1.113883.6.238","code":"1002-5","display":"American Indian or Alaska Native","userSelected":true}},{"url":"text","valueString":"American Indian or Alaska Native"}]},{"url":"http://hl7.org/fhir/us/core/StructureDefinition/us-core-ethnicity","extension":[{"url":"ombCategory","valueCoding":{"system":"urn:oid:2.16.840.1.113883.6.238","code":"2135-2","display":"Hispanic or Latino","userSelected":true}},{"url":"text","valueString":"Hispanic or Latino"}]}],"identifier":[{"type":{"coding":[{"system":"http://terminology.hl7.org/CodeSystem/v2-0203","code":"MR"}]},"system":"https://bonnie-fhir.healthit.gov/","value":"63487c2e0968f80122540187"}],"active":true,"name":[{"use":"usual","family":"DENEXFail","given":["EncDxNotAbnPres"]}],"gender":"female","birthDate":"1998-02-14"},"request":{"method":"PUT","url":"Patient/0623e2b5-f872-4574-934b-ef2e63d85b6d"}},{"fullUrl":"Procedure/c5db82ae-b32e-4e3e-9547-efce4ff6c7e3","resource":{"resourceType":"Procedure","id":"c5db82ae-b32e-4e3e-9547-efce4ff6c7e3","meta":{"profile":["http://hl7.org/fhir/us/qicore/StructureDefinition/qicore-procedure"]},"extension":[{"url":"http://hl7.org/fhir/us/qicore/StructureDefinition/qicore-recorded","valueDateTime":"2014-04-05T13:35:00.000+00:00"}],"status":"completed","code":{"coding":[{"system":"http://snomed.info/sct","code":"4504004"},{"system":"http://www.icd10data.com/icd10pcs","code":"10D00Z0","userSelected":true}]},"subject":{"reference":"Patient/0623e2b5-f872-4574-934b-ef2e63d85b6d"},"performedDateTime":"2026-06-08T20:00:00.000+00:00"},"request":{"method":"PUT","url":"Procedure/c5db82ae-b32e-4e3e-9547-efce4ff6c7e3"}}]}