{"resourceType":"Bundle","id":"tests-3cb741e0-5abb-4d16-a374-bc15fdf55021-bundle","type":"transaction","entry":[{"fullUrl":"Observation/b6b186c2-6768-48cd-8f4e-7c18c945da8f","resource":{"resourceType":"Observation","id":"b6b186c2-6768-48cd-8f4e-7c18c945da8f","meta":{"profile":["http://hl7.org/fhir/us/qicore/StructureDefinition/qicore-simple-observation"]},"status":"final","category":[{"coding":[{"system":"http://terminology.hl7.org/CodeSystem/observation-category","code":"exam","display":"exam","userSelected":true}]}],"code":{"coding":[{"system":"http://loinc.org","code":"93857-1"}]},"subject":{"reference":"Patient/3cb741e0-5abb-4d16-a374-bc15fdf55021"},"effectiveDateTime":"2026-06-08T20:00:00.000+00:00","valueDateTime":"2026-06-08T20:00:00.000+00:00"},"request":{"method":"PUT","url":"Observation/b6b186c2-6768-48cd-8f4e-7c18c945da8f"}},{"fullUrl":"Condition/4149158d-9d65-429e-93ce-7d69981cf465","resource":{"resourceType":"Condition","id":"4149158d-9d65-429e-93ce-7d69981cf465","meta":{"profile":["http://hl7.org/fhir/us/qicore/StructureDefinition/qicore-condition-encounter-diagnosis"]},"category":[{"coding":[{"system":"http://terminology.hl7.org/CodeSystem/condition-category","code":"encounter-diagnosis","display":"Encounter Diagnosis"}]}],"code":{"coding":[{"system":"http://snomed.info/sct","version":"2022-09","code":"169826009","display":"Single live birth from singleton pregnancy (finding)","userSelected":true}]},"subject":{"reference":"Patient/3cb741e0-5abb-4d16-a374-bc15fdf55021"},"encounter":{"reference":"Encounter/16099f18-dd5b-42ff-8871-c241004c8704"},"recordedDate":"2026-10-21T08:00:00.000+00:00"},"request":{"method":"PUT","url":"Condition/4149158d-9d65-429e-93ce-7d69981cf465"}},{"fullUrl":"Practitioner/d898f029-4f30-423f-9cc9-40ef465b604d","resource":{"resourceType":"Practitioner","id":"d898f029-4f30-423f-9cc9-40ef465b604d","meta":{"profile":["http://hl7.org/fhir/us/qicore/StructureDefinition/qicore-practitioner"]},"identifier":[{"system":"http://hl7.org/fhir/sid/us-npi","value":"1234567890"}],"name":[{"family":"Evil","prefix":["Dr"]}]},"request":{"method":"PUT","url":"Practitioner/d898f029-4f30-423f-9cc9-40ef465b604d"}},{"fullUrl":"Coverage/877a3cd5-5f25-487e-8ba3-92fdebb1f6cb","resource":{"resourceType":"Coverage","id":"877a3cd5-5f25-487e-8ba3-92fdebb1f6cb","meta":{"profile":["http://hl7.org/fhir/us/qicore/StructureDefinition/qicore-coverage"]},"status":"active","subscriberId":"523435","beneficiary":{"reference":"Patient/3cb741e0-5abb-4d16-a374-bc15fdf55021"},"relationship":{"coding":[{"system":"http://terminology.hl7.org/CodeSystem/subscriber-relationship","code":"self"}]},"payor":[{"reference":"Organization/3d6b2d9f-9e3e-4004-95d8-6a67da2e5316"}]},"request":{"method":"PUT","url":"Coverage/877a3cd5-5f25-487e-8ba3-92fdebb1f6cb"}},{"fullUrl":"Procedure/99b9d1e4-bb97-466f-a1a9-8e82dbe3a756","resource":{"resourceType":"Procedure","id":"99b9d1e4-bb97-466f-a1a9-8e82dbe3a756","meta":{"profile":["http://hl7.org/fhir/us/qicore/StructureDefinition/qicore-procedure"]},"extension":[{"url":"http://hl7.org/fhir/us/qicore/StructureDefinition/qicore-recorded","valueDateTime":"2014-04-05T13:35:00.000+00:00"}],"status":"completed","code":{"coding":[{"system":"http://www.cms.gov/Medicare/Coding/ICD10","code":"10D00Z0"},{"system":"http://snomed.info/sct","code":"4504004"}]},"subject":{"reference":"Patient/3cb741e0-5abb-4d16-a374-bc15fdf55021"},"performedPeriod":{"start":"2026-06-08T20:00:00.000+00:00","end":"2026-06-08T20:15:00.000+00:00"}},"request":{"method":"PUT","url":"Procedure/99b9d1e4-bb97-466f-a1a9-8e82dbe3a756"}},{"fullUrl":"Organization/3d6b2d9f-9e3e-4004-95d8-6a67da2e5316","resource":{"resourceType":"Organization","id":"3d6b2d9f-9e3e-4004-95d8-6a67da2e5316","meta":{"profile":["http://hl7.org/fhir/us/qicore/StructureDefinition/qicore-organization"]},"identifier":[{"use":"temp","system":"urn:oid:2.16.840.1.113883.4.4","value":"21-3259825"}],"active":true,"type":[{"coding":[{"system":"http://terminology.hl7.org/CodeSystem/organization-type","code":"pay","display":"Payer"}]}],"name":"Blue Cross Blue Shield of Texas","telecom":[{"system":"phone","value":"(+1) 972-766-6900"}],"address":[{"use":"billing","type":"postal","line":["P.O. Box 660044"],"city":"Dallas","state":"TX","postalCode":"75266-0044","country":"USA"}]},"request":{"method":"PUT","url":"Organization/3d6b2d9f-9e3e-4004-95d8-6a67da2e5316"}},{"fullUrl":"MeasureReport/610de68f-2eb9-4010-a86c-740b4df6d4bc","resource":{"resourceType":"MeasureReport","id":"610de68f-2eb9-4010-a86c-740b4df6d4bc","meta":{"profile":["http://hl7.org/fhir/us/cqfmeasures/StructureDefinition/test-case-cqfm"]},"contained":[{"resourceType":"Parameters","id":"5992b72f-a447-45a2-8981-91bb57f90045-parameters","parameter":[{"name":"subject","valueString":"3cb741e0-5abb-4d16-a374-bc15fdf55021"}]}],"extension":[{"url":"http://hl7.org/fhir/StructureDefinition/cqf-inputParameters","valueReference":{"reference":"#5992b72f-a447-45a2-8981-91bb57f90045-parameters"}},{"url":"http://hl7.org/fhir/us/cqfmeasures/StructureDefinition/cqfm-testCaseDescription","valueMarkdown":"\"Preterm Births=0, authored < 42weeks prior to delivery\nTerm Newborn missing\"\n"}],"modifierExtension":[{"url":"http://hl7.org/fhir/us/cqfmeasures/StructureDefinition/cqfm-isTestCase","valueBoolean":true}],"status":"complete","type":"individual","measure":"https://madie.cms.gov/Measure/CMS0334FHIRPCCesareanBirth","period":{"start":"2026-01-01","end":"2026-12-31"},"group":[{"id":"Group_1","population":[{"id":"InitialPopulation_1","code":{"coding":[{"system":"http://terminology.hl7.org/CodeSystem/measure-population","code":"initial-population","display":"Initial Population"}]},"count":1},{"id":"Denominator_1","code":{"coding":[{"system":"http://terminology.hl7.org/CodeSystem/measure-population","code":"denominator","display":"Denominator"}]},"count":0},{"id":"DenominatorExclusion_1","code":{"coding":[{"system":"http://terminology.hl7.org/CodeSystem/measure-population","code":"denominator-exclusion","display":"Denominator Exclusion"}]},"count":0},{"id":"Numerator_1","code":{"coding":[{"system":"http://terminology.hl7.org/CodeSystem/measure-population","code":"numerator","display":"Numerator"}]},"count":0}],"measureScore":{"value":0.0}}],"evaluatedResource":[{"reference":"Patient/3cb741e0-5abb-4d16-a374-bc15fdf55021"},{"reference":"Observation/0cee0288-0fc0-4840-ac01-b06e9266f80e"},{"reference":"Observation/9ec8a3d1-3b01-4753-8fe1-a065ef4b8c02"},{"reference":"Observation/b6b186c2-6768-48cd-8f4e-7c18c945da8f"},{"reference":"Encounter/16099f18-dd5b-42ff-8871-c241004c8704"},{"reference":"Procedure/99b9d1e4-bb97-466f-a1a9-8e82dbe3a756"},{"reference":"Condition/4149158d-9d65-429e-93ce-7d69981cf465"},{"reference":"Coverage/877a3cd5-5f25-487e-8ba3-92fdebb1f6cb"},{"reference":"Organization/3d6b2d9f-9e3e-4004-95d8-6a67da2e5316"},{"reference":"Practitioner/d898f029-4f30-423f-9cc9-40ef465b604d"}]},"request":{"method":"PUT","url":"MeasureReport/610de68f-2eb9-4010-a86c-740b4df6d4bc"}},{"fullUrl":"Observation/0cee0288-0fc0-4840-ac01-b06e9266f80e","resource":{"resourceType":"Observation","id":"0cee0288-0fc0-4840-ac01-b06e9266f80e","meta":{"profile":["http://hl7.org/fhir/us/qicore/StructureDefinition/qicore-simple-observation"]},"status":"final","category":[{"coding":[{"system":"http://terminology.hl7.org/CodeSystem/observation-category","code":"exam","display":"exam","userSelected":true}]}],"code":{"coding":[{"system":"http://loinc.org","code":"11637-6"}]},"subject":{"reference":"Patient/3cb741e0-5abb-4d16-a374-bc15fdf55021"},"effectiveDateTime":"2025-09-19T09:00:00.000+00:00","valueInteger":0},"request":{"method":"PUT","url":"Observation/0cee0288-0fc0-4840-ac01-b06e9266f80e"}},{"fullUrl":"Bundle/63487c2d0968f8012254015d","resource":{"resourceType":"Bundle","id":"63487c2d0968f8012254015d","type":"transaction","entry":[{"fullUrl":"https://madie.cms.gov/Patient/3cb741e0-5abb-4d16-a374-bc15fdf55021","resource":{"resourceType":"Patient","id":"3cb741e0-5abb-4d16-a374-bc15fdf55021","meta":{"profile":["http://hl7.org/fhir/us/qicore/StructureDefinition/qicore-patient"]},"text":{"status":"generated","div":"<div xmlns=\"http://www.w3.org/1999/xhtml\"><div class=\"hapiHeaderText\">AssessTermMissing<b>DENOMFail</b></div><table class=\"hapiPropertyTable\"><tbody><tr><td>Identifier</td><td>2af8c4ebd3c3c11851c56f276a2bfe6708ad830bb3560e2b577c5a97ffc5d44d</td></tr><tr><td>Date of birth</td><td><span>14 February 1985</span></td></tr></tbody></table></div>"},"extension":[{"url":"http://hl7.org/fhir/us/core/StructureDefinition/us-core-race","extension":[{"url":"ombCategory","valueCoding":{"system":"urn:oid:2.16.840.1.113883.6.238","code":"1002-5","display":"American Indian or Alaska Native","userSelected":true}},{"url":"text","valueString":"American Indian or Alaska Native"}]},{"url":"http://hl7.org/fhir/us/core/StructureDefinition/us-core-ethnicity","extension":[{"url":"ombCategory","valueCoding":{"system":"urn:oid:2.16.840.1.113883.6.238","code":"2135-2","display":"Hispanic or Latino","userSelected":true}},{"url":"text","valueString":"Hispanic or Latino"}]}],"identifier":[{"type":{"coding":[{"system":"http://terminology.hl7.org/CodeSystem/v2-0203","code":"MR"}]},"system":"https://bonnie-fhir.healthit.gov/","value":"63487c2d0968f8012254015d"}],"active":true,"name":[{"use":"usual","family":"DENOMFail","given":["AssessTermMissing"]}],"gender":"female","birthDate":"1998-02-14"},"request":{"method":"PUT","url":"Patient/3cb741e0-5abb-4d16-a374-bc15fdf55021"}},{"fullUrl":"https://madie.cms.gov/Observation/0cee0288-0fc0-4840-ac01-b06e9266f80e","resource":{"resourceType":"Observation","id":"0cee0288-0fc0-4840-ac01-b06e9266f80e","meta":{"profile":["http://hl7.org/fhir/us/qicore/StructureDefinition/qicore-simple-observation"]},"status":"final","category":[{"coding":[{"system":"http://terminology.hl7.org/CodeSystem/observation-category","code":"exam","display":"exam","userSelected":true}]}],"code":{"coding":[{"system":"http://loinc.org","code":"11637-6"}]},"subject":{"reference":"Patient/3cb741e0-5abb-4d16-a374-bc15fdf55021"},"effectiveDateTime":"2025-09-19T09:00:00.000+00:00","valueInteger":0},"request":{"method":"PUT","url":"Observation/0cee0288-0fc0-4840-ac01-b06e9266f80e"}},{"fullUrl":"https://madie.cms.gov/Observation/9ec8a3d1-3b01-4753-8fe1-a065ef4b8c02","resource":{"resourceType":"Observation","id":"9ec8a3d1-3b01-4753-8fe1-a065ef4b8c02","meta":{"profile":["http://hl7.org/fhir/us/qicore/StructureDefinition/qicore-simple-observation"]},"status":"final","category":[{"coding":[{"system":"http://terminology.hl7.org/CodeSystem/observation-category","code":"exam","display":"exam","userSelected":true}]}],"code":{"coding":[{"system":"http://loinc.org","code":"11884-4"}]},"subject":{"reference":"Patient/3cb741e0-5abb-4d16-a374-bc15fdf55021"},"effectiveDateTime":"2026-06-08T20:00:00.000+00:00","valueQuantity":{"value":37,"system":"http://unitsofmeasure.org","code":"wk"}},"request":{"method":"PUT","url":"Observation/9ec8a3d1-3b01-4753-8fe1-a065ef4b8c02"}},{"fullUrl":"https://madie.cms.gov/Observation/b6b186c2-6768-48cd-8f4e-7c18c945da8f","resource":{"resourceType":"Observation","id":"b6b186c2-6768-48cd-8f4e-7c18c945da8f","meta":{"profile":["http://hl7.org/fhir/us/qicore/StructureDefinition/qicore-simple-observation"]},"status":"final","category":[{"coding":[{"system":"http://terminology.hl7.org/CodeSystem/observation-category","code":"exam","display":"exam","userSelected":true}]}],"code":{"coding":[{"system":"http://loinc.org","code":"93857-1"}]},"subject":{"reference":"Patient/3cb741e0-5abb-4d16-a374-bc15fdf55021"},"effectiveDateTime":"2026-06-08T20:00:00.000+00:00","valueDateTime":"2026-06-08T20:00:00.000+00:00"},"request":{"method":"PUT","url":"Observation/b6b186c2-6768-48cd-8f4e-7c18c945da8f"}},{"fullUrl":"https://madie.cms.gov/Encounter/16099f18-dd5b-42ff-8871-c241004c8704","resource":{"resourceType":"Encounter","id":"16099f18-dd5b-42ff-8871-c241004c8704","meta":{"profile":["http://hl7.org/fhir/us/qicore/StructureDefinition/qicore-encounter"]},"status":"finished","class":{"system":"http://terminology.hl7.org/CodeSystem/v3-ActCode","code":"IMP","display":"inpatient encounter"},"type":[{"coding":[{"system":"http://snomed.info/sct","code":"8715000"}]}],"subject":{"reference":"Patient/3cb741e0-5abb-4d16-a374-bc15fdf55021"},"period":{"start":"2026-06-08T08:00:00.000+00:00","end":"2026-06-10T08:15:00.000+00:00"},"length":{"value":2,"unit":"days"},"reasonReference":[{"reference":"Condition/4149158d-9d65-429e-93ce-7d69981cf465"}]},"request":{"method":"PUT","url":"Encounter/16099f18-dd5b-42ff-8871-c241004c8704"}},{"fullUrl":"https://madie.cms.gov/Procedure/99b9d1e4-bb97-466f-a1a9-8e82dbe3a756","resource":{"resourceType":"Procedure","id":"99b9d1e4-bb97-466f-a1a9-8e82dbe3a756","meta":{"profile":["http://hl7.org/fhir/us/qicore/StructureDefinition/qicore-procedure"]},"extension":[{"url":"http://hl7.org/fhir/us/qicore/StructureDefinition/qicore-recorded","valueDateTime":"2014-04-05T13:35:00.000+00:00"}],"status":"completed","code":{"coding":[{"system":"http://www.cms.gov/Medicare/Coding/ICD10","code":"10D00Z0"},{"system":"http://snomed.info/sct","code":"4504004"}]},"subject":{"reference":"Patient/3cb741e0-5abb-4d16-a374-bc15fdf55021"},"performedPeriod":{"start":"2026-06-08T20:00:00.000+00:00","end":"2026-06-08T20:15:00.000+00:00"}},"request":{"method":"PUT","url":"Procedure/99b9d1e4-bb97-466f-a1a9-8e82dbe3a756"}},{"fullUrl":"https://madie.cms.gov/Condition/4149158d-9d65-429e-93ce-7d69981cf465","resource":{"resourceType":"Condition","id":"4149158d-9d65-429e-93ce-7d69981cf465","meta":{"profile":["http://hl7.org/fhir/us/qicore/StructureDefinition/qicore-condition-encounter-diagnosis"]},"category":[{"coding":[{"system":"http://terminology.hl7.org/CodeSystem/condition-category","code":"encounter-diagnosis","display":"Encounter Diagnosis"}]}],"code":{"coding":[{"system":"http://snomed.info/sct","version":"2022-09","code":"169826009","display":"Single live birth from singleton pregnancy (finding)","userSelected":true}]},"subject":{"reference":"Patient/3cb741e0-5abb-4d16-a374-bc15fdf55021"},"encounter":{"reference":"Encounter/16099f18-dd5b-42ff-8871-c241004c8704"},"recordedDate":"2026-10-21T08:00:00.000+00:00"},"request":{"method":"PUT","url":"Condition/4149158d-9d65-429e-93ce-7d69981cf465"}},{"fullUrl":"https://madie.cms.gov/Coverage/877a3cd5-5f25-487e-8ba3-92fdebb1f6cb","resource":{"resourceType":"Coverage","id":"877a3cd5-5f25-487e-8ba3-92fdebb1f6cb","meta":{"profile":["http://hl7.org/fhir/us/qicore/StructureDefinition/qicore-coverage"]},"status":"active","subscriberId":"523435","beneficiary":{"reference":"Patient/3cb741e0-5abb-4d16-a374-bc15fdf55021"},"relationship":{"coding":[{"system":"http://terminology.hl7.org/CodeSystem/subscriber-relationship","code":"self"}]},"payor":[{"reference":"Organization/3d6b2d9f-9e3e-4004-95d8-6a67da2e5316"}]},"request":{"method":"PUT","url":"Coverage/877a3cd5-5f25-487e-8ba3-92fdebb1f6cb"}},{"fullUrl":"https://madie.cms.gov/Organization/3d6b2d9f-9e3e-4004-95d8-6a67da2e5316","resource":{"resourceType":"Organization","id":"3d6b2d9f-9e3e-4004-95d8-6a67da2e5316","meta":{"profile":["http://hl7.org/fhir/us/qicore/StructureDefinition/qicore-organization"]},"identifier":[{"use":"temp","system":"urn:oid:2.16.840.1.113883.4.4","value":"21-3259825"}],"active":true,"type":[{"coding":[{"system":"http://terminology.hl7.org/CodeSystem/organization-type","code":"pay","display":"Payer"}]}],"name":"Blue Cross Blue Shield of Texas","telecom":[{"system":"phone","value":"(+1) 972-766-6900"}],"address":[{"use":"billing","type":"postal","line":["P.O. Box 660044"],"city":"Dallas","state":"TX","postalCode":"75266-0044","country":"USA"}]},"request":{"method":"PUT","url":"Organization/3d6b2d9f-9e3e-4004-95d8-6a67da2e5316"}},{"fullUrl":"https://madie.cms.gov/Practitioner/d898f029-4f30-423f-9cc9-40ef465b604d","resource":{"resourceType":"Practitioner","id":"d898f029-4f30-423f-9cc9-40ef465b604d","meta":{"profile":["http://hl7.org/fhir/us/qicore/StructureDefinition/qicore-practitioner"]},"identifier":[{"system":"http://hl7.org/fhir/sid/us-npi","value":"1234567890"}],"name":[{"family":"Evil","prefix":["Dr"]}]},"request":{"method":"PUT","url":"Practitioner/d898f029-4f30-423f-9cc9-40ef465b604d"}},{"fullUrl":"https://madie.cms.gov/MeasureReport/610de68f-2eb9-4010-a86c-740b4df6d4bc","resource":{"resourceType":"MeasureReport","id":"610de68f-2eb9-4010-a86c-740b4df6d4bc","meta":{"profile":["http://hl7.org/fhir/us/cqfmeasures/StructureDefinition/test-case-cqfm"]},"contained":[{"resourceType":"Parameters","id":"5992b72f-a447-45a2-8981-91bb57f90045-parameters","parameter":[{"name":"subject","valueString":"3cb741e0-5abb-4d16-a374-bc15fdf55021"}]}],"extension":[{"url":"http://hl7.org/fhir/StructureDefinition/cqf-inputParameters","valueReference":{"reference":"#5992b72f-a447-45a2-8981-91bb57f90045-parameters"}},{"url":"http://hl7.org/fhir/us/cqfmeasures/StructureDefinition/cqfm-testCaseDescription","valueMarkdown":"\"Preterm Births=0, authored < 42weeks prior to delivery\nTerm Newborn missing\"\n"}],"modifierExtension":[{"url":"http://hl7.org/fhir/us/cqfmeasures/StructureDefinition/cqfm-isTestCase","valueBoolean":true}],"status":"complete","type":"individual","measure":"https://madie.cms.gov/Measure/CMS0334FHIRPCCesareanBirth","period":{"start":"2026-01-01","end":"2026-12-31"},"group":[{"id":"Group_1","population":[{"id":"InitialPopulation_1","code":{"coding":[{"system":"http://terminology.hl7.org/CodeSystem/measure-population","code":"initial-population","display":"Initial Population"}]},"count":1},{"id":"Denominator_1","code":{"coding":[{"system":"http://terminology.hl7.org/CodeSystem/measure-population","code":"denominator","display":"Denominator"}]},"count":0},{"id":"DenominatorExclusion_1","code":{"coding":[{"system":"http://terminology.hl7.org/CodeSystem/measure-population","code":"denominator-exclusion","display":"Denominator Exclusion"}]},"count":0},{"id":"Numerator_1","code":{"coding":[{"system":"http://terminology.hl7.org/CodeSystem/measure-population","code":"numerator","display":"Numerator"}]},"count":0}],"measureScore":{"value":0.0}}],"evaluatedResource":[{"reference":"Patient/3cb741e0-5abb-4d16-a374-bc15fdf55021"},{"reference":"Observation/0cee0288-0fc0-4840-ac01-b06e9266f80e"},{"reference":"Observation/9ec8a3d1-3b01-4753-8fe1-a065ef4b8c02"},{"reference":"Observation/b6b186c2-6768-48cd-8f4e-7c18c945da8f"},{"reference":"Encounter/16099f18-dd5b-42ff-8871-c241004c8704"},{"reference":"Procedure/99b9d1e4-bb97-466f-a1a9-8e82dbe3a756"},{"reference":"Condition/4149158d-9d65-429e-93ce-7d69981cf465"},{"reference":"Coverage/877a3cd5-5f25-487e-8ba3-92fdebb1f6cb"},{"reference":"Organization/3d6b2d9f-9e3e-4004-95d8-6a67da2e5316"},{"reference":"Practitioner/d898f029-4f30-423f-9cc9-40ef465b604d"}]},"request":{"method":"PUT","url":"MeasureReport/610de68f-2eb9-4010-a86c-740b4df6d4bc"}}]},"request":{"method":"PUT","url":"Bundle/63487c2d0968f8012254015d"}},{"fullUrl":"Observation/9ec8a3d1-3b01-4753-8fe1-a065ef4b8c02","resource":{"resourceType":"Observation","id":"9ec8a3d1-3b01-4753-8fe1-a065ef4b8c02","meta":{"profile":["http://hl7.org/fhir/us/qicore/StructureDefinition/qicore-simple-observation"]},"status":"final","category":[{"coding":[{"system":"http://terminology.hl7.org/CodeSystem/observation-category","code":"exam","display":"exam","userSelected":true}]}],"code":{"coding":[{"system":"http://loinc.org","code":"11884-4"}]},"subject":{"reference":"Patient/3cb741e0-5abb-4d16-a374-bc15fdf55021"},"effectiveDateTime":"2026-06-08T20:00:00.000+00:00","valueQuantity":{"value":37,"system":"http://unitsofmeasure.org","code":"wk"}},"request":{"method":"PUT","url":"Observation/9ec8a3d1-3b01-4753-8fe1-a065ef4b8c02"}},{"fullUrl":"Encounter/16099f18-dd5b-42ff-8871-c241004c8704","resource":{"resourceType":"Encounter","id":"16099f18-dd5b-42ff-8871-c241004c8704","meta":{"profile":["http://hl7.org/fhir/us/qicore/StructureDefinition/qicore-encounter"]},"status":"finished","class":{"system":"http://terminology.hl7.org/CodeSystem/v3-ActCode","code":"IMP","display":"inpatient encounter"},"type":[{"coding":[{"system":"http://snomed.info/sct","code":"8715000"}]}],"subject":{"reference":"Patient/3cb741e0-5abb-4d16-a374-bc15fdf55021"},"period":{"start":"2026-06-08T08:00:00.000+00:00","end":"2026-06-10T08:15:00.000+00:00"},"length":{"value":2,"unit":"days"},"reasonReference":[{"reference":"Condition/4149158d-9d65-429e-93ce-7d69981cf465"}]},"request":{"method":"PUT","url":"Encounter/16099f18-dd5b-42ff-8871-c241004c8704"}},{"fullUrl":"Patient/3cb741e0-5abb-4d16-a374-bc15fdf55021","resource":{"resourceType":"Patient","id":"3cb741e0-5abb-4d16-a374-bc15fdf55021","meta":{"profile":["http://hl7.org/fhir/us/qicore/StructureDefinition/qicore-patient"]},"text":{"status":"generated","div":"<div xmlns=\"http://www.w3.org/1999/xhtml\"><div class=\"hapiHeaderText\">AssessTermMissing<b>DENOMFail</b></div><table class=\"hapiPropertyTable\"><tbody><tr><td>Identifier</td><td>2af8c4ebd3c3c11851c56f276a2bfe6708ad830bb3560e2b577c5a97ffc5d44d</td></tr><tr><td>Date of birth</td><td><span>14 February 1985</span></td></tr></tbody></table></div>"},"extension":[{"url":"http://hl7.org/fhir/us/core/StructureDefinition/us-core-race","extension":[{"url":"ombCategory","valueCoding":{"system":"urn:oid:2.16.840.1.113883.6.238","code":"1002-5","display":"American Indian or Alaska Native","userSelected":true}},{"url":"text","valueString":"American Indian or Alaska Native"}]},{"url":"http://hl7.org/fhir/us/core/StructureDefinition/us-core-ethnicity","extension":[{"url":"ombCategory","valueCoding":{"system":"urn:oid:2.16.840.1.113883.6.238","code":"2135-2","display":"Hispanic or Latino","userSelected":true}},{"url":"text","valueString":"Hispanic or Latino"}]}],"identifier":[{"type":{"coding":[{"system":"http://terminology.hl7.org/CodeSystem/v2-0203","code":"MR"}]},"system":"https://bonnie-fhir.healthit.gov/","value":"63487c2d0968f8012254015d"}],"active":true,"name":[{"use":"usual","family":"DENOMFail","given":["AssessTermMissing"]}],"gender":"female","birthDate":"1998-02-14"},"request":{"method":"PUT","url":"Patient/3cb741e0-5abb-4d16-a374-bc15fdf55021"}}]}