{"resourceType":"Bundle","id":"tests-df8636f3-8f53-4835-b81c-ef707f527d50-bundle","type":"transaction","entry":[{"fullUrl":"MeasureReport/772d2c80-01ba-4031-97f4-610584847536","resource":{"resourceType":"MeasureReport","id":"772d2c80-01ba-4031-97f4-610584847536","meta":{"profile":["http://hl7.org/fhir/us/cqfmeasures/StructureDefinition/test-case-cqfm"]},"contained":[{"resourceType":"Parameters","id":"1fa504a9-3f03-403a-83ea-94bb55ff9fce-parameters","parameter":[{"name":"subject","valueString":"df8636f3-8f53-4835-b81c-ef707f527d50"}]}],"extension":[{"url":"http://hl7.org/fhir/StructureDefinition/cqf-inputParameters","valueReference":{"reference":"#1fa504a9-3f03-403a-83ea-94bb55ff9fce-parameters"}},{"url":"http://hl7.org/fhir/us/cqfmeasures/StructureDefinition/cqfm-testCaseDescription","valueMarkdown":"EGA 43 weeks; Assessment performed but NOT Abnormal presentation , gravida 1, \n"}],"modifierExtension":[{"url":"http://hl7.org/fhir/us/cqfmeasures/StructureDefinition/cqfm-isTestCase","valueBoolean":true}],"status":"complete","type":"individual","measure":"https://madie.cms.gov/Measure/CMS0334FHIRPCCesareanBirth","period":{"start":"2026-01-01","end":"2026-12-31"},"group":[{"id":"Group_1","population":[{"id":"InitialPopulation_1","code":{"coding":[{"system":"http://terminology.hl7.org/CodeSystem/measure-population","code":"initial-population","display":"Initial Population"}]},"count":1},{"id":"Denominator_1","code":{"coding":[{"system":"http://terminology.hl7.org/CodeSystem/measure-population","code":"denominator","display":"Denominator"}]},"count":1},{"id":"DenominatorExclusion_1","code":{"coding":[{"system":"http://terminology.hl7.org/CodeSystem/measure-population","code":"denominator-exclusion","display":"Denominator Exclusion"}]},"count":0},{"id":"Numerator_1","code":{"coding":[{"system":"http://terminology.hl7.org/CodeSystem/measure-population","code":"numerator","display":"Numerator"}]},"count":0}],"measureScore":{"value":0.0}}],"evaluatedResource":[{"reference":"Patient/df8636f3-8f53-4835-b81c-ef707f527d50"},{"reference":"Observation/2f1b4718-0815-4faf-9899-fc11c7a13119"},{"reference":"Observation/d79703d0-87c2-4941-839e-ac2e81bb20e1"},{"reference":"Observation/e5f90a7b-0eec-407d-9761-30214e3d33a7"},{"reference":"Observation/2640a33f-fc48-47ce-90d8-55e99534f9a8"},{"reference":"Encounter/5e241319-3bde-422f-a9a0-d7232e1f55fd"},{"reference":"Procedure/0b26fc13-4f66-460b-9efc-053183e7a281"},{"reference":"Condition/b0d8c121-7076-49d0-b4c0-bd5b981df356"},{"reference":"Coverage/d7fa8d94-fd05-4d0c-b0cb-1096036002f1"},{"reference":"Organization/eef15e66-ff6f-44f8-be94-ce72bbb94518"},{"reference":"Practitioner/d1e3545e-6264-4c02-be7c-d6c76bcc1e19"}]},"request":{"method":"PUT","url":"MeasureReport/772d2c80-01ba-4031-97f4-610584847536"}},{"fullUrl":"Coverage/d7fa8d94-fd05-4d0c-b0cb-1096036002f1","resource":{"resourceType":"Coverage","id":"d7fa8d94-fd05-4d0c-b0cb-1096036002f1","meta":{"profile":["http://hl7.org/fhir/us/qicore/StructureDefinition/qicore-coverage"]},"status":"active","subscriberId":"523435","beneficiary":{"reference":"Patient/df8636f3-8f53-4835-b81c-ef707f527d50"},"relationship":{"coding":[{"system":"http://terminology.hl7.org/CodeSystem/subscriber-relationship","code":"self"}]},"payor":[{"reference":"Organization/eef15e66-ff6f-44f8-be94-ce72bbb94518"}]},"request":{"method":"PUT","url":"Coverage/d7fa8d94-fd05-4d0c-b0cb-1096036002f1"}},{"fullUrl":"Practitioner/d1e3545e-6264-4c02-be7c-d6c76bcc1e19","resource":{"resourceType":"Practitioner","id":"d1e3545e-6264-4c02-be7c-d6c76bcc1e19","meta":{"profile":["http://hl7.org/fhir/us/qicore/StructureDefinition/qicore-practitioner"]},"identifier":[{"system":"http://hl7.org/fhir/sid/us-npi","value":"1234567890"}],"name":[{"family":"Evil","prefix":["Dr"]}]},"request":{"method":"PUT","url":"Practitioner/d1e3545e-6264-4c02-be7c-d6c76bcc1e19"}},{"fullUrl":"Organization/eef15e66-ff6f-44f8-be94-ce72bbb94518","resource":{"resourceType":"Organization","id":"eef15e66-ff6f-44f8-be94-ce72bbb94518","meta":{"profile":["http://hl7.org/fhir/us/qicore/StructureDefinition/qicore-organization"]},"identifier":[{"use":"temp","system":"urn:oid:2.16.840.1.113883.4.4","value":"21-3259825"}],"active":true,"type":[{"coding":[{"system":"http://terminology.hl7.org/CodeSystem/organization-type","code":"pay","display":"Payer"}]}],"name":"Blue Cross Blue Shield of Texas","telecom":[{"system":"phone","value":"(+1) 972-766-6900"}],"address":[{"use":"billing","type":"postal","line":["P.O. Box 660044"],"city":"Dallas","state":"TX","postalCode":"75266-0044","country":"USA"}]},"request":{"method":"PUT","url":"Organization/eef15e66-ff6f-44f8-be94-ce72bbb94518"}},{"fullUrl":"Observation/d79703d0-87c2-4941-839e-ac2e81bb20e1","resource":{"resourceType":"Observation","id":"d79703d0-87c2-4941-839e-ac2e81bb20e1","meta":{"profile":["http://hl7.org/fhir/us/qicore/StructureDefinition/qicore-simple-observation"]},"status":"final","category":[{"coding":[{"system":"http://terminology.hl7.org/CodeSystem/observation-category","code":"exam","display":"exam","userSelected":true}]}],"code":{"coding":[{"system":"http://loinc.org","code":"11884-4"}]},"subject":{"reference":"Patient/df8636f3-8f53-4835-b81c-ef707f527d50"},"effectiveDateTime":"2026-06-08T08:00:00.000+00:00","performer":[{"reference":"Organization/example1","display":"Hendricks Country Hospital"}],"valueQuantity":{"value":43,"system":"http://unitsofmeasure.org","code":"wk"}},"request":{"method":"PUT","url":"Observation/d79703d0-87c2-4941-839e-ac2e81bb20e1"}},{"fullUrl":"Patient/df8636f3-8f53-4835-b81c-ef707f527d50","resource":{"resourceType":"Patient","id":"df8636f3-8f53-4835-b81c-ef707f527d50","meta":{"profile":["http://hl7.org/fhir/us/qicore/StructureDefinition/qicore-patient"]},"text":{"status":"generated","div":"<div xmlns=\"http://www.w3.org/1999/xhtml\"><div class=\"hapiHeaderText\">AssessPerfNotAbnPres<b>DENEXFAIL</b></div><table class=\"hapiPropertyTable\"><tbody><tr><td>Identifier</td><td>db09244543fe550232b604cb7d87decbeb851047882e641e3fe736fdce398a0a</td></tr><tr><td>Date of birth</td><td><span>14 February 1985</span></td></tr></tbody></table></div>"},"extension":[{"url":"http://hl7.org/fhir/us/core/StructureDefinition/us-core-race","extension":[{"url":"ombCategory","valueCoding":{"system":"urn:oid:2.16.840.1.113883.6.238","code":"1002-5","display":"American Indian or Alaska Native","userSelected":true}},{"url":"text","valueString":"American Indian or Alaska Native"}]},{"url":"http://hl7.org/fhir/us/core/StructureDefinition/us-core-ethnicity","extension":[{"url":"ombCategory","valueCoding":{"system":"urn:oid:2.16.840.1.113883.6.238","code":"2135-2","display":"Hispanic or Latino","userSelected":true}},{"url":"text","valueString":"Hispanic or Latino"}]}],"identifier":[{"type":{"coding":[{"system":"http://terminology.hl7.org/CodeSystem/v2-0203","code":"MR"}]},"system":"https://bonnie-fhir.healthit.gov/","value":"63487c300968f801225401c0"}],"active":true,"name":[{"use":"usual","family":"DENEXFail","given":["AssessPerfNotAbnPres"]}],"gender":"female","birthDate":"1998-02-14"},"request":{"method":"PUT","url":"Patient/df8636f3-8f53-4835-b81c-ef707f527d50"}},{"fullUrl":"Observation/e5f90a7b-0eec-407d-9761-30214e3d33a7","resource":{"resourceType":"Observation","id":"e5f90a7b-0eec-407d-9761-30214e3d33a7","meta":{"profile":["http://hl7.org/fhir/us/qicore/StructureDefinition/qicore-simple-observation"]},"status":"final","category":[{"coding":[{"system":"http://terminology.hl7.org/CodeSystem/observation-category","code":"exam","display":"exam","userSelected":true}]}],"code":{"coding":[{"system":"http://loinc.org","code":"93857-1"}]},"subject":{"reference":"Patient/df8636f3-8f53-4835-b81c-ef707f527d50"},"effectiveDateTime":"2026-06-08T20:00:00.000+00:00","performer":[{"reference":"Organization/example1","display":"Hendricks Country Hospital"}],"valueDateTime":"2026-06-08T20:00:00.000+00:00"},"request":{"method":"PUT","url":"Observation/e5f90a7b-0eec-407d-9761-30214e3d33a7"}},{"fullUrl":"Procedure/0b26fc13-4f66-460b-9efc-053183e7a281","resource":{"resourceType":"Procedure","id":"0b26fc13-4f66-460b-9efc-053183e7a281","meta":{"profile":["http://hl7.org/fhir/us/qicore/StructureDefinition/qicore-procedure"]},"extension":[{"url":"http://hl7.org/fhir/us/qicore/StructureDefinition/qicore-recorded","valueDateTime":"2014-04-05T13:35:00.000+00:00"}],"status":"completed","code":{"coding":[{"system":"http://www.cms.gov/Medicare/Coding/ICD10","code":"10D00Z0"},{"system":"http://snomed.info/sct","code":"4504004"}]},"subject":{"reference":"Patient/df8636f3-8f53-4835-b81c-ef707f527d50"},"performedPeriod":{"start":"2026-06-08T20:00:00.000+00:00","end":"2026-06-18T20:00:00.000+00:00"}},"request":{"method":"PUT","url":"Procedure/0b26fc13-4f66-460b-9efc-053183e7a281"}},{"fullUrl":"Encounter/5e241319-3bde-422f-a9a0-d7232e1f55fd","resource":{"resourceType":"Encounter","id":"5e241319-3bde-422f-a9a0-d7232e1f55fd","meta":{"profile":["http://hl7.org/fhir/us/qicore/StructureDefinition/qicore-encounter"]},"status":"finished","class":{"system":"http://terminology.hl7.org/CodeSystem/v3-ActCode","code":"IMP","display":"inpatient encounter"},"type":[{"coding":[{"system":"http://snomed.info/sct","code":"8715000"}]}],"subject":{"reference":"Patient/df8636f3-8f53-4835-b81c-ef707f527d50"},"period":{"start":"2026-06-08T08:00:00.000+00:00","end":"2026-06-10T08:15:00.000+00:00"},"reasonCode":[{"coding":[{"system":"http://snomed.info/sct","code":"169826009","display":"Single live birth from singleton pregnancy (finding)"}]}]},"request":{"method":"PUT","url":"Encounter/5e241319-3bde-422f-a9a0-d7232e1f55fd"}},{"fullUrl":"Observation/2640a33f-fc48-47ce-90d8-55e99534f9a8","resource":{"resourceType":"Observation","id":"2640a33f-fc48-47ce-90d8-55e99534f9a8","meta":{"profile":["http://hl7.org/fhir/us/qicore/StructureDefinition/qicore-simple-observation"]},"status":"final","category":[{"coding":[{"system":"http://terminology.hl7.org/CodeSystem/observation-category","code":"exam","display":"exam","userSelected":true}]}],"code":{"coding":[{"system":"http://snomed.info/sct","code":"9999999"}]},"subject":{"reference":"Patient/df8636f3-8f53-4835-b81c-ef707f527d50"},"effectiveDateTime":"2026-06-08T08:00:00.000+00:00","performer":[{"reference":"Organization/example1","display":"Hendricks Country Hospital"}]},"request":{"method":"PUT","url":"Observation/2640a33f-fc48-47ce-90d8-55e99534f9a8"}},{"fullUrl":"Condition/b0d8c121-7076-49d0-b4c0-bd5b981df356","resource":{"resourceType":"Condition","id":"b0d8c121-7076-49d0-b4c0-bd5b981df356","meta":{"profile":["http://hl7.org/fhir/us/qicore/StructureDefinition/qicore-condition-encounter-diagnosis"]},"category":[{"coding":[{"system":"http://terminology.hl7.org/CodeSystem/condition-category","code":"encounter-diagnosis","display":"Encounter Diagnosis"}]}],"code":{"coding":[{"system":"http://snomed.info/sct","version":"2022-09","code":"169826009","display":"Single live birth (finding)","userSelected":true}]},"subject":{"reference":"Patient/df8636f3-8f53-4835-b81c-ef707f527d50"},"encounter":{"reference":"Encounter/5e241319-3bde-422f-a9a0-d7232e1f55fd"},"recordedDate":"2026-10-17T08:00:00.000+00:00"},"request":{"method":"PUT","url":"Condition/b0d8c121-7076-49d0-b4c0-bd5b981df356"}},{"fullUrl":"Observation/2f1b4718-0815-4faf-9899-fc11c7a13119","resource":{"resourceType":"Observation","id":"2f1b4718-0815-4faf-9899-fc11c7a13119","meta":{"profile":["http://hl7.org/fhir/us/qicore/StructureDefinition/qicore-simple-observation"]},"status":"final","category":[{"coding":[{"system":"http://terminology.hl7.org/CodeSystem/observation-category","code":"exam","display":"exam","userSelected":true}]}],"code":{"coding":[{"system":"http://loinc.org","code":"11996-6"}]},"subject":{"reference":"Patient/df8636f3-8f53-4835-b81c-ef707f527d50"},"effectiveDateTime":"2026-06-08T08:00:00.000+00:00","performer":[{"reference":"Organization/example1","display":"Hendricks Country Hospital"}],"valueInteger":1},"request":{"method":"PUT","url":"Observation/2f1b4718-0815-4faf-9899-fc11c7a13119"}},{"fullUrl":"Bundle/63487c300968f801225401c0","resource":{"resourceType":"Bundle","id":"63487c300968f801225401c0","type":"transaction","entry":[{"fullUrl":"https://madie.cms.gov/Patient/df8636f3-8f53-4835-b81c-ef707f527d50","resource":{"resourceType":"Patient","id":"df8636f3-8f53-4835-b81c-ef707f527d50","meta":{"profile":["http://hl7.org/fhir/us/qicore/StructureDefinition/qicore-patient"]},"text":{"status":"generated","div":"<div xmlns=\"http://www.w3.org/1999/xhtml\"><div class=\"hapiHeaderText\">AssessPerfNotAbnPres<b>DENEXFAIL</b></div><table class=\"hapiPropertyTable\"><tbody><tr><td>Identifier</td><td>db09244543fe550232b604cb7d87decbeb851047882e641e3fe736fdce398a0a</td></tr><tr><td>Date of birth</td><td><span>14 February 1985</span></td></tr></tbody></table></div>"},"extension":[{"url":"http://hl7.org/fhir/us/core/StructureDefinition/us-core-race","extension":[{"url":"ombCategory","valueCoding":{"system":"urn:oid:2.16.840.1.113883.6.238","code":"1002-5","display":"American Indian or Alaska Native","userSelected":true}},{"url":"text","valueString":"American Indian or Alaska Native"}]},{"url":"http://hl7.org/fhir/us/core/StructureDefinition/us-core-ethnicity","extension":[{"url":"ombCategory","valueCoding":{"system":"urn:oid:2.16.840.1.113883.6.238","code":"2135-2","display":"Hispanic or Latino","userSelected":true}},{"url":"text","valueString":"Hispanic or Latino"}]}],"identifier":[{"type":{"coding":[{"system":"http://terminology.hl7.org/CodeSystem/v2-0203","code":"MR"}]},"system":"https://bonnie-fhir.healthit.gov/","value":"63487c300968f801225401c0"}],"active":true,"name":[{"use":"usual","family":"DENEXFail","given":["AssessPerfNotAbnPres"]}],"gender":"female","birthDate":"1998-02-14"},"request":{"method":"PUT","url":"Patient/df8636f3-8f53-4835-b81c-ef707f527d50"}},{"fullUrl":"https://madie.cms.gov/Observation/2f1b4718-0815-4faf-9899-fc11c7a13119","resource":{"resourceType":"Observation","id":"2f1b4718-0815-4faf-9899-fc11c7a13119","meta":{"profile":["http://hl7.org/fhir/us/qicore/StructureDefinition/qicore-simple-observation"]},"status":"final","category":[{"coding":[{"system":"http://terminology.hl7.org/CodeSystem/observation-category","code":"exam","display":"exam","userSelected":true}]}],"code":{"coding":[{"system":"http://loinc.org","code":"11996-6"}]},"subject":{"reference":"Patient/df8636f3-8f53-4835-b81c-ef707f527d50"},"effectiveDateTime":"2026-06-08T08:00:00.000+00:00","performer":[{"reference":"Organization/example1","display":"Hendricks Country Hospital"}],"valueInteger":1},"request":{"method":"PUT","url":"Observation/2f1b4718-0815-4faf-9899-fc11c7a13119"}},{"fullUrl":"https://madie.cms.gov/Observation/d79703d0-87c2-4941-839e-ac2e81bb20e1","resource":{"resourceType":"Observation","id":"d79703d0-87c2-4941-839e-ac2e81bb20e1","meta":{"profile":["http://hl7.org/fhir/us/qicore/StructureDefinition/qicore-simple-observation"]},"status":"final","category":[{"coding":[{"system":"http://terminology.hl7.org/CodeSystem/observation-category","code":"exam","display":"exam","userSelected":true}]}],"code":{"coding":[{"system":"http://loinc.org","code":"11884-4"}]},"subject":{"reference":"Patient/df8636f3-8f53-4835-b81c-ef707f527d50"},"effectiveDateTime":"2026-06-08T08:00:00.000+00:00","performer":[{"reference":"Organization/example1","display":"Hendricks Country Hospital"}],"valueQuantity":{"value":43,"system":"http://unitsofmeasure.org","code":"wk"}},"request":{"method":"PUT","url":"Observation/d79703d0-87c2-4941-839e-ac2e81bb20e1"}},{"fullUrl":"https://madie.cms.gov/Observation/e5f90a7b-0eec-407d-9761-30214e3d33a7","resource":{"resourceType":"Observation","id":"e5f90a7b-0eec-407d-9761-30214e3d33a7","meta":{"profile":["http://hl7.org/fhir/us/qicore/StructureDefinition/qicore-simple-observation"]},"status":"final","category":[{"coding":[{"system":"http://terminology.hl7.org/CodeSystem/observation-category","code":"exam","display":"exam","userSelected":true}]}],"code":{"coding":[{"system":"http://loinc.org","code":"93857-1"}]},"subject":{"reference":"Patient/df8636f3-8f53-4835-b81c-ef707f527d50"},"effectiveDateTime":"2026-06-08T20:00:00.000+00:00","performer":[{"reference":"Organization/example1","display":"Hendricks Country Hospital"}],"valueDateTime":"2026-06-08T20:00:00.000+00:00"},"request":{"method":"PUT","url":"Observation/e5f90a7b-0eec-407d-9761-30214e3d33a7"}},{"fullUrl":"https://madie.cms.gov/Observation/2640a33f-fc48-47ce-90d8-55e99534f9a8","resource":{"resourceType":"Observation","id":"2640a33f-fc48-47ce-90d8-55e99534f9a8","meta":{"profile":["http://hl7.org/fhir/us/qicore/StructureDefinition/qicore-simple-observation"]},"status":"final","category":[{"coding":[{"system":"http://terminology.hl7.org/CodeSystem/observation-category","code":"exam","display":"exam","userSelected":true}]}],"code":{"coding":[{"system":"http://snomed.info/sct","code":"9999999"}]},"subject":{"reference":"Patient/df8636f3-8f53-4835-b81c-ef707f527d50"},"effectiveDateTime":"2026-06-08T08:00:00.000+00:00","performer":[{"reference":"Organization/example1","display":"Hendricks Country Hospital"}]},"request":{"method":"PUT","url":"Observation/2640a33f-fc48-47ce-90d8-55e99534f9a8"}},{"fullUrl":"https://madie.cms.gov/Encounter/5e241319-3bde-422f-a9a0-d7232e1f55fd","resource":{"resourceType":"Encounter","id":"5e241319-3bde-422f-a9a0-d7232e1f55fd","meta":{"profile":["http://hl7.org/fhir/us/qicore/StructureDefinition/qicore-encounter"]},"status":"finished","class":{"system":"http://terminology.hl7.org/CodeSystem/v3-ActCode","code":"IMP","display":"inpatient encounter"},"type":[{"coding":[{"system":"http://snomed.info/sct","code":"8715000"}]}],"subject":{"reference":"Patient/df8636f3-8f53-4835-b81c-ef707f527d50"},"period":{"start":"2026-06-08T08:00:00.000+00:00","end":"2026-06-10T08:15:00.000+00:00"},"reasonCode":[{"coding":[{"system":"http://snomed.info/sct","code":"169826009","display":"Single live birth from singleton pregnancy (finding)"}]}]},"request":{"method":"PUT","url":"Encounter/5e241319-3bde-422f-a9a0-d7232e1f55fd"}},{"fullUrl":"https://madie.cms.gov/Procedure/0b26fc13-4f66-460b-9efc-053183e7a281","resource":{"resourceType":"Procedure","id":"0b26fc13-4f66-460b-9efc-053183e7a281","meta":{"profile":["http://hl7.org/fhir/us/qicore/StructureDefinition/qicore-procedure"]},"extension":[{"url":"http://hl7.org/fhir/us/qicore/StructureDefinition/qicore-recorded","valueDateTime":"2014-04-05T13:35:00.000+00:00"}],"status":"completed","code":{"coding":[{"system":"http://www.cms.gov/Medicare/Coding/ICD10","code":"10D00Z0"},{"system":"http://snomed.info/sct","code":"4504004"}]},"subject":{"reference":"Patient/df8636f3-8f53-4835-b81c-ef707f527d50"},"performedPeriod":{"start":"2026-06-08T20:00:00.000+00:00","end":"2026-06-18T20:00:00.000+00:00"}},"request":{"method":"PUT","url":"Procedure/0b26fc13-4f66-460b-9efc-053183e7a281"}},{"fullUrl":"https://madie.cms.gov/Condition/b0d8c121-7076-49d0-b4c0-bd5b981df356","resource":{"resourceType":"Condition","id":"b0d8c121-7076-49d0-b4c0-bd5b981df356","meta":{"profile":["http://hl7.org/fhir/us/qicore/StructureDefinition/qicore-condition-encounter-diagnosis"]},"category":[{"coding":[{"system":"http://terminology.hl7.org/CodeSystem/condition-category","code":"encounter-diagnosis","display":"Encounter Diagnosis"}]}],"code":{"coding":[{"system":"http://snomed.info/sct","version":"2022-09","code":"169826009","display":"Single live birth (finding)","userSelected":true}]},"subject":{"reference":"Patient/df8636f3-8f53-4835-b81c-ef707f527d50"},"encounter":{"reference":"Encounter/5e241319-3bde-422f-a9a0-d7232e1f55fd"},"recordedDate":"2026-10-17T08:00:00.000+00:00"},"request":{"method":"PUT","url":"Condition/b0d8c121-7076-49d0-b4c0-bd5b981df356"}},{"fullUrl":"https://madie.cms.gov/Coverage/d7fa8d94-fd05-4d0c-b0cb-1096036002f1","resource":{"resourceType":"Coverage","id":"d7fa8d94-fd05-4d0c-b0cb-1096036002f1","meta":{"profile":["http://hl7.org/fhir/us/qicore/StructureDefinition/qicore-coverage"]},"status":"active","subscriberId":"523435","beneficiary":{"reference":"Patient/df8636f3-8f53-4835-b81c-ef707f527d50"},"relationship":{"coding":[{"system":"http://terminology.hl7.org/CodeSystem/subscriber-relationship","code":"self"}]},"payor":[{"reference":"Organization/eef15e66-ff6f-44f8-be94-ce72bbb94518"}]},"request":{"method":"PUT","url":"Coverage/d7fa8d94-fd05-4d0c-b0cb-1096036002f1"}},{"fullUrl":"https://madie.cms.gov/Organization/eef15e66-ff6f-44f8-be94-ce72bbb94518","resource":{"resourceType":"Organization","id":"eef15e66-ff6f-44f8-be94-ce72bbb94518","meta":{"profile":["http://hl7.org/fhir/us/qicore/StructureDefinition/qicore-organization"]},"identifier":[{"use":"temp","system":"urn:oid:2.16.840.1.113883.4.4","value":"21-3259825"}],"active":true,"type":[{"coding":[{"system":"http://terminology.hl7.org/CodeSystem/organization-type","code":"pay","display":"Payer"}]}],"name":"Blue Cross Blue Shield of Texas","telecom":[{"system":"phone","value":"(+1) 972-766-6900"}],"address":[{"use":"billing","type":"postal","line":["P.O. Box 660044"],"city":"Dallas","state":"TX","postalCode":"75266-0044","country":"USA"}]},"request":{"method":"PUT","url":"Organization/eef15e66-ff6f-44f8-be94-ce72bbb94518"}},{"fullUrl":"https://madie.cms.gov/Practitioner/d1e3545e-6264-4c02-be7c-d6c76bcc1e19","resource":{"resourceType":"Practitioner","id":"d1e3545e-6264-4c02-be7c-d6c76bcc1e19","meta":{"profile":["http://hl7.org/fhir/us/qicore/StructureDefinition/qicore-practitioner"]},"identifier":[{"system":"http://hl7.org/fhir/sid/us-npi","value":"1234567890"}],"name":[{"family":"Evil","prefix":["Dr"]}]},"request":{"method":"PUT","url":"Practitioner/d1e3545e-6264-4c02-be7c-d6c76bcc1e19"}},{"fullUrl":"https://madie.cms.gov/MeasureReport/772d2c80-01ba-4031-97f4-610584847536","resource":{"resourceType":"MeasureReport","id":"772d2c80-01ba-4031-97f4-610584847536","meta":{"profile":["http://hl7.org/fhir/us/cqfmeasures/StructureDefinition/test-case-cqfm"]},"contained":[{"resourceType":"Parameters","id":"1fa504a9-3f03-403a-83ea-94bb55ff9fce-parameters","parameter":[{"name":"subject","valueString":"df8636f3-8f53-4835-b81c-ef707f527d50"}]}],"extension":[{"url":"http://hl7.org/fhir/StructureDefinition/cqf-inputParameters","valueReference":{"reference":"#1fa504a9-3f03-403a-83ea-94bb55ff9fce-parameters"}},{"url":"http://hl7.org/fhir/us/cqfmeasures/StructureDefinition/cqfm-testCaseDescription","valueMarkdown":"EGA 43 weeks; Assessment performed but NOT Abnormal presentation , gravida 1, \n"}],"modifierExtension":[{"url":"http://hl7.org/fhir/us/cqfmeasures/StructureDefinition/cqfm-isTestCase","valueBoolean":true}],"status":"complete","type":"individual","measure":"https://madie.cms.gov/Measure/CMS0334FHIRPCCesareanBirth","period":{"start":"2026-01-01","end":"2026-12-31"},"group":[{"id":"Group_1","population":[{"id":"InitialPopulation_1","code":{"coding":[{"system":"http://terminology.hl7.org/CodeSystem/measure-population","code":"initial-population","display":"Initial Population"}]},"count":1},{"id":"Denominator_1","code":{"coding":[{"system":"http://terminology.hl7.org/CodeSystem/measure-population","code":"denominator","display":"Denominator"}]},"count":1},{"id":"DenominatorExclusion_1","code":{"coding":[{"system":"http://terminology.hl7.org/CodeSystem/measure-population","code":"denominator-exclusion","display":"Denominator Exclusion"}]},"count":0},{"id":"Numerator_1","code":{"coding":[{"system":"http://terminology.hl7.org/CodeSystem/measure-population","code":"numerator","display":"Numerator"}]},"count":0}],"measureScore":{"value":0.0}}],"evaluatedResource":[{"reference":"Patient/df8636f3-8f53-4835-b81c-ef707f527d50"},{"reference":"Observation/2f1b4718-0815-4faf-9899-fc11c7a13119"},{"reference":"Observation/d79703d0-87c2-4941-839e-ac2e81bb20e1"},{"reference":"Observation/e5f90a7b-0eec-407d-9761-30214e3d33a7"},{"reference":"Observation/2640a33f-fc48-47ce-90d8-55e99534f9a8"},{"reference":"Encounter/5e241319-3bde-422f-a9a0-d7232e1f55fd"},{"reference":"Procedure/0b26fc13-4f66-460b-9efc-053183e7a281"},{"reference":"Condition/b0d8c121-7076-49d0-b4c0-bd5b981df356"},{"reference":"Coverage/d7fa8d94-fd05-4d0c-b0cb-1096036002f1"},{"reference":"Organization/eef15e66-ff6f-44f8-be94-ce72bbb94518"},{"reference":"Practitioner/d1e3545e-6264-4c02-be7c-d6c76bcc1e19"}]},"request":{"method":"PUT","url":"MeasureReport/772d2c80-01ba-4031-97f4-610584847536"}}]},"request":{"method":"PUT","url":"Bundle/63487c300968f801225401c0"}}]}