{"resourceType":"Bundle","id":"tests-faa0909e-a3b5-4fb2-885a-e8ddd20b9ab0-bundle","type":"transaction","entry":[{"fullUrl":"Organization/178b8205-d2b1-44a7-bb8f-e65b7a393063","resource":{"resourceType":"Organization","id":"178b8205-d2b1-44a7-bb8f-e65b7a393063","meta":{"profile":["http://hl7.org/fhir/us/qicore/StructureDefinition/qicore-organization"]},"identifier":[{"use":"temp","system":"urn:oid:2.16.840.1.113883.4.4","value":"21-3259825"}],"active":true,"type":[{"coding":[{"system":"http://terminology.hl7.org/CodeSystem/organization-type","code":"pay","display":"Payer"}]}],"name":"Blue Cross Blue Shield of Texas","telecom":[{"system":"phone","value":"(+1) 972-766-6900"}],"address":[{"use":"billing","type":"postal","line":["P.O. Box 660044"],"city":"Dallas","state":"TX","postalCode":"75266-0044","country":"USA"}]},"request":{"method":"PUT","url":"Organization/178b8205-d2b1-44a7-bb8f-e65b7a393063"}},{"fullUrl":"Bundle/63487c300968f801225401bd","resource":{"resourceType":"Bundle","id":"63487c300968f801225401bd","type":"transaction","entry":[{"fullUrl":"https://madie.cms.gov/Patient/faa0909e-a3b5-4fb2-885a-e8ddd20b9ab0","resource":{"resourceType":"Patient","id":"faa0909e-a3b5-4fb2-885a-e8ddd20b9ab0","meta":{"profile":["http://hl7.org/fhir/us/qicore/StructureDefinition/qicore-patient"]},"text":{"status":"generated","div":"<div xmlns=\"http://www.w3.org/1999/xhtml\"><div class=\"hapiHeaderText\">AssessPreTermMissingResult <b>DENOMFail</b></div><table class=\"hapiPropertyTable\"><tbody><tr><td>Identifier</td><td>68ae6e24f0fface97c058e998841dc5fd1e621f11f5d5bc2aeef1a3a248ebc14</td></tr><tr><td>Date of birth</td><td><span>14 February 1985</span></td></tr></tbody></table></div>"},"extension":[{"url":"http://hl7.org/fhir/us/core/StructureDefinition/us-core-race","extension":[{"url":"ombCategory","valueCoding":{"system":"urn:oid:2.16.840.1.113883.6.238","code":"1002-5","display":"American Indian or Alaska Native","userSelected":true}},{"url":"text","valueString":"American Indian or Alaska Native"}]},{"url":"http://hl7.org/fhir/us/core/StructureDefinition/us-core-ethnicity","extension":[{"url":"ombCategory","valueCoding":{"system":"urn:oid:2.16.840.1.113883.6.238","code":"2135-2","display":"Hispanic or Latino","userSelected":true}},{"url":"text","valueString":"Hispanic or Latino"}]}],"identifier":[{"type":{"coding":[{"system":"http://terminology.hl7.org/CodeSystem/v2-0203","code":"MR"}]},"system":"https://bonnie-fhir.healthit.gov/","value":"63487c300968f801225401bd"}],"active":true,"name":[{"use":"usual","family":"DENOMFail","given":["AssessPreTermMissingResult"]}],"gender":"female","birthDate":"1998-02-14"},"request":{"method":"PUT","url":"Patient/faa0909e-a3b5-4fb2-885a-e8ddd20b9ab0"}},{"fullUrl":"https://madie.cms.gov/Observation/3b32e6ff-d72e-4dab-b3d9-443f3c991fa8","resource":{"resourceType":"Observation","id":"3b32e6ff-d72e-4dab-b3d9-443f3c991fa8","meta":{"profile":["http://hl7.org/fhir/us/qicore/StructureDefinition/qicore-simple-observation"]},"status":"final","category":[{"coding":[{"system":"http://terminology.hl7.org/CodeSystem/observation-category","code":"exam","display":"exam","userSelected":true}]}],"code":{"coding":[{"system":"http://loinc.org","code":"11639-2"}]},"subject":{"reference":"Patient/faa0909e-a3b5-4fb2-885a-e8ddd20b9ab0"},"effectiveDateTime":"2025-09-19T09:00:00.000+00:00","valueInteger":0},"request":{"method":"PUT","url":"Observation/3b32e6ff-d72e-4dab-b3d9-443f3c991fa8"}},{"fullUrl":"https://madie.cms.gov/Observation/3690f582-d0cd-4eea-931e-31d669f9d235","resource":{"resourceType":"Observation","id":"3690f582-d0cd-4eea-931e-31d669f9d235","meta":{"profile":["http://hl7.org/fhir/us/qicore/StructureDefinition/qicore-simple-observation"]},"status":"final","category":[{"coding":[{"system":"http://terminology.hl7.org/CodeSystem/observation-category","code":"exam","display":"exam","userSelected":true}]}],"code":{"coding":[{"system":"http://loinc.org","code":"11884-4"}]},"subject":{"reference":"Patient/faa0909e-a3b5-4fb2-885a-e8ddd20b9ab0"},"effectiveDateTime":"2026-06-08T20:00:00.000+00:00","valueQuantity":{"value":37,"system":"http://unitsofmeasure.org","code":"wk"}},"request":{"method":"PUT","url":"Observation/3690f582-d0cd-4eea-931e-31d669f9d235"}},{"fullUrl":"https://madie.cms.gov/Observation/1fe82ce2-c688-4869-bd9e-07aeb491a4b6","resource":{"resourceType":"Observation","id":"1fe82ce2-c688-4869-bd9e-07aeb491a4b6","meta":{"profile":["http://hl7.org/fhir/us/qicore/StructureDefinition/qicore-simple-observation"]},"status":"final","category":[{"coding":[{"system":"http://terminology.hl7.org/CodeSystem/observation-category","code":"exam","display":"exam","userSelected":true}]}],"code":{"coding":[{"system":"http://loinc.org","code":"93857-1"}]},"subject":{"reference":"Patient/faa0909e-a3b5-4fb2-885a-e8ddd20b9ab0"},"effectiveDateTime":"2026-06-08T20:00:00.000+00:00","valueDateTime":"2026-06-08T20:00:00.000+00:00"},"request":{"method":"PUT","url":"Observation/1fe82ce2-c688-4869-bd9e-07aeb491a4b6"}},{"fullUrl":"https://madie.cms.gov/Observation/d5b44284-28c5-46fa-b13a-6a5e47dfb4aa","resource":{"resourceType":"Observation","id":"d5b44284-28c5-46fa-b13a-6a5e47dfb4aa","meta":{"profile":["http://hl7.org/fhir/us/qicore/StructureDefinition/qicore-simple-observation"]},"status":"final","category":[{"coding":[{"system":"http://terminology.hl7.org/CodeSystem/observation-category","code":"exam","display":"exam","userSelected":true}]}],"code":{"coding":[{"system":"http://loinc.org","code":"11637-6"}]},"subject":{"reference":"Patient/faa0909e-a3b5-4fb2-885a-e8ddd20b9ab0"}},"request":{"method":"PUT","url":"Observation/d5b44284-28c5-46fa-b13a-6a5e47dfb4aa"}},{"fullUrl":"https://madie.cms.gov/Encounter/9b272863-86fe-4e9a-a038-52c2d9e90caa","resource":{"resourceType":"Encounter","id":"9b272863-86fe-4e9a-a038-52c2d9e90caa","meta":{"profile":["http://hl7.org/fhir/us/qicore/StructureDefinition/qicore-encounter"]},"status":"finished","class":{"system":"http://terminology.hl7.org/CodeSystem/v3-ActCode","code":"IMP","display":"inpatient encounter"},"type":[{"coding":[{"system":"http://snomed.info/sct","code":"8715000"}]}],"subject":{"reference":"Patient/faa0909e-a3b5-4fb2-885a-e8ddd20b9ab0"},"period":{"start":"2026-06-08T08:00:00.000+00:00","end":"2026-06-10T08:15:00.000+00:00"},"length":{"value":2,"unit":"days"},"reasonReference":[{"reference":"Condition/5b349997-8381-4206-98c0-752108915023"}]},"request":{"method":"PUT","url":"Encounter/9b272863-86fe-4e9a-a038-52c2d9e90caa"}},{"fullUrl":"https://madie.cms.gov/Procedure/a60d30f4-b60f-4ae6-aa4b-6f925d71a20a","resource":{"resourceType":"Procedure","id":"a60d30f4-b60f-4ae6-aa4b-6f925d71a20a","meta":{"profile":["http://hl7.org/fhir/us/qicore/StructureDefinition/qicore-procedure"]},"extension":[{"url":"http://hl7.org/fhir/us/qicore/StructureDefinition/qicore-recorded","valueDateTime":"2014-04-05T13:35:00.000+00:00"}],"status":"completed","code":{"coding":[{"system":"http://www.cms.gov/Medicare/Coding/ICD10","code":"10D00Z0"},{"system":"http://snomed.info/sct","code":"4504004"},{"system":"http://www.icd10data.com/icd10pcs","code":"10D00Z0","userSelected":true}]},"subject":{"reference":"Patient/faa0909e-a3b5-4fb2-885a-e8ddd20b9ab0"},"performedPeriod":{"start":"2026-06-08T20:00:00.000+00:00","end":"2026-06-08T20:15:00.000+00:00"}},"request":{"method":"PUT","url":"Procedure/a60d30f4-b60f-4ae6-aa4b-6f925d71a20a"}},{"fullUrl":"https://madie.cms.gov/Condition/5b349997-8381-4206-98c0-752108915023","resource":{"resourceType":"Condition","id":"5b349997-8381-4206-98c0-752108915023","meta":{"profile":["http://hl7.org/fhir/us/qicore/StructureDefinition/qicore-condition-encounter-diagnosis"]},"category":[{"coding":[{"system":"http://terminology.hl7.org/CodeSystem/condition-category","code":"encounter-diagnosis","display":"Encounter Diagnosis"}]}],"code":{"coding":[{"system":"http://snomed.info/sct","version":"2022-09","code":"169826009","display":"Single live birth from singleton pregnancy (finding)","userSelected":true}]},"subject":{"reference":"Patient/faa0909e-a3b5-4fb2-885a-e8ddd20b9ab0"},"encounter":{"reference":"Encounter/9b272863-86fe-4e9a-a038-52c2d9e90caa"},"recordedDate":"2026-10-21T08:00:00.000+00:00"},"request":{"method":"PUT","url":"Condition/5b349997-8381-4206-98c0-752108915023"}},{"fullUrl":"https://madie.cms.gov/Coverage/2766c234-d792-45b0-9748-760ee339ce71","resource":{"resourceType":"Coverage","id":"2766c234-d792-45b0-9748-760ee339ce71","meta":{"profile":["http://hl7.org/fhir/us/qicore/StructureDefinition/qicore-coverage"]},"status":"active","subscriberId":"523435","beneficiary":{"reference":"Patient/faa0909e-a3b5-4fb2-885a-e8ddd20b9ab0"},"relationship":{"coding":[{"system":"http://terminology.hl7.org/CodeSystem/subscriber-relationship","code":"self"}]},"payor":[{"reference":"Organization/178b8205-d2b1-44a7-bb8f-e65b7a393063"}]},"request":{"method":"PUT","url":"Coverage/2766c234-d792-45b0-9748-760ee339ce71"}},{"fullUrl":"https://madie.cms.gov/Organization/178b8205-d2b1-44a7-bb8f-e65b7a393063","resource":{"resourceType":"Organization","id":"178b8205-d2b1-44a7-bb8f-e65b7a393063","meta":{"profile":["http://hl7.org/fhir/us/qicore/StructureDefinition/qicore-organization"]},"identifier":[{"use":"temp","system":"urn:oid:2.16.840.1.113883.4.4","value":"21-3259825"}],"active":true,"type":[{"coding":[{"system":"http://terminology.hl7.org/CodeSystem/organization-type","code":"pay","display":"Payer"}]}],"name":"Blue Cross Blue Shield of Texas","telecom":[{"system":"phone","value":"(+1) 972-766-6900"}],"address":[{"use":"billing","type":"postal","line":["P.O. Box 660044"],"city":"Dallas","state":"TX","postalCode":"75266-0044","country":"USA"}]},"request":{"method":"PUT","url":"Organization/178b8205-d2b1-44a7-bb8f-e65b7a393063"}},{"fullUrl":"https://madie.cms.gov/Practitioner/8bdf7f5b-60a5-44ec-950b-b255a9147299","resource":{"resourceType":"Practitioner","id":"8bdf7f5b-60a5-44ec-950b-b255a9147299","meta":{"profile":["http://hl7.org/fhir/us/qicore/StructureDefinition/qicore-practitioner"]},"identifier":[{"system":"http://hl7.org/fhir/sid/us-npi","value":"1234567890"}],"name":[{"family":"Evil","prefix":["Dr"]}]},"request":{"method":"PUT","url":"Practitioner/8bdf7f5b-60a5-44ec-950b-b255a9147299"}},{"fullUrl":"https://madie.cms.gov/MeasureReport/9f65d3de-7882-4504-8bb0-ff8c2322d29c","resource":{"resourceType":"MeasureReport","id":"9f65d3de-7882-4504-8bb0-ff8c2322d29c","meta":{"profile":["http://hl7.org/fhir/us/cqfmeasures/StructureDefinition/test-case-cqfm"]},"contained":[{"resourceType":"Parameters","id":"8aba754d-847f-4ce5-8628-580b8aed596d-parameters","parameter":[{"name":"subject","valueString":"faa0909e-a3b5-4fb2-885a-e8ddd20b9ab0"}]}],"extension":[{"url":"http://hl7.org/fhir/StructureDefinition/cqf-inputParameters","valueReference":{"reference":"#8aba754d-847f-4ce5-8628-580b8aed596d-parameters"}},{"url":"http://hl7.org/fhir/us/cqfmeasures/StructureDefinition/cqfm-testCaseDescription","valueMarkdown":"\"Preterm Births missing result, relevant date/time before Asse delivery datetime\nTerm Newborn=0, authored < 42weeks prior to Asse delivery\"\n"}],"modifierExtension":[{"url":"http://hl7.org/fhir/us/cqfmeasures/StructureDefinition/cqfm-isTestCase","valueBoolean":true}],"status":"complete","type":"individual","measure":"https://madie.cms.gov/Measure/CMS0334FHIRPCCesareanBirth","period":{"start":"2026-01-01","end":"2026-12-31"},"group":[{"id":"Group_1","population":[{"id":"InitialPopulation_1","code":{"coding":[{"system":"http://terminology.hl7.org/CodeSystem/measure-population","code":"initial-population","display":"Initial Population"}]},"count":1},{"id":"Denominator_1","code":{"coding":[{"system":"http://terminology.hl7.org/CodeSystem/measure-population","code":"denominator","display":"Denominator"}]},"count":0},{"id":"DenominatorExclusion_1","code":{"coding":[{"system":"http://terminology.hl7.org/CodeSystem/measure-population","code":"denominator-exclusion","display":"Denominator Exclusion"}]},"count":0},{"id":"Numerator_1","code":{"coding":[{"system":"http://terminology.hl7.org/CodeSystem/measure-population","code":"numerator","display":"Numerator"}]},"count":0}],"measureScore":{"value":0.0}}],"evaluatedResource":[{"reference":"Patient/faa0909e-a3b5-4fb2-885a-e8ddd20b9ab0"},{"reference":"Observation/3b32e6ff-d72e-4dab-b3d9-443f3c991fa8"},{"reference":"Observation/3690f582-d0cd-4eea-931e-31d669f9d235"},{"reference":"Observation/1fe82ce2-c688-4869-bd9e-07aeb491a4b6"},{"reference":"Observation/d5b44284-28c5-46fa-b13a-6a5e47dfb4aa"},{"reference":"Encounter/9b272863-86fe-4e9a-a038-52c2d9e90caa"},{"reference":"Procedure/a60d30f4-b60f-4ae6-aa4b-6f925d71a20a"},{"reference":"Condition/5b349997-8381-4206-98c0-752108915023"},{"reference":"Coverage/2766c234-d792-45b0-9748-760ee339ce71"},{"reference":"Organization/178b8205-d2b1-44a7-bb8f-e65b7a393063"},{"reference":"Practitioner/8bdf7f5b-60a5-44ec-950b-b255a9147299"}]},"request":{"method":"PUT","url":"MeasureReport/9f65d3de-7882-4504-8bb0-ff8c2322d29c"}}]},"request":{"method":"PUT","url":"Bundle/63487c300968f801225401bd"}},{"fullUrl":"MeasureReport/9f65d3de-7882-4504-8bb0-ff8c2322d29c","resource":{"resourceType":"MeasureReport","id":"9f65d3de-7882-4504-8bb0-ff8c2322d29c","meta":{"profile":["http://hl7.org/fhir/us/cqfmeasures/StructureDefinition/test-case-cqfm"]},"contained":[{"resourceType":"Parameters","id":"8aba754d-847f-4ce5-8628-580b8aed596d-parameters","parameter":[{"name":"subject","valueString":"faa0909e-a3b5-4fb2-885a-e8ddd20b9ab0"}]}],"extension":[{"url":"http://hl7.org/fhir/StructureDefinition/cqf-inputParameters","valueReference":{"reference":"#8aba754d-847f-4ce5-8628-580b8aed596d-parameters"}},{"url":"http://hl7.org/fhir/us/cqfmeasures/StructureDefinition/cqfm-testCaseDescription","valueMarkdown":"\"Preterm Births missing result, relevant date/time before Asse delivery datetime\nTerm Newborn=0, authored < 42weeks prior to Asse delivery\"\n"}],"modifierExtension":[{"url":"http://hl7.org/fhir/us/cqfmeasures/StructureDefinition/cqfm-isTestCase","valueBoolean":true}],"status":"complete","type":"individual","measure":"https://madie.cms.gov/Measure/CMS0334FHIRPCCesareanBirth","period":{"start":"2026-01-01","end":"2026-12-31"},"group":[{"id":"Group_1","population":[{"id":"InitialPopulation_1","code":{"coding":[{"system":"http://terminology.hl7.org/CodeSystem/measure-population","code":"initial-population","display":"Initial Population"}]},"count":1},{"id":"Denominator_1","code":{"coding":[{"system":"http://terminology.hl7.org/CodeSystem/measure-population","code":"denominator","display":"Denominator"}]},"count":0},{"id":"DenominatorExclusion_1","code":{"coding":[{"system":"http://terminology.hl7.org/CodeSystem/measure-population","code":"denominator-exclusion","display":"Denominator Exclusion"}]},"count":0},{"id":"Numerator_1","code":{"coding":[{"system":"http://terminology.hl7.org/CodeSystem/measure-population","code":"numerator","display":"Numerator"}]},"count":0}],"measureScore":{"value":0.0}}],"evaluatedResource":[{"reference":"Patient/faa0909e-a3b5-4fb2-885a-e8ddd20b9ab0"},{"reference":"Observation/3b32e6ff-d72e-4dab-b3d9-443f3c991fa8"},{"reference":"Observation/3690f582-d0cd-4eea-931e-31d669f9d235"},{"reference":"Observation/1fe82ce2-c688-4869-bd9e-07aeb491a4b6"},{"reference":"Observation/d5b44284-28c5-46fa-b13a-6a5e47dfb4aa"},{"reference":"Encounter/9b272863-86fe-4e9a-a038-52c2d9e90caa"},{"reference":"Procedure/a60d30f4-b60f-4ae6-aa4b-6f925d71a20a"},{"reference":"Condition/5b349997-8381-4206-98c0-752108915023"},{"reference":"Coverage/2766c234-d792-45b0-9748-760ee339ce71"},{"reference":"Organization/178b8205-d2b1-44a7-bb8f-e65b7a393063"},{"reference":"Practitioner/8bdf7f5b-60a5-44ec-950b-b255a9147299"}]},"request":{"method":"PUT","url":"MeasureReport/9f65d3de-7882-4504-8bb0-ff8c2322d29c"}},{"fullUrl":"Condition/5b349997-8381-4206-98c0-752108915023","resource":{"resourceType":"Condition","id":"5b349997-8381-4206-98c0-752108915023","meta":{"profile":["http://hl7.org/fhir/us/qicore/StructureDefinition/qicore-condition-encounter-diagnosis"]},"category":[{"coding":[{"system":"http://terminology.hl7.org/CodeSystem/condition-category","code":"encounter-diagnosis","display":"Encounter Diagnosis"}]}],"code":{"coding":[{"system":"http://snomed.info/sct","version":"2022-09","code":"169826009","display":"Single live birth from singleton pregnancy (finding)","userSelected":true}]},"subject":{"reference":"Patient/faa0909e-a3b5-4fb2-885a-e8ddd20b9ab0"},"encounter":{"reference":"Encounter/9b272863-86fe-4e9a-a038-52c2d9e90caa"},"recordedDate":"2026-10-21T08:00:00.000+00:00"},"request":{"method":"PUT","url":"Condition/5b349997-8381-4206-98c0-752108915023"}},{"fullUrl":"Procedure/a60d30f4-b60f-4ae6-aa4b-6f925d71a20a","resource":{"resourceType":"Procedure","id":"a60d30f4-b60f-4ae6-aa4b-6f925d71a20a","meta":{"profile":["http://hl7.org/fhir/us/qicore/StructureDefinition/qicore-procedure"]},"extension":[{"url":"http://hl7.org/fhir/us/qicore/StructureDefinition/qicore-recorded","valueDateTime":"2014-04-05T13:35:00.000+00:00"}],"status":"completed","code":{"coding":[{"system":"http://www.cms.gov/Medicare/Coding/ICD10","code":"10D00Z0"},{"system":"http://snomed.info/sct","code":"4504004"},{"system":"http://www.icd10data.com/icd10pcs","code":"10D00Z0","userSelected":true}]},"subject":{"reference":"Patient/faa0909e-a3b5-4fb2-885a-e8ddd20b9ab0"},"performedPeriod":{"start":"2026-06-08T20:00:00.000+00:00","end":"2026-06-08T20:15:00.000+00:00"}},"request":{"method":"PUT","url":"Procedure/a60d30f4-b60f-4ae6-aa4b-6f925d71a20a"}},{"fullUrl":"Patient/faa0909e-a3b5-4fb2-885a-e8ddd20b9ab0","resource":{"resourceType":"Patient","id":"faa0909e-a3b5-4fb2-885a-e8ddd20b9ab0","meta":{"profile":["http://hl7.org/fhir/us/qicore/StructureDefinition/qicore-patient"]},"text":{"status":"generated","div":"<div xmlns=\"http://www.w3.org/1999/xhtml\"><div class=\"hapiHeaderText\">AssessPreTermMissingResult <b>DENOMFail</b></div><table class=\"hapiPropertyTable\"><tbody><tr><td>Identifier</td><td>68ae6e24f0fface97c058e998841dc5fd1e621f11f5d5bc2aeef1a3a248ebc14</td></tr><tr><td>Date of birth</td><td><span>14 February 1985</span></td></tr></tbody></table></div>"},"extension":[{"url":"http://hl7.org/fhir/us/core/StructureDefinition/us-core-race","extension":[{"url":"ombCategory","valueCoding":{"system":"urn:oid:2.16.840.1.113883.6.238","code":"1002-5","display":"American Indian or Alaska Native","userSelected":true}},{"url":"text","valueString":"American Indian or Alaska Native"}]},{"url":"http://hl7.org/fhir/us/core/StructureDefinition/us-core-ethnicity","extension":[{"url":"ombCategory","valueCoding":{"system":"urn:oid:2.16.840.1.113883.6.238","code":"2135-2","display":"Hispanic or Latino","userSelected":true}},{"url":"text","valueString":"Hispanic or Latino"}]}],"identifier":[{"type":{"coding":[{"system":"http://terminology.hl7.org/CodeSystem/v2-0203","code":"MR"}]},"system":"https://bonnie-fhir.healthit.gov/","value":"63487c300968f801225401bd"}],"active":true,"name":[{"use":"usual","family":"DENOMFail","given":["AssessPreTermMissingResult"]}],"gender":"female","birthDate":"1998-02-14"},"request":{"method":"PUT","url":"Patient/faa0909e-a3b5-4fb2-885a-e8ddd20b9ab0"}},{"fullUrl":"Observation/3b32e6ff-d72e-4dab-b3d9-443f3c991fa8","resource":{"resourceType":"Observation","id":"3b32e6ff-d72e-4dab-b3d9-443f3c991fa8","meta":{"profile":["http://hl7.org/fhir/us/qicore/StructureDefinition/qicore-simple-observation"]},"status":"final","category":[{"coding":[{"system":"http://terminology.hl7.org/CodeSystem/observation-category","code":"exam","display":"exam","userSelected":true}]}],"code":{"coding":[{"system":"http://loinc.org","code":"11639-2"}]},"subject":{"reference":"Patient/faa0909e-a3b5-4fb2-885a-e8ddd20b9ab0"},"effectiveDateTime":"2025-09-19T09:00:00.000+00:00","valueInteger":0},"request":{"method":"PUT","url":"Observation/3b32e6ff-d72e-4dab-b3d9-443f3c991fa8"}},{"fullUrl":"Encounter/9b272863-86fe-4e9a-a038-52c2d9e90caa","resource":{"resourceType":"Encounter","id":"9b272863-86fe-4e9a-a038-52c2d9e90caa","meta":{"profile":["http://hl7.org/fhir/us/qicore/StructureDefinition/qicore-encounter"]},"status":"finished","class":{"system":"http://terminology.hl7.org/CodeSystem/v3-ActCode","code":"IMP","display":"inpatient encounter"},"type":[{"coding":[{"system":"http://snomed.info/sct","code":"8715000"}]}],"subject":{"reference":"Patient/faa0909e-a3b5-4fb2-885a-e8ddd20b9ab0"},"period":{"start":"2026-06-08T08:00:00.000+00:00","end":"2026-06-10T08:15:00.000+00:00"},"length":{"value":2,"unit":"days"},"reasonReference":[{"reference":"Condition/5b349997-8381-4206-98c0-752108915023"}]},"request":{"method":"PUT","url":"Encounter/9b272863-86fe-4e9a-a038-52c2d9e90caa"}},{"fullUrl":"Observation/d5b44284-28c5-46fa-b13a-6a5e47dfb4aa","resource":{"resourceType":"Observation","id":"d5b44284-28c5-46fa-b13a-6a5e47dfb4aa","meta":{"profile":["http://hl7.org/fhir/us/qicore/StructureDefinition/qicore-simple-observation"]},"status":"final","category":[{"coding":[{"system":"http://terminology.hl7.org/CodeSystem/observation-category","code":"exam","display":"exam","userSelected":true}]}],"code":{"coding":[{"system":"http://loinc.org","code":"11637-6"}]},"subject":{"reference":"Patient/faa0909e-a3b5-4fb2-885a-e8ddd20b9ab0"}},"request":{"method":"PUT","url":"Observation/d5b44284-28c5-46fa-b13a-6a5e47dfb4aa"}},{"fullUrl":"Coverage/2766c234-d792-45b0-9748-760ee339ce71","resource":{"resourceType":"Coverage","id":"2766c234-d792-45b0-9748-760ee339ce71","meta":{"profile":["http://hl7.org/fhir/us/qicore/StructureDefinition/qicore-coverage"]},"status":"active","subscriberId":"523435","beneficiary":{"reference":"Patient/faa0909e-a3b5-4fb2-885a-e8ddd20b9ab0"},"relationship":{"coding":[{"system":"http://terminology.hl7.org/CodeSystem/subscriber-relationship","code":"self"}]},"payor":[{"reference":"Organization/178b8205-d2b1-44a7-bb8f-e65b7a393063"}]},"request":{"method":"PUT","url":"Coverage/2766c234-d792-45b0-9748-760ee339ce71"}},{"fullUrl":"Observation/1fe82ce2-c688-4869-bd9e-07aeb491a4b6","resource":{"resourceType":"Observation","id":"1fe82ce2-c688-4869-bd9e-07aeb491a4b6","meta":{"profile":["http://hl7.org/fhir/us/qicore/StructureDefinition/qicore-simple-observation"]},"status":"final","category":[{"coding":[{"system":"http://terminology.hl7.org/CodeSystem/observation-category","code":"exam","display":"exam","userSelected":true}]}],"code":{"coding":[{"system":"http://loinc.org","code":"93857-1"}]},"subject":{"reference":"Patient/faa0909e-a3b5-4fb2-885a-e8ddd20b9ab0"},"effectiveDateTime":"2026-06-08T20:00:00.000+00:00","valueDateTime":"2026-06-08T20:00:00.000+00:00"},"request":{"method":"PUT","url":"Observation/1fe82ce2-c688-4869-bd9e-07aeb491a4b6"}},{"fullUrl":"Practitioner/8bdf7f5b-60a5-44ec-950b-b255a9147299","resource":{"resourceType":"Practitioner","id":"8bdf7f5b-60a5-44ec-950b-b255a9147299","meta":{"profile":["http://hl7.org/fhir/us/qicore/StructureDefinition/qicore-practitioner"]},"identifier":[{"system":"http://hl7.org/fhir/sid/us-npi","value":"1234567890"}],"name":[{"family":"Evil","prefix":["Dr"]}]},"request":{"method":"PUT","url":"Practitioner/8bdf7f5b-60a5-44ec-950b-b255a9147299"}},{"fullUrl":"Observation/3690f582-d0cd-4eea-931e-31d669f9d235","resource":{"resourceType":"Observation","id":"3690f582-d0cd-4eea-931e-31d669f9d235","meta":{"profile":["http://hl7.org/fhir/us/qicore/StructureDefinition/qicore-simple-observation"]},"status":"final","category":[{"coding":[{"system":"http://terminology.hl7.org/CodeSystem/observation-category","code":"exam","display":"exam","userSelected":true}]}],"code":{"coding":[{"system":"http://loinc.org","code":"11884-4"}]},"subject":{"reference":"Patient/faa0909e-a3b5-4fb2-885a-e8ddd20b9ab0"},"effectiveDateTime":"2026-06-08T20:00:00.000+00:00","valueQuantity":{"value":37,"system":"http://unitsofmeasure.org","code":"wk"}},"request":{"method":"PUT","url":"Observation/3690f582-d0cd-4eea-931e-31d669f9d235"}}]}