{"resourceType":"Bundle","id":"tests-298c7561-670d-426e-8df0-28667037b43c-bundle","type":"transaction","entry":[{"fullUrl":"Bundle/63487c2f0968f801225401a8","resource":{"resourceType":"Bundle","id":"63487c2f0968f801225401a8","type":"transaction","entry":[{"fullUrl":"https://madie.cms.gov/Patient/298c7561-670d-426e-8df0-28667037b43c","resource":{"resourceType":"Patient","id":"298c7561-670d-426e-8df0-28667037b43c","meta":{"profile":["http://hl7.org/fhir/us/qicore/StructureDefinition/qicore-patient"]},"text":{"status":"generated","div":"<div xmlns=\"http://www.w3.org/1999/xhtml\"><div class=\"hapiHeaderText\">CalcEGALastBothNull_EDDRvltPeriodDuringEDOB <b>DENPASS </b></div><table class=\"hapiPropertyTable\"><tbody><tr><td>Identifier</td><td>b00b06f67015bda652373741cca10f65466d828e3a674df9528f73ec417ce0bb</td></tr><tr><td>Date of birth</td><td><span>14 February 1985</span></td></tr></tbody></table></div>"},"extension":[{"url":"http://hl7.org/fhir/us/core/StructureDefinition/us-core-race","extension":[{"url":"ombCategory","valueCoding":{"system":"urn:oid:2.16.840.1.113883.6.238","code":"1002-5","display":"American Indian or Alaska Native","userSelected":true}},{"url":"text","valueString":"American Indian or Alaska Native"}]},{"url":"http://hl7.org/fhir/us/core/StructureDefinition/us-core-ethnicity","extension":[{"url":"ombCategory","valueCoding":{"system":"urn:oid:2.16.840.1.113883.6.238","code":"2135-2","display":"Hispanic or Latino","userSelected":true}},{"url":"text","valueString":"Hispanic or Latino"}]}],"identifier":[{"type":{"coding":[{"system":"http://terminology.hl7.org/CodeSystem/v2-0203","code":"MR"}]},"system":"https://bonnie-fhir.healthit.gov/","value":"63487c2f0968f801225401a8"}],"active":true,"name":[{"use":"usual","family":"DENPass","given":["CalcEGALastBothNull_EDDRvltPeriodDuringEDOB"]}],"gender":"female","birthDate":"1998-02-14"},"request":{"method":"PUT","url":"Patient/298c7561-670d-426e-8df0-28667037b43c"}},{"fullUrl":"https://madie.cms.gov/Observation/e1030b16-19a3-4777-9134-af978002dd67","resource":{"resourceType":"Observation","id":"e1030b16-19a3-4777-9134-af978002dd67","meta":{"profile":["http://hl7.org/fhir/us/qicore/StructureDefinition/qicore-simple-observation"]},"status":"final","category":[{"coding":[{"system":"http://terminology.hl7.org/CodeSystem/observation-category","code":"exam","display":"exam","userSelected":true}]}],"code":{"coding":[{"system":"http://loinc.org","code":"93857-1"}]},"subject":{"reference":"Patient/298c7561-670d-426e-8df0-28667037b43c"},"effectiveDateTime":"2026-01-15T08:00:00.000+00:00","valueDateTime":"2026-01-15T08:00:00.000+00:00"},"request":{"method":"PUT","url":"Observation/e1030b16-19a3-4777-9134-af978002dd67"}},{"fullUrl":"https://madie.cms.gov/Observation/594ad3f0-f4ca-4d21-a200-1ba7eb65e5e8","resource":{"resourceType":"Observation","id":"594ad3f0-f4ca-4d21-a200-1ba7eb65e5e8","meta":{"profile":["http://hl7.org/fhir/us/qicore/StructureDefinition/qicore-simple-observation"]},"status":"final","category":[{"coding":[{"system":"http://terminology.hl7.org/CodeSystem/observation-category","code":"exam","display":"exam","userSelected":true}]}],"code":{"coding":[{"system":"http://loinc.org","code":"11778-8"}]},"subject":{"reference":"Patient/298c7561-670d-426e-8df0-28667037b43c"},"effectiveDateTime":"2026-01-15T07:00:00.000+00:00","valueDateTime":"2026-02-04T08:00:00.000+00:00"},"request":{"method":"PUT","url":"Observation/594ad3f0-f4ca-4d21-a200-1ba7eb65e5e8"}},{"fullUrl":"https://madie.cms.gov/Observation/a4d8f5b7-d34f-4389-84cf-5232fb3d874b","resource":{"resourceType":"Observation","id":"a4d8f5b7-d34f-4389-84cf-5232fb3d874b","meta":{"profile":["http://hl7.org/fhir/us/qicore/StructureDefinition/qicore-simple-observation"]},"status":"final","category":[{"coding":[{"system":"http://terminology.hl7.org/CodeSystem/observation-category","code":"exam","display":"exam","userSelected":true}]}],"code":{"coding":[{"system":"http://loinc.org","code":"11996-6"}]},"subject":{"reference":"Patient/298c7561-670d-426e-8df0-28667037b43c"},"effectiveDateTime":"2026-01-15T07:59:00.000+00:00","valueInteger":1},"request":{"method":"PUT","url":"Observation/a4d8f5b7-d34f-4389-84cf-5232fb3d874b"}},{"fullUrl":"https://madie.cms.gov/Observation/d240f4bb-832d-4c2c-8719-aad79c7d960c","resource":{"resourceType":"Observation","id":"d240f4bb-832d-4c2c-8719-aad79c7d960c","meta":{"profile":["http://hl7.org/fhir/us/qicore/StructureDefinition/qicore-simple-observation"]},"status":"final","category":[{"coding":[{"system":"http://terminology.hl7.org/CodeSystem/observation-category","code":"exam","display":"exam","userSelected":true}]}],"code":{"coding":[{"system":"http://loinc.org","code":"11778-8"}]},"subject":{"reference":"Patient/298c7561-670d-426e-8df0-28667037b43c"}},"request":{"method":"PUT","url":"Observation/d240f4bb-832d-4c2c-8719-aad79c7d960c"}},{"fullUrl":"https://madie.cms.gov/Observation/18f81505-4502-4b21-ba30-71e98bec49e3","resource":{"resourceType":"Observation","id":"18f81505-4502-4b21-ba30-71e98bec49e3","meta":{"profile":["http://hl7.org/fhir/us/qicore/StructureDefinition/qicore-simple-observation"]},"status":"final","category":[{"coding":[{"system":"http://terminology.hl7.org/CodeSystem/observation-category","code":"exam","display":"exam","userSelected":true}]}],"code":{"coding":[{"system":"http://loinc.org","code":"93857-1"}]},"subject":{"reference":"Patient/298c7561-670d-426e-8df0-28667037b43c"}},"request":{"method":"PUT","url":"Observation/18f81505-4502-4b21-ba30-71e98bec49e3"}},{"fullUrl":"https://madie.cms.gov/Encounter/2ae75441-5dd7-462e-a60f-24da19ec4500","resource":{"resourceType":"Encounter","id":"2ae75441-5dd7-462e-a60f-24da19ec4500","meta":{"profile":["http://hl7.org/fhir/us/qicore/StructureDefinition/qicore-encounter"]},"status":"finished","class":{"system":"http://terminology.hl7.org/CodeSystem/v3-ActCode","code":"IMP","display":"inpatient encounter"},"type":[{"coding":[{"system":"http://snomed.info/sct","code":"183452005"}]}],"subject":{"reference":"Patient/298c7561-670d-426e-8df0-28667037b43c"},"period":{"start":"2026-01-15T08:00:00.000+00:00","end":"2026-01-20T08:15:00.000+00:00"},"reasonReference":[{"reference":"Condition/8c560703-d54e-4a44-8232-b6b61b31f52f"}]},"request":{"method":"PUT","url":"Encounter/2ae75441-5dd7-462e-a60f-24da19ec4500"}},{"fullUrl":"https://madie.cms.gov/Procedure/4bdc44d4-7e26-462a-8520-53d1b7abd6d8","resource":{"resourceType":"Procedure","id":"4bdc44d4-7e26-462a-8520-53d1b7abd6d8","meta":{"profile":["http://hl7.org/fhir/us/qicore/StructureDefinition/qicore-procedure"]},"extension":[{"url":"http://hl7.org/fhir/us/qicore/StructureDefinition/qicore-recorded","valueDateTime":"2014-04-05T13:35:00.000+00:00"}],"status":"completed","code":{"coding":[{"system":"http://www.cms.gov/Medicare/Coding/ICD10","code":"10D07Z3"}]},"subject":{"reference":"Patient/298c7561-670d-426e-8df0-28667037b43c"},"performedPeriod":{"start":"2026-01-15T08:10:00.000+00:00","end":"2026-01-15T09:14:00.000+00:00"}},"request":{"method":"PUT","url":"Procedure/4bdc44d4-7e26-462a-8520-53d1b7abd6d8"}},{"fullUrl":"https://madie.cms.gov/Condition/8c560703-d54e-4a44-8232-b6b61b31f52f","resource":{"resourceType":"Condition","id":"8c560703-d54e-4a44-8232-b6b61b31f52f","meta":{"profile":["http://hl7.org/fhir/us/qicore/StructureDefinition/qicore-condition-encounter-diagnosis"]},"category":[{"coding":[{"system":"http://terminology.hl7.org/CodeSystem/condition-category","code":"encounter-diagnosis","display":"Encounter Diagnosis"}]}],"code":{"coding":[{"system":"http://snomed.info/sct","version":"2022-09","code":"169826009","display":"Single live birth from singleton pregnancy (finding)","userSelected":true}]},"subject":{"reference":"Patient/298c7561-670d-426e-8df0-28667037b43c"},"encounter":{"reference":"Encounter/2ae75441-5dd7-462e-a60f-24da19ec4500"},"recordedDate":"2026-10-20T08:00:00.000+00:00"},"request":{"method":"PUT","url":"Condition/8c560703-d54e-4a44-8232-b6b61b31f52f"}},{"fullUrl":"https://madie.cms.gov/Coverage/adf09b65-7481-4df9-a024-acd602ff05ca","resource":{"resourceType":"Coverage","id":"adf09b65-7481-4df9-a024-acd602ff05ca","meta":{"profile":["http://hl7.org/fhir/us/qicore/StructureDefinition/qicore-coverage"]},"status":"active","subscriberId":"523435","beneficiary":{"reference":"Patient/298c7561-670d-426e-8df0-28667037b43c"},"relationship":{"coding":[{"system":"http://terminology.hl7.org/CodeSystem/subscriber-relationship","code":"self"}]},"payor":[{"reference":"Organization/ece7cff5-419f-4eda-a4fd-91d6187f9ac7"}]},"request":{"method":"PUT","url":"Coverage/adf09b65-7481-4df9-a024-acd602ff05ca"}},{"fullUrl":"https://madie.cms.gov/Organization/ece7cff5-419f-4eda-a4fd-91d6187f9ac7","resource":{"resourceType":"Organization","id":"ece7cff5-419f-4eda-a4fd-91d6187f9ac7","meta":{"profile":["http://hl7.org/fhir/us/qicore/StructureDefinition/qicore-organization"]},"identifier":[{"use":"temp","system":"urn:oid:2.16.840.1.113883.4.4","value":"21-3259825"}],"active":true,"type":[{"coding":[{"system":"http://terminology.hl7.org/CodeSystem/organization-type","code":"pay","display":"Payer"}]}],"name":"Blue Cross Blue Shield of Texas","telecom":[{"system":"phone","value":"(+1) 972-766-6900"}],"address":[{"use":"billing","type":"postal","line":["P.O. Box 660044"],"city":"Dallas","state":"TX","postalCode":"75266-0044","country":"USA"}]},"request":{"method":"PUT","url":"Organization/ece7cff5-419f-4eda-a4fd-91d6187f9ac7"}},{"fullUrl":"https://madie.cms.gov/Practitioner/58f9b37a-6d3b-433b-b90f-13b346fc098b","resource":{"resourceType":"Practitioner","id":"58f9b37a-6d3b-433b-b90f-13b346fc098b","meta":{"profile":["http://hl7.org/fhir/us/qicore/StructureDefinition/qicore-practitioner"]},"identifier":[{"system":"http://hl7.org/fhir/sid/us-npi","value":"1234567890"}],"name":[{"family":"Evil","prefix":["Dr"]}]},"request":{"method":"PUT","url":"Practitioner/58f9b37a-6d3b-433b-b90f-13b346fc098b"}},{"fullUrl":"https://madie.cms.gov/MeasureReport/5dd26b86-d474-4c0f-a8f9-e64581af6c02","resource":{"resourceType":"MeasureReport","id":"5dd26b86-d474-4c0f-a8f9-e64581af6c02","meta":{"profile":["http://hl7.org/fhir/us/cqfmeasures/StructureDefinition/test-case-cqfm"]},"contained":[{"resourceType":"Parameters","id":"95dce311-3d29-4a02-85e8-ded793abb8be-parameters","parameter":[{"name":"subject","valueString":"298c7561-670d-426e-8df0-28667037b43c"}]}],"extension":[{"url":"http://hl7.org/fhir/StructureDefinition/cqf-inputParameters","valueReference":{"reference":"#95dce311-3d29-4a02-85e8-ded793abb8be-parameters"}},{"url":"http://hl7.org/fhir/us/cqfmeasures/StructureDefinition/cqfm-testCaseDescription","valueMarkdown":"Pt is 27 years of age,  encounter dx delivery of singleton, gravida=1red dt/time less than 42 weeks prior to delivery.  Both the LAST Est Deliv and the LAST Time of Deliv are NULL. However, previous EDD and Time of Del meet."}],"modifierExtension":[{"url":"http://hl7.org/fhir/us/cqfmeasures/StructureDefinition/cqfm-isTestCase","valueBoolean":true}],"status":"complete","type":"individual","measure":"https://madie.cms.gov/Measure/CMS0334FHIRPCCesareanBirth","period":{"start":"2026-01-01","end":"2026-12-31"},"group":[{"id":"Group_1","population":[{"id":"InitialPopulation_1","code":{"coding":[{"system":"http://terminology.hl7.org/CodeSystem/measure-population","code":"initial-population","display":"Initial Population"}]},"count":1},{"id":"Denominator_1","code":{"coding":[{"system":"http://terminology.hl7.org/CodeSystem/measure-population","code":"denominator","display":"Denominator"}]},"count":1},{"id":"DenominatorExclusion_1","code":{"coding":[{"system":"http://terminology.hl7.org/CodeSystem/measure-population","code":"denominator-exclusion","display":"Denominator Exclusion"}]},"count":0},{"id":"Numerator_1","code":{"coding":[{"system":"http://terminology.hl7.org/CodeSystem/measure-population","code":"numerator","display":"Numerator"}]},"count":0}],"measureScore":{"value":0.0}}],"evaluatedResource":[{"reference":"Patient/298c7561-670d-426e-8df0-28667037b43c"},{"reference":"Observation/e1030b16-19a3-4777-9134-af978002dd67"},{"reference":"Observation/594ad3f0-f4ca-4d21-a200-1ba7eb65e5e8"},{"reference":"Observation/a4d8f5b7-d34f-4389-84cf-5232fb3d874b"},{"reference":"Observation/d240f4bb-832d-4c2c-8719-aad79c7d960c"},{"reference":"Observation/18f81505-4502-4b21-ba30-71e98bec49e3"},{"reference":"Encounter/2ae75441-5dd7-462e-a60f-24da19ec4500"},{"reference":"Procedure/4bdc44d4-7e26-462a-8520-53d1b7abd6d8"},{"reference":"Condition/8c560703-d54e-4a44-8232-b6b61b31f52f"},{"reference":"Coverage/adf09b65-7481-4df9-a024-acd602ff05ca"},{"reference":"Organization/ece7cff5-419f-4eda-a4fd-91d6187f9ac7"},{"reference":"Practitioner/58f9b37a-6d3b-433b-b90f-13b346fc098b"}]},"request":{"method":"PUT","url":"MeasureReport/5dd26b86-d474-4c0f-a8f9-e64581af6c02"}}]},"request":{"method":"PUT","url":"Bundle/63487c2f0968f801225401a8"}},{"fullUrl":"Encounter/2ae75441-5dd7-462e-a60f-24da19ec4500","resource":{"resourceType":"Encounter","id":"2ae75441-5dd7-462e-a60f-24da19ec4500","meta":{"profile":["http://hl7.org/fhir/us/qicore/StructureDefinition/qicore-encounter"]},"status":"finished","class":{"system":"http://terminology.hl7.org/CodeSystem/v3-ActCode","code":"IMP","display":"inpatient encounter"},"type":[{"coding":[{"system":"http://snomed.info/sct","code":"183452005"}]}],"subject":{"reference":"Patient/298c7561-670d-426e-8df0-28667037b43c"},"period":{"start":"2026-01-15T08:00:00.000+00:00","end":"2026-01-20T08:15:00.000+00:00"},"reasonReference":[{"reference":"Condition/8c560703-d54e-4a44-8232-b6b61b31f52f"}]},"request":{"method":"PUT","url":"Encounter/2ae75441-5dd7-462e-a60f-24da19ec4500"}},{"fullUrl":"Observation/18f81505-4502-4b21-ba30-71e98bec49e3","resource":{"resourceType":"Observation","id":"18f81505-4502-4b21-ba30-71e98bec49e3","meta":{"profile":["http://hl7.org/fhir/us/qicore/StructureDefinition/qicore-simple-observation"]},"status":"final","category":[{"coding":[{"system":"http://terminology.hl7.org/CodeSystem/observation-category","code":"exam","display":"exam","userSelected":true}]}],"code":{"coding":[{"system":"http://loinc.org","code":"93857-1"}]},"subject":{"reference":"Patient/298c7561-670d-426e-8df0-28667037b43c"}},"request":{"method":"PUT","url":"Observation/18f81505-4502-4b21-ba30-71e98bec49e3"}},{"fullUrl":"Observation/e1030b16-19a3-4777-9134-af978002dd67","resource":{"resourceType":"Observation","id":"e1030b16-19a3-4777-9134-af978002dd67","meta":{"profile":["http://hl7.org/fhir/us/qicore/StructureDefinition/qicore-simple-observation"]},"status":"final","category":[{"coding":[{"system":"http://terminology.hl7.org/CodeSystem/observation-category","code":"exam","display":"exam","userSelected":true}]}],"code":{"coding":[{"system":"http://loinc.org","code":"93857-1"}]},"subject":{"reference":"Patient/298c7561-670d-426e-8df0-28667037b43c"},"effectiveDateTime":"2026-01-15T08:00:00.000+00:00","valueDateTime":"2026-01-15T08:00:00.000+00:00"},"request":{"method":"PUT","url":"Observation/e1030b16-19a3-4777-9134-af978002dd67"}},{"fullUrl":"Procedure/4bdc44d4-7e26-462a-8520-53d1b7abd6d8","resource":{"resourceType":"Procedure","id":"4bdc44d4-7e26-462a-8520-53d1b7abd6d8","meta":{"profile":["http://hl7.org/fhir/us/qicore/StructureDefinition/qicore-procedure"]},"extension":[{"url":"http://hl7.org/fhir/us/qicore/StructureDefinition/qicore-recorded","valueDateTime":"2014-04-05T13:35:00.000+00:00"}],"status":"completed","code":{"coding":[{"system":"http://www.cms.gov/Medicare/Coding/ICD10","code":"10D07Z3"}]},"subject":{"reference":"Patient/298c7561-670d-426e-8df0-28667037b43c"},"performedPeriod":{"start":"2026-01-15T08:10:00.000+00:00","end":"2026-01-15T09:14:00.000+00:00"}},"request":{"method":"PUT","url":"Procedure/4bdc44d4-7e26-462a-8520-53d1b7abd6d8"}},{"fullUrl":"Practitioner/58f9b37a-6d3b-433b-b90f-13b346fc098b","resource":{"resourceType":"Practitioner","id":"58f9b37a-6d3b-433b-b90f-13b346fc098b","meta":{"profile":["http://hl7.org/fhir/us/qicore/StructureDefinition/qicore-practitioner"]},"identifier":[{"system":"http://hl7.org/fhir/sid/us-npi","value":"1234567890"}],"name":[{"family":"Evil","prefix":["Dr"]}]},"request":{"method":"PUT","url":"Practitioner/58f9b37a-6d3b-433b-b90f-13b346fc098b"}},{"fullUrl":"Coverage/adf09b65-7481-4df9-a024-acd602ff05ca","resource":{"resourceType":"Coverage","id":"adf09b65-7481-4df9-a024-acd602ff05ca","meta":{"profile":["http://hl7.org/fhir/us/qicore/StructureDefinition/qicore-coverage"]},"status":"active","subscriberId":"523435","beneficiary":{"reference":"Patient/298c7561-670d-426e-8df0-28667037b43c"},"relationship":{"coding":[{"system":"http://terminology.hl7.org/CodeSystem/subscriber-relationship","code":"self"}]},"payor":[{"reference":"Organization/ece7cff5-419f-4eda-a4fd-91d6187f9ac7"}]},"request":{"method":"PUT","url":"Coverage/adf09b65-7481-4df9-a024-acd602ff05ca"}},{"fullUrl":"Observation/594ad3f0-f4ca-4d21-a200-1ba7eb65e5e8","resource":{"resourceType":"Observation","id":"594ad3f0-f4ca-4d21-a200-1ba7eb65e5e8","meta":{"profile":["http://hl7.org/fhir/us/qicore/StructureDefinition/qicore-simple-observation"]},"status":"final","category":[{"coding":[{"system":"http://terminology.hl7.org/CodeSystem/observation-category","code":"exam","display":"exam","userSelected":true}]}],"code":{"coding":[{"system":"http://loinc.org","code":"11778-8"}]},"subject":{"reference":"Patient/298c7561-670d-426e-8df0-28667037b43c"},"effectiveDateTime":"2026-01-15T07:00:00.000+00:00","valueDateTime":"2026-02-04T08:00:00.000+00:00"},"request":{"method":"PUT","url":"Observation/594ad3f0-f4ca-4d21-a200-1ba7eb65e5e8"}},{"fullUrl":"Patient/298c7561-670d-426e-8df0-28667037b43c","resource":{"resourceType":"Patient","id":"298c7561-670d-426e-8df0-28667037b43c","meta":{"profile":["http://hl7.org/fhir/us/qicore/StructureDefinition/qicore-patient"]},"text":{"status":"generated","div":"<div xmlns=\"http://www.w3.org/1999/xhtml\"><div class=\"hapiHeaderText\">CalcEGALastBothNull_EDDRvltPeriodDuringEDOB <b>DENPASS </b></div><table class=\"hapiPropertyTable\"><tbody><tr><td>Identifier</td><td>b00b06f67015bda652373741cca10f65466d828e3a674df9528f73ec417ce0bb</td></tr><tr><td>Date of birth</td><td><span>14 February 1985</span></td></tr></tbody></table></div>"},"extension":[{"url":"http://hl7.org/fhir/us/core/StructureDefinition/us-core-race","extension":[{"url":"ombCategory","valueCoding":{"system":"urn:oid:2.16.840.1.113883.6.238","code":"1002-5","display":"American Indian or Alaska Native","userSelected":true}},{"url":"text","valueString":"American Indian or Alaska Native"}]},{"url":"http://hl7.org/fhir/us/core/StructureDefinition/us-core-ethnicity","extension":[{"url":"ombCategory","valueCoding":{"system":"urn:oid:2.16.840.1.113883.6.238","code":"2135-2","display":"Hispanic or Latino","userSelected":true}},{"url":"text","valueString":"Hispanic or Latino"}]}],"identifier":[{"type":{"coding":[{"system":"http://terminology.hl7.org/CodeSystem/v2-0203","code":"MR"}]},"system":"https://bonnie-fhir.healthit.gov/","value":"63487c2f0968f801225401a8"}],"active":true,"name":[{"use":"usual","family":"DENPass","given":["CalcEGALastBothNull_EDDRvltPeriodDuringEDOB"]}],"gender":"female","birthDate":"1998-02-14"},"request":{"method":"PUT","url":"Patient/298c7561-670d-426e-8df0-28667037b43c"}},{"fullUrl":"MeasureReport/5dd26b86-d474-4c0f-a8f9-e64581af6c02","resource":{"resourceType":"MeasureReport","id":"5dd26b86-d474-4c0f-a8f9-e64581af6c02","meta":{"profile":["http://hl7.org/fhir/us/cqfmeasures/StructureDefinition/test-case-cqfm"]},"contained":[{"resourceType":"Parameters","id":"95dce311-3d29-4a02-85e8-ded793abb8be-parameters","parameter":[{"name":"subject","valueString":"298c7561-670d-426e-8df0-28667037b43c"}]}],"extension":[{"url":"http://hl7.org/fhir/StructureDefinition/cqf-inputParameters","valueReference":{"reference":"#95dce311-3d29-4a02-85e8-ded793abb8be-parameters"}},{"url":"http://hl7.org/fhir/us/cqfmeasures/StructureDefinition/cqfm-testCaseDescription","valueMarkdown":"Pt is 27 years of age,  encounter dx delivery of singleton, gravida=1red dt/time less than 42 weeks prior to delivery.  Both the LAST Est Deliv and the LAST Time of Deliv are NULL. However, previous EDD and Time of Del meet."}],"modifierExtension":[{"url":"http://hl7.org/fhir/us/cqfmeasures/StructureDefinition/cqfm-isTestCase","valueBoolean":true}],"status":"complete","type":"individual","measure":"https://madie.cms.gov/Measure/CMS0334FHIRPCCesareanBirth","period":{"start":"2026-01-01","end":"2026-12-31"},"group":[{"id":"Group_1","population":[{"id":"InitialPopulation_1","code":{"coding":[{"system":"http://terminology.hl7.org/CodeSystem/measure-population","code":"initial-population","display":"Initial Population"}]},"count":1},{"id":"Denominator_1","code":{"coding":[{"system":"http://terminology.hl7.org/CodeSystem/measure-population","code":"denominator","display":"Denominator"}]},"count":1},{"id":"DenominatorExclusion_1","code":{"coding":[{"system":"http://terminology.hl7.org/CodeSystem/measure-population","code":"denominator-exclusion","display":"Denominator Exclusion"}]},"count":0},{"id":"Numerator_1","code":{"coding":[{"system":"http://terminology.hl7.org/CodeSystem/measure-population","code":"numerator","display":"Numerator"}]},"count":0}],"measureScore":{"value":0.0}}],"evaluatedResource":[{"reference":"Patient/298c7561-670d-426e-8df0-28667037b43c"},{"reference":"Observation/e1030b16-19a3-4777-9134-af978002dd67"},{"reference":"Observation/594ad3f0-f4ca-4d21-a200-1ba7eb65e5e8"},{"reference":"Observation/a4d8f5b7-d34f-4389-84cf-5232fb3d874b"},{"reference":"Observation/d240f4bb-832d-4c2c-8719-aad79c7d960c"},{"reference":"Observation/18f81505-4502-4b21-ba30-71e98bec49e3"},{"reference":"Encounter/2ae75441-5dd7-462e-a60f-24da19ec4500"},{"reference":"Procedure/4bdc44d4-7e26-462a-8520-53d1b7abd6d8"},{"reference":"Condition/8c560703-d54e-4a44-8232-b6b61b31f52f"},{"reference":"Coverage/adf09b65-7481-4df9-a024-acd602ff05ca"},{"reference":"Organization/ece7cff5-419f-4eda-a4fd-91d6187f9ac7"},{"reference":"Practitioner/58f9b37a-6d3b-433b-b90f-13b346fc098b"}]},"request":{"method":"PUT","url":"MeasureReport/5dd26b86-d474-4c0f-a8f9-e64581af6c02"}},{"fullUrl":"Observation/d240f4bb-832d-4c2c-8719-aad79c7d960c","resource":{"resourceType":"Observation","id":"d240f4bb-832d-4c2c-8719-aad79c7d960c","meta":{"profile":["http://hl7.org/fhir/us/qicore/StructureDefinition/qicore-simple-observation"]},"status":"final","category":[{"coding":[{"system":"http://terminology.hl7.org/CodeSystem/observation-category","code":"exam","display":"exam","userSelected":true}]}],"code":{"coding":[{"system":"http://loinc.org","code":"11778-8"}]},"subject":{"reference":"Patient/298c7561-670d-426e-8df0-28667037b43c"}},"request":{"method":"PUT","url":"Observation/d240f4bb-832d-4c2c-8719-aad79c7d960c"}},{"fullUrl":"Observation/a4d8f5b7-d34f-4389-84cf-5232fb3d874b","resource":{"resourceType":"Observation","id":"a4d8f5b7-d34f-4389-84cf-5232fb3d874b","meta":{"profile":["http://hl7.org/fhir/us/qicore/StructureDefinition/qicore-simple-observation"]},"status":"final","category":[{"coding":[{"system":"http://terminology.hl7.org/CodeSystem/observation-category","code":"exam","display":"exam","userSelected":true}]}],"code":{"coding":[{"system":"http://loinc.org","code":"11996-6"}]},"subject":{"reference":"Patient/298c7561-670d-426e-8df0-28667037b43c"},"effectiveDateTime":"2026-01-15T07:59:00.000+00:00","valueInteger":1},"request":{"method":"PUT","url":"Observation/a4d8f5b7-d34f-4389-84cf-5232fb3d874b"}},{"fullUrl":"Condition/8c560703-d54e-4a44-8232-b6b61b31f52f","resource":{"resourceType":"Condition","id":"8c560703-d54e-4a44-8232-b6b61b31f52f","meta":{"profile":["http://hl7.org/fhir/us/qicore/StructureDefinition/qicore-condition-encounter-diagnosis"]},"category":[{"coding":[{"system":"http://terminology.hl7.org/CodeSystem/condition-category","code":"encounter-diagnosis","display":"Encounter Diagnosis"}]}],"code":{"coding":[{"system":"http://snomed.info/sct","version":"2022-09","code":"169826009","display":"Single live birth from singleton pregnancy (finding)","userSelected":true}]},"subject":{"reference":"Patient/298c7561-670d-426e-8df0-28667037b43c"},"encounter":{"reference":"Encounter/2ae75441-5dd7-462e-a60f-24da19ec4500"},"recordedDate":"2026-10-20T08:00:00.000+00:00"},"request":{"method":"PUT","url":"Condition/8c560703-d54e-4a44-8232-b6b61b31f52f"}},{"fullUrl":"Organization/ece7cff5-419f-4eda-a4fd-91d6187f9ac7","resource":{"resourceType":"Organization","id":"ece7cff5-419f-4eda-a4fd-91d6187f9ac7","meta":{"profile":["http://hl7.org/fhir/us/qicore/StructureDefinition/qicore-organization"]},"identifier":[{"use":"temp","system":"urn:oid:2.16.840.1.113883.4.4","value":"21-3259825"}],"active":true,"type":[{"coding":[{"system":"http://terminology.hl7.org/CodeSystem/organization-type","code":"pay","display":"Payer"}]}],"name":"Blue Cross Blue Shield of Texas","telecom":[{"system":"phone","value":"(+1) 972-766-6900"}],"address":[{"use":"billing","type":"postal","line":["P.O. Box 660044"],"city":"Dallas","state":"TX","postalCode":"75266-0044","country":"USA"}]},"request":{"method":"PUT","url":"Organization/ece7cff5-419f-4eda-a4fd-91d6187f9ac7"}}]}