{"resourceType":"Bundle","id":"tests-d0a65261-add9-4696-80c1-4c210eab58bc-bundle","type":"transaction","entry":[{"fullUrl":"Bundle/63487c2d0968f8012254015e","resource":{"resourceType":"Bundle","id":"63487c2d0968f8012254015e","type":"transaction","entry":[{"fullUrl":"https://madie.cms.gov/Patient/d0a65261-add9-4696-80c1-4c210eab58bc","resource":{"resourceType":"Patient","id":"d0a65261-add9-4696-80c1-4c210eab58bc","meta":{"profile":["http://hl7.org/fhir/us/qicore/StructureDefinition/qicore-patient"]},"text":{"status":"generated","div":"<div xmlns=\"http://www.w3.org/1999/xhtml\"><div class=\"hapiHeaderText\">AssessTerm0RelDateEQ42wk1MinB4TimeOfDeliv<b>DENOMFail</b></div><table class=\"hapiPropertyTable\"><tbody><tr><td>Identifier</td><td>471dbe485040e70d089fc9c9b33b02d66b94c84eb0f888d16ec71b1a1a2ae0b0</td></tr><tr><td>Date of birth</td><td><span>14 February 1985</span></td></tr></tbody></table></div>"},"extension":[{"url":"http://hl7.org/fhir/us/core/StructureDefinition/us-core-race","extension":[{"url":"ombCategory","valueCoding":{"system":"urn:oid:2.16.840.1.113883.6.238","code":"1002-5","display":"American Indian or Alaska Native","userSelected":true}},{"url":"text","valueString":"American Indian or Alaska Native"}]},{"url":"http://hl7.org/fhir/us/core/StructureDefinition/us-core-ethnicity","extension":[{"url":"ombCategory","valueCoding":{"system":"urn:oid:2.16.840.1.113883.6.238","code":"2135-2","display":"Hispanic or Latino","userSelected":true}},{"url":"text","valueString":"Hispanic or Latino"}]}],"identifier":[{"type":{"coding":[{"system":"http://terminology.hl7.org/CodeSystem/v2-0203","code":"MR"}]},"system":"https://bonnie-fhir.healthit.gov/","value":"63487c2d0968f8012254015e"}],"active":true,"name":[{"use":"usual","family":"DENOMFail","given":["AssessTerm0RelDateEQ42wk1MinB4TimeOfDeliv"]}],"gender":"female","birthDate":"1998-02-14"},"request":{"method":"PUT","url":"Patient/d0a65261-add9-4696-80c1-4c210eab58bc"}},{"fullUrl":"https://madie.cms.gov/Observation/44f6b6af-60be-4b6c-8228-80332c565138","resource":{"resourceType":"Observation","id":"44f6b6af-60be-4b6c-8228-80332c565138","meta":{"profile":["http://hl7.org/fhir/us/qicore/StructureDefinition/qicore-simple-observation"]},"status":"final","category":[{"coding":[{"system":"http://terminology.hl7.org/CodeSystem/observation-category","code":"exam","display":"exam","userSelected":true}]}],"code":{"coding":[{"system":"http://loinc.org","code":"11639-2"}]},"subject":{"reference":"Patient/d0a65261-add9-4696-80c1-4c210eab58bc"},"effectiveDateTime":"2025-08-14T18:59:00.000+00:00","valueInteger":0},"request":{"method":"PUT","url":"Observation/44f6b6af-60be-4b6c-8228-80332c565138"}},{"fullUrl":"https://madie.cms.gov/Observation/6101e6c4-1d8f-4443-8d88-1bd2cb177a3a","resource":{"resourceType":"Observation","id":"6101e6c4-1d8f-4443-8d88-1bd2cb177a3a","meta":{"profile":["http://hl7.org/fhir/us/qicore/StructureDefinition/qicore-simple-observation"]},"status":"final","category":[{"coding":[{"system":"http://terminology.hl7.org/CodeSystem/observation-category","code":"exam","display":"exam","userSelected":true}]}],"code":{"coding":[{"system":"http://loinc.org","code":"11637-6"}]},"subject":{"reference":"Patient/d0a65261-add9-4696-80c1-4c210eab58bc"},"effectiveDateTime":"2025-08-19T19:01:00.000+00:00","valueInteger":0},"request":{"method":"PUT","url":"Observation/6101e6c4-1d8f-4443-8d88-1bd2cb177a3a"}},{"fullUrl":"https://madie.cms.gov/Observation/20b8eb9e-667a-4a27-8bd1-4e1251a89fdb","resource":{"resourceType":"Observation","id":"20b8eb9e-667a-4a27-8bd1-4e1251a89fdb","meta":{"profile":["http://hl7.org/fhir/us/qicore/StructureDefinition/qicore-simple-observation"]},"status":"final","category":[{"coding":[{"system":"http://terminology.hl7.org/CodeSystem/observation-category","code":"exam","display":"exam","userSelected":true}]}],"code":{"coding":[{"system":"http://loinc.org","code":"11884-4"}]},"subject":{"reference":"Patient/d0a65261-add9-4696-80c1-4c210eab58bc"},"effectiveDateTime":"2026-06-08T19:00:00.000+00:00","valueQuantity":{"value":37,"system":"http://unitsofmeasure.org","code":"wk"}},"request":{"method":"PUT","url":"Observation/20b8eb9e-667a-4a27-8bd1-4e1251a89fdb"}},{"fullUrl":"https://madie.cms.gov/Observation/d8d4e3c1-bc5e-49b9-bb9c-c194bd879809","resource":{"resourceType":"Observation","id":"d8d4e3c1-bc5e-49b9-bb9c-c194bd879809","meta":{"profile":["http://hl7.org/fhir/us/qicore/StructureDefinition/qicore-simple-observation"]},"status":"final","category":[{"coding":[{"system":"http://terminology.hl7.org/CodeSystem/observation-category","code":"exam","display":"exam","userSelected":true}]}],"code":{"coding":[{"system":"http://loinc.org","code":"93857-1"}]},"subject":{"reference":"Patient/d0a65261-add9-4696-80c1-4c210eab58bc"},"effectiveDateTime":"2026-06-08T19:00:00.000+00:00","valueDateTime":"2026-06-08T19:00:00.000+00:00"},"request":{"method":"PUT","url":"Observation/d8d4e3c1-bc5e-49b9-bb9c-c194bd879809"}},{"fullUrl":"https://madie.cms.gov/Encounter/c074fa0a-dec9-4423-8ec6-3a472f0b0cf7","resource":{"resourceType":"Encounter","id":"c074fa0a-dec9-4423-8ec6-3a472f0b0cf7","meta":{"profile":["http://hl7.org/fhir/us/qicore/StructureDefinition/qicore-encounter"]},"status":"finished","class":{"system":"http://terminology.hl7.org/CodeSystem/v3-ActCode","code":"IMP","display":"inpatient encounter"},"type":[{"coding":[{"system":"http://snomed.info/sct","code":"8715000"}]}],"subject":{"reference":"Patient/d0a65261-add9-4696-80c1-4c210eab58bc"},"period":{"start":"2026-06-08T08:00:00.000+00:00","end":"2026-06-10T08:15:00.000+00:00"},"length":{"value":2,"unit":"days"},"reasonReference":[{"reference":"Condition/20287c7a-8a89-49d4-81c0-ad9f882ba4ee"}]},"request":{"method":"PUT","url":"Encounter/c074fa0a-dec9-4423-8ec6-3a472f0b0cf7"}},{"fullUrl":"https://madie.cms.gov/Procedure/030b8a29-3279-492c-81db-4e45d7b9d28f","resource":{"resourceType":"Procedure","id":"030b8a29-3279-492c-81db-4e45d7b9d28f","meta":{"profile":["http://hl7.org/fhir/us/qicore/StructureDefinition/qicore-procedure"]},"extension":[{"url":"http://hl7.org/fhir/us/qicore/StructureDefinition/qicore-recorded","valueDateTime":"2014-04-05T13:35:00.000+00:00"}],"status":"completed","code":{"coding":[{"system":"http://www.cms.gov/Medicare/Coding/ICD10","code":"10D00Z0"},{"system":"http://snomed.info/sct","code":"4504004"}]},"subject":{"reference":"Patient/d0a65261-add9-4696-80c1-4c210eab58bc"},"performedPeriod":{"start":"2026-06-08T20:00:00.000+00:00","end":"2026-06-08T20:15:00.000+00:00"}},"request":{"method":"PUT","url":"Procedure/030b8a29-3279-492c-81db-4e45d7b9d28f"}},{"fullUrl":"https://madie.cms.gov/Condition/20287c7a-8a89-49d4-81c0-ad9f882ba4ee","resource":{"resourceType":"Condition","id":"20287c7a-8a89-49d4-81c0-ad9f882ba4ee","meta":{"profile":["http://hl7.org/fhir/us/qicore/StructureDefinition/qicore-condition-encounter-diagnosis"]},"category":[{"coding":[{"system":"http://terminology.hl7.org/CodeSystem/condition-category","code":"encounter-diagnosis","display":"Encounter Diagnosis"}]}],"code":{"coding":[{"system":"http://snomed.info/sct","version":"2022-09","code":"169826009","display":"Single live birth from singleton pregnancy (finding)","userSelected":true}]},"subject":{"reference":"Patient/d0a65261-add9-4696-80c1-4c210eab58bc"},"encounter":{"reference":"Encounter/c074fa0a-dec9-4423-8ec6-3a472f0b0cf7"},"recordedDate":"2026-10-21T08:00:00.000+00:00"},"request":{"method":"PUT","url":"Condition/20287c7a-8a89-49d4-81c0-ad9f882ba4ee"}},{"fullUrl":"https://madie.cms.gov/Coverage/abf3c79b-c066-47e6-ade2-a91d842d5475","resource":{"resourceType":"Coverage","id":"abf3c79b-c066-47e6-ade2-a91d842d5475","meta":{"profile":["http://hl7.org/fhir/us/qicore/StructureDefinition/qicore-coverage"]},"status":"active","subscriberId":"523435","beneficiary":{"reference":"Patient/d0a65261-add9-4696-80c1-4c210eab58bc"},"relationship":{"coding":[{"system":"http://terminology.hl7.org/CodeSystem/subscriber-relationship","code":"self"}]},"payor":[{"reference":"Organization/9f3e8aad-cb85-4730-a701-cad6d4378815"}]},"request":{"method":"PUT","url":"Coverage/abf3c79b-c066-47e6-ade2-a91d842d5475"}},{"fullUrl":"https://madie.cms.gov/Organization/9f3e8aad-cb85-4730-a701-cad6d4378815","resource":{"resourceType":"Organization","id":"9f3e8aad-cb85-4730-a701-cad6d4378815","meta":{"profile":["http://hl7.org/fhir/us/qicore/StructureDefinition/qicore-organization"]},"identifier":[{"use":"temp","system":"urn:oid:2.16.840.1.113883.4.4","value":"21-3259825"}],"active":true,"type":[{"coding":[{"system":"http://terminology.hl7.org/CodeSystem/organization-type","code":"pay","display":"Payer"}]}],"name":"Blue Cross Blue Shield of Texas","telecom":[{"system":"phone","value":"(+1) 972-766-6900"}],"address":[{"use":"billing","type":"postal","line":["P.O. Box 660044"],"city":"Dallas","state":"TX","postalCode":"75266-0044","country":"USA"}]},"request":{"method":"PUT","url":"Organization/9f3e8aad-cb85-4730-a701-cad6d4378815"}},{"fullUrl":"https://madie.cms.gov/Practitioner/9a6aedc5-8d1a-4898-a6b0-58db0374f84f","resource":{"resourceType":"Practitioner","id":"9a6aedc5-8d1a-4898-a6b0-58db0374f84f","meta":{"profile":["http://hl7.org/fhir/us/qicore/StructureDefinition/qicore-practitioner"]},"identifier":[{"system":"http://hl7.org/fhir/sid/us-npi","value":"1234567890"}],"name":[{"family":"Evil","prefix":["Dr"]}]},"request":{"method":"PUT","url":"Practitioner/9a6aedc5-8d1a-4898-a6b0-58db0374f84f"}},{"fullUrl":"https://madie.cms.gov/MeasureReport/dda7a1ea-baf5-4f6d-9615-267c9b4b95db","resource":{"resourceType":"MeasureReport","id":"dda7a1ea-baf5-4f6d-9615-267c9b4b95db","meta":{"profile":["http://hl7.org/fhir/us/cqfmeasures/StructureDefinition/test-case-cqfm"]},"contained":[{"resourceType":"Parameters","id":"1041cdf9-6b8a-4ce1-9d04-bdfbb1dce8c7-parameters","parameter":[{"name":"subject","valueString":"d0a65261-add9-4696-80c1-4c210eab58bc"}]}],"extension":[{"url":"http://hl7.org/fhir/StructureDefinition/cqf-inputParameters","valueReference":{"reference":"#1041cdf9-6b8a-4ce1-9d04-bdfbb1dce8c7-parameters"}},{"url":"http://hl7.org/fhir/us/cqfmeasures/StructureDefinition/cqfm-testCaseDescription","valueMarkdown":"\"Preterm Births=0, authored < 42weeks prior to Asse delivery \nTerm Newborn=0, authored, 42weeks, 1 min prior to Asse delivery\"\n"}],"modifierExtension":[{"url":"http://hl7.org/fhir/us/cqfmeasures/StructureDefinition/cqfm-isTestCase","valueBoolean":true}],"status":"complete","type":"individual","measure":"https://madie.cms.gov/Measure/CMS0334FHIRPCCesareanBirth","period":{"start":"2026-01-01","end":"2026-12-31"},"group":[{"id":"Group_1","population":[{"id":"InitialPopulation_1","code":{"coding":[{"system":"http://terminology.hl7.org/CodeSystem/measure-population","code":"initial-population","display":"Initial Population"}]},"count":1},{"id":"Denominator_1","code":{"coding":[{"system":"http://terminology.hl7.org/CodeSystem/measure-population","code":"denominator","display":"Denominator"}]},"count":0},{"id":"DenominatorExclusion_1","code":{"coding":[{"system":"http://terminology.hl7.org/CodeSystem/measure-population","code":"denominator-exclusion","display":"Denominator Exclusion"}]},"count":0},{"id":"Numerator_1","code":{"coding":[{"system":"http://terminology.hl7.org/CodeSystem/measure-population","code":"numerator","display":"Numerator"}]},"count":0}],"measureScore":{"value":0.0}}],"evaluatedResource":[{"reference":"Patient/d0a65261-add9-4696-80c1-4c210eab58bc"},{"reference":"Observation/44f6b6af-60be-4b6c-8228-80332c565138"},{"reference":"Observation/6101e6c4-1d8f-4443-8d88-1bd2cb177a3a"},{"reference":"Observation/20b8eb9e-667a-4a27-8bd1-4e1251a89fdb"},{"reference":"Observation/d8d4e3c1-bc5e-49b9-bb9c-c194bd879809"},{"reference":"Encounter/c074fa0a-dec9-4423-8ec6-3a472f0b0cf7"},{"reference":"Procedure/030b8a29-3279-492c-81db-4e45d7b9d28f"},{"reference":"Condition/20287c7a-8a89-49d4-81c0-ad9f882ba4ee"},{"reference":"Coverage/abf3c79b-c066-47e6-ade2-a91d842d5475"},{"reference":"Organization/9f3e8aad-cb85-4730-a701-cad6d4378815"},{"reference":"Practitioner/9a6aedc5-8d1a-4898-a6b0-58db0374f84f"}]},"request":{"method":"PUT","url":"MeasureReport/dda7a1ea-baf5-4f6d-9615-267c9b4b95db"}}]},"request":{"method":"PUT","url":"Bundle/63487c2d0968f8012254015e"}},{"fullUrl":"Patient/d0a65261-add9-4696-80c1-4c210eab58bc","resource":{"resourceType":"Patient","id":"d0a65261-add9-4696-80c1-4c210eab58bc","meta":{"profile":["http://hl7.org/fhir/us/qicore/StructureDefinition/qicore-patient"]},"text":{"status":"generated","div":"<div xmlns=\"http://www.w3.org/1999/xhtml\"><div class=\"hapiHeaderText\">AssessTerm0RelDateEQ42wk1MinB4TimeOfDeliv<b>DENOMFail</b></div><table class=\"hapiPropertyTable\"><tbody><tr><td>Identifier</td><td>471dbe485040e70d089fc9c9b33b02d66b94c84eb0f888d16ec71b1a1a2ae0b0</td></tr><tr><td>Date of birth</td><td><span>14 February 1985</span></td></tr></tbody></table></div>"},"extension":[{"url":"http://hl7.org/fhir/us/core/StructureDefinition/us-core-race","extension":[{"url":"ombCategory","valueCoding":{"system":"urn:oid:2.16.840.1.113883.6.238","code":"1002-5","display":"American Indian or Alaska Native","userSelected":true}},{"url":"text","valueString":"American Indian or Alaska Native"}]},{"url":"http://hl7.org/fhir/us/core/StructureDefinition/us-core-ethnicity","extension":[{"url":"ombCategory","valueCoding":{"system":"urn:oid:2.16.840.1.113883.6.238","code":"2135-2","display":"Hispanic or Latino","userSelected":true}},{"url":"text","valueString":"Hispanic or Latino"}]}],"identifier":[{"type":{"coding":[{"system":"http://terminology.hl7.org/CodeSystem/v2-0203","code":"MR"}]},"system":"https://bonnie-fhir.healthit.gov/","value":"63487c2d0968f8012254015e"}],"active":true,"name":[{"use":"usual","family":"DENOMFail","given":["AssessTerm0RelDateEQ42wk1MinB4TimeOfDeliv"]}],"gender":"female","birthDate":"1998-02-14"},"request":{"method":"PUT","url":"Patient/d0a65261-add9-4696-80c1-4c210eab58bc"}},{"fullUrl":"MeasureReport/dda7a1ea-baf5-4f6d-9615-267c9b4b95db","resource":{"resourceType":"MeasureReport","id":"dda7a1ea-baf5-4f6d-9615-267c9b4b95db","meta":{"profile":["http://hl7.org/fhir/us/cqfmeasures/StructureDefinition/test-case-cqfm"]},"contained":[{"resourceType":"Parameters","id":"1041cdf9-6b8a-4ce1-9d04-bdfbb1dce8c7-parameters","parameter":[{"name":"subject","valueString":"d0a65261-add9-4696-80c1-4c210eab58bc"}]}],"extension":[{"url":"http://hl7.org/fhir/StructureDefinition/cqf-inputParameters","valueReference":{"reference":"#1041cdf9-6b8a-4ce1-9d04-bdfbb1dce8c7-parameters"}},{"url":"http://hl7.org/fhir/us/cqfmeasures/StructureDefinition/cqfm-testCaseDescription","valueMarkdown":"\"Preterm Births=0, authored < 42weeks prior to Asse delivery \nTerm Newborn=0, authored, 42weeks, 1 min prior to Asse delivery\"\n"}],"modifierExtension":[{"url":"http://hl7.org/fhir/us/cqfmeasures/StructureDefinition/cqfm-isTestCase","valueBoolean":true}],"status":"complete","type":"individual","measure":"https://madie.cms.gov/Measure/CMS0334FHIRPCCesareanBirth","period":{"start":"2026-01-01","end":"2026-12-31"},"group":[{"id":"Group_1","population":[{"id":"InitialPopulation_1","code":{"coding":[{"system":"http://terminology.hl7.org/CodeSystem/measure-population","code":"initial-population","display":"Initial Population"}]},"count":1},{"id":"Denominator_1","code":{"coding":[{"system":"http://terminology.hl7.org/CodeSystem/measure-population","code":"denominator","display":"Denominator"}]},"count":0},{"id":"DenominatorExclusion_1","code":{"coding":[{"system":"http://terminology.hl7.org/CodeSystem/measure-population","code":"denominator-exclusion","display":"Denominator Exclusion"}]},"count":0},{"id":"Numerator_1","code":{"coding":[{"system":"http://terminology.hl7.org/CodeSystem/measure-population","code":"numerator","display":"Numerator"}]},"count":0}],"measureScore":{"value":0.0}}],"evaluatedResource":[{"reference":"Patient/d0a65261-add9-4696-80c1-4c210eab58bc"},{"reference":"Observation/44f6b6af-60be-4b6c-8228-80332c565138"},{"reference":"Observation/6101e6c4-1d8f-4443-8d88-1bd2cb177a3a"},{"reference":"Observation/20b8eb9e-667a-4a27-8bd1-4e1251a89fdb"},{"reference":"Observation/d8d4e3c1-bc5e-49b9-bb9c-c194bd879809"},{"reference":"Encounter/c074fa0a-dec9-4423-8ec6-3a472f0b0cf7"},{"reference":"Procedure/030b8a29-3279-492c-81db-4e45d7b9d28f"},{"reference":"Condition/20287c7a-8a89-49d4-81c0-ad9f882ba4ee"},{"reference":"Coverage/abf3c79b-c066-47e6-ade2-a91d842d5475"},{"reference":"Organization/9f3e8aad-cb85-4730-a701-cad6d4378815"},{"reference":"Practitioner/9a6aedc5-8d1a-4898-a6b0-58db0374f84f"}]},"request":{"method":"PUT","url":"MeasureReport/dda7a1ea-baf5-4f6d-9615-267c9b4b95db"}},{"fullUrl":"Encounter/c074fa0a-dec9-4423-8ec6-3a472f0b0cf7","resource":{"resourceType":"Encounter","id":"c074fa0a-dec9-4423-8ec6-3a472f0b0cf7","meta":{"profile":["http://hl7.org/fhir/us/qicore/StructureDefinition/qicore-encounter"]},"status":"finished","class":{"system":"http://terminology.hl7.org/CodeSystem/v3-ActCode","code":"IMP","display":"inpatient encounter"},"type":[{"coding":[{"system":"http://snomed.info/sct","code":"8715000"}]}],"subject":{"reference":"Patient/d0a65261-add9-4696-80c1-4c210eab58bc"},"period":{"start":"2026-06-08T08:00:00.000+00:00","end":"2026-06-10T08:15:00.000+00:00"},"length":{"value":2,"unit":"days"},"reasonReference":[{"reference":"Condition/20287c7a-8a89-49d4-81c0-ad9f882ba4ee"}]},"request":{"method":"PUT","url":"Encounter/c074fa0a-dec9-4423-8ec6-3a472f0b0cf7"}},{"fullUrl":"Condition/20287c7a-8a89-49d4-81c0-ad9f882ba4ee","resource":{"resourceType":"Condition","id":"20287c7a-8a89-49d4-81c0-ad9f882ba4ee","meta":{"profile":["http://hl7.org/fhir/us/qicore/StructureDefinition/qicore-condition-encounter-diagnosis"]},"category":[{"coding":[{"system":"http://terminology.hl7.org/CodeSystem/condition-category","code":"encounter-diagnosis","display":"Encounter Diagnosis"}]}],"code":{"coding":[{"system":"http://snomed.info/sct","version":"2022-09","code":"169826009","display":"Single live birth from singleton pregnancy (finding)","userSelected":true}]},"subject":{"reference":"Patient/d0a65261-add9-4696-80c1-4c210eab58bc"},"encounter":{"reference":"Encounter/c074fa0a-dec9-4423-8ec6-3a472f0b0cf7"},"recordedDate":"2026-10-21T08:00:00.000+00:00"},"request":{"method":"PUT","url":"Condition/20287c7a-8a89-49d4-81c0-ad9f882ba4ee"}},{"fullUrl":"Observation/44f6b6af-60be-4b6c-8228-80332c565138","resource":{"resourceType":"Observation","id":"44f6b6af-60be-4b6c-8228-80332c565138","meta":{"profile":["http://hl7.org/fhir/us/qicore/StructureDefinition/qicore-simple-observation"]},"status":"final","category":[{"coding":[{"system":"http://terminology.hl7.org/CodeSystem/observation-category","code":"exam","display":"exam","userSelected":true}]}],"code":{"coding":[{"system":"http://loinc.org","code":"11639-2"}]},"subject":{"reference":"Patient/d0a65261-add9-4696-80c1-4c210eab58bc"},"effectiveDateTime":"2025-08-14T18:59:00.000+00:00","valueInteger":0},"request":{"method":"PUT","url":"Observation/44f6b6af-60be-4b6c-8228-80332c565138"}},{"fullUrl":"Practitioner/9a6aedc5-8d1a-4898-a6b0-58db0374f84f","resource":{"resourceType":"Practitioner","id":"9a6aedc5-8d1a-4898-a6b0-58db0374f84f","meta":{"profile":["http://hl7.org/fhir/us/qicore/StructureDefinition/qicore-practitioner"]},"identifier":[{"system":"http://hl7.org/fhir/sid/us-npi","value":"1234567890"}],"name":[{"family":"Evil","prefix":["Dr"]}]},"request":{"method":"PUT","url":"Practitioner/9a6aedc5-8d1a-4898-a6b0-58db0374f84f"}},{"fullUrl":"Organization/9f3e8aad-cb85-4730-a701-cad6d4378815","resource":{"resourceType":"Organization","id":"9f3e8aad-cb85-4730-a701-cad6d4378815","meta":{"profile":["http://hl7.org/fhir/us/qicore/StructureDefinition/qicore-organization"]},"identifier":[{"use":"temp","system":"urn:oid:2.16.840.1.113883.4.4","value":"21-3259825"}],"active":true,"type":[{"coding":[{"system":"http://terminology.hl7.org/CodeSystem/organization-type","code":"pay","display":"Payer"}]}],"name":"Blue Cross Blue Shield of Texas","telecom":[{"system":"phone","value":"(+1) 972-766-6900"}],"address":[{"use":"billing","type":"postal","line":["P.O. Box 660044"],"city":"Dallas","state":"TX","postalCode":"75266-0044","country":"USA"}]},"request":{"method":"PUT","url":"Organization/9f3e8aad-cb85-4730-a701-cad6d4378815"}},{"fullUrl":"Coverage/abf3c79b-c066-47e6-ade2-a91d842d5475","resource":{"resourceType":"Coverage","id":"abf3c79b-c066-47e6-ade2-a91d842d5475","meta":{"profile":["http://hl7.org/fhir/us/qicore/StructureDefinition/qicore-coverage"]},"status":"active","subscriberId":"523435","beneficiary":{"reference":"Patient/d0a65261-add9-4696-80c1-4c210eab58bc"},"relationship":{"coding":[{"system":"http://terminology.hl7.org/CodeSystem/subscriber-relationship","code":"self"}]},"payor":[{"reference":"Organization/9f3e8aad-cb85-4730-a701-cad6d4378815"}]},"request":{"method":"PUT","url":"Coverage/abf3c79b-c066-47e6-ade2-a91d842d5475"}},{"fullUrl":"Procedure/030b8a29-3279-492c-81db-4e45d7b9d28f","resource":{"resourceType":"Procedure","id":"030b8a29-3279-492c-81db-4e45d7b9d28f","meta":{"profile":["http://hl7.org/fhir/us/qicore/StructureDefinition/qicore-procedure"]},"extension":[{"url":"http://hl7.org/fhir/us/qicore/StructureDefinition/qicore-recorded","valueDateTime":"2014-04-05T13:35:00.000+00:00"}],"status":"completed","code":{"coding":[{"system":"http://www.cms.gov/Medicare/Coding/ICD10","code":"10D00Z0"},{"system":"http://snomed.info/sct","code":"4504004"}]},"subject":{"reference":"Patient/d0a65261-add9-4696-80c1-4c210eab58bc"},"performedPeriod":{"start":"2026-06-08T20:00:00.000+00:00","end":"2026-06-08T20:15:00.000+00:00"}},"request":{"method":"PUT","url":"Procedure/030b8a29-3279-492c-81db-4e45d7b9d28f"}},{"fullUrl":"Observation/20b8eb9e-667a-4a27-8bd1-4e1251a89fdb","resource":{"resourceType":"Observation","id":"20b8eb9e-667a-4a27-8bd1-4e1251a89fdb","meta":{"profile":["http://hl7.org/fhir/us/qicore/StructureDefinition/qicore-simple-observation"]},"status":"final","category":[{"coding":[{"system":"http://terminology.hl7.org/CodeSystem/observation-category","code":"exam","display":"exam","userSelected":true}]}],"code":{"coding":[{"system":"http://loinc.org","code":"11884-4"}]},"subject":{"reference":"Patient/d0a65261-add9-4696-80c1-4c210eab58bc"},"effectiveDateTime":"2026-06-08T19:00:00.000+00:00","valueQuantity":{"value":37,"system":"http://unitsofmeasure.org","code":"wk"}},"request":{"method":"PUT","url":"Observation/20b8eb9e-667a-4a27-8bd1-4e1251a89fdb"}},{"fullUrl":"Observation/6101e6c4-1d8f-4443-8d88-1bd2cb177a3a","resource":{"resourceType":"Observation","id":"6101e6c4-1d8f-4443-8d88-1bd2cb177a3a","meta":{"profile":["http://hl7.org/fhir/us/qicore/StructureDefinition/qicore-simple-observation"]},"status":"final","category":[{"coding":[{"system":"http://terminology.hl7.org/CodeSystem/observation-category","code":"exam","display":"exam","userSelected":true}]}],"code":{"coding":[{"system":"http://loinc.org","code":"11637-6"}]},"subject":{"reference":"Patient/d0a65261-add9-4696-80c1-4c210eab58bc"},"effectiveDateTime":"2025-08-19T19:01:00.000+00:00","valueInteger":0},"request":{"method":"PUT","url":"Observation/6101e6c4-1d8f-4443-8d88-1bd2cb177a3a"}},{"fullUrl":"Observation/d8d4e3c1-bc5e-49b9-bb9c-c194bd879809","resource":{"resourceType":"Observation","id":"d8d4e3c1-bc5e-49b9-bb9c-c194bd879809","meta":{"profile":["http://hl7.org/fhir/us/qicore/StructureDefinition/qicore-simple-observation"]},"status":"final","category":[{"coding":[{"system":"http://terminology.hl7.org/CodeSystem/observation-category","code":"exam","display":"exam","userSelected":true}]}],"code":{"coding":[{"system":"http://loinc.org","code":"93857-1"}]},"subject":{"reference":"Patient/d0a65261-add9-4696-80c1-4c210eab58bc"},"effectiveDateTime":"2026-06-08T19:00:00.000+00:00","valueDateTime":"2026-06-08T19:00:00.000+00:00"},"request":{"method":"PUT","url":"Observation/d8d4e3c1-bc5e-49b9-bb9c-c194bd879809"}}]}