{"resourceType":"Bundle","id":"tests-cb800af9-771b-4850-a175-8e3b9ffbbfc3-bundle","type":"transaction","entry":[{"fullUrl":"Practitioner/0b227868-0721-4118-8028-28c2f6336185","resource":{"resourceType":"Practitioner","id":"0b227868-0721-4118-8028-28c2f6336185","meta":{"profile":["http://hl7.org/fhir/us/qicore/StructureDefinition/qicore-practitioner"]},"identifier":[{"system":"http://hl7.org/fhir/sid/us-npi","value":"1234578906"}],"name":[{"family":"Evil","prefix":["Dr"]}]},"request":{"method":"PUT","url":"Practitioner/0b227868-0721-4118-8028-28c2f6336185"}},{"fullUrl":"MeasureReport/bc121bbb-61f0-48cf-868b-44252ba505ec","resource":{"resourceType":"MeasureReport","id":"bc121bbb-61f0-48cf-868b-44252ba505ec","meta":{"profile":["http://hl7.org/fhir/us/cqfmeasures/StructureDefinition/test-case-cqfm"]},"contained":[{"resourceType":"Parameters","id":"513b5f86-35a2-464f-83f9-3cbc99c49213-parameters","parameter":[{"name":"subject","valueString":"cb800af9-771b-4850-a175-8e3b9ffbbfc3"}]}],"extension":[{"url":"http://hl7.org/fhir/StructureDefinition/cqf-inputParameters","valueReference":{"reference":"#513b5f86-35a2-464f-83f9-3cbc99c49213-parameters"}},{"url":"http://hl7.org/fhir/us/cqfmeasures/StructureDefinition/cqfm-testCaseDescription","valueMarkdown":"EncounterInpatient.relevantPeriod ends after \"Measurement Period\".  Fails IPP because it ends AFTER MP.\n"}],"modifierExtension":[{"url":"http://hl7.org/fhir/us/cqfmeasures/StructureDefinition/cqfm-isTestCase","valueBoolean":true}],"status":"complete","type":"individual","measure":"https://madie.cms.gov/Measure/CMS0334FHIRPCCesareanBirth","period":{"start":"2026-01-01","end":"2026-12-31"},"group":[{"id":"Group_1","population":[{"id":"InitialPopulation_1","code":{"coding":[{"system":"http://terminology.hl7.org/CodeSystem/measure-population","code":"initial-population","display":"Initial Population"}]},"count":0},{"id":"Denominator_1","code":{"coding":[{"system":"http://terminology.hl7.org/CodeSystem/measure-population","code":"denominator","display":"Denominator"}]},"count":0},{"id":"DenominatorExclusion_1","code":{"coding":[{"system":"http://terminology.hl7.org/CodeSystem/measure-population","code":"denominator-exclusion","display":"Denominator Exclusion"}]},"count":0},{"id":"Numerator_1","code":{"coding":[{"system":"http://terminology.hl7.org/CodeSystem/measure-population","code":"numerator","display":"Numerator"}]},"count":0}],"measureScore":{"value":0.0}}],"evaluatedResource":[{"reference":"Patient/cb800af9-771b-4850-a175-8e3b9ffbbfc3"},{"reference":"Encounter/69659a56-612c-4f3f-b5ff-273f69324201"},{"reference":"Procedure/4e0dbed4-d84d-4c2e-aeee-a0af9db1790c"},{"reference":"Coverage/c0b834cb-76fe-49e0-9c00-52ff3d6f7b0c"},{"reference":"Organization/aae69a45-e345-44ea-b3d3-322965c0589c"},{"reference":"Practitioner/0b227868-0721-4118-8028-28c2f6336185"}]},"request":{"method":"PUT","url":"MeasureReport/bc121bbb-61f0-48cf-868b-44252ba505ec"}},{"fullUrl":"Encounter/69659a56-612c-4f3f-b5ff-273f69324201","resource":{"resourceType":"Encounter","id":"69659a56-612c-4f3f-b5ff-273f69324201","meta":{"profile":["http://hl7.org/fhir/us/qicore/StructureDefinition/qicore-encounter"]},"status":"finished","class":{"system":"http://terminology.hl7.org/CodeSystem/v3-ActCode","code":"IMP","display":"inpatient encounter"},"type":[{"coding":[{"system":"http://snomed.info/sct","code":"8715000"}]}],"subject":{"reference":"Patient/cb800af9-771b-4850-a175-8e3b9ffbbfc3"},"period":{"start":"2026-12-01T08:00:00.000+00:00","end":"2027-01-01T01:00:00.000+00:00"},"length":{"value":31,"unit":"days"},"diagnosis":[{"condition":{"reference":"Condition/Condition-2"},"use":{"coding":[{"system":"http://snomed.info/sct","code":"169826009","display":"Single live birth from singleton pregnancy (finding)"}]}}]},"request":{"method":"PUT","url":"Encounter/69659a56-612c-4f3f-b5ff-273f69324201"}},{"fullUrl":"Coverage/c0b834cb-76fe-49e0-9c00-52ff3d6f7b0c","resource":{"resourceType":"Coverage","id":"c0b834cb-76fe-49e0-9c00-52ff3d6f7b0c","meta":{"profile":["http://hl7.org/fhir/us/qicore/StructureDefinition/qicore-coverage"]},"status":"active","subscriberId":"523435","beneficiary":{"reference":"Patient/cb800af9-771b-4850-a175-8e3b9ffbbfc3"},"relationship":{"coding":[{"system":"http://terminology.hl7.org/CodeSystem/subscriber-relationship","code":"self"}]},"payor":[{"reference":"Organization/aae69a45-e345-44ea-b3d3-322965c0589c"}]},"request":{"method":"PUT","url":"Coverage/c0b834cb-76fe-49e0-9c00-52ff3d6f7b0c"}},{"fullUrl":"Organization/aae69a45-e345-44ea-b3d3-322965c0589c","resource":{"resourceType":"Organization","id":"aae69a45-e345-44ea-b3d3-322965c0589c","meta":{"profile":["http://hl7.org/fhir/us/qicore/StructureDefinition/qicore-organization"]},"identifier":[{"use":"temp","system":"urn:oid:2.16.840.1.113883.4.4","value":"21-3259825"}],"active":true,"type":[{"coding":[{"system":"http://terminology.hl7.org/CodeSystem/organization-type","code":"pay","display":"Payer"}]}],"name":"Blue Cross Blue Shield of Texas","telecom":[{"system":"phone","value":"(+1) 972-766-6900"}],"address":[{"use":"billing","type":"postal","line":["P.O. Box 660044"],"city":"Dallas","state":"TX","postalCode":"75266-0044","country":"USA"}]},"request":{"method":"PUT","url":"Organization/aae69a45-e345-44ea-b3d3-322965c0589c"}},{"fullUrl":"Patient/cb800af9-771b-4850-a175-8e3b9ffbbfc3","resource":{"resourceType":"Patient","id":"cb800af9-771b-4850-a175-8e3b9ffbbfc3","meta":{"profile":["http://hl7.org/fhir/us/qicore/StructureDefinition/qicore-patient"]},"text":{"status":"generated","div":"<div xmlns=\"http://www.w3.org/1999/xhtml\"><div class=\"hapiHeaderText\">EncInpEndsAfterMP<b>IPOPFail</b></div><table class=\"hapiPropertyTable\"><tbody><tr><td>Identifier</td><td>719f24c2b902a07360c37477b88fc86f45141869da55baa10ce27b78f5f673ff</td></tr><tr><td>Date of birth</td><td><span>28 August 1989</span></td></tr></tbody></table></div>"},"extension":[{"url":"http://hl7.org/fhir/us/core/StructureDefinition/us-core-race","extension":[{"url":"ombCategory","valueCoding":{"system":"urn:oid:2.16.840.1.113883.6.238","code":"1002-5","display":"American Indian or Alaska Native","userSelected":true}},{"url":"text","valueString":"American Indian or Alaska Native"}]},{"url":"http://hl7.org/fhir/us/core/StructureDefinition/us-core-ethnicity","extension":[{"url":"ombCategory","valueCoding":{"system":"urn:oid:2.16.840.1.113883.6.238","code":"2135-2","display":"Hispanic or Latino","userSelected":true}},{"url":"text","valueString":"Hispanic or Latino"}]}],"identifier":[{"type":{"coding":[{"system":"http://terminology.hl7.org/CodeSystem/v2-0203","code":"MR"}]},"system":"https://bonnie-fhir.healthit.gov/","value":"63487c2e0968f80122540182"}],"active":true,"name":[{"use":"usual","family":"IPOPFail","given":["EncInpEndsAfterMP"]}],"gender":"female","birthDate":"1990-08-28"},"request":{"method":"PUT","url":"Patient/cb800af9-771b-4850-a175-8e3b9ffbbfc3"}},{"fullUrl":"Bundle/63487c2e0968f80122540182","resource":{"resourceType":"Bundle","id":"63487c2e0968f80122540182","type":"transaction","entry":[{"fullUrl":"https://madie.cms.gov/Patient/cb800af9-771b-4850-a175-8e3b9ffbbfc3","resource":{"resourceType":"Patient","id":"cb800af9-771b-4850-a175-8e3b9ffbbfc3","meta":{"profile":["http://hl7.org/fhir/us/qicore/StructureDefinition/qicore-patient"]},"text":{"status":"generated","div":"<div xmlns=\"http://www.w3.org/1999/xhtml\"><div class=\"hapiHeaderText\">EncInpEndsAfterMP<b>IPOPFail</b></div><table class=\"hapiPropertyTable\"><tbody><tr><td>Identifier</td><td>719f24c2b902a07360c37477b88fc86f45141869da55baa10ce27b78f5f673ff</td></tr><tr><td>Date of birth</td><td><span>28 August 1989</span></td></tr></tbody></table></div>"},"extension":[{"url":"http://hl7.org/fhir/us/core/StructureDefinition/us-core-race","extension":[{"url":"ombCategory","valueCoding":{"system":"urn:oid:2.16.840.1.113883.6.238","code":"1002-5","display":"American Indian or Alaska Native","userSelected":true}},{"url":"text","valueString":"American Indian or Alaska Native"}]},{"url":"http://hl7.org/fhir/us/core/StructureDefinition/us-core-ethnicity","extension":[{"url":"ombCategory","valueCoding":{"system":"urn:oid:2.16.840.1.113883.6.238","code":"2135-2","display":"Hispanic or Latino","userSelected":true}},{"url":"text","valueString":"Hispanic or Latino"}]}],"identifier":[{"type":{"coding":[{"system":"http://terminology.hl7.org/CodeSystem/v2-0203","code":"MR"}]},"system":"https://bonnie-fhir.healthit.gov/","value":"63487c2e0968f80122540182"}],"active":true,"name":[{"use":"usual","family":"IPOPFail","given":["EncInpEndsAfterMP"]}],"gender":"female","birthDate":"1990-08-28"},"request":{"method":"PUT","url":"Patient/cb800af9-771b-4850-a175-8e3b9ffbbfc3"}},{"fullUrl":"https://madie.cms.gov/Encounter/69659a56-612c-4f3f-b5ff-273f69324201","resource":{"resourceType":"Encounter","id":"69659a56-612c-4f3f-b5ff-273f69324201","meta":{"profile":["http://hl7.org/fhir/us/qicore/StructureDefinition/qicore-encounter"]},"status":"finished","class":{"system":"http://terminology.hl7.org/CodeSystem/v3-ActCode","code":"IMP","display":"inpatient encounter"},"type":[{"coding":[{"system":"http://snomed.info/sct","code":"8715000"}]}],"subject":{"reference":"Patient/cb800af9-771b-4850-a175-8e3b9ffbbfc3"},"period":{"start":"2026-12-01T08:00:00.000+00:00","end":"2027-01-01T01:00:00.000+00:00"},"length":{"value":31,"unit":"days"},"diagnosis":[{"condition":{"reference":"Condition/Condition-2"},"use":{"coding":[{"system":"http://snomed.info/sct","code":"169826009","display":"Single live birth from singleton pregnancy (finding)"}]}}]},"request":{"method":"PUT","url":"Encounter/69659a56-612c-4f3f-b5ff-273f69324201"}},{"fullUrl":"https://madie.cms.gov/Procedure/4e0dbed4-d84d-4c2e-aeee-a0af9db1790c","resource":{"resourceType":"Procedure","id":"4e0dbed4-d84d-4c2e-aeee-a0af9db1790c","meta":{"profile":["http://hl7.org/fhir/us/qicore/StructureDefinition/qicore-procedure"]},"extension":[{"url":"http://hl7.org/fhir/us/qicore/StructureDefinition/qicore-recorded","valueDateTime":"2014-04-05T13:35:00.000+00:00"}],"status":"completed","code":{"coding":[{"system":"http://snomed.info/sct","code":"10745001"}]},"subject":{"reference":"Patient/cb800af9-771b-4850-a175-8e3b9ffbbfc3"},"performedPeriod":{"start":"2026-12-01T08:00:00.000+00:00","end":"2027-01-01T01:00:00.000+00:00"}},"request":{"method":"PUT","url":"Procedure/4e0dbed4-d84d-4c2e-aeee-a0af9db1790c"}},{"fullUrl":"https://madie.cms.gov/Coverage/c0b834cb-76fe-49e0-9c00-52ff3d6f7b0c","resource":{"resourceType":"Coverage","id":"c0b834cb-76fe-49e0-9c00-52ff3d6f7b0c","meta":{"profile":["http://hl7.org/fhir/us/qicore/StructureDefinition/qicore-coverage"]},"status":"active","subscriberId":"523435","beneficiary":{"reference":"Patient/cb800af9-771b-4850-a175-8e3b9ffbbfc3"},"relationship":{"coding":[{"system":"http://terminology.hl7.org/CodeSystem/subscriber-relationship","code":"self"}]},"payor":[{"reference":"Organization/aae69a45-e345-44ea-b3d3-322965c0589c"}]},"request":{"method":"PUT","url":"Coverage/c0b834cb-76fe-49e0-9c00-52ff3d6f7b0c"}},{"fullUrl":"https://madie.cms.gov/Organization/aae69a45-e345-44ea-b3d3-322965c0589c","resource":{"resourceType":"Organization","id":"aae69a45-e345-44ea-b3d3-322965c0589c","meta":{"profile":["http://hl7.org/fhir/us/qicore/StructureDefinition/qicore-organization"]},"identifier":[{"use":"temp","system":"urn:oid:2.16.840.1.113883.4.4","value":"21-3259825"}],"active":true,"type":[{"coding":[{"system":"http://terminology.hl7.org/CodeSystem/organization-type","code":"pay","display":"Payer"}]}],"name":"Blue Cross Blue Shield of Texas","telecom":[{"system":"phone","value":"(+1) 972-766-6900"}],"address":[{"use":"billing","type":"postal","line":["P.O. Box 660044"],"city":"Dallas","state":"TX","postalCode":"75266-0044","country":"USA"}]},"request":{"method":"PUT","url":"Organization/aae69a45-e345-44ea-b3d3-322965c0589c"}},{"fullUrl":"https://madie.cms.gov/Practitioner/0b227868-0721-4118-8028-28c2f6336185","resource":{"resourceType":"Practitioner","id":"0b227868-0721-4118-8028-28c2f6336185","meta":{"profile":["http://hl7.org/fhir/us/qicore/StructureDefinition/qicore-practitioner"]},"identifier":[{"system":"http://hl7.org/fhir/sid/us-npi","value":"1234578906"}],"name":[{"family":"Evil","prefix":["Dr"]}]},"request":{"method":"PUT","url":"Practitioner/0b227868-0721-4118-8028-28c2f6336185"}},{"fullUrl":"https://madie.cms.gov/MeasureReport/bc121bbb-61f0-48cf-868b-44252ba505ec","resource":{"resourceType":"MeasureReport","id":"bc121bbb-61f0-48cf-868b-44252ba505ec","meta":{"profile":["http://hl7.org/fhir/us/cqfmeasures/StructureDefinition/test-case-cqfm"]},"contained":[{"resourceType":"Parameters","id":"513b5f86-35a2-464f-83f9-3cbc99c49213-parameters","parameter":[{"name":"subject","valueString":"cb800af9-771b-4850-a175-8e3b9ffbbfc3"}]}],"extension":[{"url":"http://hl7.org/fhir/StructureDefinition/cqf-inputParameters","valueReference":{"reference":"#513b5f86-35a2-464f-83f9-3cbc99c49213-parameters"}},{"url":"http://hl7.org/fhir/us/cqfmeasures/StructureDefinition/cqfm-testCaseDescription","valueMarkdown":"EncounterInpatient.relevantPeriod ends after \"Measurement Period\".  Fails IPP because it ends AFTER MP.\n"}],"modifierExtension":[{"url":"http://hl7.org/fhir/us/cqfmeasures/StructureDefinition/cqfm-isTestCase","valueBoolean":true}],"status":"complete","type":"individual","measure":"https://madie.cms.gov/Measure/CMS0334FHIRPCCesareanBirth","period":{"start":"2026-01-01","end":"2026-12-31"},"group":[{"id":"Group_1","population":[{"id":"InitialPopulation_1","code":{"coding":[{"system":"http://terminology.hl7.org/CodeSystem/measure-population","code":"initial-population","display":"Initial Population"}]},"count":0},{"id":"Denominator_1","code":{"coding":[{"system":"http://terminology.hl7.org/CodeSystem/measure-population","code":"denominator","display":"Denominator"}]},"count":0},{"id":"DenominatorExclusion_1","code":{"coding":[{"system":"http://terminology.hl7.org/CodeSystem/measure-population","code":"denominator-exclusion","display":"Denominator Exclusion"}]},"count":0},{"id":"Numerator_1","code":{"coding":[{"system":"http://terminology.hl7.org/CodeSystem/measure-population","code":"numerator","display":"Numerator"}]},"count":0}],"measureScore":{"value":0.0}}],"evaluatedResource":[{"reference":"Patient/cb800af9-771b-4850-a175-8e3b9ffbbfc3"},{"reference":"Encounter/69659a56-612c-4f3f-b5ff-273f69324201"},{"reference":"Procedure/4e0dbed4-d84d-4c2e-aeee-a0af9db1790c"},{"reference":"Coverage/c0b834cb-76fe-49e0-9c00-52ff3d6f7b0c"},{"reference":"Organization/aae69a45-e345-44ea-b3d3-322965c0589c"},{"reference":"Practitioner/0b227868-0721-4118-8028-28c2f6336185"}]},"request":{"method":"PUT","url":"MeasureReport/bc121bbb-61f0-48cf-868b-44252ba505ec"}}]},"request":{"method":"PUT","url":"Bundle/63487c2e0968f80122540182"}},{"fullUrl":"Procedure/4e0dbed4-d84d-4c2e-aeee-a0af9db1790c","resource":{"resourceType":"Procedure","id":"4e0dbed4-d84d-4c2e-aeee-a0af9db1790c","meta":{"profile":["http://hl7.org/fhir/us/qicore/StructureDefinition/qicore-procedure"]},"extension":[{"url":"http://hl7.org/fhir/us/qicore/StructureDefinition/qicore-recorded","valueDateTime":"2014-04-05T13:35:00.000+00:00"}],"status":"completed","code":{"coding":[{"system":"http://snomed.info/sct","code":"10745001"}]},"subject":{"reference":"Patient/cb800af9-771b-4850-a175-8e3b9ffbbfc3"},"performedPeriod":{"start":"2026-12-01T08:00:00.000+00:00","end":"2027-01-01T01:00:00.000+00:00"}},"request":{"method":"PUT","url":"Procedure/4e0dbed4-d84d-4c2e-aeee-a0af9db1790c"}}]}