{"resourceType":"Bundle","id":"tests-014b44f2-2119-4009-8ef2-4b6a62d6dd7a-bundle","type":"transaction","entry":[{"resource":{"resourceType":"Organization","id":"f27e2562-490e-4366-8c93-0a8375bd8129","meta":{"profile":["http://hl7.org/fhir/us/qicore/StructureDefinition/qicore-organization"]},"identifier":[{"use":"temp","system":"urn:oid:2.16.840.1.113883.4.4","value":"21-3259825"}],"active":true,"type":[{"coding":[{"system":"http://terminology.hl7.org/CodeSystem/organization-type","code":"pay","display":"Payer"}]}],"name":"Blue Cross Blue Shield of Texas","telecom":[{"system":"phone","value":"(+1) 972-766-6900"}],"address":[{"use":"billing","type":"postal","line":["P.O. Box 660044"],"city":"Dallas","state":"TX","postalCode":"75266-0044","country":"USA"}]},"request":{"method":"PUT","url":"Organization/f27e2562-490e-4366-8c93-0a8375bd8129"}},{"resource":{"resourceType":"Observation","id":"b861c6f4-cf6d-46d3-bdce-f8c3a36e29cd","meta":{"profile":["http://hl7.org/fhir/us/qicore/StructureDefinition/qicore-simple-observation"]},"status":"final","category":[{"coding":[{"system":"http://terminology.hl7.org/CodeSystem/observation-category","code":"exam","display":"exam","userSelected":true}]}],"code":{"coding":[{"system":"http://loinc.org","code":"11778-8"}]},"subject":{"reference":"Patient/014b44f2-2119-4009-8ef2-4b6a62d6dd7a"},"effectiveDateTime":"2026-01-15T08:01:00.000+00:00","valueDateTime":"2026-02-04T08:00:00.000+00:00"},"request":{"method":"PUT","url":"Observation/b861c6f4-cf6d-46d3-bdce-f8c3a36e29cd"}},{"resource":{"resourceType":"Coverage","id":"7aa6d062-f031-408c-b17f-922d6c08e343","meta":{"profile":["http://hl7.org/fhir/us/qicore/StructureDefinition/qicore-coverage"]},"status":"active","subscriberId":"523435","beneficiary":{"reference":"Patient/014b44f2-2119-4009-8ef2-4b6a62d6dd7a"},"relationship":{"coding":[{"system":"http://terminology.hl7.org/CodeSystem/subscriber-relationship","code":"self"}]},"payor":[{"reference":"Organization/f27e2562-490e-4366-8c93-0a8375bd8129"}]},"request":{"method":"PUT","url":"Coverage/7aa6d062-f031-408c-b17f-922d6c08e343"}},{"resource":{"resourceType":"Practitioner","id":"7d7c652d-b1d6-40a3-8daf-af4934cdcf4b","meta":{"profile":["http://hl7.org/fhir/us/qicore/StructureDefinition/qicore-practitioner"]},"identifier":[{"system":"http://hl7.org/fhir/sid/us-npi","value":"1234567890"}],"name":[{"family":"Evil","prefix":["Dr"]}]},"request":{"method":"PUT","url":"Practitioner/7d7c652d-b1d6-40a3-8daf-af4934cdcf4b"}},{"resource":{"resourceType":"Observation","id":"489d8f84-93f1-433b-af57-91ab40fd5aa6","meta":{"profile":["http://hl7.org/fhir/us/qicore/StructureDefinition/qicore-simple-observation"]},"status":"final","category":[{"coding":[{"system":"http://terminology.hl7.org/CodeSystem/observation-category","code":"exam","display":"exam","userSelected":true}]}],"code":{"coding":[{"system":"http://loinc.org","code":"11996-6"}]},"subject":{"reference":"Patient/014b44f2-2119-4009-8ef2-4b6a62d6dd7a"},"effectiveDateTime":"2026-01-15T07:59:00.000+00:00","valueInteger":1},"request":{"method":"PUT","url":"Observation/489d8f84-93f1-433b-af57-91ab40fd5aa6"}},{"resource":{"resourceType":"Bundle","id":"63487c2f0968f801225401ae","type":"transaction","entry":[{"fullUrl":"https://madie.cms.gov/Patient/014b44f2-2119-4009-8ef2-4b6a62d6dd7a","resource":{"resourceType":"Patient","id":"014b44f2-2119-4009-8ef2-4b6a62d6dd7a","meta":{"profile":["http://hl7.org/fhir/us/qicore/StructureDefinition/qicore-patient"]},"text":{"status":"generated","div":"<div xmlns=\"http://www.w3.org/1999/xhtml\"><div class=\"hapiHeaderText\">AssessEDDRelDtTimeAfterTimeOfDeliv <b>DENFAIL </b></div><table class=\"hapiPropertyTable\"><tbody><tr><td>Identifier</td><td>b00b06f67015bda652373741cca10f65466d828e3a674df9528f73ec417ce0bb</td></tr><tr><td>Date of birth</td><td><span>14 February 1985</span></td></tr></tbody></table></div>"},"extension":[{"url":"http://hl7.org/fhir/us/core/StructureDefinition/us-core-race","extension":[{"url":"ombCategory","valueCoding":{"system":"urn:oid:2.16.840.1.113883.6.238","code":"1002-5","display":"American Indian or Alaska Native","userSelected":true}},{"url":"text","valueString":"American Indian or Alaska Native"}]},{"url":"http://hl7.org/fhir/us/core/StructureDefinition/us-core-ethnicity","extension":[{"url":"ombCategory","valueCoding":{"system":"urn:oid:2.16.840.1.113883.6.238","code":"2135-2","display":"Hispanic or Latino","userSelected":true}},{"url":"text","valueString":"Hispanic or Latino"}]}],"identifier":[{"type":{"coding":[{"system":"http://terminology.hl7.org/CodeSystem/v2-0203","code":"MR"}]},"system":"https://bonnie-fhir.healthit.gov/","value":"63487c2f0968f801225401ae"}],"active":true,"name":[{"use":"usual","family":"DENFail","given":["AssessEDDRelDtTimeAfterTimeOfDeliv"]}],"gender":"female","birthDate":"1998-02-14"},"request":{"method":"PUT","url":"Patient/014b44f2-2119-4009-8ef2-4b6a62d6dd7a"}},{"fullUrl":"https://madie.cms.gov/Observation/7b5a6bd2-cf84-4e94-bb1e-4002fc31cdae","resource":{"resourceType":"Observation","id":"7b5a6bd2-cf84-4e94-bb1e-4002fc31cdae","meta":{"profile":["http://hl7.org/fhir/us/qicore/StructureDefinition/qicore-simple-observation"]},"status":"final","category":[{"coding":[{"system":"http://terminology.hl7.org/CodeSystem/observation-category","code":"exam","display":"exam","userSelected":true}]}],"code":{"coding":[{"system":"http://loinc.org","code":"93857-1"}]},"subject":{"reference":"Patient/014b44f2-2119-4009-8ef2-4b6a62d6dd7a"},"effectiveDateTime":"2026-01-15T08:00:00.000+00:00","valueDateTime":"2026-01-15T08:00:00.000+00:00"},"request":{"method":"PUT","url":"Observation/7b5a6bd2-cf84-4e94-bb1e-4002fc31cdae"}},{"fullUrl":"https://madie.cms.gov/Observation/b861c6f4-cf6d-46d3-bdce-f8c3a36e29cd","resource":{"resourceType":"Observation","id":"b861c6f4-cf6d-46d3-bdce-f8c3a36e29cd","meta":{"profile":["http://hl7.org/fhir/us/qicore/StructureDefinition/qicore-simple-observation"]},"status":"final","category":[{"coding":[{"system":"http://terminology.hl7.org/CodeSystem/observation-category","code":"exam","display":"exam","userSelected":true}]}],"code":{"coding":[{"system":"http://loinc.org","code":"11778-8"}]},"subject":{"reference":"Patient/014b44f2-2119-4009-8ef2-4b6a62d6dd7a"},"effectiveDateTime":"2026-01-15T08:01:00.000+00:00","valueDateTime":"2026-02-04T08:00:00.000+00:00"},"request":{"method":"PUT","url":"Observation/b861c6f4-cf6d-46d3-bdce-f8c3a36e29cd"}},{"fullUrl":"https://madie.cms.gov/Observation/489d8f84-93f1-433b-af57-91ab40fd5aa6","resource":{"resourceType":"Observation","id":"489d8f84-93f1-433b-af57-91ab40fd5aa6","meta":{"profile":["http://hl7.org/fhir/us/qicore/StructureDefinition/qicore-simple-observation"]},"status":"final","category":[{"coding":[{"system":"http://terminology.hl7.org/CodeSystem/observation-category","code":"exam","display":"exam","userSelected":true}]}],"code":{"coding":[{"system":"http://loinc.org","code":"11996-6"}]},"subject":{"reference":"Patient/014b44f2-2119-4009-8ef2-4b6a62d6dd7a"},"effectiveDateTime":"2026-01-15T07:59:00.000+00:00","valueInteger":1},"request":{"method":"PUT","url":"Observation/489d8f84-93f1-433b-af57-91ab40fd5aa6"}},{"fullUrl":"https://madie.cms.gov/Encounter/0696d77f-92dd-446c-ba32-9ea2d0b56cae","resource":{"resourceType":"Encounter","id":"0696d77f-92dd-446c-ba32-9ea2d0b56cae","meta":{"profile":["http://hl7.org/fhir/us/qicore/StructureDefinition/qicore-encounter"]},"status":"finished","class":{"system":"http://terminology.hl7.org/CodeSystem/v3-ActCode","code":"IMP","display":"inpatient encounter"},"type":[{"coding":[{"system":"http://snomed.info/sct","code":"183452005"}]}],"subject":{"reference":"Patient/014b44f2-2119-4009-8ef2-4b6a62d6dd7a"},"period":{"start":"2026-01-15T08:00:00.000+00:00","end":"2026-01-20T08:15:00.000+00:00"},"reasonReference":[{"reference":"Condition/a279e120-f9b6-4271-b4d0-3b757ab72379"}]},"request":{"method":"PUT","url":"Encounter/0696d77f-92dd-446c-ba32-9ea2d0b56cae"}},{"fullUrl":"https://madie.cms.gov/Procedure/749a6455-13a3-42f2-bbb0-a286b60c1709","resource":{"resourceType":"Procedure","id":"749a6455-13a3-42f2-bbb0-a286b60c1709","meta":{"profile":["http://hl7.org/fhir/us/qicore/StructureDefinition/qicore-procedure"]},"extension":[{"url":"http://hl7.org/fhir/us/qicore/StructureDefinition/qicore-recorded","valueDateTime":"2014-04-05T13:35:00.000+00:00"}],"status":"completed","code":{"coding":[{"system":"http://www.cms.gov/Medicare/Coding/ICD10","code":"10D07Z3"},{"system":"http://www.icd10data.com/icd10pcs","code":"10D07Z3","userSelected":true}]},"subject":{"reference":"Patient/014b44f2-2119-4009-8ef2-4b6a62d6dd7a"},"performedPeriod":{"start":"2026-01-15T08:10:00.000+00:00","end":"2026-01-15T09:14:00.000+00:00"}},"request":{"method":"PUT","url":"Procedure/749a6455-13a3-42f2-bbb0-a286b60c1709"}},{"fullUrl":"https://madie.cms.gov/Condition/a279e120-f9b6-4271-b4d0-3b757ab72379","resource":{"resourceType":"Condition","id":"a279e120-f9b6-4271-b4d0-3b757ab72379","meta":{"profile":["http://hl7.org/fhir/us/qicore/StructureDefinition/qicore-condition-encounter-diagnosis"]},"category":[{"coding":[{"system":"http://terminology.hl7.org/CodeSystem/condition-category","code":"encounter-diagnosis","display":"Encounter Diagnosis"}]}],"code":{"coding":[{"system":"http://snomed.info/sct","version":"2022-09","code":"169826009","display":"Single live birth from singleton pregnancy (finding)","userSelected":true}]},"subject":{"reference":"Patient/014b44f2-2119-4009-8ef2-4b6a62d6dd7a"},"recordedDate":"2026-10-21T08:00:00.000+00:00"},"request":{"method":"PUT","url":"Condition/a279e120-f9b6-4271-b4d0-3b757ab72379"}},{"fullUrl":"https://madie.cms.gov/Coverage/7aa6d062-f031-408c-b17f-922d6c08e343","resource":{"resourceType":"Coverage","id":"7aa6d062-f031-408c-b17f-922d6c08e343","meta":{"profile":["http://hl7.org/fhir/us/qicore/StructureDefinition/qicore-coverage"]},"status":"active","subscriberId":"523435","beneficiary":{"reference":"Patient/014b44f2-2119-4009-8ef2-4b6a62d6dd7a"},"relationship":{"coding":[{"system":"http://terminology.hl7.org/CodeSystem/subscriber-relationship","code":"self"}]},"payor":[{"reference":"Organization/f27e2562-490e-4366-8c93-0a8375bd8129"}]},"request":{"method":"PUT","url":"Coverage/7aa6d062-f031-408c-b17f-922d6c08e343"}},{"fullUrl":"https://madie.cms.gov/Organization/f27e2562-490e-4366-8c93-0a8375bd8129","resource":{"resourceType":"Organization","id":"f27e2562-490e-4366-8c93-0a8375bd8129","meta":{"profile":["http://hl7.org/fhir/us/qicore/StructureDefinition/qicore-organization"]},"identifier":[{"use":"temp","system":"urn:oid:2.16.840.1.113883.4.4","value":"21-3259825"}],"active":true,"type":[{"coding":[{"system":"http://terminology.hl7.org/CodeSystem/organization-type","code":"pay","display":"Payer"}]}],"name":"Blue Cross Blue Shield of Texas","telecom":[{"system":"phone","value":"(+1) 972-766-6900"}],"address":[{"use":"billing","type":"postal","line":["P.O. Box 660044"],"city":"Dallas","state":"TX","postalCode":"75266-0044","country":"USA"}]},"request":{"method":"PUT","url":"Organization/f27e2562-490e-4366-8c93-0a8375bd8129"}},{"fullUrl":"https://madie.cms.gov/Practitioner/7d7c652d-b1d6-40a3-8daf-af4934cdcf4b","resource":{"resourceType":"Practitioner","id":"7d7c652d-b1d6-40a3-8daf-af4934cdcf4b","meta":{"profile":["http://hl7.org/fhir/us/qicore/StructureDefinition/qicore-practitioner"]},"identifier":[{"system":"http://hl7.org/fhir/sid/us-npi","value":"1234567890"}],"name":[{"family":"Evil","prefix":["Dr"]}]},"request":{"method":"PUT","url":"Practitioner/7d7c652d-b1d6-40a3-8daf-af4934cdcf4b"}},{"fullUrl":"https://madie.cms.gov/MeasureReport/5803e951-b09d-43a5-beba-ff3c33e6bcce","resource":{"resourceType":"MeasureReport","id":"5803e951-b09d-43a5-beba-ff3c33e6bcce","meta":{"profile":["http://hl7.org/fhir/us/cqfmeasures/StructureDefinition/test-case-cqfm"]},"contained":[{"resourceType":"Parameters","id":"cfa37d84-e493-44db-ad40-24938f275d27-parameters","parameter":[{"name":"subject","valueString":"014b44f2-2119-4009-8ef2-4b6a62d6dd7a"}]}],"extension":[{"url":"http://hl7.org/fhir/StructureDefinition/cqf-inputParameters","valueReference":{"reference":"#cfa37d84-e493-44db-ad40-24938f275d27-parameters"}},{"url":"http://hl7.org/fhir/us/cqfmeasures/StructureDefinition/cqfm-testCaseDescription","valueMarkdown":"Passes: IP, Fails DENOM, Pt is 27 years of age,  encounter dx delivery of singleton, gravida=1authored less than 42 weeks prior to delivery, Delivery date Estimated Relevant DateTime AFTER the Time of Delivery\n"}],"modifierExtension":[{"url":"http://hl7.org/fhir/us/cqfmeasures/StructureDefinition/cqfm-isTestCase","valueBoolean":true}],"status":"complete","type":"individual","measure":"https://madie.cms.gov/Measure/CMS0334FHIRPCCesareanBirth","period":{"start":"2026-01-01","end":"2026-12-31"},"group":[{"id":"Group_1","population":[{"id":"InitialPopulation_1","code":{"coding":[{"system":"http://terminology.hl7.org/CodeSystem/measure-population","code":"initial-population","display":"Initial Population"}]},"count":1},{"id":"Denominator_1","code":{"coding":[{"system":"http://terminology.hl7.org/CodeSystem/measure-population","code":"denominator","display":"Denominator"}]},"count":0},{"id":"DenominatorExclusion_1","code":{"coding":[{"system":"http://terminology.hl7.org/CodeSystem/measure-population","code":"denominator-exclusion","display":"Denominator Exclusion"}]},"count":0},{"id":"Numerator_1","code":{"coding":[{"system":"http://terminology.hl7.org/CodeSystem/measure-population","code":"numerator","display":"Numerator"}]},"count":0}],"measureScore":{"value":0.0}}],"evaluatedResource":[{"reference":"Patient/014b44f2-2119-4009-8ef2-4b6a62d6dd7a"},{"reference":"Observation/7b5a6bd2-cf84-4e94-bb1e-4002fc31cdae"},{"reference":"Observation/b861c6f4-cf6d-46d3-bdce-f8c3a36e29cd"},{"reference":"Observation/489d8f84-93f1-433b-af57-91ab40fd5aa6"},{"reference":"Encounter/0696d77f-92dd-446c-ba32-9ea2d0b56cae"},{"reference":"Procedure/749a6455-13a3-42f2-bbb0-a286b60c1709"},{"reference":"Condition/a279e120-f9b6-4271-b4d0-3b757ab72379"},{"reference":"Coverage/7aa6d062-f031-408c-b17f-922d6c08e343"},{"reference":"Organization/f27e2562-490e-4366-8c93-0a8375bd8129"},{"reference":"Practitioner/7d7c652d-b1d6-40a3-8daf-af4934cdcf4b"}]},"request":{"method":"PUT","url":"MeasureReport/5803e951-b09d-43a5-beba-ff3c33e6bcce"}}]},"request":{"method":"PUT","url":"Bundle/63487c2f0968f801225401ae"}},{"resource":{"resourceType":"Encounter","id":"0696d77f-92dd-446c-ba32-9ea2d0b56cae","meta":{"profile":["http://hl7.org/fhir/us/qicore/StructureDefinition/qicore-encounter"]},"status":"finished","class":{"system":"http://terminology.hl7.org/CodeSystem/v3-ActCode","code":"IMP","display":"inpatient encounter"},"type":[{"coding":[{"system":"http://snomed.info/sct","code":"183452005"}]}],"subject":{"reference":"Patient/014b44f2-2119-4009-8ef2-4b6a62d6dd7a"},"period":{"start":"2026-01-15T08:00:00.000+00:00","end":"2026-01-20T08:15:00.000+00:00"},"reasonReference":[{"reference":"Condition/a279e120-f9b6-4271-b4d0-3b757ab72379"}]},"request":{"method":"PUT","url":"Encounter/0696d77f-92dd-446c-ba32-9ea2d0b56cae"}},{"resource":{"resourceType":"MeasureReport","id":"5803e951-b09d-43a5-beba-ff3c33e6bcce","meta":{"profile":["http://hl7.org/fhir/us/cqfmeasures/StructureDefinition/test-case-cqfm"]},"contained":[{"resourceType":"Parameters","id":"cfa37d84-e493-44db-ad40-24938f275d27-parameters","parameter":[{"name":"subject","valueString":"014b44f2-2119-4009-8ef2-4b6a62d6dd7a"}]}],"extension":[{"url":"http://hl7.org/fhir/StructureDefinition/cqf-inputParameters","valueReference":{"reference":"#cfa37d84-e493-44db-ad40-24938f275d27-parameters"}},{"url":"http://hl7.org/fhir/us/cqfmeasures/StructureDefinition/cqfm-testCaseDescription","valueMarkdown":"Passes: IP, Fails DENOM, Pt is 27 years of age,  encounter dx delivery of singleton, gravida=1authored less than 42 weeks prior to delivery, Delivery date Estimated Relevant DateTime AFTER the Time of Delivery\n"}],"modifierExtension":[{"url":"http://hl7.org/fhir/us/cqfmeasures/StructureDefinition/cqfm-isTestCase","valueBoolean":true}],"status":"complete","type":"individual","measure":"https://madie.cms.gov/Measure/CMS0334FHIRPCCesareanBirth","period":{"start":"2026-01-01","end":"2026-12-31"},"group":[{"id":"Group_1","population":[{"id":"InitialPopulation_1","code":{"coding":[{"system":"http://terminology.hl7.org/CodeSystem/measure-population","code":"initial-population","display":"Initial Population"}]},"count":1},{"id":"Denominator_1","code":{"coding":[{"system":"http://terminology.hl7.org/CodeSystem/measure-population","code":"denominator","display":"Denominator"}]},"count":0},{"id":"DenominatorExclusion_1","code":{"coding":[{"system":"http://terminology.hl7.org/CodeSystem/measure-population","code":"denominator-exclusion","display":"Denominator Exclusion"}]},"count":0},{"id":"Numerator_1","code":{"coding":[{"system":"http://terminology.hl7.org/CodeSystem/measure-population","code":"numerator","display":"Numerator"}]},"count":0}],"measureScore":{"value":0.0}}],"evaluatedResource":[{"reference":"Patient/014b44f2-2119-4009-8ef2-4b6a62d6dd7a"},{"reference":"Observation/7b5a6bd2-cf84-4e94-bb1e-4002fc31cdae"},{"reference":"Observation/b861c6f4-cf6d-46d3-bdce-f8c3a36e29cd"},{"reference":"Observation/489d8f84-93f1-433b-af57-91ab40fd5aa6"},{"reference":"Encounter/0696d77f-92dd-446c-ba32-9ea2d0b56cae"},{"reference":"Procedure/749a6455-13a3-42f2-bbb0-a286b60c1709"},{"reference":"Condition/a279e120-f9b6-4271-b4d0-3b757ab72379"},{"reference":"Coverage/7aa6d062-f031-408c-b17f-922d6c08e343"},{"reference":"Organization/f27e2562-490e-4366-8c93-0a8375bd8129"},{"reference":"Practitioner/7d7c652d-b1d6-40a3-8daf-af4934cdcf4b"}]},"request":{"method":"PUT","url":"MeasureReport/5803e951-b09d-43a5-beba-ff3c33e6bcce"}},{"resource":{"resourceType":"Condition","id":"a279e120-f9b6-4271-b4d0-3b757ab72379","meta":{"profile":["http://hl7.org/fhir/us/qicore/StructureDefinition/qicore-condition-encounter-diagnosis"]},"category":[{"coding":[{"system":"http://terminology.hl7.org/CodeSystem/condition-category","code":"encounter-diagnosis","display":"Encounter Diagnosis"}]}],"code":{"coding":[{"system":"http://snomed.info/sct","version":"2022-09","code":"169826009","display":"Single live birth from singleton pregnancy (finding)","userSelected":true}]},"subject":{"reference":"Patient/014b44f2-2119-4009-8ef2-4b6a62d6dd7a"},"recordedDate":"2026-10-21T08:00:00.000+00:00"},"request":{"method":"PUT","url":"Condition/a279e120-f9b6-4271-b4d0-3b757ab72379"}},{"resource":{"resourceType":"Patient","id":"014b44f2-2119-4009-8ef2-4b6a62d6dd7a","meta":{"profile":["http://hl7.org/fhir/us/qicore/StructureDefinition/qicore-patient"]},"text":{"status":"generated","div":"<div xmlns=\"http://www.w3.org/1999/xhtml\"><div class=\"hapiHeaderText\">AssessEDDRelDtTimeAfterTimeOfDeliv <b>DENFAIL </b></div><table class=\"hapiPropertyTable\"><tbody><tr><td>Identifier</td><td>b00b06f67015bda652373741cca10f65466d828e3a674df9528f73ec417ce0bb</td></tr><tr><td>Date of birth</td><td><span>14 February 1985</span></td></tr></tbody></table></div>"},"extension":[{"url":"http://hl7.org/fhir/us/core/StructureDefinition/us-core-race","extension":[{"url":"ombCategory","valueCoding":{"system":"urn:oid:2.16.840.1.113883.6.238","code":"1002-5","display":"American Indian or Alaska Native","userSelected":true}},{"url":"text","valueString":"American Indian or Alaska Native"}]},{"url":"http://hl7.org/fhir/us/core/StructureDefinition/us-core-ethnicity","extension":[{"url":"ombCategory","valueCoding":{"system":"urn:oid:2.16.840.1.113883.6.238","code":"2135-2","display":"Hispanic or Latino","userSelected":true}},{"url":"text","valueString":"Hispanic or Latino"}]}],"identifier":[{"type":{"coding":[{"system":"http://terminology.hl7.org/CodeSystem/v2-0203","code":"MR"}]},"system":"https://bonnie-fhir.healthit.gov/","value":"63487c2f0968f801225401ae"}],"active":true,"name":[{"use":"usual","family":"DENFail","given":["AssessEDDRelDtTimeAfterTimeOfDeliv"]}],"gender":"female","birthDate":"1998-02-14"},"request":{"method":"PUT","url":"Patient/014b44f2-2119-4009-8ef2-4b6a62d6dd7a"}},{"resource":{"resourceType":"Observation","id":"7b5a6bd2-cf84-4e94-bb1e-4002fc31cdae","meta":{"profile":["http://hl7.org/fhir/us/qicore/StructureDefinition/qicore-simple-observation"]},"status":"final","category":[{"coding":[{"system":"http://terminology.hl7.org/CodeSystem/observation-category","code":"exam","display":"exam","userSelected":true}]}],"code":{"coding":[{"system":"http://loinc.org","code":"93857-1"}]},"subject":{"reference":"Patient/014b44f2-2119-4009-8ef2-4b6a62d6dd7a"},"effectiveDateTime":"2026-01-15T08:00:00.000+00:00","valueDateTime":"2026-01-15T08:00:00.000+00:00"},"request":{"method":"PUT","url":"Observation/7b5a6bd2-cf84-4e94-bb1e-4002fc31cdae"}},{"resource":{"resourceType":"Procedure","id":"749a6455-13a3-42f2-bbb0-a286b60c1709","meta":{"profile":["http://hl7.org/fhir/us/qicore/StructureDefinition/qicore-procedure"]},"extension":[{"url":"http://hl7.org/fhir/us/qicore/StructureDefinition/qicore-recorded","valueDateTime":"2014-04-05T13:35:00.000+00:00"}],"status":"completed","code":{"coding":[{"system":"http://www.cms.gov/Medicare/Coding/ICD10","code":"10D07Z3"},{"system":"http://www.icd10data.com/icd10pcs","code":"10D07Z3","userSelected":true}]},"subject":{"reference":"Patient/014b44f2-2119-4009-8ef2-4b6a62d6dd7a"},"performedPeriod":{"start":"2026-01-15T08:10:00.000+00:00","end":"2026-01-15T09:14:00.000+00:00"}},"request":{"method":"PUT","url":"Procedure/749a6455-13a3-42f2-bbb0-a286b60c1709"}}]}