{"resourceType":"Bundle","id":"tests-30990946-5aea-4270-afef-182cc05f05f3-bundle","type":"transaction","entry":[{"resource":{"resourceType":"Practitioner","id":"36261bdb-705f-4137-8739-d2186f8dfc83","meta":{"profile":["http://hl7.org/fhir/us/qicore/StructureDefinition/qicore-practitioner"]},"identifier":[{"system":"http://hl7.org/fhir/sid/us-npi","value":"1234567890"}],"name":[{"family":"Evil","prefix":["Dr"]}]},"request":{"method":"PUT","url":"Practitioner/36261bdb-705f-4137-8739-d2186f8dfc83"}},{"resource":{"resourceType":"MeasureReport","id":"d9d914bd-32eb-46c4-b1b9-1c08d15b479b","meta":{"profile":["http://hl7.org/fhir/us/cqfmeasures/StructureDefinition/test-case-cqfm"]},"contained":[{"resourceType":"Parameters","id":"89c74250-ce65-4f25-9ca4-59cd12e0a0ab-parameters","parameter":[{"name":"subject","valueString":"30990946-5aea-4270-afef-182cc05f05f3"}]}],"extension":[{"url":"http://hl7.org/fhir/StructureDefinition/cqf-inputParameters","valueReference":{"reference":"#89c74250-ce65-4f25-9ca4-59cd12e0a0ab-parameters"}},{"url":"http://hl7.org/fhir/us/cqfmeasures/StructureDefinition/cqfm-testCaseDescription","valueMarkdown":"EGA 43 weeks; Placenta previa on encounter Attr dx, gravida 1, \n"}],"modifierExtension":[{"url":"http://hl7.org/fhir/us/cqfmeasures/StructureDefinition/cqfm-isTestCase","valueBoolean":true}],"status":"complete","type":"individual","measure":"https://madie.cms.gov/Measure/CMS0334FHIRPCCesareanBirth","period":{"start":"2026-01-01","end":"2026-12-31"},"group":[{"id":"Group_1","population":[{"id":"InitialPopulation_1","code":{"coding":[{"system":"http://terminology.hl7.org/CodeSystem/measure-population","code":"initial-population","display":"Initial Population"}]},"count":1},{"id":"Denominator_1","code":{"coding":[{"system":"http://terminology.hl7.org/CodeSystem/measure-population","code":"denominator","display":"Denominator"}]},"count":1},{"id":"DenominatorExclusion_1","code":{"coding":[{"system":"http://terminology.hl7.org/CodeSystem/measure-population","code":"denominator-exclusion","display":"Denominator Exclusion"}]},"count":1},{"id":"Numerator_1","code":{"coding":[{"system":"http://terminology.hl7.org/CodeSystem/measure-population","code":"numerator","display":"Numerator"}]},"count":0}],"measureScore":{"value":0.0}}],"evaluatedResource":[{"reference":"Patient/30990946-5aea-4270-afef-182cc05f05f3"},{"reference":"Observation/c56a3f4d-456b-4420-8a4f-a65c6b122b1f"},{"reference":"Observation/7920230c-d0bd-4c1a-87ab-ca71226f0827"},{"reference":"Observation/2b5f3310-5c8e-4fb2-8f95-d68b13f6c456"},{"reference":"Encounter/ecd47d24-368d-4289-96fa-58fe5a9a6982"},{"reference":"Procedure/e3325677-1939-4e50-9ee5-8b422066213e"},{"reference":"Condition/f878cd65-2174-419f-9719-16d178f2a8e7"},{"reference":"Condition/42f7a188-90ac-45f8-a0eb-415a51fc5d85"},{"reference":"Coverage/ea8233a6-5464-43d8-a62f-1c5993596628"},{"reference":"Organization/71458228-5eae-4ae2-a5ab-f464fde0614c"},{"reference":"Practitioner/36261bdb-705f-4137-8739-d2186f8dfc83"}]},"request":{"method":"PUT","url":"MeasureReport/d9d914bd-32eb-46c4-b1b9-1c08d15b479b"}},{"resource":{"resourceType":"Encounter","id":"ecd47d24-368d-4289-96fa-58fe5a9a6982","meta":{"profile":["http://hl7.org/fhir/us/qicore/StructureDefinition/qicore-encounter"]},"status":"finished","class":{"system":"http://terminology.hl7.org/CodeSystem/v3-ActCode","code":"IMP","display":"inpatient encounter"},"type":[{"coding":[{"system":"http://snomed.info/sct","code":"8715000"}]}],"subject":{"reference":"Patient/30990946-5aea-4270-afef-182cc05f05f3"},"period":{"start":"2026-06-08T08:00:00.000+00:00","end":"2026-06-10T08:15:00.000+00:00"},"reasonCode":[{"coding":[{"system":"http://snomed.info/sct","code":"169826009","display":"Single live birth from singleton pregnancy (finding)"}]}],"reasonReference":[{"reference":"Condition/42f7a188-90ac-45f8-a0eb-415a51fc5d85"}]},"request":{"method":"PUT","url":"Encounter/ecd47d24-368d-4289-96fa-58fe5a9a6982"}},{"resource":{"resourceType":"Bundle","id":"63487c2e0968f8012254018b","type":"transaction","entry":[{"fullUrl":"https://madie.cms.gov/Patient/30990946-5aea-4270-afef-182cc05f05f3","resource":{"resourceType":"Patient","id":"30990946-5aea-4270-afef-182cc05f05f3","meta":{"profile":["http://hl7.org/fhir/us/qicore/StructureDefinition/qicore-patient"]},"text":{"status":"generated","div":"<div xmlns=\"http://www.w3.org/1999/xhtml\"><div class=\"hapiHeaderText\">EncDxPlacentaPrevia<b>DENEXPASS</b></div><table class=\"hapiPropertyTable\"><tbody><tr><td>Identifier</td><td>26ae2095ae359d33c45002ef417f38a5e4f6a61da3ea75d0332f68a4cb93137e</td></tr><tr><td>Date of birth</td><td><span>14 February 1985</span></td></tr></tbody></table></div>"},"extension":[{"url":"http://hl7.org/fhir/us/core/StructureDefinition/us-core-race","extension":[{"url":"ombCategory","valueCoding":{"system":"urn:oid:2.16.840.1.113883.6.238","code":"1002-5","display":"American Indian or Alaska Native","userSelected":true}},{"url":"text","valueString":"American Indian or Alaska Native"}]},{"url":"http://hl7.org/fhir/us/core/StructureDefinition/us-core-ethnicity","extension":[{"url":"ombCategory","valueCoding":{"system":"urn:oid:2.16.840.1.113883.6.238","code":"2135-2","display":"Hispanic or Latino","userSelected":true}},{"url":"text","valueString":"Hispanic or Latino"}]}],"identifier":[{"type":{"coding":[{"system":"http://terminology.hl7.org/CodeSystem/v2-0203","code":"MR"}]},"system":"https://bonnie-fhir.healthit.gov/","value":"63487c2e0968f8012254018b"}],"active":true,"name":[{"use":"usual","family":"DENEXPass","given":["EncDxPlacentaPrevia"]}],"gender":"female","birthDate":"1998-02-14"},"request":{"method":"PUT","url":"Patient/30990946-5aea-4270-afef-182cc05f05f3"}},{"fullUrl":"https://madie.cms.gov/Observation/c56a3f4d-456b-4420-8a4f-a65c6b122b1f","resource":{"resourceType":"Observation","id":"c56a3f4d-456b-4420-8a4f-a65c6b122b1f","meta":{"profile":["http://hl7.org/fhir/us/qicore/StructureDefinition/qicore-simple-observation"]},"status":"final","category":[{"coding":[{"system":"http://terminology.hl7.org/CodeSystem/observation-category","code":"exam","display":"exam","userSelected":true}]}],"code":{"coding":[{"system":"http://loinc.org","code":"11996-6"}]},"subject":{"reference":"Patient/30990946-5aea-4270-afef-182cc05f05f3"},"effectiveDateTime":"2026-06-08T08:00:00.000+00:00","performer":[{"reference":"Organization/example1","display":"Hendricks Country Hospital"}],"valueInteger":1},"request":{"method":"PUT","url":"Observation/c56a3f4d-456b-4420-8a4f-a65c6b122b1f"}},{"fullUrl":"https://madie.cms.gov/Observation/7920230c-d0bd-4c1a-87ab-ca71226f0827","resource":{"resourceType":"Observation","id":"7920230c-d0bd-4c1a-87ab-ca71226f0827","meta":{"profile":["http://hl7.org/fhir/us/qicore/StructureDefinition/qicore-simple-observation"]},"status":"final","category":[{"coding":[{"system":"http://terminology.hl7.org/CodeSystem/observation-category","code":"exam","display":"exam","userSelected":true}]}],"code":{"coding":[{"system":"http://loinc.org","code":"11884-4"}]},"subject":{"reference":"Patient/30990946-5aea-4270-afef-182cc05f05f3"},"effectiveDateTime":"2026-06-08T08:00:00.000+00:00","performer":[{"reference":"Organization/example1","display":"Hendricks Country Hospital"}],"valueQuantity":{"value":43,"system":"http://unitsofmeasure.org","code":"wk"}},"request":{"method":"PUT","url":"Observation/7920230c-d0bd-4c1a-87ab-ca71226f0827"}},{"fullUrl":"https://madie.cms.gov/Observation/2b5f3310-5c8e-4fb2-8f95-d68b13f6c456","resource":{"resourceType":"Observation","id":"2b5f3310-5c8e-4fb2-8f95-d68b13f6c456","meta":{"profile":["http://hl7.org/fhir/us/qicore/StructureDefinition/qicore-simple-observation"]},"status":"final","category":[{"coding":[{"system":"http://terminology.hl7.org/CodeSystem/observation-category","code":"exam","display":"exam","userSelected":true}]}],"code":{"coding":[{"system":"http://loinc.org","code":"93857-1"}]},"subject":{"reference":"Patient/30990946-5aea-4270-afef-182cc05f05f3"},"effectiveDateTime":"2026-06-08T20:00:00.000+00:00","performer":[{"reference":"Organization/example1","display":"Hendricks Country Hospital"}],"valueDateTime":"2026-06-08T20:00:00.000+00:00"},"request":{"method":"PUT","url":"Observation/2b5f3310-5c8e-4fb2-8f95-d68b13f6c456"}},{"fullUrl":"https://madie.cms.gov/Encounter/ecd47d24-368d-4289-96fa-58fe5a9a6982","resource":{"resourceType":"Encounter","id":"ecd47d24-368d-4289-96fa-58fe5a9a6982","meta":{"profile":["http://hl7.org/fhir/us/qicore/StructureDefinition/qicore-encounter"]},"status":"finished","class":{"system":"http://terminology.hl7.org/CodeSystem/v3-ActCode","code":"IMP","display":"inpatient encounter"},"type":[{"coding":[{"system":"http://snomed.info/sct","code":"8715000"}]}],"subject":{"reference":"Patient/30990946-5aea-4270-afef-182cc05f05f3"},"period":{"start":"2026-06-08T08:00:00.000+00:00","end":"2026-06-10T08:15:00.000+00:00"},"reasonCode":[{"coding":[{"system":"http://snomed.info/sct","code":"169826009","display":"Single live birth from singleton pregnancy (finding)"}]}],"reasonReference":[{"reference":"Condition/42f7a188-90ac-45f8-a0eb-415a51fc5d85"}]},"request":{"method":"PUT","url":"Encounter/ecd47d24-368d-4289-96fa-58fe5a9a6982"}},{"fullUrl":"https://madie.cms.gov/Procedure/e3325677-1939-4e50-9ee5-8b422066213e","resource":{"resourceType":"Procedure","id":"e3325677-1939-4e50-9ee5-8b422066213e","meta":{"profile":["http://hl7.org/fhir/us/qicore/StructureDefinition/qicore-procedure"]},"extension":[{"url":"http://hl7.org/fhir/us/qicore/StructureDefinition/qicore-recorded","valueDateTime":"2014-04-05T13:35:00.000+00:00"}],"status":"completed","code":{"coding":[{"system":"http://snomed.info/sct","code":"4504004"}]},"subject":{"reference":"Patient/30990946-5aea-4270-afef-182cc05f05f3"},"performedPeriod":{"start":"2026-06-08T20:00:00.000+00:00","end":"2026-06-18T20:00:00.000+00:00"}},"request":{"method":"PUT","url":"Procedure/e3325677-1939-4e50-9ee5-8b422066213e"}},{"fullUrl":"https://madie.cms.gov/Condition/f878cd65-2174-419f-9719-16d178f2a8e7","resource":{"resourceType":"Condition","id":"f878cd65-2174-419f-9719-16d178f2a8e7","meta":{"profile":["http://hl7.org/fhir/us/qicore/StructureDefinition/qicore-condition-encounter-diagnosis"]},"category":[{"coding":[{"system":"http://terminology.hl7.org/CodeSystem/condition-category","code":"encounter-diagnosis","display":"Encounter Diagnosis"}]}],"code":{"coding":[{"system":"http://snomed.info/sct","version":"2022-09","code":"169826009","display":"Single live birth (finding)","userSelected":true}]},"subject":{"reference":"Patient/30990946-5aea-4270-afef-182cc05f05f3"},"encounter":{"reference":"Encounter/ecd47d24-368d-4289-96fa-58fe5a9a6982"},"recordedDate":"2026-10-17T08:00:00.000+00:00"},"request":{"method":"PUT","url":"Condition/f878cd65-2174-419f-9719-16d178f2a8e7"}},{"fullUrl":"https://madie.cms.gov/Condition/42f7a188-90ac-45f8-a0eb-415a51fc5d85","resource":{"resourceType":"Condition","id":"42f7a188-90ac-45f8-a0eb-415a51fc5d85","meta":{"profile":["http://hl7.org/fhir/us/qicore/StructureDefinition/qicore-condition-problems-health-concerns"]},"category":[{"coding":[{"system":"http://terminology.hl7.org/CodeSystem/condition-category","code":"encounter-diagnosis","display":"Encounter Diagnosis"}]}],"code":{"coding":[{"system":"http://snomed.info/sct","version":"2022-09","code":"15663008","display":"Placenta previa centralis (disorder)","userSelected":true}]},"subject":{"reference":"Patient/30990946-5aea-4270-afef-182cc05f05f3"},"encounter":{"reference":"Encounter/ecd47d24-368d-4289-96fa-58fe5a9a6982"},"recordedDate":"2026-10-17T08:00:00.000+00:00"},"request":{"method":"PUT","url":"Condition/42f7a188-90ac-45f8-a0eb-415a51fc5d85"}},{"fullUrl":"https://madie.cms.gov/Coverage/ea8233a6-5464-43d8-a62f-1c5993596628","resource":{"resourceType":"Coverage","id":"ea8233a6-5464-43d8-a62f-1c5993596628","meta":{"profile":["http://hl7.org/fhir/us/qicore/StructureDefinition/qicore-coverage"]},"status":"active","subscriberId":"523435","beneficiary":{"reference":"Patient/30990946-5aea-4270-afef-182cc05f05f3"},"relationship":{"coding":[{"system":"http://terminology.hl7.org/CodeSystem/subscriber-relationship","code":"self"}]},"payor":[{"reference":"Organization/71458228-5eae-4ae2-a5ab-f464fde0614c"}]},"request":{"method":"PUT","url":"Coverage/ea8233a6-5464-43d8-a62f-1c5993596628"}},{"fullUrl":"https://madie.cms.gov/Organization/71458228-5eae-4ae2-a5ab-f464fde0614c","resource":{"resourceType":"Organization","id":"71458228-5eae-4ae2-a5ab-f464fde0614c","meta":{"profile":["http://hl7.org/fhir/us/qicore/StructureDefinition/qicore-organization"]},"identifier":[{"use":"temp","system":"urn:oid:2.16.840.1.113883.4.4","value":"21-3259825"}],"active":true,"type":[{"coding":[{"system":"http://terminology.hl7.org/CodeSystem/organization-type","code":"pay","display":"Payer"}]}],"name":"Blue Cross Blue Shield of Texas","telecom":[{"system":"phone","value":"(+1) 972-766-6900"}],"address":[{"use":"billing","type":"postal","line":["P.O. Box 660044"],"city":"Dallas","state":"TX","postalCode":"75266-0044","country":"USA"}]},"request":{"method":"PUT","url":"Organization/71458228-5eae-4ae2-a5ab-f464fde0614c"}},{"fullUrl":"https://madie.cms.gov/Practitioner/36261bdb-705f-4137-8739-d2186f8dfc83","resource":{"resourceType":"Practitioner","id":"36261bdb-705f-4137-8739-d2186f8dfc83","meta":{"profile":["http://hl7.org/fhir/us/qicore/StructureDefinition/qicore-practitioner"]},"identifier":[{"system":"http://hl7.org/fhir/sid/us-npi","value":"1234567890"}],"name":[{"family":"Evil","prefix":["Dr"]}]},"request":{"method":"PUT","url":"Practitioner/36261bdb-705f-4137-8739-d2186f8dfc83"}},{"fullUrl":"https://madie.cms.gov/MeasureReport/d9d914bd-32eb-46c4-b1b9-1c08d15b479b","resource":{"resourceType":"MeasureReport","id":"d9d914bd-32eb-46c4-b1b9-1c08d15b479b","meta":{"profile":["http://hl7.org/fhir/us/cqfmeasures/StructureDefinition/test-case-cqfm"]},"contained":[{"resourceType":"Parameters","id":"89c74250-ce65-4f25-9ca4-59cd12e0a0ab-parameters","parameter":[{"name":"subject","valueString":"30990946-5aea-4270-afef-182cc05f05f3"}]}],"extension":[{"url":"http://hl7.org/fhir/StructureDefinition/cqf-inputParameters","valueReference":{"reference":"#89c74250-ce65-4f25-9ca4-59cd12e0a0ab-parameters"}},{"url":"http://hl7.org/fhir/us/cqfmeasures/StructureDefinition/cqfm-testCaseDescription","valueMarkdown":"EGA 43 weeks; Placenta previa on encounter Attr dx, gravida 1, \n"}],"modifierExtension":[{"url":"http://hl7.org/fhir/us/cqfmeasures/StructureDefinition/cqfm-isTestCase","valueBoolean":true}],"status":"complete","type":"individual","measure":"https://madie.cms.gov/Measure/CMS0334FHIRPCCesareanBirth","period":{"start":"2026-01-01","end":"2026-12-31"},"group":[{"id":"Group_1","population":[{"id":"InitialPopulation_1","code":{"coding":[{"system":"http://terminology.hl7.org/CodeSystem/measure-population","code":"initial-population","display":"Initial Population"}]},"count":1},{"id":"Denominator_1","code":{"coding":[{"system":"http://terminology.hl7.org/CodeSystem/measure-population","code":"denominator","display":"Denominator"}]},"count":1},{"id":"DenominatorExclusion_1","code":{"coding":[{"system":"http://terminology.hl7.org/CodeSystem/measure-population","code":"denominator-exclusion","display":"Denominator Exclusion"}]},"count":1},{"id":"Numerator_1","code":{"coding":[{"system":"http://terminology.hl7.org/CodeSystem/measure-population","code":"numerator","display":"Numerator"}]},"count":0}],"measureScore":{"value":0.0}}],"evaluatedResource":[{"reference":"Patient/30990946-5aea-4270-afef-182cc05f05f3"},{"reference":"Observation/c56a3f4d-456b-4420-8a4f-a65c6b122b1f"},{"reference":"Observation/7920230c-d0bd-4c1a-87ab-ca71226f0827"},{"reference":"Observation/2b5f3310-5c8e-4fb2-8f95-d68b13f6c456"},{"reference":"Encounter/ecd47d24-368d-4289-96fa-58fe5a9a6982"},{"reference":"Procedure/e3325677-1939-4e50-9ee5-8b422066213e"},{"reference":"Condition/f878cd65-2174-419f-9719-16d178f2a8e7"},{"reference":"Condition/42f7a188-90ac-45f8-a0eb-415a51fc5d85"},{"reference":"Coverage/ea8233a6-5464-43d8-a62f-1c5993596628"},{"reference":"Organization/71458228-5eae-4ae2-a5ab-f464fde0614c"},{"reference":"Practitioner/36261bdb-705f-4137-8739-d2186f8dfc83"}]},"request":{"method":"PUT","url":"MeasureReport/d9d914bd-32eb-46c4-b1b9-1c08d15b479b"}}]},"request":{"method":"PUT","url":"Bundle/63487c2e0968f8012254018b"}},{"resource":{"resourceType":"Observation","id":"2b5f3310-5c8e-4fb2-8f95-d68b13f6c456","meta":{"profile":["http://hl7.org/fhir/us/qicore/StructureDefinition/qicore-simple-observation"]},"status":"final","category":[{"coding":[{"system":"http://terminology.hl7.org/CodeSystem/observation-category","code":"exam","display":"exam","userSelected":true}]}],"code":{"coding":[{"system":"http://loinc.org","code":"93857-1"}]},"subject":{"reference":"Patient/30990946-5aea-4270-afef-182cc05f05f3"},"effectiveDateTime":"2026-06-08T20:00:00.000+00:00","performer":[{"reference":"Organization/example1","display":"Hendricks Country Hospital"}],"valueDateTime":"2026-06-08T20:00:00.000+00:00"},"request":{"method":"PUT","url":"Observation/2b5f3310-5c8e-4fb2-8f95-d68b13f6c456"}},{"resource":{"resourceType":"Organization","id":"71458228-5eae-4ae2-a5ab-f464fde0614c","meta":{"profile":["http://hl7.org/fhir/us/qicore/StructureDefinition/qicore-organization"]},"identifier":[{"use":"temp","system":"urn:oid:2.16.840.1.113883.4.4","value":"21-3259825"}],"active":true,"type":[{"coding":[{"system":"http://terminology.hl7.org/CodeSystem/organization-type","code":"pay","display":"Payer"}]}],"name":"Blue Cross Blue Shield of Texas","telecom":[{"system":"phone","value":"(+1) 972-766-6900"}],"address":[{"use":"billing","type":"postal","line":["P.O. Box 660044"],"city":"Dallas","state":"TX","postalCode":"75266-0044","country":"USA"}]},"request":{"method":"PUT","url":"Organization/71458228-5eae-4ae2-a5ab-f464fde0614c"}},{"resource":{"resourceType":"Coverage","id":"ea8233a6-5464-43d8-a62f-1c5993596628","meta":{"profile":["http://hl7.org/fhir/us/qicore/StructureDefinition/qicore-coverage"]},"status":"active","subscriberId":"523435","beneficiary":{"reference":"Patient/30990946-5aea-4270-afef-182cc05f05f3"},"relationship":{"coding":[{"system":"http://terminology.hl7.org/CodeSystem/subscriber-relationship","code":"self"}]},"payor":[{"reference":"Organization/71458228-5eae-4ae2-a5ab-f464fde0614c"}]},"request":{"method":"PUT","url":"Coverage/ea8233a6-5464-43d8-a62f-1c5993596628"}},{"resource":{"resourceType":"Observation","id":"7920230c-d0bd-4c1a-87ab-ca71226f0827","meta":{"profile":["http://hl7.org/fhir/us/qicore/StructureDefinition/qicore-simple-observation"]},"status":"final","category":[{"coding":[{"system":"http://terminology.hl7.org/CodeSystem/observation-category","code":"exam","display":"exam","userSelected":true}]}],"code":{"coding":[{"system":"http://loinc.org","code":"11884-4"}]},"subject":{"reference":"Patient/30990946-5aea-4270-afef-182cc05f05f3"},"effectiveDateTime":"2026-06-08T08:00:00.000+00:00","performer":[{"reference":"Organization/example1","display":"Hendricks Country Hospital"}],"valueQuantity":{"value":43,"system":"http://unitsofmeasure.org","code":"wk"}},"request":{"method":"PUT","url":"Observation/7920230c-d0bd-4c1a-87ab-ca71226f0827"}},{"resource":{"resourceType":"Condition","id":"42f7a188-90ac-45f8-a0eb-415a51fc5d85","meta":{"profile":["http://hl7.org/fhir/us/qicore/StructureDefinition/qicore-condition-problems-health-concerns"]},"category":[{"coding":[{"system":"http://terminology.hl7.org/CodeSystem/condition-category","code":"encounter-diagnosis","display":"Encounter Diagnosis"}]}],"code":{"coding":[{"system":"http://snomed.info/sct","version":"2022-09","code":"15663008","display":"Placenta previa centralis (disorder)","userSelected":true}]},"subject":{"reference":"Patient/30990946-5aea-4270-afef-182cc05f05f3"},"encounter":{"reference":"Encounter/ecd47d24-368d-4289-96fa-58fe5a9a6982"},"recordedDate":"2026-10-17T08:00:00.000+00:00"},"request":{"method":"PUT","url":"Condition/42f7a188-90ac-45f8-a0eb-415a51fc5d85"}},{"resource":{"resourceType":"Patient","id":"30990946-5aea-4270-afef-182cc05f05f3","meta":{"profile":["http://hl7.org/fhir/us/qicore/StructureDefinition/qicore-patient"]},"text":{"status":"generated","div":"<div xmlns=\"http://www.w3.org/1999/xhtml\"><div class=\"hapiHeaderText\">EncDxPlacentaPrevia<b>DENEXPASS</b></div><table class=\"hapiPropertyTable\"><tbody><tr><td>Identifier</td><td>26ae2095ae359d33c45002ef417f38a5e4f6a61da3ea75d0332f68a4cb93137e</td></tr><tr><td>Date of birth</td><td><span>14 February 1985</span></td></tr></tbody></table></div>"},"extension":[{"url":"http://hl7.org/fhir/us/core/StructureDefinition/us-core-race","extension":[{"url":"ombCategory","valueCoding":{"system":"urn:oid:2.16.840.1.113883.6.238","code":"1002-5","display":"American Indian or Alaska Native","userSelected":true}},{"url":"text","valueString":"American Indian or Alaska Native"}]},{"url":"http://hl7.org/fhir/us/core/StructureDefinition/us-core-ethnicity","extension":[{"url":"ombCategory","valueCoding":{"system":"urn:oid:2.16.840.1.113883.6.238","code":"2135-2","display":"Hispanic or Latino","userSelected":true}},{"url":"text","valueString":"Hispanic or Latino"}]}],"identifier":[{"type":{"coding":[{"system":"http://terminology.hl7.org/CodeSystem/v2-0203","code":"MR"}]},"system":"https://bonnie-fhir.healthit.gov/","value":"63487c2e0968f8012254018b"}],"active":true,"name":[{"use":"usual","family":"DENEXPass","given":["EncDxPlacentaPrevia"]}],"gender":"female","birthDate":"1998-02-14"},"request":{"method":"PUT","url":"Patient/30990946-5aea-4270-afef-182cc05f05f3"}},{"resource":{"resourceType":"Procedure","id":"e3325677-1939-4e50-9ee5-8b422066213e","meta":{"profile":["http://hl7.org/fhir/us/qicore/StructureDefinition/qicore-procedure"]},"extension":[{"url":"http://hl7.org/fhir/us/qicore/StructureDefinition/qicore-recorded","valueDateTime":"2014-04-05T13:35:00.000+00:00"}],"status":"completed","code":{"coding":[{"system":"http://snomed.info/sct","code":"4504004"}]},"subject":{"reference":"Patient/30990946-5aea-4270-afef-182cc05f05f3"},"performedPeriod":{"start":"2026-06-08T20:00:00.000+00:00","end":"2026-06-18T20:00:00.000+00:00"}},"request":{"method":"PUT","url":"Procedure/e3325677-1939-4e50-9ee5-8b422066213e"}},{"resource":{"resourceType":"Condition","id":"f878cd65-2174-419f-9719-16d178f2a8e7","meta":{"profile":["http://hl7.org/fhir/us/qicore/StructureDefinition/qicore-condition-encounter-diagnosis"]},"category":[{"coding":[{"system":"http://terminology.hl7.org/CodeSystem/condition-category","code":"encounter-diagnosis","display":"Encounter Diagnosis"}]}],"code":{"coding":[{"system":"http://snomed.info/sct","version":"2022-09","code":"169826009","display":"Single live birth (finding)","userSelected":true}]},"subject":{"reference":"Patient/30990946-5aea-4270-afef-182cc05f05f3"},"encounter":{"reference":"Encounter/ecd47d24-368d-4289-96fa-58fe5a9a6982"},"recordedDate":"2026-10-17T08:00:00.000+00:00"},"request":{"method":"PUT","url":"Condition/f878cd65-2174-419f-9719-16d178f2a8e7"}},{"resource":{"resourceType":"Observation","id":"c56a3f4d-456b-4420-8a4f-a65c6b122b1f","meta":{"profile":["http://hl7.org/fhir/us/qicore/StructureDefinition/qicore-simple-observation"]},"status":"final","category":[{"coding":[{"system":"http://terminology.hl7.org/CodeSystem/observation-category","code":"exam","display":"exam","userSelected":true}]}],"code":{"coding":[{"system":"http://loinc.org","code":"11996-6"}]},"subject":{"reference":"Patient/30990946-5aea-4270-afef-182cc05f05f3"},"effectiveDateTime":"2026-06-08T08:00:00.000+00:00","performer":[{"reference":"Organization/example1","display":"Hendricks Country Hospital"}],"valueInteger":1},"request":{"method":"PUT","url":"Observation/c56a3f4d-456b-4420-8a4f-a65c6b122b1f"}}]}