{"resourceType":"Bundle","id":"tests-8f2a5cf4-2468-47cd-8efb-cbb1b95f78fe-bundle","type":"transaction","entry":[{"fullUrl":"Patient/8f2a5cf4-2468-47cd-8efb-cbb1b95f78fe","resource":{"resourceType":"Patient","id":"8f2a5cf4-2468-47cd-8efb-cbb1b95f78fe","meta":{"profile":["http://hl7.org/fhir/us/qicore/StructureDefinition/qicore-patient"]},"text":{"status":"generated","div":"<div xmlns=\"http://www.w3.org/1999/xhtml\"><div class=\"hapiHeaderText\">ProcDelivStart1MinAftEncInpEnds<b>IPOPFail</b></div><table class=\"hapiPropertyTable\"><tbody><tr><td>Identifier</td><td>d130de5f4e42b38bd935fc8ebcd660c0e5f442917fd322d307794dfacd0563d2</td></tr><tr><td>Date of birth</td><td><span>14 February 2004</span></td></tr></tbody></table></div>"},"extension":[{"url":"http://hl7.org/fhir/us/core/StructureDefinition/us-core-race","extension":[{"url":"ombCategory","valueCoding":{"system":"urn:oid:2.16.840.1.113883.6.238","code":"1002-5","display":"American Indian or Alaska Native","userSelected":true}},{"url":"text","valueString":"American Indian or Alaska Native"}]},{"url":"http://hl7.org/fhir/us/core/StructureDefinition/us-core-ethnicity","extension":[{"url":"ombCategory","valueCoding":{"system":"urn:oid:2.16.840.1.113883.6.238","code":"2135-2","display":"Hispanic or Latino","userSelected":true}},{"url":"text","valueString":"Hispanic or Latino"}]}],"identifier":[{"type":{"coding":[{"system":"http://terminology.hl7.org/CodeSystem/v2-0203","code":"MR"}]},"system":"https://bonnie-fhir.healthit.gov/","value":"63487c2d0968f80122540149"}],"active":true,"name":[{"use":"usual","family":"IPOPFail","given":["ProcDelivStart1MinAftEncInpEnds"]}],"gender":"female","birthDate":"2017-02-14"},"request":{"method":"PUT","url":"Patient/8f2a5cf4-2468-47cd-8efb-cbb1b95f78fe"}},{"fullUrl":"Coverage/f9eb9b21-0546-42af-81c4-889bddb04566","resource":{"resourceType":"Coverage","id":"f9eb9b21-0546-42af-81c4-889bddb04566","meta":{"profile":["http://hl7.org/fhir/us/qicore/StructureDefinition/qicore-coverage"]},"status":"active","type":{"coding":[{"system":"http://www.nlm.nih.gov/research/umls/sop","version":"9.2","code":"1","display":"MEDICARE","userSelected":true}]},"subscriberId":"523435","beneficiary":{"reference":"Patient/8f2a5cf4-2468-47cd-8efb-cbb1b95f78fe"},"relationship":{"coding":[{"system":"http://terminology.hl7.org/CodeSystem/subscriber-relationship","code":"self"}]},"period":{"start":"2026-11-28T08:00:00.000+00:00","end":"2026-11-30T08:15:00.000+00:00"},"payor":[{"reference":"Organization/b6f11e73-7cf5-409a-8ac7-80133af6e3e6"}]},"request":{"method":"PUT","url":"Coverage/f9eb9b21-0546-42af-81c4-889bddb04566"}},{"fullUrl":"MeasureReport/a26e748c-b88d-442f-9da2-5ec265675da8","resource":{"resourceType":"MeasureReport","id":"a26e748c-b88d-442f-9da2-5ec265675da8","meta":{"profile":["http://hl7.org/fhir/us/cqfmeasures/StructureDefinition/test-case-cqfm"]},"contained":[{"resourceType":"Parameters","id":"6fe23f09-fdb7-4fed-af5f-1048efa89cb5-parameters","parameter":[{"name":"subject","valueString":"8f2a5cf4-2468-47cd-8efb-cbb1b95f78fe"}]}],"extension":[{"url":"http://hl7.org/fhir/StructureDefinition/cqf-inputParameters","valueReference":{"reference":"#6fe23f09-fdb7-4fed-af5f-1048efa89cb5-parameters"}},{"url":"http://hl7.org/fhir/us/cqfmeasures/StructureDefinition/cqfm-testCaseDescription","valueMarkdown":"Fails IP since Proc Deliv Start 1 minute after Inpt Enc Ends, not during encounter."}],"modifierExtension":[{"url":"http://hl7.org/fhir/us/cqfmeasures/StructureDefinition/cqfm-isTestCase","valueBoolean":true}],"status":"complete","type":"individual","measure":"https://madie.cms.gov/Measure/CMS0334FHIRPCCesareanBirth","period":{"start":"2026-01-01","end":"2026-12-31"},"group":[{"id":"Group_1","population":[{"id":"InitialPopulation_1","code":{"coding":[{"system":"http://terminology.hl7.org/CodeSystem/measure-population","code":"initial-population","display":"Initial Population"}]},"count":0},{"id":"Denominator_1","code":{"coding":[{"system":"http://terminology.hl7.org/CodeSystem/measure-population","code":"denominator","display":"Denominator"}]},"count":0},{"id":"DenominatorExclusion_1","code":{"coding":[{"system":"http://terminology.hl7.org/CodeSystem/measure-population","code":"denominator-exclusion","display":"Denominator Exclusion"}]},"count":0},{"id":"Numerator_1","code":{"coding":[{"system":"http://terminology.hl7.org/CodeSystem/measure-population","code":"numerator","display":"Numerator"}]},"count":0}],"measureScore":{"value":0.0}}],"evaluatedResource":[{"reference":"Patient/8f2a5cf4-2468-47cd-8efb-cbb1b95f78fe"},{"reference":"Encounter/09c2ec1e-420f-4be7-90ef-02ba89395e56"},{"reference":"Procedure/f117f0e9-150b-4de3-98e1-c9c39654c6c0"},{"reference":"Coverage/f9eb9b21-0546-42af-81c4-889bddb04566"},{"reference":"Organization/b6f11e73-7cf5-409a-8ac7-80133af6e3e6"},{"reference":"Practitioner/1fb49788-c701-4fb5-86ee-f5b7635f6c93"}]},"request":{"method":"PUT","url":"MeasureReport/a26e748c-b88d-442f-9da2-5ec265675da8"}},{"fullUrl":"Encounter/09c2ec1e-420f-4be7-90ef-02ba89395e56","resource":{"resourceType":"Encounter","id":"09c2ec1e-420f-4be7-90ef-02ba89395e56","meta":{"profile":["http://hl7.org/fhir/us/qicore/StructureDefinition/qicore-encounter"]},"status":"finished","class":{"system":"http://terminology.hl7.org/CodeSystem/v3-ActCode","code":"IMP","display":"inpatient encounter"},"type":[{"coding":[{"system":"http://snomed.info/sct","code":"8715000"}]}],"subject":{"reference":"Patient/8f2a5cf4-2468-47cd-8efb-cbb1b95f78fe"},"period":{"start":"2026-11-28T08:00:00.000+00:00","end":"2026-11-30T08:15:00.000+00:00"},"diagnosis":[{"condition":{"reference":"Condition/Condition-2"},"use":{"coding":[{"system":"http://snomed.info/sct","code":"169826009","display":"Single live birth from singleton pregnancy (finding)"}]}}]},"request":{"method":"PUT","url":"Encounter/09c2ec1e-420f-4be7-90ef-02ba89395e56"}},{"fullUrl":"Bundle/63487c2d0968f80122540149","resource":{"resourceType":"Bundle","id":"63487c2d0968f80122540149","type":"transaction","entry":[{"fullUrl":"https://madie.cms.gov/Patient/8f2a5cf4-2468-47cd-8efb-cbb1b95f78fe","resource":{"resourceType":"Patient","id":"8f2a5cf4-2468-47cd-8efb-cbb1b95f78fe","meta":{"profile":["http://hl7.org/fhir/us/qicore/StructureDefinition/qicore-patient"]},"text":{"status":"generated","div":"<div xmlns=\"http://www.w3.org/1999/xhtml\"><div class=\"hapiHeaderText\">ProcDelivStart1MinAftEncInpEnds<b>IPOPFail</b></div><table class=\"hapiPropertyTable\"><tbody><tr><td>Identifier</td><td>d130de5f4e42b38bd935fc8ebcd660c0e5f442917fd322d307794dfacd0563d2</td></tr><tr><td>Date of birth</td><td><span>14 February 2004</span></td></tr></tbody></table></div>"},"extension":[{"url":"http://hl7.org/fhir/us/core/StructureDefinition/us-core-race","extension":[{"url":"ombCategory","valueCoding":{"system":"urn:oid:2.16.840.1.113883.6.238","code":"1002-5","display":"American Indian or Alaska Native","userSelected":true}},{"url":"text","valueString":"American Indian or Alaska Native"}]},{"url":"http://hl7.org/fhir/us/core/StructureDefinition/us-core-ethnicity","extension":[{"url":"ombCategory","valueCoding":{"system":"urn:oid:2.16.840.1.113883.6.238","code":"2135-2","display":"Hispanic or Latino","userSelected":true}},{"url":"text","valueString":"Hispanic or Latino"}]}],"identifier":[{"type":{"coding":[{"system":"http://terminology.hl7.org/CodeSystem/v2-0203","code":"MR"}]},"system":"https://bonnie-fhir.healthit.gov/","value":"63487c2d0968f80122540149"}],"active":true,"name":[{"use":"usual","family":"IPOPFail","given":["ProcDelivStart1MinAftEncInpEnds"]}],"gender":"female","birthDate":"2017-02-14"},"request":{"method":"PUT","url":"Patient/8f2a5cf4-2468-47cd-8efb-cbb1b95f78fe"}},{"fullUrl":"https://madie.cms.gov/Encounter/09c2ec1e-420f-4be7-90ef-02ba89395e56","resource":{"resourceType":"Encounter","id":"09c2ec1e-420f-4be7-90ef-02ba89395e56","meta":{"profile":["http://hl7.org/fhir/us/qicore/StructureDefinition/qicore-encounter"]},"status":"finished","class":{"system":"http://terminology.hl7.org/CodeSystem/v3-ActCode","code":"IMP","display":"inpatient encounter"},"type":[{"coding":[{"system":"http://snomed.info/sct","code":"8715000"}]}],"subject":{"reference":"Patient/8f2a5cf4-2468-47cd-8efb-cbb1b95f78fe"},"period":{"start":"2026-11-28T08:00:00.000+00:00","end":"2026-11-30T08:15:00.000+00:00"},"diagnosis":[{"condition":{"reference":"Condition/Condition-2"},"use":{"coding":[{"system":"http://snomed.info/sct","code":"169826009","display":"Single live birth from singleton pregnancy (finding)"}]}}]},"request":{"method":"PUT","url":"Encounter/09c2ec1e-420f-4be7-90ef-02ba89395e56"}},{"fullUrl":"https://madie.cms.gov/Procedure/f117f0e9-150b-4de3-98e1-c9c39654c6c0","resource":{"resourceType":"Procedure","id":"f117f0e9-150b-4de3-98e1-c9c39654c6c0","meta":{"profile":["http://hl7.org/fhir/us/qicore/StructureDefinition/qicore-procedure"]},"extension":[{"url":"http://hl7.org/fhir/us/qicore/StructureDefinition/qicore-recorded","valueDateTime":"2014-04-05T13:35:00.000+00:00"}],"status":"completed","code":{"coding":[{"system":"http://snomed.info/sct","version":"2022-09","code":"10745001","display":"Delivery of transverse presentation (procedure)","userSelected":true}]},"subject":{"reference":"Patient/8f2a5cf4-2468-47cd-8efb-cbb1b95f78fe"},"performedDateTime":"2026-11-30T08:16:00.000+00:00"},"request":{"method":"PUT","url":"Procedure/f117f0e9-150b-4de3-98e1-c9c39654c6c0"}},{"fullUrl":"https://madie.cms.gov/Coverage/f9eb9b21-0546-42af-81c4-889bddb04566","resource":{"resourceType":"Coverage","id":"f9eb9b21-0546-42af-81c4-889bddb04566","meta":{"profile":["http://hl7.org/fhir/us/qicore/StructureDefinition/qicore-coverage"]},"status":"active","type":{"coding":[{"system":"http://www.nlm.nih.gov/research/umls/sop","version":"9.2","code":"1","display":"MEDICARE","userSelected":true}]},"subscriberId":"523435","beneficiary":{"reference":"Patient/8f2a5cf4-2468-47cd-8efb-cbb1b95f78fe"},"relationship":{"coding":[{"system":"http://terminology.hl7.org/CodeSystem/subscriber-relationship","code":"self"}]},"period":{"start":"2026-11-28T08:00:00.000+00:00","end":"2026-11-30T08:15:00.000+00:00"},"payor":[{"reference":"Organization/b6f11e73-7cf5-409a-8ac7-80133af6e3e6"}]},"request":{"method":"PUT","url":"Coverage/f9eb9b21-0546-42af-81c4-889bddb04566"}},{"fullUrl":"https://madie.cms.gov/Organization/b6f11e73-7cf5-409a-8ac7-80133af6e3e6","resource":{"resourceType":"Organization","id":"b6f11e73-7cf5-409a-8ac7-80133af6e3e6","meta":{"profile":["http://hl7.org/fhir/us/qicore/StructureDefinition/qicore-organization"]},"identifier":[{"use":"temp","system":"urn:oid:2.16.840.1.113883.4.4","value":"21-3259825"}],"active":true,"type":[{"coding":[{"system":"http://terminology.hl7.org/CodeSystem/organization-type","code":"pay","display":"Payer"}]}],"name":"Blue Cross Blue Shield of Texas","telecom":[{"system":"phone","value":"(+1) 972-766-6900"}],"address":[{"use":"billing","type":"postal","line":["P.O. Box 660044"],"city":"Dallas","state":"TX","postalCode":"75266-0044","country":"USA"}]},"request":{"method":"PUT","url":"Organization/b6f11e73-7cf5-409a-8ac7-80133af6e3e6"}},{"fullUrl":"https://madie.cms.gov/Practitioner/1fb49788-c701-4fb5-86ee-f5b7635f6c93","resource":{"resourceType":"Practitioner","id":"1fb49788-c701-4fb5-86ee-f5b7635f6c93","meta":{"profile":["http://hl7.org/fhir/us/qicore/StructureDefinition/qicore-practitioner"]},"identifier":[{"system":"http://hl7.org/fhir/sid/us-npi","value":"1234567890"}],"name":[{"family":"Evil","prefix":["Dr"]}]},"request":{"method":"PUT","url":"Practitioner/1fb49788-c701-4fb5-86ee-f5b7635f6c93"}},{"fullUrl":"https://madie.cms.gov/MeasureReport/a26e748c-b88d-442f-9da2-5ec265675da8","resource":{"resourceType":"MeasureReport","id":"a26e748c-b88d-442f-9da2-5ec265675da8","meta":{"profile":["http://hl7.org/fhir/us/cqfmeasures/StructureDefinition/test-case-cqfm"]},"contained":[{"resourceType":"Parameters","id":"6fe23f09-fdb7-4fed-af5f-1048efa89cb5-parameters","parameter":[{"name":"subject","valueString":"8f2a5cf4-2468-47cd-8efb-cbb1b95f78fe"}]}],"extension":[{"url":"http://hl7.org/fhir/StructureDefinition/cqf-inputParameters","valueReference":{"reference":"#6fe23f09-fdb7-4fed-af5f-1048efa89cb5-parameters"}},{"url":"http://hl7.org/fhir/us/cqfmeasures/StructureDefinition/cqfm-testCaseDescription","valueMarkdown":"Fails IP since Proc Deliv Start 1 minute after Inpt Enc Ends, not during encounter."}],"modifierExtension":[{"url":"http://hl7.org/fhir/us/cqfmeasures/StructureDefinition/cqfm-isTestCase","valueBoolean":true}],"status":"complete","type":"individual","measure":"https://madie.cms.gov/Measure/CMS0334FHIRPCCesareanBirth","period":{"start":"2026-01-01","end":"2026-12-31"},"group":[{"id":"Group_1","population":[{"id":"InitialPopulation_1","code":{"coding":[{"system":"http://terminology.hl7.org/CodeSystem/measure-population","code":"initial-population","display":"Initial Population"}]},"count":0},{"id":"Denominator_1","code":{"coding":[{"system":"http://terminology.hl7.org/CodeSystem/measure-population","code":"denominator","display":"Denominator"}]},"count":0},{"id":"DenominatorExclusion_1","code":{"coding":[{"system":"http://terminology.hl7.org/CodeSystem/measure-population","code":"denominator-exclusion","display":"Denominator Exclusion"}]},"count":0},{"id":"Numerator_1","code":{"coding":[{"system":"http://terminology.hl7.org/CodeSystem/measure-population","code":"numerator","display":"Numerator"}]},"count":0}],"measureScore":{"value":0.0}}],"evaluatedResource":[{"reference":"Patient/8f2a5cf4-2468-47cd-8efb-cbb1b95f78fe"},{"reference":"Encounter/09c2ec1e-420f-4be7-90ef-02ba89395e56"},{"reference":"Procedure/f117f0e9-150b-4de3-98e1-c9c39654c6c0"},{"reference":"Coverage/f9eb9b21-0546-42af-81c4-889bddb04566"},{"reference":"Organization/b6f11e73-7cf5-409a-8ac7-80133af6e3e6"},{"reference":"Practitioner/1fb49788-c701-4fb5-86ee-f5b7635f6c93"}]},"request":{"method":"PUT","url":"MeasureReport/a26e748c-b88d-442f-9da2-5ec265675da8"}}]},"request":{"method":"PUT","url":"Bundle/63487c2d0968f80122540149"}},{"fullUrl":"Organization/b6f11e73-7cf5-409a-8ac7-80133af6e3e6","resource":{"resourceType":"Organization","id":"b6f11e73-7cf5-409a-8ac7-80133af6e3e6","meta":{"profile":["http://hl7.org/fhir/us/qicore/StructureDefinition/qicore-organization"]},"identifier":[{"use":"temp","system":"urn:oid:2.16.840.1.113883.4.4","value":"21-3259825"}],"active":true,"type":[{"coding":[{"system":"http://terminology.hl7.org/CodeSystem/organization-type","code":"pay","display":"Payer"}]}],"name":"Blue Cross Blue Shield of Texas","telecom":[{"system":"phone","value":"(+1) 972-766-6900"}],"address":[{"use":"billing","type":"postal","line":["P.O. Box 660044"],"city":"Dallas","state":"TX","postalCode":"75266-0044","country":"USA"}]},"request":{"method":"PUT","url":"Organization/b6f11e73-7cf5-409a-8ac7-80133af6e3e6"}},{"fullUrl":"Procedure/f117f0e9-150b-4de3-98e1-c9c39654c6c0","resource":{"resourceType":"Procedure","id":"f117f0e9-150b-4de3-98e1-c9c39654c6c0","meta":{"profile":["http://hl7.org/fhir/us/qicore/StructureDefinition/qicore-procedure"]},"extension":[{"url":"http://hl7.org/fhir/us/qicore/StructureDefinition/qicore-recorded","valueDateTime":"2014-04-05T13:35:00.000+00:00"}],"status":"completed","code":{"coding":[{"system":"http://snomed.info/sct","version":"2022-09","code":"10745001","display":"Delivery of transverse presentation (procedure)","userSelected":true}]},"subject":{"reference":"Patient/8f2a5cf4-2468-47cd-8efb-cbb1b95f78fe"},"performedDateTime":"2026-11-30T08:16:00.000+00:00"},"request":{"method":"PUT","url":"Procedure/f117f0e9-150b-4de3-98e1-c9c39654c6c0"}},{"fullUrl":"Practitioner/1fb49788-c701-4fb5-86ee-f5b7635f6c93","resource":{"resourceType":"Practitioner","id":"1fb49788-c701-4fb5-86ee-f5b7635f6c93","meta":{"profile":["http://hl7.org/fhir/us/qicore/StructureDefinition/qicore-practitioner"]},"identifier":[{"system":"http://hl7.org/fhir/sid/us-npi","value":"1234567890"}],"name":[{"family":"Evil","prefix":["Dr"]}]},"request":{"method":"PUT","url":"Practitioner/1fb49788-c701-4fb5-86ee-f5b7635f6c93"}}]}