{"resourceType":"Bundle","id":"tests-73da474b-7013-4d51-8ef8-25c42c3fc686-bundle","type":"transaction","entry":[{"resource":{"resourceType":"Bundle","id":"63487c2e0968f80122540176","type":"transaction","entry":[{"fullUrl":"https://madie.cms.gov/Patient/73da474b-7013-4d51-8ef8-25c42c3fc686","resource":{"resourceType":"Patient","id":"73da474b-7013-4d51-8ef8-25c42c3fc686","meta":{"profile":["http://hl7.org/fhir/us/qicore/StructureDefinition/qicore-patient"]},"text":{"status":"generated","div":"<div xmlns=\"http://www.w3.org/1999/xhtml\"><div class=\"hapiHeaderText\">2EncWin42weeks<b>DENOMPass</b></div><table class=\"hapiPropertyTable\"><tbody><tr><td>Identifier</td><td>b8dbe157da4a58e4e68c2785ca3a1f558369f025fbb700c089d37aa7791ee57b</td></tr><tr><td>Date of birth</td><td><span>14 February 1985</span></td></tr></tbody></table></div>"},"extension":[{"url":"http://hl7.org/fhir/us/core/StructureDefinition/us-core-race","extension":[{"url":"ombCategory","valueCoding":{"system":"urn:oid:2.16.840.1.113883.6.238","code":"1002-5","display":"American Indian or Alaska Native","userSelected":true}},{"url":"text","valueString":"American Indian or Alaska Native"}]},{"url":"http://hl7.org/fhir/us/core/StructureDefinition/us-core-ethnicity","extension":[{"url":"ombCategory","valueCoding":{"system":"urn:oid:2.16.840.1.113883.6.238","code":"2135-2","display":"Hispanic or Latino","userSelected":true}},{"url":"text","valueString":"Hispanic or Latino"}]}],"identifier":[{"type":{"coding":[{"system":"http://terminology.hl7.org/CodeSystem/v2-0203","code":"MR"}]},"system":"https://bonnie-fhir.healthit.gov/","value":"63487c2e0968f80122540176"}],"active":true,"name":[{"use":"usual","family":"DENOMPass","given":["2EncWin42weeks"]}],"gender":"female","birthDate":"1998-02-14"},"request":{"method":"PUT","url":"Patient/73da474b-7013-4d51-8ef8-25c42c3fc686"}},{"fullUrl":"https://madie.cms.gov/Observation/93c29ee3-b554-4a87-80d0-c5a528b398f6","resource":{"resourceType":"Observation","id":"93c29ee3-b554-4a87-80d0-c5a528b398f6","meta":{"profile":["http://hl7.org/fhir/us/qicore/StructureDefinition/qicore-simple-observation"]},"status":"final","category":[{"coding":[{"system":"http://terminology.hl7.org/CodeSystem/observation-category","code":"exam","display":"exam","userSelected":true}]}],"code":{"coding":[{"system":"http://loinc.org","code":"11996-6"}]},"subject":{"reference":"Patient/73da474b-7013-4d51-8ef8-25c42c3fc686"},"effectiveDateTime":"2026-01-31T08:00:00.000+00:00","valueInteger":1},"request":{"method":"PUT","url":"Observation/93c29ee3-b554-4a87-80d0-c5a528b398f6"}},{"fullUrl":"https://madie.cms.gov/Observation/5facca1d-ba39-4423-bb9d-e89ff37fa0ed","resource":{"resourceType":"Observation","id":"5facca1d-ba39-4423-bb9d-e89ff37fa0ed","meta":{"profile":["http://hl7.org/fhir/us/qicore/StructureDefinition/qicore-simple-observation"]},"status":"final","category":[{"coding":[{"system":"http://terminology.hl7.org/CodeSystem/observation-category","code":"exam","display":"exam","userSelected":true}]}],"code":{"coding":[{"system":"http://loinc.org","code":"11996-6"}]},"subject":{"reference":"Patient/73da474b-7013-4d51-8ef8-25c42c3fc686"},"effectiveDateTime":"2026-11-09T08:00:00.000+00:00","valueInteger":1},"request":{"method":"PUT","url":"Observation/5facca1d-ba39-4423-bb9d-e89ff37fa0ed"}},{"fullUrl":"https://madie.cms.gov/Observation/fc75b945-f0f0-4e3a-927c-dda0329359b4","resource":{"resourceType":"Observation","id":"fc75b945-f0f0-4e3a-927c-dda0329359b4","meta":{"profile":["http://hl7.org/fhir/us/qicore/StructureDefinition/qicore-simple-observation"]},"status":"final","category":[{"coding":[{"system":"http://terminology.hl7.org/CodeSystem/observation-category","code":"exam","display":"exam","userSelected":true}]}],"code":{"coding":[{"system":"http://loinc.org","code":"11884-4"}]},"subject":{"reference":"Patient/73da474b-7013-4d51-8ef8-25c42c3fc686"},"effectiveDateTime":"2026-02-01T09:15:00.000+00:00","valueQuantity":{"value":38,"system":"http://unitsofmeasure.org","code":"wk"}},"request":{"method":"PUT","url":"Observation/fc75b945-f0f0-4e3a-927c-dda0329359b4"}},{"fullUrl":"https://madie.cms.gov/Observation/34bf4113-3aac-4e00-8dd0-53e604c720b0","resource":{"resourceType":"Observation","id":"34bf4113-3aac-4e00-8dd0-53e604c720b0","meta":{"profile":["http://hl7.org/fhir/us/qicore/StructureDefinition/qicore-simple-observation"]},"status":"final","category":[{"coding":[{"system":"http://terminology.hl7.org/CodeSystem/observation-category","code":"exam","display":"exam","userSelected":true}]}],"code":{"coding":[{"system":"http://loinc.org","code":"11884-4"}]},"subject":{"reference":"Patient/73da474b-7013-4d51-8ef8-25c42c3fc686"},"effectiveDateTime":"2026-11-10T08:00:00.000+00:00","valueQuantity":{"value":38,"system":"http://unitsofmeasure.org","code":"wk"}},"request":{"method":"PUT","url":"Observation/34bf4113-3aac-4e00-8dd0-53e604c720b0"}},{"fullUrl":"https://madie.cms.gov/Observation/7f720227-8bc6-4145-bae0-ebc90ae598c4","resource":{"resourceType":"Observation","id":"7f720227-8bc6-4145-bae0-ebc90ae598c4","meta":{"profile":["http://hl7.org/fhir/us/qicore/StructureDefinition/qicore-simple-observation"]},"status":"final","category":[{"coding":[{"system":"http://terminology.hl7.org/CodeSystem/observation-category","code":"exam","display":"exam","userSelected":true}]}],"code":{"coding":[{"system":"http://loinc.org","code":"93857-1"}]},"subject":{"reference":"Patient/73da474b-7013-4d51-8ef8-25c42c3fc686"},"effectiveDateTime":"2026-02-01T19:00:00.000+00:00","valueDateTime":"2026-02-01T19:00:00.000+00:00"},"request":{"method":"PUT","url":"Observation/7f720227-8bc6-4145-bae0-ebc90ae598c4"}},{"fullUrl":"https://madie.cms.gov/Observation/1713d771-f152-42d1-886d-1806d1b7b0c7","resource":{"resourceType":"Observation","id":"1713d771-f152-42d1-886d-1806d1b7b0c7","meta":{"profile":["http://hl7.org/fhir/us/qicore/StructureDefinition/qicore-simple-observation"]},"status":"final","category":[{"coding":[{"system":"http://terminology.hl7.org/CodeSystem/observation-category","code":"exam","display":"exam","userSelected":true}]}],"code":{"coding":[{"system":"http://loinc.org","code":"93857-1"}]},"subject":{"reference":"Patient/73da474b-7013-4d51-8ef8-25c42c3fc686"},"effectiveDateTime":"2026-11-10T08:00:00.000+00:00","valueDateTime":"2026-11-10T08:00:00.000+00:00"},"request":{"method":"PUT","url":"Observation/1713d771-f152-42d1-886d-1806d1b7b0c7"}},{"fullUrl":"https://madie.cms.gov/Encounter/fb839d80-792d-4396-91b9-de28cf617a7a","resource":{"resourceType":"Encounter","id":"fb839d80-792d-4396-91b9-de28cf617a7a","meta":{"profile":["http://hl7.org/fhir/us/qicore/StructureDefinition/qicore-encounter"]},"status":"finished","class":{"system":"http://terminology.hl7.org/CodeSystem/v3-ActCode","code":"IMP","display":"inpatient encounter"},"type":[{"coding":[{"system":"http://snomed.info/sct","code":"8715000"}]}],"subject":{"reference":"Patient/73da474b-7013-4d51-8ef8-25c42c3fc686"},"period":{"start":"2026-02-01T08:00:00.000+00:00","end":"2026-02-05T08:15:00.000+00:00"},"length":{"value":4,"unit":"days"},"reasonCode":[{"coding":[{"system":"http://snomed.info/sct","code":"169826009","display":"Single live birth from singleton pregnancy (finding)"}]}]},"request":{"method":"PUT","url":"Encounter/fb839d80-792d-4396-91b9-de28cf617a7a"}},{"fullUrl":"https://madie.cms.gov/Encounter/ea29620c-3c17-4b52-ac32-6551fd1ae141","resource":{"resourceType":"Encounter","id":"ea29620c-3c17-4b52-ac32-6551fd1ae141","meta":{"profile":["http://hl7.org/fhir/us/qicore/StructureDefinition/qicore-encounter"]},"status":"finished","class":{"system":"http://terminology.hl7.org/CodeSystem/v3-ActCode","code":"IMP","display":"inpatient encounter"},"type":[{"coding":[{"system":"http://snomed.info/sct","code":"8715000"}]}],"subject":{"reference":"Patient/73da474b-7013-4d51-8ef8-25c42c3fc686"},"period":{"start":"2026-11-10T08:00:00.000+00:00","end":"2026-11-15T08:15:00.000+00:00"},"length":{"value":4,"unit":"days"},"reasonCode":[{"coding":[{"system":"http://snomed.info/sct","code":"169826009","display":"Single live birth from singleton pregnancy (finding)"}]}]},"request":{"method":"PUT","url":"Encounter/ea29620c-3c17-4b52-ac32-6551fd1ae141"}},{"fullUrl":"https://madie.cms.gov/Procedure/f25b2658-6144-4275-8cbf-90f1ce07c8b4","resource":{"resourceType":"Procedure","id":"f25b2658-6144-4275-8cbf-90f1ce07c8b4","meta":{"profile":["http://hl7.org/fhir/us/qicore/StructureDefinition/qicore-procedure"]},"extension":[{"url":"http://hl7.org/fhir/us/qicore/StructureDefinition/qicore-recorded","valueDateTime":"2014-04-05T13:35:00.000+00:00"}],"status":"completed","code":{"coding":[{"system":"http://snomed.info/sct","code":"177143000"}]},"subject":{"reference":"Patient/73da474b-7013-4d51-8ef8-25c42c3fc686"},"performedPeriod":{"start":"2026-02-01T08:00:00.000+00:00","end":"2026-02-01T08:00:00.000+00:00"}},"request":{"method":"PUT","url":"Procedure/f25b2658-6144-4275-8cbf-90f1ce07c8b4"}},{"fullUrl":"https://madie.cms.gov/Procedure/cefbda5b-32be-4c3e-a69c-8e5808360412","resource":{"resourceType":"Procedure","id":"cefbda5b-32be-4c3e-a69c-8e5808360412","meta":{"profile":["http://hl7.org/fhir/us/qicore/StructureDefinition/qicore-procedure"]},"extension":[{"url":"http://hl7.org/fhir/us/qicore/StructureDefinition/qicore-recorded","valueDateTime":"2014-04-05T13:35:00.000+00:00"}],"status":"completed","code":{"coding":[{"system":"http://www.cms.gov/Medicare/Coding/ICD10","code":"10D00Z0"}]},"subject":{"reference":"Patient/73da474b-7013-4d51-8ef8-25c42c3fc686"},"performedPeriod":{"start":"2026-11-10T08:00:00.000+00:00","end":"2026-11-15T08:15:00.000+00:00"}},"request":{"method":"PUT","url":"Procedure/cefbda5b-32be-4c3e-a69c-8e5808360412"}},{"fullUrl":"https://madie.cms.gov/Condition/7907ea43-c133-4d87-8355-b68952c900f9","resource":{"resourceType":"Condition","id":"7907ea43-c133-4d87-8355-b68952c900f9","meta":{"profile":["http://hl7.org/fhir/us/qicore/StructureDefinition/qicore-condition-problems-health-concerns"]},"category":[{"coding":[{"system":"http://terminology.hl7.org/CodeSystem/condition-category","code":"encounter-diagnosis","display":"Encounter Diagnosis"}]}],"code":{"coding":[{"system":"http://snomed.info/sct","version":"2022-09","code":"169826009","display":"Single live birth from singleton pregnancy (finding)","userSelected":true}]},"subject":{"reference":"Patient/73da474b-7013-4d51-8ef8-25c42c3fc686"},"recordedDate":"2026-10-21T08:00:00.000+00:00"},"request":{"method":"PUT","url":"Condition/7907ea43-c133-4d87-8355-b68952c900f9"}},{"fullUrl":"https://madie.cms.gov/Condition/d59b78c4-0c00-4861-9101-3bc38bdb4ca2","resource":{"resourceType":"Condition","id":"d59b78c4-0c00-4861-9101-3bc38bdb4ca2","meta":{"profile":["http://hl7.org/fhir/us/qicore/StructureDefinition/qicore-condition-problems-health-concerns"]},"category":[{"coding":[{"system":"http://terminology.hl7.org/CodeSystem/condition-category","code":"encounter-diagnosis","display":"Encounter Diagnosis"}]}],"code":{"coding":[{"system":"http://snomed.info/sct","version":"2022-09","code":"169826009","display":"Single live birth from singleton pregnancy (finding)","userSelected":true}]},"subject":{"reference":"Patient/73da474b-7013-4d51-8ef8-25c42c3fc686"},"recordedDate":"2026-10-21T08:00:00.000+00:00"},"request":{"method":"PUT","url":"Condition/d59b78c4-0c00-4861-9101-3bc38bdb4ca2"}},{"fullUrl":"https://madie.cms.gov/Coverage/39d51655-a2b7-4d10-afee-62e83deca6b9","resource":{"resourceType":"Coverage","id":"39d51655-a2b7-4d10-afee-62e83deca6b9","meta":{"profile":["http://hl7.org/fhir/us/qicore/StructureDefinition/qicore-coverage"]},"status":"active","subscriberId":"523435","beneficiary":{"reference":"Patient/73da474b-7013-4d51-8ef8-25c42c3fc686"},"relationship":{"coding":[{"system":"http://terminology.hl7.org/CodeSystem/subscriber-relationship","code":"self"}]},"payor":[{"reference":"Organization/78c749d6-41f7-4628-aa55-800fc5238c57"}]},"request":{"method":"PUT","url":"Coverage/39d51655-a2b7-4d10-afee-62e83deca6b9"}},{"fullUrl":"https://madie.cms.gov/Organization/78c749d6-41f7-4628-aa55-800fc5238c57","resource":{"resourceType":"Organization","id":"78c749d6-41f7-4628-aa55-800fc5238c57","meta":{"profile":["http://hl7.org/fhir/us/qicore/StructureDefinition/qicore-organization"]},"identifier":[{"use":"temp","system":"urn:oid:2.16.840.1.113883.4.4","value":"21-3259825"}],"active":true,"type":[{"coding":[{"system":"http://terminology.hl7.org/CodeSystem/organization-type","code":"pay","display":"Payer"}]}],"name":"Blue Cross Blue Shield of Texas","telecom":[{"system":"phone","value":"(+1) 972-766-6900"}],"address":[{"use":"billing","type":"postal","line":["P.O. Box 660044"],"city":"Dallas","state":"TX","postalCode":"75266-0044","country":"USA"}]},"request":{"method":"PUT","url":"Organization/78c749d6-41f7-4628-aa55-800fc5238c57"}},{"fullUrl":"https://madie.cms.gov/Condition/0ffb6cd4-f64b-4f04-a83c-3ed9ee86ce6e","resource":{"resourceType":"Condition","id":"0ffb6cd4-f64b-4f04-a83c-3ed9ee86ce6e","meta":{"profile":["http://hl7.org/fhir/us/qicore/StructureDefinition/qicore-condition"]},"category":[{"coding":[{"system":"http://terminology.hl7.org/CodeSystem/condition-category","code":"encounter-diagnosis","display":"Encounter Diagnosis"}]}],"code":{"coding":[{"system":"http://snomed.info/sct","code":"169826009","display":"Single live birth from singleton pregnancy (finding)"}]},"subject":{"reference":"Patient/73da474b-7013-4d51-8ef8-25c42c3fc686"}},"request":{"method":"PUT","url":"Condition/0ffb6cd4-f64b-4f04-a83c-3ed9ee86ce6e"}},{"fullUrl":"https://madie.cms.gov/Condition/ddbb6703-1023-4bfa-bea5-8cd81cc1761c","resource":{"resourceType":"Condition","id":"ddbb6703-1023-4bfa-bea5-8cd81cc1761c","meta":{"profile":["http://hl7.org/fhir/us/qicore/StructureDefinition/qicore-condition-problems-health-concerns"]},"category":[{"coding":[{"system":"http://terminology.hl7.org/CodeSystem/condition-category","code":"encounter-diagnosis","display":"Encounter Diagnosis"}]}],"code":{"coding":[{"system":"http://snomed.info/sct","code":"169826009","display":"ingle live birth from singleton pregnancy (finding)"}]},"subject":{"reference":"Patient/73da474b-7013-4d51-8ef8-25c42c3fc686"}},"request":{"method":"PUT","url":"Condition/ddbb6703-1023-4bfa-bea5-8cd81cc1761c"}},{"fullUrl":"https://madie.cms.gov/Practitioner/b98db9b5-41c7-4a2c-8b49-32d9043260bc","resource":{"resourceType":"Practitioner","id":"b98db9b5-41c7-4a2c-8b49-32d9043260bc","meta":{"profile":["http://hl7.org/fhir/us/qicore/StructureDefinition/qicore-practitioner"]},"identifier":[{"system":"http://hl7.org/fhir/sid/us-npi","value":"1234567890"}],"name":[{"family":"Evil","prefix":["Dr"]}]},"request":{"method":"PUT","url":"Practitioner/b98db9b5-41c7-4a2c-8b49-32d9043260bc"}},{"fullUrl":"https://madie.cms.gov/MeasureReport/f45020df-28f5-44d6-9bab-0cd63da7868b","resource":{"resourceType":"MeasureReport","id":"f45020df-28f5-44d6-9bab-0cd63da7868b","meta":{"profile":["http://hl7.org/fhir/us/cqfmeasures/StructureDefinition/test-case-cqfm"]},"contained":[{"resourceType":"Parameters","id":"2ddcdc67-c979-4b0a-acf8-a2bdf15e5741-parameters","parameter":[{"name":"subject","valueString":"73da474b-7013-4d51-8ef8-25c42c3fc686"}]}],"extension":[{"url":"http://hl7.org/fhir/StructureDefinition/cqf-inputParameters","valueReference":{"reference":"#2ddcdc67-c979-4b0a-acf8-a2bdf15e5741-parameters"}},{"url":"http://hl7.org/fhir/us/cqfmeasures/StructureDefinition/cqfm-testCaseDescription","valueMarkdown":"Pregnancy 1 delivery documented 2/1/2012, Gravida 1\nPregnancy 2  delivery documented 11/10/2012, Gravida 1 (note, unrealistic for pregnancy 2 to be Gravida 1 (again) but goal was to test if denominator would pass twice)"}],"modifierExtension":[{"url":"http://hl7.org/fhir/us/cqfmeasures/StructureDefinition/cqfm-isTestCase","valueBoolean":true}],"status":"complete","type":"individual","measure":"https://madie.cms.gov/Measure/CMS0334FHIRPCCesareanBirth","period":{"start":"2026-01-01","end":"2026-12-31"},"group":[{"id":"Group_1","population":[{"id":"InitialPopulation_1","code":{"coding":[{"system":"http://terminology.hl7.org/CodeSystem/measure-population","code":"initial-population","display":"Initial Population"}]},"count":2},{"id":"Denominator_1","code":{"coding":[{"system":"http://terminology.hl7.org/CodeSystem/measure-population","code":"denominator","display":"Denominator"}]},"count":2},{"id":"DenominatorExclusion_1","code":{"coding":[{"system":"http://terminology.hl7.org/CodeSystem/measure-population","code":"denominator-exclusion","display":"Denominator Exclusion"}]},"count":0},{"id":"Numerator_1","code":{"coding":[{"system":"http://terminology.hl7.org/CodeSystem/measure-population","code":"numerator","display":"Numerator"}]},"count":2}],"measureScore":{"value":0.0}}],"evaluatedResource":[{"reference":"Patient/73da474b-7013-4d51-8ef8-25c42c3fc686"},{"reference":"Observation/93c29ee3-b554-4a87-80d0-c5a528b398f6"},{"reference":"Observation/5facca1d-ba39-4423-bb9d-e89ff37fa0ed"},{"reference":"Observation/fc75b945-f0f0-4e3a-927c-dda0329359b4"},{"reference":"Observation/34bf4113-3aac-4e00-8dd0-53e604c720b0"},{"reference":"Observation/7f720227-8bc6-4145-bae0-ebc90ae598c4"},{"reference":"Observation/1713d771-f152-42d1-886d-1806d1b7b0c7"},{"reference":"Encounter/fb839d80-792d-4396-91b9-de28cf617a7a"},{"reference":"Encounter/ea29620c-3c17-4b52-ac32-6551fd1ae141"},{"reference":"Procedure/f25b2658-6144-4275-8cbf-90f1ce07c8b4"},{"reference":"Procedure/cefbda5b-32be-4c3e-a69c-8e5808360412"},{"reference":"Condition/7907ea43-c133-4d87-8355-b68952c900f9"},{"reference":"Condition/d59b78c4-0c00-4861-9101-3bc38bdb4ca2"},{"reference":"Coverage/39d51655-a2b7-4d10-afee-62e83deca6b9"},{"reference":"Organization/78c749d6-41f7-4628-aa55-800fc5238c57"},{"reference":"Condition/0ffb6cd4-f64b-4f04-a83c-3ed9ee86ce6e"},{"reference":"Condition/ddbb6703-1023-4bfa-bea5-8cd81cc1761c"},{"reference":"Practitioner/b98db9b5-41c7-4a2c-8b49-32d9043260bc"}]},"request":{"method":"PUT","url":"MeasureReport/f45020df-28f5-44d6-9bab-0cd63da7868b"}}]},"request":{"method":"PUT","url":"Bundle/63487c2e0968f80122540176"}},{"resource":{"resourceType":"Procedure","id":"f25b2658-6144-4275-8cbf-90f1ce07c8b4","meta":{"profile":["http://hl7.org/fhir/us/qicore/StructureDefinition/qicore-procedure"]},"extension":[{"url":"http://hl7.org/fhir/us/qicore/StructureDefinition/qicore-recorded","valueDateTime":"2014-04-05T13:35:00.000+00:00"}],"status":"completed","code":{"coding":[{"system":"http://snomed.info/sct","code":"177143000"}]},"subject":{"reference":"Patient/73da474b-7013-4d51-8ef8-25c42c3fc686"},"performedPeriod":{"start":"2026-02-01T08:00:00.000+00:00","end":"2026-02-01T08:00:00.000+00:00"}},"request":{"method":"PUT","url":"Procedure/f25b2658-6144-4275-8cbf-90f1ce07c8b4"}},{"resource":{"resourceType":"Observation","id":"fc75b945-f0f0-4e3a-927c-dda0329359b4","meta":{"profile":["http://hl7.org/fhir/us/qicore/StructureDefinition/qicore-simple-observation"]},"status":"final","category":[{"coding":[{"system":"http://terminology.hl7.org/CodeSystem/observation-category","code":"exam","display":"exam","userSelected":true}]}],"code":{"coding":[{"system":"http://loinc.org","code":"11884-4"}]},"subject":{"reference":"Patient/73da474b-7013-4d51-8ef8-25c42c3fc686"},"effectiveDateTime":"2026-02-01T09:15:00.000+00:00","valueQuantity":{"value":38,"system":"http://unitsofmeasure.org","code":"wk"}},"request":{"method":"PUT","url":"Observation/fc75b945-f0f0-4e3a-927c-dda0329359b4"}},{"resource":{"resourceType":"Coverage","id":"39d51655-a2b7-4d10-afee-62e83deca6b9","meta":{"profile":["http://hl7.org/fhir/us/qicore/StructureDefinition/qicore-coverage"]},"status":"active","subscriberId":"523435","beneficiary":{"reference":"Patient/73da474b-7013-4d51-8ef8-25c42c3fc686"},"relationship":{"coding":[{"system":"http://terminology.hl7.org/CodeSystem/subscriber-relationship","code":"self"}]},"payor":[{"reference":"Organization/78c749d6-41f7-4628-aa55-800fc5238c57"}]},"request":{"method":"PUT","url":"Coverage/39d51655-a2b7-4d10-afee-62e83deca6b9"}},{"resource":{"resourceType":"Observation","id":"34bf4113-3aac-4e00-8dd0-53e604c720b0","meta":{"profile":["http://hl7.org/fhir/us/qicore/StructureDefinition/qicore-simple-observation"]},"status":"final","category":[{"coding":[{"system":"http://terminology.hl7.org/CodeSystem/observation-category","code":"exam","display":"exam","userSelected":true}]}],"code":{"coding":[{"system":"http://loinc.org","code":"11884-4"}]},"subject":{"reference":"Patient/73da474b-7013-4d51-8ef8-25c42c3fc686"},"effectiveDateTime":"2026-11-10T08:00:00.000+00:00","valueQuantity":{"value":38,"system":"http://unitsofmeasure.org","code":"wk"}},"request":{"method":"PUT","url":"Observation/34bf4113-3aac-4e00-8dd0-53e604c720b0"}},{"resource":{"resourceType":"Encounter","id":"fb839d80-792d-4396-91b9-de28cf617a7a","meta":{"profile":["http://hl7.org/fhir/us/qicore/StructureDefinition/qicore-encounter"]},"status":"finished","class":{"system":"http://terminology.hl7.org/CodeSystem/v3-ActCode","code":"IMP","display":"inpatient encounter"},"type":[{"coding":[{"system":"http://snomed.info/sct","code":"8715000"}]}],"subject":{"reference":"Patient/73da474b-7013-4d51-8ef8-25c42c3fc686"},"period":{"start":"2026-02-01T08:00:00.000+00:00","end":"2026-02-05T08:15:00.000+00:00"},"length":{"value":4,"unit":"days"},"reasonCode":[{"coding":[{"system":"http://snomed.info/sct","code":"169826009","display":"Single live birth from singleton pregnancy (finding)"}]}]},"request":{"method":"PUT","url":"Encounter/fb839d80-792d-4396-91b9-de28cf617a7a"}},{"resource":{"resourceType":"Observation","id":"5facca1d-ba39-4423-bb9d-e89ff37fa0ed","meta":{"profile":["http://hl7.org/fhir/us/qicore/StructureDefinition/qicore-simple-observation"]},"status":"final","category":[{"coding":[{"system":"http://terminology.hl7.org/CodeSystem/observation-category","code":"exam","display":"exam","userSelected":true}]}],"code":{"coding":[{"system":"http://loinc.org","code":"11996-6"}]},"subject":{"reference":"Patient/73da474b-7013-4d51-8ef8-25c42c3fc686"},"effectiveDateTime":"2026-11-09T08:00:00.000+00:00","valueInteger":1},"request":{"method":"PUT","url":"Observation/5facca1d-ba39-4423-bb9d-e89ff37fa0ed"}},{"resource":{"resourceType":"Condition","id":"0ffb6cd4-f64b-4f04-a83c-3ed9ee86ce6e","meta":{"profile":["http://hl7.org/fhir/us/qicore/StructureDefinition/qicore-condition"]},"category":[{"coding":[{"system":"http://terminology.hl7.org/CodeSystem/condition-category","code":"encounter-diagnosis","display":"Encounter Diagnosis"}]}],"code":{"coding":[{"system":"http://snomed.info/sct","code":"169826009","display":"Single live birth from singleton pregnancy (finding)"}]},"subject":{"reference":"Patient/73da474b-7013-4d51-8ef8-25c42c3fc686"}},"request":{"method":"PUT","url":"Condition/0ffb6cd4-f64b-4f04-a83c-3ed9ee86ce6e"}},{"resource":{"resourceType":"Observation","id":"7f720227-8bc6-4145-bae0-ebc90ae598c4","meta":{"profile":["http://hl7.org/fhir/us/qicore/StructureDefinition/qicore-simple-observation"]},"status":"final","category":[{"coding":[{"system":"http://terminology.hl7.org/CodeSystem/observation-category","code":"exam","display":"exam","userSelected":true}]}],"code":{"coding":[{"system":"http://loinc.org","code":"93857-1"}]},"subject":{"reference":"Patient/73da474b-7013-4d51-8ef8-25c42c3fc686"},"effectiveDateTime":"2026-02-01T19:00:00.000+00:00","valueDateTime":"2026-02-01T19:00:00.000+00:00"},"request":{"method":"PUT","url":"Observation/7f720227-8bc6-4145-bae0-ebc90ae598c4"}},{"resource":{"resourceType":"Procedure","id":"cefbda5b-32be-4c3e-a69c-8e5808360412","meta":{"profile":["http://hl7.org/fhir/us/qicore/StructureDefinition/qicore-procedure"]},"extension":[{"url":"http://hl7.org/fhir/us/qicore/StructureDefinition/qicore-recorded","valueDateTime":"2014-04-05T13:35:00.000+00:00"}],"status":"completed","code":{"coding":[{"system":"http://www.cms.gov/Medicare/Coding/ICD10","code":"10D00Z0"}]},"subject":{"reference":"Patient/73da474b-7013-4d51-8ef8-25c42c3fc686"},"performedPeriod":{"start":"2026-11-10T08:00:00.000+00:00","end":"2026-11-15T08:15:00.000+00:00"}},"request":{"method":"PUT","url":"Procedure/cefbda5b-32be-4c3e-a69c-8e5808360412"}},{"resource":{"resourceType":"Patient","id":"73da474b-7013-4d51-8ef8-25c42c3fc686","meta":{"profile":["http://hl7.org/fhir/us/qicore/StructureDefinition/qicore-patient"]},"text":{"status":"generated","div":"<div xmlns=\"http://www.w3.org/1999/xhtml\"><div class=\"hapiHeaderText\">2EncWin42weeks<b>DENOMPass</b></div><table class=\"hapiPropertyTable\"><tbody><tr><td>Identifier</td><td>b8dbe157da4a58e4e68c2785ca3a1f558369f025fbb700c089d37aa7791ee57b</td></tr><tr><td>Date of birth</td><td><span>14 February 1985</span></td></tr></tbody></table></div>"},"extension":[{"url":"http://hl7.org/fhir/us/core/StructureDefinition/us-core-race","extension":[{"url":"ombCategory","valueCoding":{"system":"urn:oid:2.16.840.1.113883.6.238","code":"1002-5","display":"American Indian or Alaska Native","userSelected":true}},{"url":"text","valueString":"American Indian or Alaska Native"}]},{"url":"http://hl7.org/fhir/us/core/StructureDefinition/us-core-ethnicity","extension":[{"url":"ombCategory","valueCoding":{"system":"urn:oid:2.16.840.1.113883.6.238","code":"2135-2","display":"Hispanic or Latino","userSelected":true}},{"url":"text","valueString":"Hispanic or Latino"}]}],"identifier":[{"type":{"coding":[{"system":"http://terminology.hl7.org/CodeSystem/v2-0203","code":"MR"}]},"system":"https://bonnie-fhir.healthit.gov/","value":"63487c2e0968f80122540176"}],"active":true,"name":[{"use":"usual","family":"DENOMPass","given":["2EncWin42weeks"]}],"gender":"female","birthDate":"1998-02-14"},"request":{"method":"PUT","url":"Patient/73da474b-7013-4d51-8ef8-25c42c3fc686"}},{"resource":{"resourceType":"MeasureReport","id":"f45020df-28f5-44d6-9bab-0cd63da7868b","meta":{"profile":["http://hl7.org/fhir/us/cqfmeasures/StructureDefinition/test-case-cqfm"]},"contained":[{"resourceType":"Parameters","id":"2ddcdc67-c979-4b0a-acf8-a2bdf15e5741-parameters","parameter":[{"name":"subject","valueString":"73da474b-7013-4d51-8ef8-25c42c3fc686"}]}],"extension":[{"url":"http://hl7.org/fhir/StructureDefinition/cqf-inputParameters","valueReference":{"reference":"#2ddcdc67-c979-4b0a-acf8-a2bdf15e5741-parameters"}},{"url":"http://hl7.org/fhir/us/cqfmeasures/StructureDefinition/cqfm-testCaseDescription","valueMarkdown":"Pregnancy 1 delivery documented 2/1/2012, Gravida 1\nPregnancy 2  delivery documented 11/10/2012, Gravida 1 (note, unrealistic for pregnancy 2 to be Gravida 1 (again) but goal was to test if denominator would pass twice)"}],"modifierExtension":[{"url":"http://hl7.org/fhir/us/cqfmeasures/StructureDefinition/cqfm-isTestCase","valueBoolean":true}],"status":"complete","type":"individual","measure":"https://madie.cms.gov/Measure/CMS0334FHIRPCCesareanBirth","period":{"start":"2026-01-01","end":"2026-12-31"},"group":[{"id":"Group_1","population":[{"id":"InitialPopulation_1","code":{"coding":[{"system":"http://terminology.hl7.org/CodeSystem/measure-population","code":"initial-population","display":"Initial Population"}]},"count":2},{"id":"Denominator_1","code":{"coding":[{"system":"http://terminology.hl7.org/CodeSystem/measure-population","code":"denominator","display":"Denominator"}]},"count":2},{"id":"DenominatorExclusion_1","code":{"coding":[{"system":"http://terminology.hl7.org/CodeSystem/measure-population","code":"denominator-exclusion","display":"Denominator Exclusion"}]},"count":0},{"id":"Numerator_1","code":{"coding":[{"system":"http://terminology.hl7.org/CodeSystem/measure-population","code":"numerator","display":"Numerator"}]},"count":2}],"measureScore":{"value":0.0}}],"evaluatedResource":[{"reference":"Patient/73da474b-7013-4d51-8ef8-25c42c3fc686"},{"reference":"Observation/93c29ee3-b554-4a87-80d0-c5a528b398f6"},{"reference":"Observation/5facca1d-ba39-4423-bb9d-e89ff37fa0ed"},{"reference":"Observation/fc75b945-f0f0-4e3a-927c-dda0329359b4"},{"reference":"Observation/34bf4113-3aac-4e00-8dd0-53e604c720b0"},{"reference":"Observation/7f720227-8bc6-4145-bae0-ebc90ae598c4"},{"reference":"Observation/1713d771-f152-42d1-886d-1806d1b7b0c7"},{"reference":"Encounter/fb839d80-792d-4396-91b9-de28cf617a7a"},{"reference":"Encounter/ea29620c-3c17-4b52-ac32-6551fd1ae141"},{"reference":"Procedure/f25b2658-6144-4275-8cbf-90f1ce07c8b4"},{"reference":"Procedure/cefbda5b-32be-4c3e-a69c-8e5808360412"},{"reference":"Condition/7907ea43-c133-4d87-8355-b68952c900f9"},{"reference":"Condition/d59b78c4-0c00-4861-9101-3bc38bdb4ca2"},{"reference":"Coverage/39d51655-a2b7-4d10-afee-62e83deca6b9"},{"reference":"Organization/78c749d6-41f7-4628-aa55-800fc5238c57"},{"reference":"Condition/0ffb6cd4-f64b-4f04-a83c-3ed9ee86ce6e"},{"reference":"Condition/ddbb6703-1023-4bfa-bea5-8cd81cc1761c"},{"reference":"Practitioner/b98db9b5-41c7-4a2c-8b49-32d9043260bc"}]},"request":{"method":"PUT","url":"MeasureReport/f45020df-28f5-44d6-9bab-0cd63da7868b"}},{"resource":{"resourceType":"Condition","id":"d59b78c4-0c00-4861-9101-3bc38bdb4ca2","meta":{"profile":["http://hl7.org/fhir/us/qicore/StructureDefinition/qicore-condition-problems-health-concerns"]},"category":[{"coding":[{"system":"http://terminology.hl7.org/CodeSystem/condition-category","code":"encounter-diagnosis","display":"Encounter Diagnosis"}]}],"code":{"coding":[{"system":"http://snomed.info/sct","version":"2022-09","code":"169826009","display":"Single live birth from singleton pregnancy (finding)","userSelected":true}]},"subject":{"reference":"Patient/73da474b-7013-4d51-8ef8-25c42c3fc686"},"recordedDate":"2026-10-21T08:00:00.000+00:00"},"request":{"method":"PUT","url":"Condition/d59b78c4-0c00-4861-9101-3bc38bdb4ca2"}},{"resource":{"resourceType":"Organization","id":"78c749d6-41f7-4628-aa55-800fc5238c57","meta":{"profile":["http://hl7.org/fhir/us/qicore/StructureDefinition/qicore-organization"]},"identifier":[{"use":"temp","system":"urn:oid:2.16.840.1.113883.4.4","value":"21-3259825"}],"active":true,"type":[{"coding":[{"system":"http://terminology.hl7.org/CodeSystem/organization-type","code":"pay","display":"Payer"}]}],"name":"Blue Cross Blue Shield of Texas","telecom":[{"system":"phone","value":"(+1) 972-766-6900"}],"address":[{"use":"billing","type":"postal","line":["P.O. Box 660044"],"city":"Dallas","state":"TX","postalCode":"75266-0044","country":"USA"}]},"request":{"method":"PUT","url":"Organization/78c749d6-41f7-4628-aa55-800fc5238c57"}},{"resource":{"resourceType":"Condition","id":"ddbb6703-1023-4bfa-bea5-8cd81cc1761c","meta":{"profile":["http://hl7.org/fhir/us/qicore/StructureDefinition/qicore-condition-problems-health-concerns"]},"category":[{"coding":[{"system":"http://terminology.hl7.org/CodeSystem/condition-category","code":"encounter-diagnosis","display":"Encounter Diagnosis"}]}],"code":{"coding":[{"system":"http://snomed.info/sct","code":"169826009","display":"ingle live birth from singleton pregnancy (finding)"}]},"subject":{"reference":"Patient/73da474b-7013-4d51-8ef8-25c42c3fc686"}},"request":{"method":"PUT","url":"Condition/ddbb6703-1023-4bfa-bea5-8cd81cc1761c"}},{"resource":{"resourceType":"Encounter","id":"ea29620c-3c17-4b52-ac32-6551fd1ae141","meta":{"profile":["http://hl7.org/fhir/us/qicore/StructureDefinition/qicore-encounter"]},"status":"finished","class":{"system":"http://terminology.hl7.org/CodeSystem/v3-ActCode","code":"IMP","display":"inpatient encounter"},"type":[{"coding":[{"system":"http://snomed.info/sct","code":"8715000"}]}],"subject":{"reference":"Patient/73da474b-7013-4d51-8ef8-25c42c3fc686"},"period":{"start":"2026-11-10T08:00:00.000+00:00","end":"2026-11-15T08:15:00.000+00:00"},"length":{"value":4,"unit":"days"},"reasonCode":[{"coding":[{"system":"http://snomed.info/sct","code":"169826009","display":"Single live birth from singleton pregnancy (finding)"}]}]},"request":{"method":"PUT","url":"Encounter/ea29620c-3c17-4b52-ac32-6551fd1ae141"}},{"resource":{"resourceType":"Practitioner","id":"b98db9b5-41c7-4a2c-8b49-32d9043260bc","meta":{"profile":["http://hl7.org/fhir/us/qicore/StructureDefinition/qicore-practitioner"]},"identifier":[{"system":"http://hl7.org/fhir/sid/us-npi","value":"1234567890"}],"name":[{"family":"Evil","prefix":["Dr"]}]},"request":{"method":"PUT","url":"Practitioner/b98db9b5-41c7-4a2c-8b49-32d9043260bc"}},{"resource":{"resourceType":"Observation","id":"1713d771-f152-42d1-886d-1806d1b7b0c7","meta":{"profile":["http://hl7.org/fhir/us/qicore/StructureDefinition/qicore-simple-observation"]},"status":"final","category":[{"coding":[{"system":"http://terminology.hl7.org/CodeSystem/observation-category","code":"exam","display":"exam","userSelected":true}]}],"code":{"coding":[{"system":"http://loinc.org","code":"93857-1"}]},"subject":{"reference":"Patient/73da474b-7013-4d51-8ef8-25c42c3fc686"},"effectiveDateTime":"2026-11-10T08:00:00.000+00:00","valueDateTime":"2026-11-10T08:00:00.000+00:00"},"request":{"method":"PUT","url":"Observation/1713d771-f152-42d1-886d-1806d1b7b0c7"}},{"resource":{"resourceType":"Observation","id":"93c29ee3-b554-4a87-80d0-c5a528b398f6","meta":{"profile":["http://hl7.org/fhir/us/qicore/StructureDefinition/qicore-simple-observation"]},"status":"final","category":[{"coding":[{"system":"http://terminology.hl7.org/CodeSystem/observation-category","code":"exam","display":"exam","userSelected":true}]}],"code":{"coding":[{"system":"http://loinc.org","code":"11996-6"}]},"subject":{"reference":"Patient/73da474b-7013-4d51-8ef8-25c42c3fc686"},"effectiveDateTime":"2026-01-31T08:00:00.000+00:00","valueInteger":1},"request":{"method":"PUT","url":"Observation/93c29ee3-b554-4a87-80d0-c5a528b398f6"}},{"resource":{"resourceType":"Condition","id":"7907ea43-c133-4d87-8355-b68952c900f9","meta":{"profile":["http://hl7.org/fhir/us/qicore/StructureDefinition/qicore-condition-problems-health-concerns"]},"category":[{"coding":[{"system":"http://terminology.hl7.org/CodeSystem/condition-category","code":"encounter-diagnosis","display":"Encounter Diagnosis"}]}],"code":{"coding":[{"system":"http://snomed.info/sct","version":"2022-09","code":"169826009","display":"Single live birth from singleton pregnancy (finding)","userSelected":true}]},"subject":{"reference":"Patient/73da474b-7013-4d51-8ef8-25c42c3fc686"},"recordedDate":"2026-10-21T08:00:00.000+00:00"},"request":{"method":"PUT","url":"Condition/7907ea43-c133-4d87-8355-b68952c900f9"}}]}