{"resourceType":"Bundle","id":"tests-eca96880-3727-4f14-9439-269f16d9391e-bundle","type":"transaction","entry":[{"fullUrl":"Coverage/a86d6b8e-3cef-4dc9-b30c-94e4fecdd60c","resource":{"resourceType":"Coverage","id":"a86d6b8e-3cef-4dc9-b30c-94e4fecdd60c","meta":{"profile":["http://hl7.org/fhir/us/qicore/StructureDefinition/qicore-coverage"]},"status":"active","beneficiary":{"reference":"Patient/eca96880-3727-4f14-9439-269f16d9391e"},"payor":[{"reference":"Organization/36921da4-cded-42a0-ae28-fc214d2a54d4"}]},"request":{"method":"PUT","url":"Coverage/a86d6b8e-3cef-4dc9-b30c-94e4fecdd60c"}},{"fullUrl":"MeasureReport/a3a72b3d-8df6-4353-8d90-b7795a28036a","resource":{"resourceType":"MeasureReport","id":"a3a72b3d-8df6-4353-8d90-b7795a28036a","meta":{"profile":["http://hl7.org/fhir/us/cqfmeasures/StructureDefinition/test-case-cqfm"]},"contained":[{"resourceType":"Parameters","id":"53f15b6e-c292-4d6f-af64-5d3384b24cd7-parameters","parameter":[{"name":"subject","valueString":"eca96880-3727-4f14-9439-269f16d9391e"}]}],"extension":[{"url":"http://hl7.org/fhir/StructureDefinition/cqf-inputParameters","valueReference":{"reference":"#53f15b6e-c292-4d6f-af64-5d3384b24cd7-parameters"}},{"url":"http://hl7.org/fhir/us/cqfmeasures/StructureDefinition/cqfm-testCaseDescription","valueMarkdown":"Passes IP, DEN, NUM; Gravida 1(effective date 42 weeks)  and EGA 40 weeks; Cesarean Birth DateTime during Enc"}],"modifierExtension":[{"url":"http://hl7.org/fhir/us/cqfmeasures/StructureDefinition/cqfm-isTestCase","valueBoolean":true}],"status":"complete","type":"individual","measure":"https://madie.cms.gov/Measure/CMS0334FHIRPCCesareanBirth","period":{"start":"2026-01-01","end":"2026-12-31"},"group":[{"id":"Group_1","population":[{"id":"InitialPopulation_1","code":{"coding":[{"system":"http://terminology.hl7.org/CodeSystem/measure-population","code":"initial-population","display":"Initial Population"}]},"count":1},{"id":"Denominator_1","code":{"coding":[{"system":"http://terminology.hl7.org/CodeSystem/measure-population","code":"denominator","display":"Denominator"}]},"count":1},{"id":"DenominatorExclusion_1","code":{"coding":[{"system":"http://terminology.hl7.org/CodeSystem/measure-population","code":"denominator-exclusion","display":"Denominator Exclusion"}]},"count":0},{"id":"Numerator_1","code":{"coding":[{"system":"http://terminology.hl7.org/CodeSystem/measure-population","code":"numerator","display":"Numerator"}]},"count":1}],"measureScore":{"value":0.0}}],"evaluatedResource":[{"reference":"Patient/eca96880-3727-4f14-9439-269f16d9391e"},{"reference":"Observation/0b0865db-76d0-4c99-9ddd-e42f427a72b9"},{"reference":"Observation/e5eb55e5-533e-4efa-9857-22f79d5b438b"},{"reference":"Observation/b5ce3768-f88f-439b-bc33-af02e44347a6"},{"reference":"Encounter/c58178d5-e214-4181-9ba7-f55711813e32"},{"reference":"Procedure/3226d53d-fbbb-4378-84a3-7cebede0ab3d"},{"reference":"Condition/a0914038-faae-49a1-acec-b8fc572d46b0"},{"reference":"Coverage/a86d6b8e-3cef-4dc9-b30c-94e4fecdd60c"},{"reference":"Organization/36921da4-cded-42a0-ae28-fc214d2a54d4"},{"reference":"Practitioner/2bd17675-d2cf-424e-a525-e8a42434b94a"}]},"request":{"method":"PUT","url":"MeasureReport/a3a72b3d-8df6-4353-8d90-b7795a28036a"}},{"fullUrl":"Observation/e5eb55e5-533e-4efa-9857-22f79d5b438b","resource":{"resourceType":"Observation","id":"e5eb55e5-533e-4efa-9857-22f79d5b438b","meta":{"profile":["http://hl7.org/fhir/us/qicore/StructureDefinition/qicore-simple-observation"]},"status":"final","category":[{"coding":[{"system":"http://terminology.hl7.org/CodeSystem/observation-category","code":"exam","display":"exam","userSelected":true}]}],"code":{"coding":[{"system":"http://loinc.org","code":"11884-4"}]},"subject":{"reference":"Patient/eca96880-3727-4f14-9439-269f16d9391e"},"effectiveDateTime":"2026-11-28T21:15:00.000+00:00","valueQuantity":{"value":40,"system":"http://unitsofmeasure.org","code":"wk"}},"request":{"method":"PUT","url":"Observation/e5eb55e5-533e-4efa-9857-22f79d5b438b"}},{"fullUrl":"Procedure/3226d53d-fbbb-4378-84a3-7cebede0ab3d","resource":{"resourceType":"Procedure","id":"3226d53d-fbbb-4378-84a3-7cebede0ab3d","meta":{"profile":["http://hl7.org/fhir/us/qicore/StructureDefinition/qicore-procedure"]},"extension":[{"url":"http://hl7.org/fhir/us/qicore/StructureDefinition/qicore-recorded","valueDateTime":"2014-04-05T13:35:00.000+00:00"}],"status":"completed","code":{"coding":[{"system":"http://www.cms.gov/Medicare/Coding/ICD10","code":"10D00Z0"},{"system":"http://www.icd10data.com/icd10pcs","code":"10D00Z0","userSelected":true}]},"subject":{"reference":"Patient/eca96880-3727-4f14-9439-269f16d9391e"},"performedDateTime":"2026-11-28T09:00:00.000+00:00"},"request":{"method":"PUT","url":"Procedure/3226d53d-fbbb-4378-84a3-7cebede0ab3d"}},{"fullUrl":"Organization/36921da4-cded-42a0-ae28-fc214d2a54d4","resource":{"resourceType":"Organization","id":"36921da4-cded-42a0-ae28-fc214d2a54d4","meta":{"profile":["http://hl7.org/fhir/us/qicore/StructureDefinition/qicore-organization"]},"identifier":[{"use":"temp","system":"urn:oid:2.16.840.1.113883.4.4","value":"21-3259825"}],"active":true,"type":[{"coding":[{"system":"http://terminology.hl7.org/CodeSystem/organization-type","code":"pay","display":"Payer"}]}],"name":"Blue Cross Blue Shield of Texas","telecom":[{"system":"phone","value":"(+1) 972-766-6900"}],"address":[{"use":"billing","type":"postal","line":["P.O. Box 660044"],"city":"Dallas","state":"TX","postalCode":"75266-0044","country":"USA"}]},"request":{"method":"PUT","url":"Organization/36921da4-cded-42a0-ae28-fc214d2a54d4"}},{"fullUrl":"Condition/a0914038-faae-49a1-acec-b8fc572d46b0","resource":{"resourceType":"Condition","id":"a0914038-faae-49a1-acec-b8fc572d46b0","meta":{"profile":["http://hl7.org/fhir/us/qicore/StructureDefinition/qicore-condition-encounter-diagnosis"]},"category":[{"coding":[{"system":"http://terminology.hl7.org/CodeSystem/condition-category","code":"encounter-diagnosis","display":"Encounter Diagnosis"}]}],"code":{"coding":[{"system":"http://snomed.info/sct","version":"2022-09","code":"169826009","display":"Single live birth (finding)","userSelected":true}]},"subject":{"reference":"Patient/eca96880-3727-4f14-9439-269f16d9391e"},"encounter":{"reference":"Encounter/c58178d5-e214-4181-9ba7-f55711813e32"},"recordedDate":"2026-10-17T08:00:00.000+00:00"},"request":{"method":"PUT","url":"Condition/a0914038-faae-49a1-acec-b8fc572d46b0"}},{"fullUrl":"Bundle/63487c300968f801225401cf","resource":{"resourceType":"Bundle","id":"63487c300968f801225401cf","type":"transaction","entry":[{"fullUrl":"https://madie.cms.gov/Patient/eca96880-3727-4f14-9439-269f16d9391e","resource":{"resourceType":"Patient","id":"eca96880-3727-4f14-9439-269f16d9391e","meta":{"profile":["http://hl7.org/fhir/us/qicore/StructureDefinition/qicore-patient"]},"text":{"status":"generated","div":"<div xmlns=\"http://www.w3.org/1999/xhtml\"><div class=\"hapiHeaderText\">CesareanBirthRelvtDTDuringEnc <b>NUMPASS </b></div><table class=\"hapiPropertyTable\"><tbody><tr><td>Identifier</td><td>51bc91759da5bde99551dcfdd772aded6a0c8eacab7ec3cd70b3b8f217efaea9</td></tr><tr><td>Date of birth</td><td><span>14 February 1985</span></td></tr></tbody></table></div>"},"extension":[{"url":"http://hl7.org/fhir/us/core/StructureDefinition/us-core-race","extension":[{"url":"ombCategory","valueCoding":{"system":"urn:oid:2.16.840.1.113883.6.238","code":"1002-5","display":"American Indian or Alaska Native","userSelected":true}},{"url":"text","valueString":"American Indian or Alaska Native"}]},{"url":"http://hl7.org/fhir/us/core/StructureDefinition/us-core-ethnicity","extension":[{"url":"ombCategory","valueCoding":{"system":"urn:oid:2.16.840.1.113883.6.238","code":"2135-2","display":"Hispanic or Latino","userSelected":true}},{"url":"text","valueString":"Hispanic or Latino"}]}],"identifier":[{"type":{"coding":[{"system":"http://terminology.hl7.org/CodeSystem/v2-0203","code":"MR"}]},"system":"https://bonnie-fhir.healthit.gov/","value":"63487c300968f801225401cf"}],"active":true,"name":[{"use":"usual","family":"NUMPass","given":["CesareanBirthRelvtDTDuringEnc"]}],"gender":"female","birthDate":"1998-02-14"},"request":{"method":"PUT","url":"Patient/eca96880-3727-4f14-9439-269f16d9391e"}},{"fullUrl":"https://madie.cms.gov/Observation/0b0865db-76d0-4c99-9ddd-e42f427a72b9","resource":{"resourceType":"Observation","id":"0b0865db-76d0-4c99-9ddd-e42f427a72b9","meta":{"profile":["http://hl7.org/fhir/us/qicore/StructureDefinition/qicore-simple-observation"]},"status":"final","category":[{"coding":[{"system":"http://terminology.hl7.org/CodeSystem/observation-category","code":"exam","display":"exam","userSelected":true}]}],"code":{"coding":[{"system":"http://loinc.org","code":"11996-6"}]},"subject":{"reference":"Patient/eca96880-3727-4f14-9439-269f16d9391e"},"effectiveDateTime":"2026-02-09T08:00:00.000+00:00","valueInteger":1},"request":{"method":"PUT","url":"Observation/0b0865db-76d0-4c99-9ddd-e42f427a72b9"}},{"fullUrl":"https://madie.cms.gov/Observation/e5eb55e5-533e-4efa-9857-22f79d5b438b","resource":{"resourceType":"Observation","id":"e5eb55e5-533e-4efa-9857-22f79d5b438b","meta":{"profile":["http://hl7.org/fhir/us/qicore/StructureDefinition/qicore-simple-observation"]},"status":"final","category":[{"coding":[{"system":"http://terminology.hl7.org/CodeSystem/observation-category","code":"exam","display":"exam","userSelected":true}]}],"code":{"coding":[{"system":"http://loinc.org","code":"11884-4"}]},"subject":{"reference":"Patient/eca96880-3727-4f14-9439-269f16d9391e"},"effectiveDateTime":"2026-11-28T21:15:00.000+00:00","valueQuantity":{"value":40,"system":"http://unitsofmeasure.org","code":"wk"}},"request":{"method":"PUT","url":"Observation/e5eb55e5-533e-4efa-9857-22f79d5b438b"}},{"fullUrl":"https://madie.cms.gov/Observation/b5ce3768-f88f-439b-bc33-af02e44347a6","resource":{"resourceType":"Observation","id":"b5ce3768-f88f-439b-bc33-af02e44347a6","meta":{"profile":["http://hl7.org/fhir/us/qicore/StructureDefinition/qicore-simple-observation"]},"status":"final","category":[{"coding":[{"system":"http://terminology.hl7.org/CodeSystem/observation-category","code":"exam","display":"exam","userSelected":true}]}],"code":{"coding":[{"system":"http://loinc.org","code":"93857-1"}]},"subject":{"reference":"Patient/eca96880-3727-4f14-9439-269f16d9391e"},"effectiveDateTime":"2026-11-28T21:15:00.000+00:00","valueDateTime":"2026-11-28T21:15:00.000+00:00"},"request":{"method":"PUT","url":"Observation/b5ce3768-f88f-439b-bc33-af02e44347a6"}},{"fullUrl":"https://madie.cms.gov/Encounter/c58178d5-e214-4181-9ba7-f55711813e32","resource":{"resourceType":"Encounter","id":"c58178d5-e214-4181-9ba7-f55711813e32","meta":{"profile":["http://hl7.org/fhir/us/qicore/StructureDefinition/qicore-encounter"]},"status":"finished","class":{"system":"http://terminology.hl7.org/CodeSystem/v3-ActCode","code":"IMP","display":"inpatient encounter"},"type":[{"coding":[{"system":"http://snomed.info/sct","code":"8715000"}]}],"subject":{"reference":"Patient/eca96880-3727-4f14-9439-269f16d9391e"},"period":{"start":"2026-11-28T08:00:00.000+00:00","end":"2026-11-30T08:15:00.000+00:00"},"reasonReference":[{"reference":"Condition/a0914038-faae-49a1-acec-b8fc572d46b0"}]},"request":{"method":"PUT","url":"Encounter/c58178d5-e214-4181-9ba7-f55711813e32"}},{"fullUrl":"https://madie.cms.gov/Procedure/3226d53d-fbbb-4378-84a3-7cebede0ab3d","resource":{"resourceType":"Procedure","id":"3226d53d-fbbb-4378-84a3-7cebede0ab3d","meta":{"profile":["http://hl7.org/fhir/us/qicore/StructureDefinition/qicore-procedure"]},"extension":[{"url":"http://hl7.org/fhir/us/qicore/StructureDefinition/qicore-recorded","valueDateTime":"2014-04-05T13:35:00.000+00:00"}],"status":"completed","code":{"coding":[{"system":"http://www.cms.gov/Medicare/Coding/ICD10","code":"10D00Z0"},{"system":"http://www.icd10data.com/icd10pcs","code":"10D00Z0","userSelected":true}]},"subject":{"reference":"Patient/eca96880-3727-4f14-9439-269f16d9391e"},"performedDateTime":"2026-11-28T09:00:00.000+00:00"},"request":{"method":"PUT","url":"Procedure/3226d53d-fbbb-4378-84a3-7cebede0ab3d"}},{"fullUrl":"https://madie.cms.gov/Condition/a0914038-faae-49a1-acec-b8fc572d46b0","resource":{"resourceType":"Condition","id":"a0914038-faae-49a1-acec-b8fc572d46b0","meta":{"profile":["http://hl7.org/fhir/us/qicore/StructureDefinition/qicore-condition-encounter-diagnosis"]},"category":[{"coding":[{"system":"http://terminology.hl7.org/CodeSystem/condition-category","code":"encounter-diagnosis","display":"Encounter Diagnosis"}]}],"code":{"coding":[{"system":"http://snomed.info/sct","version":"2022-09","code":"169826009","display":"Single live birth (finding)","userSelected":true}]},"subject":{"reference":"Patient/eca96880-3727-4f14-9439-269f16d9391e"},"encounter":{"reference":"Encounter/c58178d5-e214-4181-9ba7-f55711813e32"},"recordedDate":"2026-10-17T08:00:00.000+00:00"},"request":{"method":"PUT","url":"Condition/a0914038-faae-49a1-acec-b8fc572d46b0"}},{"fullUrl":"https://madie.cms.gov/Coverage/a86d6b8e-3cef-4dc9-b30c-94e4fecdd60c","resource":{"resourceType":"Coverage","id":"a86d6b8e-3cef-4dc9-b30c-94e4fecdd60c","meta":{"profile":["http://hl7.org/fhir/us/qicore/StructureDefinition/qicore-coverage"]},"status":"active","beneficiary":{"reference":"Patient/eca96880-3727-4f14-9439-269f16d9391e"},"payor":[{"reference":"Organization/36921da4-cded-42a0-ae28-fc214d2a54d4"}]},"request":{"method":"PUT","url":"Coverage/a86d6b8e-3cef-4dc9-b30c-94e4fecdd60c"}},{"fullUrl":"https://madie.cms.gov/Organization/36921da4-cded-42a0-ae28-fc214d2a54d4","resource":{"resourceType":"Organization","id":"36921da4-cded-42a0-ae28-fc214d2a54d4","meta":{"profile":["http://hl7.org/fhir/us/qicore/StructureDefinition/qicore-organization"]},"identifier":[{"use":"temp","system":"urn:oid:2.16.840.1.113883.4.4","value":"21-3259825"}],"active":true,"type":[{"coding":[{"system":"http://terminology.hl7.org/CodeSystem/organization-type","code":"pay","display":"Payer"}]}],"name":"Blue Cross Blue Shield of Texas","telecom":[{"system":"phone","value":"(+1) 972-766-6900"}],"address":[{"use":"billing","type":"postal","line":["P.O. Box 660044"],"city":"Dallas","state":"TX","postalCode":"75266-0044","country":"USA"}]},"request":{"method":"PUT","url":"Organization/36921da4-cded-42a0-ae28-fc214d2a54d4"}},{"fullUrl":"https://madie.cms.gov/Practitioner/2bd17675-d2cf-424e-a525-e8a42434b94a","resource":{"resourceType":"Practitioner","id":"2bd17675-d2cf-424e-a525-e8a42434b94a","identifier":[{"system":"http://hl7.org/fhir/sid/us-npi","value":"123456"}],"name":[{"family":"Evil","prefix":["Dr"]}]},"request":{"method":"PUT","url":"Practitioner/2bd17675-d2cf-424e-a525-e8a42434b94a"}},{"fullUrl":"https://madie.cms.gov/MeasureReport/a3a72b3d-8df6-4353-8d90-b7795a28036a","resource":{"resourceType":"MeasureReport","id":"a3a72b3d-8df6-4353-8d90-b7795a28036a","meta":{"profile":["http://hl7.org/fhir/us/cqfmeasures/StructureDefinition/test-case-cqfm"]},"contained":[{"resourceType":"Parameters","id":"53f15b6e-c292-4d6f-af64-5d3384b24cd7-parameters","parameter":[{"name":"subject","valueString":"eca96880-3727-4f14-9439-269f16d9391e"}]}],"extension":[{"url":"http://hl7.org/fhir/StructureDefinition/cqf-inputParameters","valueReference":{"reference":"#53f15b6e-c292-4d6f-af64-5d3384b24cd7-parameters"}},{"url":"http://hl7.org/fhir/us/cqfmeasures/StructureDefinition/cqfm-testCaseDescription","valueMarkdown":"Passes IP, DEN, NUM; Gravida 1(effective date 42 weeks)  and EGA 40 weeks; Cesarean Birth DateTime during Enc"}],"modifierExtension":[{"url":"http://hl7.org/fhir/us/cqfmeasures/StructureDefinition/cqfm-isTestCase","valueBoolean":true}],"status":"complete","type":"individual","measure":"https://madie.cms.gov/Measure/CMS0334FHIRPCCesareanBirth","period":{"start":"2026-01-01","end":"2026-12-31"},"group":[{"id":"Group_1","population":[{"id":"InitialPopulation_1","code":{"coding":[{"system":"http://terminology.hl7.org/CodeSystem/measure-population","code":"initial-population","display":"Initial Population"}]},"count":1},{"id":"Denominator_1","code":{"coding":[{"system":"http://terminology.hl7.org/CodeSystem/measure-population","code":"denominator","display":"Denominator"}]},"count":1},{"id":"DenominatorExclusion_1","code":{"coding":[{"system":"http://terminology.hl7.org/CodeSystem/measure-population","code":"denominator-exclusion","display":"Denominator Exclusion"}]},"count":0},{"id":"Numerator_1","code":{"coding":[{"system":"http://terminology.hl7.org/CodeSystem/measure-population","code":"numerator","display":"Numerator"}]},"count":1}],"measureScore":{"value":0.0}}],"evaluatedResource":[{"reference":"Patient/eca96880-3727-4f14-9439-269f16d9391e"},{"reference":"Observation/0b0865db-76d0-4c99-9ddd-e42f427a72b9"},{"reference":"Observation/e5eb55e5-533e-4efa-9857-22f79d5b438b"},{"reference":"Observation/b5ce3768-f88f-439b-bc33-af02e44347a6"},{"reference":"Encounter/c58178d5-e214-4181-9ba7-f55711813e32"},{"reference":"Procedure/3226d53d-fbbb-4378-84a3-7cebede0ab3d"},{"reference":"Condition/a0914038-faae-49a1-acec-b8fc572d46b0"},{"reference":"Coverage/a86d6b8e-3cef-4dc9-b30c-94e4fecdd60c"},{"reference":"Organization/36921da4-cded-42a0-ae28-fc214d2a54d4"},{"reference":"Practitioner/2bd17675-d2cf-424e-a525-e8a42434b94a"}]},"request":{"method":"PUT","url":"MeasureReport/a3a72b3d-8df6-4353-8d90-b7795a28036a"}}]},"request":{"method":"PUT","url":"Bundle/63487c300968f801225401cf"}},{"fullUrl":"Patient/eca96880-3727-4f14-9439-269f16d9391e","resource":{"resourceType":"Patient","id":"eca96880-3727-4f14-9439-269f16d9391e","meta":{"profile":["http://hl7.org/fhir/us/qicore/StructureDefinition/qicore-patient"]},"text":{"status":"generated","div":"<div xmlns=\"http://www.w3.org/1999/xhtml\"><div class=\"hapiHeaderText\">CesareanBirthRelvtDTDuringEnc <b>NUMPASS </b></div><table class=\"hapiPropertyTable\"><tbody><tr><td>Identifier</td><td>51bc91759da5bde99551dcfdd772aded6a0c8eacab7ec3cd70b3b8f217efaea9</td></tr><tr><td>Date of birth</td><td><span>14 February 1985</span></td></tr></tbody></table></div>"},"extension":[{"url":"http://hl7.org/fhir/us/core/StructureDefinition/us-core-race","extension":[{"url":"ombCategory","valueCoding":{"system":"urn:oid:2.16.840.1.113883.6.238","code":"1002-5","display":"American Indian or Alaska Native","userSelected":true}},{"url":"text","valueString":"American Indian or Alaska Native"}]},{"url":"http://hl7.org/fhir/us/core/StructureDefinition/us-core-ethnicity","extension":[{"url":"ombCategory","valueCoding":{"system":"urn:oid:2.16.840.1.113883.6.238","code":"2135-2","display":"Hispanic or Latino","userSelected":true}},{"url":"text","valueString":"Hispanic or Latino"}]}],"identifier":[{"type":{"coding":[{"system":"http://terminology.hl7.org/CodeSystem/v2-0203","code":"MR"}]},"system":"https://bonnie-fhir.healthit.gov/","value":"63487c300968f801225401cf"}],"active":true,"name":[{"use":"usual","family":"NUMPass","given":["CesareanBirthRelvtDTDuringEnc"]}],"gender":"female","birthDate":"1998-02-14"},"request":{"method":"PUT","url":"Patient/eca96880-3727-4f14-9439-269f16d9391e"}},{"fullUrl":"Observation/0b0865db-76d0-4c99-9ddd-e42f427a72b9","resource":{"resourceType":"Observation","id":"0b0865db-76d0-4c99-9ddd-e42f427a72b9","meta":{"profile":["http://hl7.org/fhir/us/qicore/StructureDefinition/qicore-simple-observation"]},"status":"final","category":[{"coding":[{"system":"http://terminology.hl7.org/CodeSystem/observation-category","code":"exam","display":"exam","userSelected":true}]}],"code":{"coding":[{"system":"http://loinc.org","code":"11996-6"}]},"subject":{"reference":"Patient/eca96880-3727-4f14-9439-269f16d9391e"},"effectiveDateTime":"2026-02-09T08:00:00.000+00:00","valueInteger":1},"request":{"method":"PUT","url":"Observation/0b0865db-76d0-4c99-9ddd-e42f427a72b9"}},{"fullUrl":"Observation/b5ce3768-f88f-439b-bc33-af02e44347a6","resource":{"resourceType":"Observation","id":"b5ce3768-f88f-439b-bc33-af02e44347a6","meta":{"profile":["http://hl7.org/fhir/us/qicore/StructureDefinition/qicore-simple-observation"]},"status":"final","category":[{"coding":[{"system":"http://terminology.hl7.org/CodeSystem/observation-category","code":"exam","display":"exam","userSelected":true}]}],"code":{"coding":[{"system":"http://loinc.org","code":"93857-1"}]},"subject":{"reference":"Patient/eca96880-3727-4f14-9439-269f16d9391e"},"effectiveDateTime":"2026-11-28T21:15:00.000+00:00","valueDateTime":"2026-11-28T21:15:00.000+00:00"},"request":{"method":"PUT","url":"Observation/b5ce3768-f88f-439b-bc33-af02e44347a6"}},{"fullUrl":"Practitioner/2bd17675-d2cf-424e-a525-e8a42434b94a","resource":{"resourceType":"Practitioner","id":"2bd17675-d2cf-424e-a525-e8a42434b94a","identifier":[{"system":"http://hl7.org/fhir/sid/us-npi","value":"123456"}],"name":[{"family":"Evil","prefix":["Dr"]}]},"request":{"method":"PUT","url":"Practitioner/2bd17675-d2cf-424e-a525-e8a42434b94a"}},{"fullUrl":"Encounter/c58178d5-e214-4181-9ba7-f55711813e32","resource":{"resourceType":"Encounter","id":"c58178d5-e214-4181-9ba7-f55711813e32","meta":{"profile":["http://hl7.org/fhir/us/qicore/StructureDefinition/qicore-encounter"]},"status":"finished","class":{"system":"http://terminology.hl7.org/CodeSystem/v3-ActCode","code":"IMP","display":"inpatient encounter"},"type":[{"coding":[{"system":"http://snomed.info/sct","code":"8715000"}]}],"subject":{"reference":"Patient/eca96880-3727-4f14-9439-269f16d9391e"},"period":{"start":"2026-11-28T08:00:00.000+00:00","end":"2026-11-30T08:15:00.000+00:00"},"reasonReference":[{"reference":"Condition/a0914038-faae-49a1-acec-b8fc572d46b0"}]},"request":{"method":"PUT","url":"Encounter/c58178d5-e214-4181-9ba7-f55711813e32"}}]}