{"resourceType":"Bundle","id":"tests-99440dd9-4de8-4a02-8cd6-bccbda4bc1dc-bundle","type":"transaction","entry":[{"fullUrl":"Encounter/9920434e-f305-4b5a-a1db-f7b989a44319","resource":{"resourceType":"Encounter","id":"9920434e-f305-4b5a-a1db-f7b989a44319","meta":{"profile":["http://hl7.org/fhir/us/qicore/StructureDefinition/qicore-encounter"]},"status":"finished","class":{"system":"http://terminology.hl7.org/CodeSystem/v3-ActCode","code":"IMP","display":"inpatient encounter"},"type":[{"coding":[{"system":"http://snomed.info/sct","code":"183452005"}]}],"subject":{"reference":"Patient/99440dd9-4de8-4a02-8cd6-bccbda4bc1dc"},"period":{"start":"2026-11-28T08:00:00.000+00:00","end":"2026-11-30T08:15:00.000+00:00"},"reasonReference":[{"reference":"Condition/422fd8af-3699-4cde-9cd9-5a2423af8cb8"}]},"request":{"method":"PUT","url":"Encounter/9920434e-f305-4b5a-a1db-f7b989a44319"}},{"fullUrl":"Procedure/11162fd5-0fdc-4ee5-9630-3b51e823bc3f","resource":{"resourceType":"Procedure","id":"11162fd5-0fdc-4ee5-9630-3b51e823bc3f","meta":{"profile":["http://hl7.org/fhir/us/qicore/StructureDefinition/qicore-procedure"]},"extension":[{"url":"http://hl7.org/fhir/us/qicore/StructureDefinition/qicore-recorded","valueDateTime":"2014-04-05T13:35:00.000+00:00"}],"status":"completed","code":{"coding":[{"system":"http://www.cms.gov/Medicare/Coding/ICD10","code":"10D00Z0"}]},"subject":{"reference":"Patient/99440dd9-4de8-4a02-8cd6-bccbda4bc1dc"},"performedPeriod":{"start":"2026-11-28T20:00:00.000+00:00","end":"2026-11-28T20:15:00.000+00:00"}},"request":{"method":"PUT","url":"Procedure/11162fd5-0fdc-4ee5-9630-3b51e823bc3f"}},{"fullUrl":"Patient/99440dd9-4de8-4a02-8cd6-bccbda4bc1dc","resource":{"resourceType":"Patient","id":"99440dd9-4de8-4a02-8cd6-bccbda4bc1dc","meta":{"profile":["http://hl7.org/fhir/us/qicore/StructureDefinition/qicore-patient"]},"text":{"status":"generated","div":"<div xmlns=\"http://www.w3.org/1999/xhtml\"><div class=\"hapiHeaderText\">CesareanBirth <b>NUMPASS </b></div><table class=\"hapiPropertyTable\"><tbody><tr><td>Identifier</td><td>51bc91759da5bde99551dcfdd772aded6a0c8eacab7ec3cd70b3b8f217efaea9</td></tr><tr><td>Date of birth</td><td><span>14 February 1985</span></td></tr></tbody></table></div>"},"extension":[{"url":"http://hl7.org/fhir/us/core/StructureDefinition/us-core-race","extension":[{"url":"ombCategory","valueCoding":{"system":"urn:oid:2.16.840.1.113883.6.238","code":"1002-5","display":"American Indian or Alaska Native","userSelected":true}},{"url":"text","valueString":"American Indian or Alaska Native"}]},{"url":"http://hl7.org/fhir/us/core/StructureDefinition/us-core-ethnicity","extension":[{"url":"ombCategory","valueCoding":{"system":"urn:oid:2.16.840.1.113883.6.238","code":"2135-2","display":"Hispanic or Latino","userSelected":true}},{"url":"text","valueString":"Hispanic or Latino"}]}],"identifier":[{"type":{"coding":[{"system":"http://terminology.hl7.org/CodeSystem/v2-0203","code":"MR"}]},"system":"https://bonnie-fhir.healthit.gov/","value":"63487c2e0968f8012254017f"}],"active":true,"name":[{"use":"usual","family":"NUMPass","given":["CesareanBirth"]}],"gender":"female","birthDate":"1998-02-14"},"request":{"method":"PUT","url":"Patient/99440dd9-4de8-4a02-8cd6-bccbda4bc1dc"}},{"fullUrl":"Coverage/d5fcc6ef-6dac-4753-9983-187289bd78f7","resource":{"resourceType":"Coverage","id":"d5fcc6ef-6dac-4753-9983-187289bd78f7","meta":{"profile":["http://hl7.org/fhir/us/qicore/StructureDefinition/qicore-coverage"]},"status":"active","subscriberId":"523435","beneficiary":{"reference":"Patient/99440dd9-4de8-4a02-8cd6-bccbda4bc1dc"},"relationship":{"coding":[{"system":"http://terminology.hl7.org/CodeSystem/subscriber-relationship","code":"self"}]},"payor":[{"reference":"Organization/84bc2936-3a5f-48d3-83c0-696bf04f396a"}]},"request":{"method":"PUT","url":"Coverage/d5fcc6ef-6dac-4753-9983-187289bd78f7"}},{"fullUrl":"Observation/474b8b45-b69d-41e4-b345-56b58f554725","resource":{"resourceType":"Observation","id":"474b8b45-b69d-41e4-b345-56b58f554725","meta":{"profile":["http://hl7.org/fhir/us/qicore/StructureDefinition/qicore-simple-observation"]},"status":"final","category":[{"coding":[{"system":"http://terminology.hl7.org/CodeSystem/observation-category","code":"exam","display":"exam","userSelected":true}]}],"code":{"coding":[{"system":"http://loinc.org","code":"11996-6"}]},"subject":{"reference":"Patient/99440dd9-4de8-4a02-8cd6-bccbda4bc1dc"},"effectiveDateTime":"2026-02-09T08:00:00.000+00:00","valueInteger":1},"request":{"method":"PUT","url":"Observation/474b8b45-b69d-41e4-b345-56b58f554725"}},{"fullUrl":"Observation/49ba4b87-8305-4ed9-8388-94d00999d3b0","resource":{"resourceType":"Observation","id":"49ba4b87-8305-4ed9-8388-94d00999d3b0","meta":{"profile":["http://hl7.org/fhir/us/qicore/StructureDefinition/qicore-simple-observation"]},"status":"final","category":[{"coding":[{"system":"http://terminology.hl7.org/CodeSystem/observation-category","code":"exam","display":"exam","userSelected":true}]}],"code":{"coding":[{"system":"http://loinc.org","code":"93857-1"}]},"subject":{"reference":"Patient/99440dd9-4de8-4a02-8cd6-bccbda4bc1dc"},"effectiveDateTime":"2026-11-28T21:15:00.000+00:00","valueDateTime":"2026-11-28T21:15:00.000+00:00"},"request":{"method":"PUT","url":"Observation/49ba4b87-8305-4ed9-8388-94d00999d3b0"}},{"fullUrl":"MeasureReport/04705a65-1d1f-4a03-b8cc-01de50e064c9","resource":{"resourceType":"MeasureReport","id":"04705a65-1d1f-4a03-b8cc-01de50e064c9","meta":{"profile":["http://hl7.org/fhir/us/cqfmeasures/StructureDefinition/test-case-cqfm"]},"contained":[{"resourceType":"Parameters","id":"1bfaf73a-3922-4ebe-b10a-87941b376282-parameters","parameter":[{"name":"subject","valueString":"99440dd9-4de8-4a02-8cd6-bccbda4bc1dc"}]}],"extension":[{"url":"http://hl7.org/fhir/StructureDefinition/cqf-inputParameters","valueReference":{"reference":"#1bfaf73a-3922-4ebe-b10a-87941b376282-parameters"}},{"url":"http://hl7.org/fhir/us/cqfmeasures/StructureDefinition/cqfm-testCaseDescription","valueMarkdown":"Passes IP, DEN, NUM; Gravida 1( effective date 42 weeks)  and EGA 40 weeks; "}],"modifierExtension":[{"url":"http://hl7.org/fhir/us/cqfmeasures/StructureDefinition/cqfm-isTestCase","valueBoolean":true}],"status":"complete","type":"individual","measure":"https://madie.cms.gov/Measure/CMS0334FHIRPCCesareanBirth","period":{"start":"2026-01-01","end":"2026-12-31"},"group":[{"id":"Group_1","population":[{"id":"InitialPopulation_1","code":{"coding":[{"system":"http://terminology.hl7.org/CodeSystem/measure-population","code":"initial-population","display":"Initial Population"}]},"count":1},{"id":"Denominator_1","code":{"coding":[{"system":"http://terminology.hl7.org/CodeSystem/measure-population","code":"denominator","display":"Denominator"}]},"count":1},{"id":"DenominatorExclusion_1","code":{"coding":[{"system":"http://terminology.hl7.org/CodeSystem/measure-population","code":"denominator-exclusion","display":"Denominator Exclusion"}]},"count":0},{"id":"Numerator_1","code":{"coding":[{"system":"http://terminology.hl7.org/CodeSystem/measure-population","code":"numerator","display":"Numerator"}]},"count":1}],"measureScore":{"value":0.0}}],"evaluatedResource":[{"reference":"Patient/99440dd9-4de8-4a02-8cd6-bccbda4bc1dc"},{"reference":"Observation/474b8b45-b69d-41e4-b345-56b58f554725"},{"reference":"Observation/8fba7b8a-275c-4384-882c-757da93f240f"},{"reference":"Observation/49ba4b87-8305-4ed9-8388-94d00999d3b0"},{"reference":"Encounter/9920434e-f305-4b5a-a1db-f7b989a44319"},{"reference":"Procedure/11162fd5-0fdc-4ee5-9630-3b51e823bc3f"},{"reference":"Condition/422fd8af-3699-4cde-9cd9-5a2423af8cb8"},{"reference":"Coverage/d5fcc6ef-6dac-4753-9983-187289bd78f7"},{"reference":"Organization/84bc2936-3a5f-48d3-83c0-696bf04f396a"},{"reference":"Practitioner/3a5c8fa4-011a-4739-9eb4-ef8245580627"}]},"request":{"method":"PUT","url":"MeasureReport/04705a65-1d1f-4a03-b8cc-01de50e064c9"}},{"fullUrl":"Observation/8fba7b8a-275c-4384-882c-757da93f240f","resource":{"resourceType":"Observation","id":"8fba7b8a-275c-4384-882c-757da93f240f","meta":{"profile":["http://hl7.org/fhir/us/qicore/StructureDefinition/qicore-simple-observation"]},"status":"final","category":[{"coding":[{"system":"http://terminology.hl7.org/CodeSystem/observation-category","code":"exam","display":"exam","userSelected":true}]}],"code":{"coding":[{"system":"http://loinc.org","code":"11884-4"}]},"subject":{"reference":"Patient/99440dd9-4de8-4a02-8cd6-bccbda4bc1dc"},"effectiveDateTime":"2026-11-28T21:15:00.000+00:00","valueQuantity":{"value":40,"system":"http://unitsofmeasure.org","code":"wk"}},"request":{"method":"PUT","url":"Observation/8fba7b8a-275c-4384-882c-757da93f240f"}},{"fullUrl":"Organization/84bc2936-3a5f-48d3-83c0-696bf04f396a","resource":{"resourceType":"Organization","id":"84bc2936-3a5f-48d3-83c0-696bf04f396a","meta":{"profile":["http://hl7.org/fhir/us/qicore/StructureDefinition/qicore-organization"]},"identifier":[{"use":"temp","system":"urn:oid:2.16.840.1.113883.4.4","value":"21-3259825"}],"active":true,"type":[{"coding":[{"system":"http://terminology.hl7.org/CodeSystem/organization-type","code":"pay","display":"Payer"}]}],"name":"Blue Cross Blue Shield of Texas","telecom":[{"system":"phone","value":"(+1) 972-766-6900"}],"address":[{"use":"billing","type":"postal","line":["P.O. Box 660044"],"city":"Dallas","state":"TX","postalCode":"75266-0044","country":"USA"}]},"request":{"method":"PUT","url":"Organization/84bc2936-3a5f-48d3-83c0-696bf04f396a"}},{"fullUrl":"Bundle/63487c2e0968f8012254017f","resource":{"resourceType":"Bundle","id":"63487c2e0968f8012254017f","type":"transaction","entry":[{"fullUrl":"https://madie.cms.gov/Patient/99440dd9-4de8-4a02-8cd6-bccbda4bc1dc","resource":{"resourceType":"Patient","id":"99440dd9-4de8-4a02-8cd6-bccbda4bc1dc","meta":{"profile":["http://hl7.org/fhir/us/qicore/StructureDefinition/qicore-patient"]},"text":{"status":"generated","div":"<div xmlns=\"http://www.w3.org/1999/xhtml\"><div class=\"hapiHeaderText\">CesareanBirth <b>NUMPASS </b></div><table class=\"hapiPropertyTable\"><tbody><tr><td>Identifier</td><td>51bc91759da5bde99551dcfdd772aded6a0c8eacab7ec3cd70b3b8f217efaea9</td></tr><tr><td>Date of birth</td><td><span>14 February 1985</span></td></tr></tbody></table></div>"},"extension":[{"url":"http://hl7.org/fhir/us/core/StructureDefinition/us-core-race","extension":[{"url":"ombCategory","valueCoding":{"system":"urn:oid:2.16.840.1.113883.6.238","code":"1002-5","display":"American Indian or Alaska Native","userSelected":true}},{"url":"text","valueString":"American Indian or Alaska Native"}]},{"url":"http://hl7.org/fhir/us/core/StructureDefinition/us-core-ethnicity","extension":[{"url":"ombCategory","valueCoding":{"system":"urn:oid:2.16.840.1.113883.6.238","code":"2135-2","display":"Hispanic or Latino","userSelected":true}},{"url":"text","valueString":"Hispanic or Latino"}]}],"identifier":[{"type":{"coding":[{"system":"http://terminology.hl7.org/CodeSystem/v2-0203","code":"MR"}]},"system":"https://bonnie-fhir.healthit.gov/","value":"63487c2e0968f8012254017f"}],"active":true,"name":[{"use":"usual","family":"NUMPass","given":["CesareanBirth"]}],"gender":"female","birthDate":"1998-02-14"},"request":{"method":"PUT","url":"Patient/99440dd9-4de8-4a02-8cd6-bccbda4bc1dc"}},{"fullUrl":"https://madie.cms.gov/Observation/474b8b45-b69d-41e4-b345-56b58f554725","resource":{"resourceType":"Observation","id":"474b8b45-b69d-41e4-b345-56b58f554725","meta":{"profile":["http://hl7.org/fhir/us/qicore/StructureDefinition/qicore-simple-observation"]},"status":"final","category":[{"coding":[{"system":"http://terminology.hl7.org/CodeSystem/observation-category","code":"exam","display":"exam","userSelected":true}]}],"code":{"coding":[{"system":"http://loinc.org","code":"11996-6"}]},"subject":{"reference":"Patient/99440dd9-4de8-4a02-8cd6-bccbda4bc1dc"},"effectiveDateTime":"2026-02-09T08:00:00.000+00:00","valueInteger":1},"request":{"method":"PUT","url":"Observation/474b8b45-b69d-41e4-b345-56b58f554725"}},{"fullUrl":"https://madie.cms.gov/Observation/8fba7b8a-275c-4384-882c-757da93f240f","resource":{"resourceType":"Observation","id":"8fba7b8a-275c-4384-882c-757da93f240f","meta":{"profile":["http://hl7.org/fhir/us/qicore/StructureDefinition/qicore-simple-observation"]},"status":"final","category":[{"coding":[{"system":"http://terminology.hl7.org/CodeSystem/observation-category","code":"exam","display":"exam","userSelected":true}]}],"code":{"coding":[{"system":"http://loinc.org","code":"11884-4"}]},"subject":{"reference":"Patient/99440dd9-4de8-4a02-8cd6-bccbda4bc1dc"},"effectiveDateTime":"2026-11-28T21:15:00.000+00:00","valueQuantity":{"value":40,"system":"http://unitsofmeasure.org","code":"wk"}},"request":{"method":"PUT","url":"Observation/8fba7b8a-275c-4384-882c-757da93f240f"}},{"fullUrl":"https://madie.cms.gov/Observation/49ba4b87-8305-4ed9-8388-94d00999d3b0","resource":{"resourceType":"Observation","id":"49ba4b87-8305-4ed9-8388-94d00999d3b0","meta":{"profile":["http://hl7.org/fhir/us/qicore/StructureDefinition/qicore-simple-observation"]},"status":"final","category":[{"coding":[{"system":"http://terminology.hl7.org/CodeSystem/observation-category","code":"exam","display":"exam","userSelected":true}]}],"code":{"coding":[{"system":"http://loinc.org","code":"93857-1"}]},"subject":{"reference":"Patient/99440dd9-4de8-4a02-8cd6-bccbda4bc1dc"},"effectiveDateTime":"2026-11-28T21:15:00.000+00:00","valueDateTime":"2026-11-28T21:15:00.000+00:00"},"request":{"method":"PUT","url":"Observation/49ba4b87-8305-4ed9-8388-94d00999d3b0"}},{"fullUrl":"https://madie.cms.gov/Encounter/9920434e-f305-4b5a-a1db-f7b989a44319","resource":{"resourceType":"Encounter","id":"9920434e-f305-4b5a-a1db-f7b989a44319","meta":{"profile":["http://hl7.org/fhir/us/qicore/StructureDefinition/qicore-encounter"]},"status":"finished","class":{"system":"http://terminology.hl7.org/CodeSystem/v3-ActCode","code":"IMP","display":"inpatient encounter"},"type":[{"coding":[{"system":"http://snomed.info/sct","code":"183452005"}]}],"subject":{"reference":"Patient/99440dd9-4de8-4a02-8cd6-bccbda4bc1dc"},"period":{"start":"2026-11-28T08:00:00.000+00:00","end":"2026-11-30T08:15:00.000+00:00"},"reasonReference":[{"reference":"Condition/422fd8af-3699-4cde-9cd9-5a2423af8cb8"}]},"request":{"method":"PUT","url":"Encounter/9920434e-f305-4b5a-a1db-f7b989a44319"}},{"fullUrl":"https://madie.cms.gov/Procedure/11162fd5-0fdc-4ee5-9630-3b51e823bc3f","resource":{"resourceType":"Procedure","id":"11162fd5-0fdc-4ee5-9630-3b51e823bc3f","meta":{"profile":["http://hl7.org/fhir/us/qicore/StructureDefinition/qicore-procedure"]},"extension":[{"url":"http://hl7.org/fhir/us/qicore/StructureDefinition/qicore-recorded","valueDateTime":"2014-04-05T13:35:00.000+00:00"}],"status":"completed","code":{"coding":[{"system":"http://www.cms.gov/Medicare/Coding/ICD10","code":"10D00Z0"}]},"subject":{"reference":"Patient/99440dd9-4de8-4a02-8cd6-bccbda4bc1dc"},"performedPeriod":{"start":"2026-11-28T20:00:00.000+00:00","end":"2026-11-28T20:15:00.000+00:00"}},"request":{"method":"PUT","url":"Procedure/11162fd5-0fdc-4ee5-9630-3b51e823bc3f"}},{"fullUrl":"https://madie.cms.gov/Condition/422fd8af-3699-4cde-9cd9-5a2423af8cb8","resource":{"resourceType":"Condition","id":"422fd8af-3699-4cde-9cd9-5a2423af8cb8","meta":{"profile":["http://hl7.org/fhir/us/qicore/StructureDefinition/qicore-condition-encounter-diagnosis"]},"category":[{"coding":[{"system":"http://terminology.hl7.org/CodeSystem/condition-category","code":"encounter-diagnosis","display":"Encounter Diagnosis"}]}],"code":{"coding":[{"system":"http://snomed.info/sct","version":"2022-09","code":"169826009","display":"Single live birth (finding)","userSelected":true}]},"subject":{"reference":"Patient/99440dd9-4de8-4a02-8cd6-bccbda4bc1dc"},"encounter":{"reference":"Encounter/9920434e-f305-4b5a-a1db-f7b989a44319"},"recordedDate":"2026-10-17T08:00:00.000+00:00"},"request":{"method":"PUT","url":"Condition/422fd8af-3699-4cde-9cd9-5a2423af8cb8"}},{"fullUrl":"https://madie.cms.gov/Coverage/d5fcc6ef-6dac-4753-9983-187289bd78f7","resource":{"resourceType":"Coverage","id":"d5fcc6ef-6dac-4753-9983-187289bd78f7","meta":{"profile":["http://hl7.org/fhir/us/qicore/StructureDefinition/qicore-coverage"]},"status":"active","subscriberId":"523435","beneficiary":{"reference":"Patient/99440dd9-4de8-4a02-8cd6-bccbda4bc1dc"},"relationship":{"coding":[{"system":"http://terminology.hl7.org/CodeSystem/subscriber-relationship","code":"self"}]},"payor":[{"reference":"Organization/84bc2936-3a5f-48d3-83c0-696bf04f396a"}]},"request":{"method":"PUT","url":"Coverage/d5fcc6ef-6dac-4753-9983-187289bd78f7"}},{"fullUrl":"https://madie.cms.gov/Organization/84bc2936-3a5f-48d3-83c0-696bf04f396a","resource":{"resourceType":"Organization","id":"84bc2936-3a5f-48d3-83c0-696bf04f396a","meta":{"profile":["http://hl7.org/fhir/us/qicore/StructureDefinition/qicore-organization"]},"identifier":[{"use":"temp","system":"urn:oid:2.16.840.1.113883.4.4","value":"21-3259825"}],"active":true,"type":[{"coding":[{"system":"http://terminology.hl7.org/CodeSystem/organization-type","code":"pay","display":"Payer"}]}],"name":"Blue Cross Blue Shield of Texas","telecom":[{"system":"phone","value":"(+1) 972-766-6900"}],"address":[{"use":"billing","type":"postal","line":["P.O. Box 660044"],"city":"Dallas","state":"TX","postalCode":"75266-0044","country":"USA"}]},"request":{"method":"PUT","url":"Organization/84bc2936-3a5f-48d3-83c0-696bf04f396a"}},{"fullUrl":"https://madie.cms.gov/Practitioner/3a5c8fa4-011a-4739-9eb4-ef8245580627","resource":{"resourceType":"Practitioner","id":"3a5c8fa4-011a-4739-9eb4-ef8245580627","identifier":[{"system":"http://hl7.org/fhir/sid/us-npi","value":"123456"}],"name":[{"family":"Evil","prefix":["Dr"]}]},"request":{"method":"PUT","url":"Practitioner/3a5c8fa4-011a-4739-9eb4-ef8245580627"}},{"fullUrl":"https://madie.cms.gov/MeasureReport/04705a65-1d1f-4a03-b8cc-01de50e064c9","resource":{"resourceType":"MeasureReport","id":"04705a65-1d1f-4a03-b8cc-01de50e064c9","meta":{"profile":["http://hl7.org/fhir/us/cqfmeasures/StructureDefinition/test-case-cqfm"]},"contained":[{"resourceType":"Parameters","id":"1bfaf73a-3922-4ebe-b10a-87941b376282-parameters","parameter":[{"name":"subject","valueString":"99440dd9-4de8-4a02-8cd6-bccbda4bc1dc"}]}],"extension":[{"url":"http://hl7.org/fhir/StructureDefinition/cqf-inputParameters","valueReference":{"reference":"#1bfaf73a-3922-4ebe-b10a-87941b376282-parameters"}},{"url":"http://hl7.org/fhir/us/cqfmeasures/StructureDefinition/cqfm-testCaseDescription","valueMarkdown":"Passes IP, DEN, NUM; Gravida 1( effective date 42 weeks)  and EGA 40 weeks; "}],"modifierExtension":[{"url":"http://hl7.org/fhir/us/cqfmeasures/StructureDefinition/cqfm-isTestCase","valueBoolean":true}],"status":"complete","type":"individual","measure":"https://madie.cms.gov/Measure/CMS0334FHIRPCCesareanBirth","period":{"start":"2026-01-01","end":"2026-12-31"},"group":[{"id":"Group_1","population":[{"id":"InitialPopulation_1","code":{"coding":[{"system":"http://terminology.hl7.org/CodeSystem/measure-population","code":"initial-population","display":"Initial Population"}]},"count":1},{"id":"Denominator_1","code":{"coding":[{"system":"http://terminology.hl7.org/CodeSystem/measure-population","code":"denominator","display":"Denominator"}]},"count":1},{"id":"DenominatorExclusion_1","code":{"coding":[{"system":"http://terminology.hl7.org/CodeSystem/measure-population","code":"denominator-exclusion","display":"Denominator Exclusion"}]},"count":0},{"id":"Numerator_1","code":{"coding":[{"system":"http://terminology.hl7.org/CodeSystem/measure-population","code":"numerator","display":"Numerator"}]},"count":1}],"measureScore":{"value":0.0}}],"evaluatedResource":[{"reference":"Patient/99440dd9-4de8-4a02-8cd6-bccbda4bc1dc"},{"reference":"Observation/474b8b45-b69d-41e4-b345-56b58f554725"},{"reference":"Observation/8fba7b8a-275c-4384-882c-757da93f240f"},{"reference":"Observation/49ba4b87-8305-4ed9-8388-94d00999d3b0"},{"reference":"Encounter/9920434e-f305-4b5a-a1db-f7b989a44319"},{"reference":"Procedure/11162fd5-0fdc-4ee5-9630-3b51e823bc3f"},{"reference":"Condition/422fd8af-3699-4cde-9cd9-5a2423af8cb8"},{"reference":"Coverage/d5fcc6ef-6dac-4753-9983-187289bd78f7"},{"reference":"Organization/84bc2936-3a5f-48d3-83c0-696bf04f396a"},{"reference":"Practitioner/3a5c8fa4-011a-4739-9eb4-ef8245580627"}]},"request":{"method":"PUT","url":"MeasureReport/04705a65-1d1f-4a03-b8cc-01de50e064c9"}}]},"request":{"method":"PUT","url":"Bundle/63487c2e0968f8012254017f"}},{"fullUrl":"Condition/422fd8af-3699-4cde-9cd9-5a2423af8cb8","resource":{"resourceType":"Condition","id":"422fd8af-3699-4cde-9cd9-5a2423af8cb8","meta":{"profile":["http://hl7.org/fhir/us/qicore/StructureDefinition/qicore-condition-encounter-diagnosis"]},"category":[{"coding":[{"system":"http://terminology.hl7.org/CodeSystem/condition-category","code":"encounter-diagnosis","display":"Encounter Diagnosis"}]}],"code":{"coding":[{"system":"http://snomed.info/sct","version":"2022-09","code":"169826009","display":"Single live birth (finding)","userSelected":true}]},"subject":{"reference":"Patient/99440dd9-4de8-4a02-8cd6-bccbda4bc1dc"},"encounter":{"reference":"Encounter/9920434e-f305-4b5a-a1db-f7b989a44319"},"recordedDate":"2026-10-17T08:00:00.000+00:00"},"request":{"method":"PUT","url":"Condition/422fd8af-3699-4cde-9cd9-5a2423af8cb8"}},{"fullUrl":"Practitioner/3a5c8fa4-011a-4739-9eb4-ef8245580627","resource":{"resourceType":"Practitioner","id":"3a5c8fa4-011a-4739-9eb4-ef8245580627","identifier":[{"system":"http://hl7.org/fhir/sid/us-npi","value":"123456"}],"name":[{"family":"Evil","prefix":["Dr"]}]},"request":{"method":"PUT","url":"Practitioner/3a5c8fa4-011a-4739-9eb4-ef8245580627"}}]}