{"resourceType":"Bundle","id":"tests-912e076d-3b5d-46cc-b2cb-c78172b295a3-bundle","type":"transaction","entry":[{"fullUrl":"Condition/03d046e9-c068-4f33-b449-45fcf811aec1","resource":{"resourceType":"Condition","id":"03d046e9-c068-4f33-b449-45fcf811aec1","meta":{"profile":["http://hl7.org/fhir/us/qicore/StructureDefinition/qicore-condition"]},"category":[{"coding":[{"system":"http://terminology.hl7.org/CodeSystem/condition-category","code":"encounter-diagnosis","display":"Encounter Diagnosis"}]}],"code":{"coding":[{"system":"http://snomed.info/sct","version":"2022-09","code":"169826009","display":"Single live birth (finding)","userSelected":true}]},"subject":{"reference":"Patient/912e076d-3b5d-46cc-b2cb-c78172b295a3"},"recordedDate":"2026-10-21T08:00:00.000+00:00"},"request":{"method":"PUT","url":"Condition/03d046e9-c068-4f33-b449-45fcf811aec1"}},{"fullUrl":"Patient/912e076d-3b5d-46cc-b2cb-c78172b295a3","resource":{"resourceType":"Patient","id":"912e076d-3b5d-46cc-b2cb-c78172b295a3","meta":{"profile":["http://hl7.org/fhir/us/qicore/StructureDefinition/qicore-patient"]},"text":{"status":"generated","div":"<div xmlns=\"http://www.w3.org/1999/xhtml\"><div class=\"hapiHeaderText\">EGALT37weeks<b>DENOMFail</b></div><table class=\"hapiPropertyTable\"><tbody><tr><td>Identifier</td><td>abdde563892ce226aeccbefc9ec5c953</td></tr><tr><td>Date of birth</td><td><span>14 February 1985</span></td></tr></tbody></table></div>"},"extension":[{"url":"http://hl7.org/fhir/us/core/StructureDefinition/us-core-race","extension":[{"url":"ombCategory","valueCoding":{"system":"urn:oid:2.16.840.1.113883.6.238","code":"1002-5","display":"American Indian or Alaska Native","userSelected":true}},{"url":"text","valueString":"American Indian or Alaska Native"}]},{"url":"http://hl7.org/fhir/us/core/StructureDefinition/us-core-ethnicity","extension":[{"url":"ombCategory","valueCoding":{"system":"urn:oid:2.16.840.1.113883.6.238","code":"2135-2","display":"Hispanic or Latino","userSelected":true}},{"url":"text","valueString":"Hispanic or Latino"}]}],"identifier":[{"type":{"coding":[{"system":"http://terminology.hl7.org/CodeSystem/v2-0203","code":"MR"}]},"system":"https://bonnie-fhir.healthit.gov/","value":"63487c2d0968f80122540143"}],"active":true,"name":[{"use":"usual","family":"DENOMFail","given":["EGALT37weeks"]}],"gender":"female","birthDate":"1998-02-14"},"request":{"method":"PUT","url":"Patient/912e076d-3b5d-46cc-b2cb-c78172b295a3"}},{"fullUrl":"Observation/be46ba4e-accc-472c-93f9-8fdf26bc8da4","resource":{"resourceType":"Observation","id":"be46ba4e-accc-472c-93f9-8fdf26bc8da4","meta":{"profile":["http://hl7.org/fhir/us/qicore/StructureDefinition/qicore-simple-observation"]},"status":"final","category":[{"coding":[{"system":"http://terminology.hl7.org/CodeSystem/observation-category","code":"exam","display":"exam","userSelected":true}]}],"code":{"coding":[{"system":"http://loinc.org","code":"93857-1"}]},"subject":{"reference":"Patient/912e076d-3b5d-46cc-b2cb-c78172b295a3"},"effectiveDateTime":"2026-06-08T20:00:00.000+00:00","performer":[{"reference":"Organization/example1","display":"Hendricks Country Hospital"}],"valueDateTime":"2026-06-08T20:00:00.000+00:00"},"request":{"method":"PUT","url":"Observation/be46ba4e-accc-472c-93f9-8fdf26bc8da4"}},{"fullUrl":"Practitioner/d467a0a6-d8ab-447a-a108-1ce569ae4ad6","resource":{"resourceType":"Practitioner","id":"d467a0a6-d8ab-447a-a108-1ce569ae4ad6","meta":{"profile":["http://hl7.org/fhir/us/qicore/StructureDefinition/qicore-practitioner"]},"identifier":[{"system":"http://hl7.org/fhir/sid/us-npi","value":"1234567890"}],"name":[{"family":"Evil","prefix":["Dr"]}]},"request":{"method":"PUT","url":"Practitioner/d467a0a6-d8ab-447a-a108-1ce569ae4ad6"}},{"fullUrl":"Procedure/9924fb9b-436b-41f8-865b-33902f025d63","resource":{"resourceType":"Procedure","id":"9924fb9b-436b-41f8-865b-33902f025d63","meta":{"profile":["http://hl7.org/fhir/us/qicore/StructureDefinition/qicore-procedure"]},"extension":[{"url":"http://hl7.org/fhir/us/qicore/StructureDefinition/qicore-recorded","valueDateTime":"2014-04-05T13:35:00.000+00:00"}],"status":"completed","code":{"coding":[{"system":"http://www.cms.gov/Medicare/Coding/ICD10","code":"10D00Z0"},{"system":"http://snomed.info/sct","code":"4504004"}]},"subject":{"reference":"Patient/912e076d-3b5d-46cc-b2cb-c78172b295a3"},"performedPeriod":{"start":"2026-06-08T20:00:00.000+00:00"}},"request":{"method":"PUT","url":"Procedure/9924fb9b-436b-41f8-865b-33902f025d63"}},{"fullUrl":"Observation/18d7f743-9ad0-4caa-8f9c-96376635fbd5","resource":{"resourceType":"Observation","id":"18d7f743-9ad0-4caa-8f9c-96376635fbd5","meta":{"profile":["http://hl7.org/fhir/us/qicore/StructureDefinition/qicore-simple-observation"]},"status":"final","category":[{"coding":[{"system":"http://terminology.hl7.org/CodeSystem/observation-category","code":"exam","display":"exam","userSelected":true}]}],"code":{"coding":[{"system":"http://loinc.org","code":"11996-6"}]},"subject":{"reference":"Patient/912e076d-3b5d-46cc-b2cb-c78172b295a3"},"effectiveDateTime":"2026-03-09T08:00:00.000+00:00","performer":[{"reference":"Organization/example1","display":"Hendricks Country Hospital"}],"valueInteger":1},"request":{"method":"PUT","url":"Observation/18d7f743-9ad0-4caa-8f9c-96376635fbd5"}},{"fullUrl":"Observation/eca88c1a-7e2f-4e62-9753-2a808725435f","resource":{"resourceType":"Observation","id":"eca88c1a-7e2f-4e62-9753-2a808725435f","meta":{"profile":["http://hl7.org/fhir/us/qicore/StructureDefinition/qicore-simple-observation"]},"status":"final","category":[{"coding":[{"system":"http://terminology.hl7.org/CodeSystem/observation-category","code":"exam","display":"exam","userSelected":true}]}],"code":{"coding":[{"system":"http://loinc.org","code":"11884-4"}]},"subject":{"reference":"Patient/912e076d-3b5d-46cc-b2cb-c78172b295a3"},"effectiveDateTime":"2026-06-08T17:00:00.000+00:00","performer":[{"reference":"Organization/example1","display":"Hendricks Country Hospital"}],"valueQuantity":{"value":36,"system":"http://unitsofmeasure.org","code":"wk"}},"request":{"method":"PUT","url":"Observation/eca88c1a-7e2f-4e62-9753-2a808725435f"}},{"fullUrl":"MeasureReport/960f4b70-f249-4beb-8486-2409eee457e3","resource":{"resourceType":"MeasureReport","id":"960f4b70-f249-4beb-8486-2409eee457e3","meta":{"profile":["http://hl7.org/fhir/us/cqfmeasures/StructureDefinition/test-case-cqfm"]},"contained":[{"resourceType":"Parameters","id":"73908434-fc87-43e4-b5ce-7819d06dba57-parameters","parameter":[{"name":"subject","valueString":"912e076d-3b5d-46cc-b2cb-c78172b295a3"}]}],"extension":[{"url":"http://hl7.org/fhir/StructureDefinition/cqf-inputParameters","valueReference":{"reference":"#73908434-fc87-43e4-b5ce-7819d06dba57-parameters"}},{"url":"http://hl7.org/fhir/us/cqfmeasures/StructureDefinition/cqfm-testCaseDescription","valueMarkdown":"Passes IP,  intentional fail of the Den d/t EGA 36 weeks\n"}],"modifierExtension":[{"url":"http://hl7.org/fhir/us/cqfmeasures/StructureDefinition/cqfm-isTestCase","valueBoolean":true}],"status":"complete","type":"individual","measure":"https://madie.cms.gov/Measure/CMS0334FHIRPCCesareanBirth","period":{"start":"2026-01-01","end":"2026-12-31"},"group":[{"id":"Group_1","population":[{"id":"InitialPopulation_1","code":{"coding":[{"system":"http://terminology.hl7.org/CodeSystem/measure-population","code":"initial-population","display":"Initial Population"}]},"count":1},{"id":"Denominator_1","code":{"coding":[{"system":"http://terminology.hl7.org/CodeSystem/measure-population","code":"denominator","display":"Denominator"}]},"count":0},{"id":"DenominatorExclusion_1","code":{"coding":[{"system":"http://terminology.hl7.org/CodeSystem/measure-population","code":"denominator-exclusion","display":"Denominator Exclusion"}]},"count":0},{"id":"Numerator_1","code":{"coding":[{"system":"http://terminology.hl7.org/CodeSystem/measure-population","code":"numerator","display":"Numerator"}]},"count":0}],"measureScore":{"value":0.0}}],"evaluatedResource":[{"reference":"Patient/912e076d-3b5d-46cc-b2cb-c78172b295a3"},{"reference":"Observation/889388a0-b55e-48c4-847e-ceb732236c3e"},{"reference":"Observation/18d7f743-9ad0-4caa-8f9c-96376635fbd5"},{"reference":"Observation/eca88c1a-7e2f-4e62-9753-2a808725435f"},{"reference":"Observation/be46ba4e-accc-472c-93f9-8fdf26bc8da4"},{"reference":"Encounter/27256266-443f-413b-83c7-71e1560f8566"},{"reference":"Procedure/9924fb9b-436b-41f8-865b-33902f025d63"},{"reference":"Condition/03d046e9-c068-4f33-b449-45fcf811aec1"},{"reference":"Coverage/a1d78f7c-65fc-41d6-a80f-c55fc34d2917"},{"reference":"Organization/4c549f82-3479-46ed-a477-a9b50ee695e4"},{"reference":"Practitioner/d467a0a6-d8ab-447a-a108-1ce569ae4ad6"}]},"request":{"method":"PUT","url":"MeasureReport/960f4b70-f249-4beb-8486-2409eee457e3"}},{"fullUrl":"Bundle/63487c2d0968f80122540143","resource":{"resourceType":"Bundle","id":"63487c2d0968f80122540143","type":"transaction","entry":[{"fullUrl":"https://madie.cms.gov/Patient/912e076d-3b5d-46cc-b2cb-c78172b295a3","resource":{"resourceType":"Patient","id":"912e076d-3b5d-46cc-b2cb-c78172b295a3","meta":{"profile":["http://hl7.org/fhir/us/qicore/StructureDefinition/qicore-patient"]},"text":{"status":"generated","div":"<div xmlns=\"http://www.w3.org/1999/xhtml\"><div class=\"hapiHeaderText\">EGALT37weeks<b>DENOMFail</b></div><table class=\"hapiPropertyTable\"><tbody><tr><td>Identifier</td><td>abdde563892ce226aeccbefc9ec5c953</td></tr><tr><td>Date of birth</td><td><span>14 February 1985</span></td></tr></tbody></table></div>"},"extension":[{"url":"http://hl7.org/fhir/us/core/StructureDefinition/us-core-race","extension":[{"url":"ombCategory","valueCoding":{"system":"urn:oid:2.16.840.1.113883.6.238","code":"1002-5","display":"American Indian or Alaska Native","userSelected":true}},{"url":"text","valueString":"American Indian or Alaska Native"}]},{"url":"http://hl7.org/fhir/us/core/StructureDefinition/us-core-ethnicity","extension":[{"url":"ombCategory","valueCoding":{"system":"urn:oid:2.16.840.1.113883.6.238","code":"2135-2","display":"Hispanic or Latino","userSelected":true}},{"url":"text","valueString":"Hispanic or Latino"}]}],"identifier":[{"type":{"coding":[{"system":"http://terminology.hl7.org/CodeSystem/v2-0203","code":"MR"}]},"system":"https://bonnie-fhir.healthit.gov/","value":"63487c2d0968f80122540143"}],"active":true,"name":[{"use":"usual","family":"DENOMFail","given":["EGALT37weeks"]}],"gender":"female","birthDate":"1998-02-14"},"request":{"method":"PUT","url":"Patient/912e076d-3b5d-46cc-b2cb-c78172b295a3"}},{"fullUrl":"https://madie.cms.gov/Observation/889388a0-b55e-48c4-847e-ceb732236c3e","resource":{"resourceType":"Observation","id":"889388a0-b55e-48c4-847e-ceb732236c3e","meta":{"profile":["http://hl7.org/fhir/us/qicore/StructureDefinition/qicore-simple-observation"]},"status":"final","category":[{"coding":[{"system":"http://terminology.hl7.org/CodeSystem/observation-category","code":"exam","display":"exam","userSelected":true}]}],"code":{"coding":[{"system":"http://loinc.org","code":"11977-6"}]},"subject":{"reference":"Patient/912e076d-3b5d-46cc-b2cb-c78172b295a3"},"effectiveDateTime":"2026-03-08T09:00:00.000+00:00","performer":[{"reference":"Organization/example1","display":"Hendricks Country Hospital"}],"valueInteger":0},"request":{"method":"PUT","url":"Observation/889388a0-b55e-48c4-847e-ceb732236c3e"}},{"fullUrl":"https://madie.cms.gov/Observation/18d7f743-9ad0-4caa-8f9c-96376635fbd5","resource":{"resourceType":"Observation","id":"18d7f743-9ad0-4caa-8f9c-96376635fbd5","meta":{"profile":["http://hl7.org/fhir/us/qicore/StructureDefinition/qicore-simple-observation"]},"status":"final","category":[{"coding":[{"system":"http://terminology.hl7.org/CodeSystem/observation-category","code":"exam","display":"exam","userSelected":true}]}],"code":{"coding":[{"system":"http://loinc.org","code":"11996-6"}]},"subject":{"reference":"Patient/912e076d-3b5d-46cc-b2cb-c78172b295a3"},"effectiveDateTime":"2026-03-09T08:00:00.000+00:00","performer":[{"reference":"Organization/example1","display":"Hendricks Country Hospital"}],"valueInteger":1},"request":{"method":"PUT","url":"Observation/18d7f743-9ad0-4caa-8f9c-96376635fbd5"}},{"fullUrl":"https://madie.cms.gov/Observation/eca88c1a-7e2f-4e62-9753-2a808725435f","resource":{"resourceType":"Observation","id":"eca88c1a-7e2f-4e62-9753-2a808725435f","meta":{"profile":["http://hl7.org/fhir/us/qicore/StructureDefinition/qicore-simple-observation"]},"status":"final","category":[{"coding":[{"system":"http://terminology.hl7.org/CodeSystem/observation-category","code":"exam","display":"exam","userSelected":true}]}],"code":{"coding":[{"system":"http://loinc.org","code":"11884-4"}]},"subject":{"reference":"Patient/912e076d-3b5d-46cc-b2cb-c78172b295a3"},"effectiveDateTime":"2026-06-08T17:00:00.000+00:00","performer":[{"reference":"Organization/example1","display":"Hendricks Country Hospital"}],"valueQuantity":{"value":36,"system":"http://unitsofmeasure.org","code":"wk"}},"request":{"method":"PUT","url":"Observation/eca88c1a-7e2f-4e62-9753-2a808725435f"}},{"fullUrl":"https://madie.cms.gov/Observation/be46ba4e-accc-472c-93f9-8fdf26bc8da4","resource":{"resourceType":"Observation","id":"be46ba4e-accc-472c-93f9-8fdf26bc8da4","meta":{"profile":["http://hl7.org/fhir/us/qicore/StructureDefinition/qicore-simple-observation"]},"status":"final","category":[{"coding":[{"system":"http://terminology.hl7.org/CodeSystem/observation-category","code":"exam","display":"exam","userSelected":true}]}],"code":{"coding":[{"system":"http://loinc.org","code":"93857-1"}]},"subject":{"reference":"Patient/912e076d-3b5d-46cc-b2cb-c78172b295a3"},"effectiveDateTime":"2026-06-08T20:00:00.000+00:00","performer":[{"reference":"Organization/example1","display":"Hendricks Country Hospital"}],"valueDateTime":"2026-06-08T20:00:00.000+00:00"},"request":{"method":"PUT","url":"Observation/be46ba4e-accc-472c-93f9-8fdf26bc8da4"}},{"fullUrl":"https://madie.cms.gov/Encounter/27256266-443f-413b-83c7-71e1560f8566","resource":{"resourceType":"Encounter","id":"27256266-443f-413b-83c7-71e1560f8566","meta":{"profile":["http://hl7.org/fhir/us/qicore/StructureDefinition/qicore-encounter"]},"status":"finished","class":{"system":"http://terminology.hl7.org/CodeSystem/v3-ActCode","code":"IMP","display":"inpatient encounter"},"type":[{"coding":[{"system":"http://snomed.info/sct","code":"8715000"}]}],"subject":{"reference":"Patient/912e076d-3b5d-46cc-b2cb-c78172b295a3"},"period":{"start":"2026-06-08T08:00:00.000+00:00","end":"2026-06-10T08:15:00.000+00:00"},"length":{"value":2,"unit":"days"},"reasonCode":[{"coding":[{"system":"http://snomed.info/sct","code":"169826009","display":"Single live birth from singleton pregnancy (finding)"}]}]},"request":{"method":"PUT","url":"Encounter/27256266-443f-413b-83c7-71e1560f8566"}},{"fullUrl":"https://madie.cms.gov/Procedure/9924fb9b-436b-41f8-865b-33902f025d63","resource":{"resourceType":"Procedure","id":"9924fb9b-436b-41f8-865b-33902f025d63","meta":{"profile":["http://hl7.org/fhir/us/qicore/StructureDefinition/qicore-procedure"]},"extension":[{"url":"http://hl7.org/fhir/us/qicore/StructureDefinition/qicore-recorded","valueDateTime":"2014-04-05T13:35:00.000+00:00"}],"status":"completed","code":{"coding":[{"system":"http://www.cms.gov/Medicare/Coding/ICD10","code":"10D00Z0"},{"system":"http://snomed.info/sct","code":"4504004"}]},"subject":{"reference":"Patient/912e076d-3b5d-46cc-b2cb-c78172b295a3"},"performedPeriod":{"start":"2026-06-08T20:00:00.000+00:00"}},"request":{"method":"PUT","url":"Procedure/9924fb9b-436b-41f8-865b-33902f025d63"}},{"fullUrl":"https://madie.cms.gov/Condition/03d046e9-c068-4f33-b449-45fcf811aec1","resource":{"resourceType":"Condition","id":"03d046e9-c068-4f33-b449-45fcf811aec1","meta":{"profile":["http://hl7.org/fhir/us/qicore/StructureDefinition/qicore-condition"]},"category":[{"coding":[{"system":"http://terminology.hl7.org/CodeSystem/condition-category","code":"encounter-diagnosis","display":"Encounter Diagnosis"}]}],"code":{"coding":[{"system":"http://snomed.info/sct","version":"2022-09","code":"169826009","display":"Single live birth (finding)","userSelected":true}]},"subject":{"reference":"Patient/912e076d-3b5d-46cc-b2cb-c78172b295a3"},"recordedDate":"2026-10-21T08:00:00.000+00:00"},"request":{"method":"PUT","url":"Condition/03d046e9-c068-4f33-b449-45fcf811aec1"}},{"fullUrl":"https://madie.cms.gov/Coverage/a1d78f7c-65fc-41d6-a80f-c55fc34d2917","resource":{"resourceType":"Coverage","id":"a1d78f7c-65fc-41d6-a80f-c55fc34d2917","meta":{"profile":["http://hl7.org/fhir/us/qicore/StructureDefinition/qicore-coverage"]},"status":"active","subscriberId":"523435","beneficiary":{"reference":"Patient/912e076d-3b5d-46cc-b2cb-c78172b295a3"},"relationship":{"coding":[{"system":"http://terminology.hl7.org/CodeSystem/subscriber-relationship","code":"self"}]},"payor":[{"reference":"Organization/4c549f82-3479-46ed-a477-a9b50ee695e4"}]},"request":{"method":"PUT","url":"Coverage/a1d78f7c-65fc-41d6-a80f-c55fc34d2917"}},{"fullUrl":"https://madie.cms.gov/Organization/4c549f82-3479-46ed-a477-a9b50ee695e4","resource":{"resourceType":"Organization","id":"4c549f82-3479-46ed-a477-a9b50ee695e4","meta":{"profile":["http://hl7.org/fhir/us/qicore/StructureDefinition/qicore-organization"]},"identifier":[{"use":"temp","system":"urn:oid:2.16.840.1.113883.4.4","value":"21-3259825"}],"active":true,"type":[{"coding":[{"system":"http://terminology.hl7.org/CodeSystem/organization-type","code":"pay","display":"Payer"}]}],"name":"Blue Cross Blue Shield of Texas","telecom":[{"system":"phone","value":"(+1) 972-766-6900"}],"address":[{"use":"billing","type":"postal","line":["P.O. Box 660044"],"city":"Dallas","state":"TX","postalCode":"75266-0044","country":"USA"}]},"request":{"method":"PUT","url":"Organization/4c549f82-3479-46ed-a477-a9b50ee695e4"}},{"fullUrl":"https://madie.cms.gov/Practitioner/d467a0a6-d8ab-447a-a108-1ce569ae4ad6","resource":{"resourceType":"Practitioner","id":"d467a0a6-d8ab-447a-a108-1ce569ae4ad6","meta":{"profile":["http://hl7.org/fhir/us/qicore/StructureDefinition/qicore-practitioner"]},"identifier":[{"system":"http://hl7.org/fhir/sid/us-npi","value":"1234567890"}],"name":[{"family":"Evil","prefix":["Dr"]}]},"request":{"method":"PUT","url":"Practitioner/d467a0a6-d8ab-447a-a108-1ce569ae4ad6"}},{"fullUrl":"https://madie.cms.gov/MeasureReport/960f4b70-f249-4beb-8486-2409eee457e3","resource":{"resourceType":"MeasureReport","id":"960f4b70-f249-4beb-8486-2409eee457e3","meta":{"profile":["http://hl7.org/fhir/us/cqfmeasures/StructureDefinition/test-case-cqfm"]},"contained":[{"resourceType":"Parameters","id":"73908434-fc87-43e4-b5ce-7819d06dba57-parameters","parameter":[{"name":"subject","valueString":"912e076d-3b5d-46cc-b2cb-c78172b295a3"}]}],"extension":[{"url":"http://hl7.org/fhir/StructureDefinition/cqf-inputParameters","valueReference":{"reference":"#73908434-fc87-43e4-b5ce-7819d06dba57-parameters"}},{"url":"http://hl7.org/fhir/us/cqfmeasures/StructureDefinition/cqfm-testCaseDescription","valueMarkdown":"Passes IP,  intentional fail of the Den d/t EGA 36 weeks\n"}],"modifierExtension":[{"url":"http://hl7.org/fhir/us/cqfmeasures/StructureDefinition/cqfm-isTestCase","valueBoolean":true}],"status":"complete","type":"individual","measure":"https://madie.cms.gov/Measure/CMS0334FHIRPCCesareanBirth","period":{"start":"2026-01-01","end":"2026-12-31"},"group":[{"id":"Group_1","population":[{"id":"InitialPopulation_1","code":{"coding":[{"system":"http://terminology.hl7.org/CodeSystem/measure-population","code":"initial-population","display":"Initial Population"}]},"count":1},{"id":"Denominator_1","code":{"coding":[{"system":"http://terminology.hl7.org/CodeSystem/measure-population","code":"denominator","display":"Denominator"}]},"count":0},{"id":"DenominatorExclusion_1","code":{"coding":[{"system":"http://terminology.hl7.org/CodeSystem/measure-population","code":"denominator-exclusion","display":"Denominator Exclusion"}]},"count":0},{"id":"Numerator_1","code":{"coding":[{"system":"http://terminology.hl7.org/CodeSystem/measure-population","code":"numerator","display":"Numerator"}]},"count":0}],"measureScore":{"value":0.0}}],"evaluatedResource":[{"reference":"Patient/912e076d-3b5d-46cc-b2cb-c78172b295a3"},{"reference":"Observation/889388a0-b55e-48c4-847e-ceb732236c3e"},{"reference":"Observation/18d7f743-9ad0-4caa-8f9c-96376635fbd5"},{"reference":"Observation/eca88c1a-7e2f-4e62-9753-2a808725435f"},{"reference":"Observation/be46ba4e-accc-472c-93f9-8fdf26bc8da4"},{"reference":"Encounter/27256266-443f-413b-83c7-71e1560f8566"},{"reference":"Procedure/9924fb9b-436b-41f8-865b-33902f025d63"},{"reference":"Condition/03d046e9-c068-4f33-b449-45fcf811aec1"},{"reference":"Coverage/a1d78f7c-65fc-41d6-a80f-c55fc34d2917"},{"reference":"Organization/4c549f82-3479-46ed-a477-a9b50ee695e4"},{"reference":"Practitioner/d467a0a6-d8ab-447a-a108-1ce569ae4ad6"}]},"request":{"method":"PUT","url":"MeasureReport/960f4b70-f249-4beb-8486-2409eee457e3"}}]},"request":{"method":"PUT","url":"Bundle/63487c2d0968f80122540143"}},{"fullUrl":"Organization/4c549f82-3479-46ed-a477-a9b50ee695e4","resource":{"resourceType":"Organization","id":"4c549f82-3479-46ed-a477-a9b50ee695e4","meta":{"profile":["http://hl7.org/fhir/us/qicore/StructureDefinition/qicore-organization"]},"identifier":[{"use":"temp","system":"urn:oid:2.16.840.1.113883.4.4","value":"21-3259825"}],"active":true,"type":[{"coding":[{"system":"http://terminology.hl7.org/CodeSystem/organization-type","code":"pay","display":"Payer"}]}],"name":"Blue Cross Blue Shield of Texas","telecom":[{"system":"phone","value":"(+1) 972-766-6900"}],"address":[{"use":"billing","type":"postal","line":["P.O. Box 660044"],"city":"Dallas","state":"TX","postalCode":"75266-0044","country":"USA"}]},"request":{"method":"PUT","url":"Organization/4c549f82-3479-46ed-a477-a9b50ee695e4"}},{"fullUrl":"Coverage/a1d78f7c-65fc-41d6-a80f-c55fc34d2917","resource":{"resourceType":"Coverage","id":"a1d78f7c-65fc-41d6-a80f-c55fc34d2917","meta":{"profile":["http://hl7.org/fhir/us/qicore/StructureDefinition/qicore-coverage"]},"status":"active","subscriberId":"523435","beneficiary":{"reference":"Patient/912e076d-3b5d-46cc-b2cb-c78172b295a3"},"relationship":{"coding":[{"system":"http://terminology.hl7.org/CodeSystem/subscriber-relationship","code":"self"}]},"payor":[{"reference":"Organization/4c549f82-3479-46ed-a477-a9b50ee695e4"}]},"request":{"method":"PUT","url":"Coverage/a1d78f7c-65fc-41d6-a80f-c55fc34d2917"}},{"fullUrl":"Observation/889388a0-b55e-48c4-847e-ceb732236c3e","resource":{"resourceType":"Observation","id":"889388a0-b55e-48c4-847e-ceb732236c3e","meta":{"profile":["http://hl7.org/fhir/us/qicore/StructureDefinition/qicore-simple-observation"]},"status":"final","category":[{"coding":[{"system":"http://terminology.hl7.org/CodeSystem/observation-category","code":"exam","display":"exam","userSelected":true}]}],"code":{"coding":[{"system":"http://loinc.org","code":"11977-6"}]},"subject":{"reference":"Patient/912e076d-3b5d-46cc-b2cb-c78172b295a3"},"effectiveDateTime":"2026-03-08T09:00:00.000+00:00","performer":[{"reference":"Organization/example1","display":"Hendricks Country Hospital"}],"valueInteger":0},"request":{"method":"PUT","url":"Observation/889388a0-b55e-48c4-847e-ceb732236c3e"}},{"fullUrl":"Encounter/27256266-443f-413b-83c7-71e1560f8566","resource":{"resourceType":"Encounter","id":"27256266-443f-413b-83c7-71e1560f8566","meta":{"profile":["http://hl7.org/fhir/us/qicore/StructureDefinition/qicore-encounter"]},"status":"finished","class":{"system":"http://terminology.hl7.org/CodeSystem/v3-ActCode","code":"IMP","display":"inpatient encounter"},"type":[{"coding":[{"system":"http://snomed.info/sct","code":"8715000"}]}],"subject":{"reference":"Patient/912e076d-3b5d-46cc-b2cb-c78172b295a3"},"period":{"start":"2026-06-08T08:00:00.000+00:00","end":"2026-06-10T08:15:00.000+00:00"},"length":{"value":2,"unit":"days"},"reasonCode":[{"coding":[{"system":"http://snomed.info/sct","code":"169826009","display":"Single live birth from singleton pregnancy (finding)"}]}]},"request":{"method":"PUT","url":"Encounter/27256266-443f-413b-83c7-71e1560f8566"}}]}