{"resourceType":"Bundle","id":"tests-839d14a7-b370-4b12-b324-60a7a810b77c-bundle","type":"transaction","entry":[{"resource":{"resourceType":"Observation","id":"0b12ecc2-5109-4245-bcb9-d24cea4a7db0","meta":{"profile":["http://hl7.org/fhir/us/qicore/StructureDefinition/qicore-simple-observation"]},"status":"final","category":[{"coding":[{"system":"http://terminology.hl7.org/CodeSystem/observation-category","code":"exam","display":"exam","userSelected":true}]}],"code":{"coding":[{"system":"http://loinc.org","code":"11639-2"}]},"subject":{"reference":"Patient/839d14a7-b370-4b12-b324-60a7a810b77c"},"effectiveDateTime":"2026-06-08T17:00:00.000+00:00","valueInteger":0},"request":{"method":"PUT","url":"Observation/0b12ecc2-5109-4245-bcb9-d24cea4a7db0"}},{"resource":{"resourceType":"Bundle","id":"63487c2d0968f80122540160","type":"transaction","entry":[{"fullUrl":"https://madie.cms.gov/Patient/839d14a7-b370-4b12-b324-60a7a810b77c","resource":{"resourceType":"Patient","id":"839d14a7-b370-4b12-b324-60a7a810b77c","meta":{"profile":["http://hl7.org/fhir/us/qicore/StructureDefinition/qicore-patient"]},"text":{"status":"generated","div":"<div xmlns=\"http://www.w3.org/1999/xhtml\"><div class=\"hapiHeaderText\">AssessTerm0RelDtTimeB4TimeOfDelivDtTime <b>DENPASS </b></div><table class=\"hapiPropertyTable\"><tbody><tr><td>Identifier</td><td>98b486907e2f425b582fc615d2904634e2f052873def7e64eba3846957a32ac0</td></tr><tr><td>Date of birth</td><td><span>14 February 1985</span></td></tr></tbody></table></div>"},"extension":[{"url":"http://hl7.org/fhir/us/core/StructureDefinition/us-core-race","extension":[{"url":"ombCategory","valueCoding":{"system":"urn:oid:2.16.840.1.113883.6.238","code":"1002-5","display":"American Indian or Alaska Native","userSelected":true}},{"url":"text","valueString":"American Indian or Alaska Native"}]},{"url":"http://hl7.org/fhir/us/core/StructureDefinition/us-core-ethnicity","extension":[{"url":"ombCategory","valueCoding":{"system":"urn:oid:2.16.840.1.113883.6.238","code":"2135-2","display":"Hispanic or Latino","userSelected":true}},{"url":"text","valueString":"Hispanic or Latino"}]}],"identifier":[{"type":{"coding":[{"system":"http://terminology.hl7.org/CodeSystem/v2-0203","code":"MR"}]},"system":"https://bonnie-fhir.healthit.gov/","value":"63487c2d0968f80122540160"}],"active":true,"name":[{"use":"usual","family":"DENPass","given":["AssessTerm0RelDtTimeB4TimeOfDelivDtTime"]}],"gender":"female","birthDate":"1998-02-14"},"request":{"method":"PUT","url":"Patient/839d14a7-b370-4b12-b324-60a7a810b77c"}},{"fullUrl":"https://madie.cms.gov/Observation/c21888c6-d110-4f8c-89c4-84b5d562ce5c","resource":{"resourceType":"Observation","id":"c21888c6-d110-4f8c-89c4-84b5d562ce5c","meta":{"profile":["http://hl7.org/fhir/us/qicore/StructureDefinition/qicore-simple-observation"]},"status":"final","category":[{"coding":[{"system":"http://terminology.hl7.org/CodeSystem/observation-category","code":"exam","display":"exam","userSelected":true}]}],"code":{"coding":[{"system":"http://loinc.org","code":"11637-6"}]},"subject":{"reference":"Patient/839d14a7-b370-4b12-b324-60a7a810b77c"},"effectiveDateTime":"2025-09-19T09:00:00.000+00:00","valueInteger":0},"request":{"method":"PUT","url":"Observation/c21888c6-d110-4f8c-89c4-84b5d562ce5c"}},{"fullUrl":"https://madie.cms.gov/Observation/0b12ecc2-5109-4245-bcb9-d24cea4a7db0","resource":{"resourceType":"Observation","id":"0b12ecc2-5109-4245-bcb9-d24cea4a7db0","meta":{"profile":["http://hl7.org/fhir/us/qicore/StructureDefinition/qicore-simple-observation"]},"status":"final","category":[{"coding":[{"system":"http://terminology.hl7.org/CodeSystem/observation-category","code":"exam","display":"exam","userSelected":true}]}],"code":{"coding":[{"system":"http://loinc.org","code":"11639-2"}]},"subject":{"reference":"Patient/839d14a7-b370-4b12-b324-60a7a810b77c"},"effectiveDateTime":"2026-06-08T17:00:00.000+00:00","valueInteger":0},"request":{"method":"PUT","url":"Observation/0b12ecc2-5109-4245-bcb9-d24cea4a7db0"}},{"fullUrl":"https://madie.cms.gov/Observation/2243158d-1476-4b0b-b776-63325e68ec77","resource":{"resourceType":"Observation","id":"2243158d-1476-4b0b-b776-63325e68ec77","meta":{"profile":["http://hl7.org/fhir/us/qicore/StructureDefinition/qicore-simple-observation"]},"status":"final","category":[{"coding":[{"system":"http://terminology.hl7.org/CodeSystem/observation-category","code":"exam","display":"exam","userSelected":true}]}],"code":{"coding":[{"system":"http://loinc.org","code":"11884-4"}]},"subject":{"reference":"Patient/839d14a7-b370-4b12-b324-60a7a810b77c"},"effectiveDateTime":"2026-06-08T20:00:00.000+00:00","valueQuantity":{"value":37,"system":"http://unitsofmeasure.org","code":"wk"}},"request":{"method":"PUT","url":"Observation/2243158d-1476-4b0b-b776-63325e68ec77"}},{"fullUrl":"https://madie.cms.gov/Observation/59831135-122f-4388-a97f-2b8869e6a421","resource":{"resourceType":"Observation","id":"59831135-122f-4388-a97f-2b8869e6a421","meta":{"profile":["http://hl7.org/fhir/us/qicore/StructureDefinition/qicore-simple-observation"]},"status":"final","category":[{"coding":[{"system":"http://terminology.hl7.org/CodeSystem/observation-category","code":"exam","display":"exam","userSelected":true}]}],"code":{"coding":[{"system":"http://loinc.org","code":"93857-1"}]},"subject":{"reference":"Patient/839d14a7-b370-4b12-b324-60a7a810b77c"},"effectiveDateTime":"2026-06-08T20:00:00.000+00:00","valueDateTime":"2026-06-08T20:00:00.000+00:00"},"request":{"method":"PUT","url":"Observation/59831135-122f-4388-a97f-2b8869e6a421"}},{"fullUrl":"https://madie.cms.gov/Encounter/feb69e36-fe68-4319-864b-93b2cacdd672","resource":{"resourceType":"Encounter","id":"feb69e36-fe68-4319-864b-93b2cacdd672","meta":{"profile":["http://hl7.org/fhir/us/qicore/StructureDefinition/qicore-encounter"]},"status":"finished","class":{"system":"http://terminology.hl7.org/CodeSystem/v3-ActCode","code":"IMP","display":"inpatient encounter"},"type":[{"coding":[{"system":"http://snomed.info/sct","code":"8715000"}]}],"subject":{"reference":"Patient/839d14a7-b370-4b12-b324-60a7a810b77c"},"period":{"start":"2026-06-08T08:00:00.000+00:00","end":"2026-06-10T08:15:00.000+00:00"},"length":{"value":2,"unit":"days"},"reasonReference":[{"reference":"Condition/288d6968-8961-480a-ae71-e8b91ed6578b"}]},"request":{"method":"PUT","url":"Encounter/feb69e36-fe68-4319-864b-93b2cacdd672"}},{"fullUrl":"https://madie.cms.gov/Coverage/5f5f9e471c76ba674bb032bf","resource":{"resourceType":"Coverage","id":"5f5f9e471c76ba674bb032bf","meta":{"profile":["http://hl7.org/fhir/us/qicore/StructureDefinition/qicore-coverage"]},"status":"active","subscriberId":"523435","beneficiary":{"reference":"Patient/839d14a7-b370-4b12-b324-60a7a810b77c"},"relationship":{"coding":[{"system":"http://terminology.hl7.org/CodeSystem/subscriber-relationship","code":"self"}]},"period":{"start":"1986-02-14T08:00:00.000+00:00"},"payor":[{"reference":"Organization/0412bf75-c9f7-4b34-bf31-16928a95cd83"}]},"request":{"method":"PUT","url":"Coverage/5f5f9e471c76ba674bb032bf"}},{"fullUrl":"https://madie.cms.gov/Procedure/707c28f3-bd77-4bc4-9589-30ff311522b0","resource":{"resourceType":"Procedure","id":"707c28f3-bd77-4bc4-9589-30ff311522b0","meta":{"profile":["http://hl7.org/fhir/us/qicore/StructureDefinition/qicore-procedure"]},"extension":[{"url":"http://hl7.org/fhir/us/qicore/StructureDefinition/qicore-recorded","valueDateTime":"2014-04-05T13:35:00.000+00:00"}],"status":"completed","code":{"coding":[{"system":"http://www.cms.gov/Medicare/Coding/ICD10","code":"10D00Z0"},{"system":"http://snomed.info/sct","code":"4504004"}]},"subject":{"reference":"Patient/839d14a7-b370-4b12-b324-60a7a810b77c"},"performedPeriod":{"start":"2026-06-08T20:00:00.000+00:00","end":"2026-06-08T20:15:00.000+00:00"}},"request":{"method":"PUT","url":"Procedure/707c28f3-bd77-4bc4-9589-30ff311522b0"}},{"fullUrl":"https://madie.cms.gov/Condition/288d6968-8961-480a-ae71-e8b91ed6578b","resource":{"resourceType":"Condition","id":"288d6968-8961-480a-ae71-e8b91ed6578b","meta":{"profile":["http://hl7.org/fhir/us/qicore/StructureDefinition/qicore-condition-encounter-diagnosis"]},"category":[{"coding":[{"system":"http://terminology.hl7.org/CodeSystem/condition-category","code":"encounter-diagnosis","display":"Encounter Diagnosis"}]}],"code":{"coding":[{"system":"http://snomed.info/sct","version":"2022-09","code":"169826009","display":"Single live birth from singleton pregnancy (finding)","userSelected":true}]},"subject":{"reference":"Patient/839d14a7-b370-4b12-b324-60a7a810b77c"},"encounter":{"reference":"Encounter/feb69e36-fe68-4319-864b-93b2cacdd672"},"recordedDate":"2026-10-20T08:00:00.000+00:00"},"request":{"method":"PUT","url":"Condition/288d6968-8961-480a-ae71-e8b91ed6578b"}},{"fullUrl":"https://madie.cms.gov/Organization/0412bf75-c9f7-4b34-bf31-16928a95cd83","resource":{"resourceType":"Organization","id":"0412bf75-c9f7-4b34-bf31-16928a95cd83","meta":{"profile":["http://hl7.org/fhir/us/qicore/StructureDefinition/qicore-organization"]},"identifier":[{"use":"temp","system":"urn:oid:2.16.840.1.113883.4.4","value":"21-3259825"}],"active":true,"type":[{"coding":[{"system":"http://terminology.hl7.org/CodeSystem/organization-type","code":"pay","display":"Payer"}]}],"name":"Blue Cross Blue Shield of Texas","telecom":[{"system":"phone","value":"(+1) 972-766-6900"}],"address":[{"use":"billing","type":"postal","line":["P.O. Box 660044"],"city":"Dallas","state":"TX","postalCode":"75266-0044","country":"USA"}]},"request":{"method":"PUT","url":"Organization/0412bf75-c9f7-4b34-bf31-16928a95cd83"}},{"fullUrl":"https://madie.cms.gov/Practitioner/13431480-67ae-4b9b-933c-63bcca4edb66","resource":{"resourceType":"Practitioner","id":"13431480-67ae-4b9b-933c-63bcca4edb66","meta":{"profile":["http://hl7.org/fhir/us/qicore/StructureDefinition/qicore-practitioner"]},"identifier":[{"system":"http://hl7.org/fhir/sid/us-npi","value":"1234567890"}],"name":[{"family":"Evil","prefix":["Dr"]}]},"request":{"method":"PUT","url":"Practitioner/13431480-67ae-4b9b-933c-63bcca4edb66"}},{"fullUrl":"https://madie.cms.gov/MeasureReport/c573e8e9-9d54-43bb-b60f-6c4f337e4e1b","resource":{"resourceType":"MeasureReport","id":"c573e8e9-9d54-43bb-b60f-6c4f337e4e1b","meta":{"profile":["http://hl7.org/fhir/us/cqfmeasures/StructureDefinition/test-case-cqfm"]},"contained":[{"resourceType":"Parameters","id":"ccb5b599-cffc-47fd-9257-f12415318ddc-parameters","parameter":[{"name":"subject","valueString":"839d14a7-b370-4b12-b324-60a7a810b77c"}]}],"extension":[{"url":"http://hl7.org/fhir/StructureDefinition/cqf-inputParameters","valueReference":{"reference":"#ccb5b599-cffc-47fd-9257-f12415318ddc-parameters"}},{"url":"http://hl7.org/fhir/us/cqfmeasures/StructureDefinition/cqfm-testCaseDescription","valueMarkdown":"\"Preterm Births=0, rel date/time < 42weeks prior to delivery\nTerm Newborn=0, rel date/time same date and before delivery time\"\n"}],"modifierExtension":[{"url":"http://hl7.org/fhir/us/cqfmeasures/StructureDefinition/cqfm-isTestCase","valueBoolean":true}],"status":"complete","type":"individual","measure":"https://madie.cms.gov/Measure/CMS0334FHIRPCCesareanBirth","period":{"start":"2026-01-01","end":"2026-12-31"},"group":[{"id":"Group_1","population":[{"id":"InitialPopulation_1","code":{"coding":[{"system":"http://terminology.hl7.org/CodeSystem/measure-population","code":"initial-population","display":"Initial Population"}]},"count":1},{"id":"Denominator_1","code":{"coding":[{"system":"http://terminology.hl7.org/CodeSystem/measure-population","code":"denominator","display":"Denominator"}]},"count":1},{"id":"DenominatorExclusion_1","code":{"coding":[{"system":"http://terminology.hl7.org/CodeSystem/measure-population","code":"denominator-exclusion","display":"Denominator Exclusion"}]},"count":0},{"id":"Numerator_1","code":{"coding":[{"system":"http://terminology.hl7.org/CodeSystem/measure-population","code":"numerator","display":"Numerator"}]},"count":1}],"measureScore":{"value":0.0}}],"evaluatedResource":[{"reference":"Patient/839d14a7-b370-4b12-b324-60a7a810b77c"},{"reference":"Observation/c21888c6-d110-4f8c-89c4-84b5d562ce5c"},{"reference":"Observation/0b12ecc2-5109-4245-bcb9-d24cea4a7db0"},{"reference":"Observation/2243158d-1476-4b0b-b776-63325e68ec77"},{"reference":"Observation/59831135-122f-4388-a97f-2b8869e6a421"},{"reference":"Encounter/feb69e36-fe68-4319-864b-93b2cacdd672"},{"reference":"Coverage/5f5f9e471c76ba674bb032bf"},{"reference":"Procedure/707c28f3-bd77-4bc4-9589-30ff311522b0"},{"reference":"Condition/288d6968-8961-480a-ae71-e8b91ed6578b"},{"reference":"Organization/0412bf75-c9f7-4b34-bf31-16928a95cd83"},{"reference":"Practitioner/13431480-67ae-4b9b-933c-63bcca4edb66"}]},"request":{"method":"PUT","url":"MeasureReport/c573e8e9-9d54-43bb-b60f-6c4f337e4e1b"}}]},"request":{"method":"PUT","url":"Bundle/63487c2d0968f80122540160"}},{"resource":{"resourceType":"Organization","id":"0412bf75-c9f7-4b34-bf31-16928a95cd83","meta":{"profile":["http://hl7.org/fhir/us/qicore/StructureDefinition/qicore-organization"]},"identifier":[{"use":"temp","system":"urn:oid:2.16.840.1.113883.4.4","value":"21-3259825"}],"active":true,"type":[{"coding":[{"system":"http://terminology.hl7.org/CodeSystem/organization-type","code":"pay","display":"Payer"}]}],"name":"Blue Cross Blue Shield of Texas","telecom":[{"system":"phone","value":"(+1) 972-766-6900"}],"address":[{"use":"billing","type":"postal","line":["P.O. Box 660044"],"city":"Dallas","state":"TX","postalCode":"75266-0044","country":"USA"}]},"request":{"method":"PUT","url":"Organization/0412bf75-c9f7-4b34-bf31-16928a95cd83"}},{"resource":{"resourceType":"Coverage","id":"5f5f9e471c76ba674bb032bf","meta":{"profile":["http://hl7.org/fhir/us/qicore/StructureDefinition/qicore-coverage"]},"status":"active","subscriberId":"523435","beneficiary":{"reference":"Patient/839d14a7-b370-4b12-b324-60a7a810b77c"},"relationship":{"coding":[{"system":"http://terminology.hl7.org/CodeSystem/subscriber-relationship","code":"self"}]},"period":{"start":"1986-02-14T08:00:00.000+00:00"},"payor":[{"reference":"Organization/0412bf75-c9f7-4b34-bf31-16928a95cd83"}]},"request":{"method":"PUT","url":"Coverage/5f5f9e471c76ba674bb032bf"}},{"resource":{"resourceType":"Practitioner","id":"13431480-67ae-4b9b-933c-63bcca4edb66","meta":{"profile":["http://hl7.org/fhir/us/qicore/StructureDefinition/qicore-practitioner"]},"identifier":[{"system":"http://hl7.org/fhir/sid/us-npi","value":"1234567890"}],"name":[{"family":"Evil","prefix":["Dr"]}]},"request":{"method":"PUT","url":"Practitioner/13431480-67ae-4b9b-933c-63bcca4edb66"}},{"resource":{"resourceType":"Condition","id":"288d6968-8961-480a-ae71-e8b91ed6578b","meta":{"profile":["http://hl7.org/fhir/us/qicore/StructureDefinition/qicore-condition-encounter-diagnosis"]},"category":[{"coding":[{"system":"http://terminology.hl7.org/CodeSystem/condition-category","code":"encounter-diagnosis","display":"Encounter Diagnosis"}]}],"code":{"coding":[{"system":"http://snomed.info/sct","version":"2022-09","code":"169826009","display":"Single live birth from singleton pregnancy (finding)","userSelected":true}]},"subject":{"reference":"Patient/839d14a7-b370-4b12-b324-60a7a810b77c"},"encounter":{"reference":"Encounter/feb69e36-fe68-4319-864b-93b2cacdd672"},"recordedDate":"2026-10-20T08:00:00.000+00:00"},"request":{"method":"PUT","url":"Condition/288d6968-8961-480a-ae71-e8b91ed6578b"}},{"resource":{"resourceType":"Encounter","id":"feb69e36-fe68-4319-864b-93b2cacdd672","meta":{"profile":["http://hl7.org/fhir/us/qicore/StructureDefinition/qicore-encounter"]},"status":"finished","class":{"system":"http://terminology.hl7.org/CodeSystem/v3-ActCode","code":"IMP","display":"inpatient encounter"},"type":[{"coding":[{"system":"http://snomed.info/sct","code":"8715000"}]}],"subject":{"reference":"Patient/839d14a7-b370-4b12-b324-60a7a810b77c"},"period":{"start":"2026-06-08T08:00:00.000+00:00","end":"2026-06-10T08:15:00.000+00:00"},"length":{"value":2,"unit":"days"},"reasonReference":[{"reference":"Condition/288d6968-8961-480a-ae71-e8b91ed6578b"}]},"request":{"method":"PUT","url":"Encounter/feb69e36-fe68-4319-864b-93b2cacdd672"}},{"resource":{"resourceType":"MeasureReport","id":"c573e8e9-9d54-43bb-b60f-6c4f337e4e1b","meta":{"profile":["http://hl7.org/fhir/us/cqfmeasures/StructureDefinition/test-case-cqfm"]},"contained":[{"resourceType":"Parameters","id":"ccb5b599-cffc-47fd-9257-f12415318ddc-parameters","parameter":[{"name":"subject","valueString":"839d14a7-b370-4b12-b324-60a7a810b77c"}]}],"extension":[{"url":"http://hl7.org/fhir/StructureDefinition/cqf-inputParameters","valueReference":{"reference":"#ccb5b599-cffc-47fd-9257-f12415318ddc-parameters"}},{"url":"http://hl7.org/fhir/us/cqfmeasures/StructureDefinition/cqfm-testCaseDescription","valueMarkdown":"\"Preterm Births=0, rel date/time < 42weeks prior to delivery\nTerm Newborn=0, rel date/time same date and before delivery time\"\n"}],"modifierExtension":[{"url":"http://hl7.org/fhir/us/cqfmeasures/StructureDefinition/cqfm-isTestCase","valueBoolean":true}],"status":"complete","type":"individual","measure":"https://madie.cms.gov/Measure/CMS0334FHIRPCCesareanBirth","period":{"start":"2026-01-01","end":"2026-12-31"},"group":[{"id":"Group_1","population":[{"id":"InitialPopulation_1","code":{"coding":[{"system":"http://terminology.hl7.org/CodeSystem/measure-population","code":"initial-population","display":"Initial Population"}]},"count":1},{"id":"Denominator_1","code":{"coding":[{"system":"http://terminology.hl7.org/CodeSystem/measure-population","code":"denominator","display":"Denominator"}]},"count":1},{"id":"DenominatorExclusion_1","code":{"coding":[{"system":"http://terminology.hl7.org/CodeSystem/measure-population","code":"denominator-exclusion","display":"Denominator Exclusion"}]},"count":0},{"id":"Numerator_1","code":{"coding":[{"system":"http://terminology.hl7.org/CodeSystem/measure-population","code":"numerator","display":"Numerator"}]},"count":1}],"measureScore":{"value":0.0}}],"evaluatedResource":[{"reference":"Patient/839d14a7-b370-4b12-b324-60a7a810b77c"},{"reference":"Observation/c21888c6-d110-4f8c-89c4-84b5d562ce5c"},{"reference":"Observation/0b12ecc2-5109-4245-bcb9-d24cea4a7db0"},{"reference":"Observation/2243158d-1476-4b0b-b776-63325e68ec77"},{"reference":"Observation/59831135-122f-4388-a97f-2b8869e6a421"},{"reference":"Encounter/feb69e36-fe68-4319-864b-93b2cacdd672"},{"reference":"Coverage/5f5f9e471c76ba674bb032bf"},{"reference":"Procedure/707c28f3-bd77-4bc4-9589-30ff311522b0"},{"reference":"Condition/288d6968-8961-480a-ae71-e8b91ed6578b"},{"reference":"Organization/0412bf75-c9f7-4b34-bf31-16928a95cd83"},{"reference":"Practitioner/13431480-67ae-4b9b-933c-63bcca4edb66"}]},"request":{"method":"PUT","url":"MeasureReport/c573e8e9-9d54-43bb-b60f-6c4f337e4e1b"}},{"resource":{"resourceType":"Observation","id":"2243158d-1476-4b0b-b776-63325e68ec77","meta":{"profile":["http://hl7.org/fhir/us/qicore/StructureDefinition/qicore-simple-observation"]},"status":"final","category":[{"coding":[{"system":"http://terminology.hl7.org/CodeSystem/observation-category","code":"exam","display":"exam","userSelected":true}]}],"code":{"coding":[{"system":"http://loinc.org","code":"11884-4"}]},"subject":{"reference":"Patient/839d14a7-b370-4b12-b324-60a7a810b77c"},"effectiveDateTime":"2026-06-08T20:00:00.000+00:00","valueQuantity":{"value":37,"system":"http://unitsofmeasure.org","code":"wk"}},"request":{"method":"PUT","url":"Observation/2243158d-1476-4b0b-b776-63325e68ec77"}},{"resource":{"resourceType":"Observation","id":"59831135-122f-4388-a97f-2b8869e6a421","meta":{"profile":["http://hl7.org/fhir/us/qicore/StructureDefinition/qicore-simple-observation"]},"status":"final","category":[{"coding":[{"system":"http://terminology.hl7.org/CodeSystem/observation-category","code":"exam","display":"exam","userSelected":true}]}],"code":{"coding":[{"system":"http://loinc.org","code":"93857-1"}]},"subject":{"reference":"Patient/839d14a7-b370-4b12-b324-60a7a810b77c"},"effectiveDateTime":"2026-06-08T20:00:00.000+00:00","valueDateTime":"2026-06-08T20:00:00.000+00:00"},"request":{"method":"PUT","url":"Observation/59831135-122f-4388-a97f-2b8869e6a421"}},{"resource":{"resourceType":"Procedure","id":"707c28f3-bd77-4bc4-9589-30ff311522b0","meta":{"profile":["http://hl7.org/fhir/us/qicore/StructureDefinition/qicore-procedure"]},"extension":[{"url":"http://hl7.org/fhir/us/qicore/StructureDefinition/qicore-recorded","valueDateTime":"2014-04-05T13:35:00.000+00:00"}],"status":"completed","code":{"coding":[{"system":"http://www.cms.gov/Medicare/Coding/ICD10","code":"10D00Z0"},{"system":"http://snomed.info/sct","code":"4504004"}]},"subject":{"reference":"Patient/839d14a7-b370-4b12-b324-60a7a810b77c"},"performedPeriod":{"start":"2026-06-08T20:00:00.000+00:00","end":"2026-06-08T20:15:00.000+00:00"}},"request":{"method":"PUT","url":"Procedure/707c28f3-bd77-4bc4-9589-30ff311522b0"}},{"resource":{"resourceType":"Patient","id":"839d14a7-b370-4b12-b324-60a7a810b77c","meta":{"profile":["http://hl7.org/fhir/us/qicore/StructureDefinition/qicore-patient"]},"text":{"status":"generated","div":"<div xmlns=\"http://www.w3.org/1999/xhtml\"><div class=\"hapiHeaderText\">AssessTerm0RelDtTimeB4TimeOfDelivDtTime <b>DENPASS </b></div><table class=\"hapiPropertyTable\"><tbody><tr><td>Identifier</td><td>98b486907e2f425b582fc615d2904634e2f052873def7e64eba3846957a32ac0</td></tr><tr><td>Date of birth</td><td><span>14 February 1985</span></td></tr></tbody></table></div>"},"extension":[{"url":"http://hl7.org/fhir/us/core/StructureDefinition/us-core-race","extension":[{"url":"ombCategory","valueCoding":{"system":"urn:oid:2.16.840.1.113883.6.238","code":"1002-5","display":"American Indian or Alaska Native","userSelected":true}},{"url":"text","valueString":"American Indian or Alaska Native"}]},{"url":"http://hl7.org/fhir/us/core/StructureDefinition/us-core-ethnicity","extension":[{"url":"ombCategory","valueCoding":{"system":"urn:oid:2.16.840.1.113883.6.238","code":"2135-2","display":"Hispanic or Latino","userSelected":true}},{"url":"text","valueString":"Hispanic or Latino"}]}],"identifier":[{"type":{"coding":[{"system":"http://terminology.hl7.org/CodeSystem/v2-0203","code":"MR"}]},"system":"https://bonnie-fhir.healthit.gov/","value":"63487c2d0968f80122540160"}],"active":true,"name":[{"use":"usual","family":"DENPass","given":["AssessTerm0RelDtTimeB4TimeOfDelivDtTime"]}],"gender":"female","birthDate":"1998-02-14"},"request":{"method":"PUT","url":"Patient/839d14a7-b370-4b12-b324-60a7a810b77c"}},{"resource":{"resourceType":"Observation","id":"c21888c6-d110-4f8c-89c4-84b5d562ce5c","meta":{"profile":["http://hl7.org/fhir/us/qicore/StructureDefinition/qicore-simple-observation"]},"status":"final","category":[{"coding":[{"system":"http://terminology.hl7.org/CodeSystem/observation-category","code":"exam","display":"exam","userSelected":true}]}],"code":{"coding":[{"system":"http://loinc.org","code":"11637-6"}]},"subject":{"reference":"Patient/839d14a7-b370-4b12-b324-60a7a810b77c"},"effectiveDateTime":"2025-09-19T09:00:00.000+00:00","valueInteger":0},"request":{"method":"PUT","url":"Observation/c21888c6-d110-4f8c-89c4-84b5d562ce5c"}}]}