{"resourceType":"Bundle","id":"tests-75e27496-6999-4aa6-942e-285335503512-bundle","type":"transaction","entry":[{"fullUrl":"Organization/3fc39827-4cf5-4f4c-b2df-e10ac85e20b0","resource":{"resourceType":"Organization","id":"3fc39827-4cf5-4f4c-b2df-e10ac85e20b0","meta":{"profile":["http://hl7.org/fhir/us/qicore/StructureDefinition/qicore-organization"]},"identifier":[{"use":"temp","system":"urn:oid:2.16.840.1.113883.4.4","value":"21-3259825"}],"active":true,"type":[{"coding":[{"system":"http://terminology.hl7.org/CodeSystem/organization-type","code":"pay","display":"Payer"}]}],"name":"Blue Cross Blue Shield of Texas","telecom":[{"system":"phone","value":"(+1) 972-766-6900"}],"address":[{"use":"billing","type":"postal","line":["P.O. Box 660044"],"city":"Dallas","state":"TX","postalCode":"75266-0044","country":"USA"}]},"request":{"method":"PUT","url":"Organization/3fc39827-4cf5-4f4c-b2df-e10ac85e20b0"}},{"fullUrl":"Bundle/63487c2d0968f8012254015b","resource":{"resourceType":"Bundle","id":"63487c2d0968f8012254015b","type":"transaction","entry":[{"fullUrl":"https://madie.cms.gov/Patient/75e27496-6999-4aa6-942e-285335503512","resource":{"resourceType":"Patient","id":"75e27496-6999-4aa6-942e-285335503512","meta":{"profile":["http://hl7.org/fhir/us/qicore/StructureDefinition/qicore-patient"]},"text":{"status":"generated","div":"<div xmlns=\"http://www.w3.org/1999/xhtml\"><div class=\"hapiHeaderText\">AssessTerm1<b>DENOMFail</b></div><table class=\"hapiPropertyTable\"><tbody><tr><td>Identifier</td><td>3d741787aa738fa636b1082e91ae1904963d7b4c579cafa8ea4afffc8342b0a3</td></tr><tr><td>Date of birth</td><td><span>14 February 1985</span></td></tr></tbody></table></div>"},"extension":[{"url":"http://hl7.org/fhir/us/core/StructureDefinition/us-core-race","extension":[{"url":"ombCategory","valueCoding":{"system":"urn:oid:2.16.840.1.113883.6.238","code":"1002-5","display":"American Indian or Alaska Native","userSelected":true}},{"url":"text","valueString":"American Indian or Alaska Native"}]},{"url":"http://hl7.org/fhir/us/core/StructureDefinition/us-core-ethnicity","extension":[{"url":"ombCategory","valueCoding":{"system":"urn:oid:2.16.840.1.113883.6.238","code":"2135-2","display":"Hispanic or Latino","userSelected":true}},{"url":"text","valueString":"Hispanic or Latino"}]}],"identifier":[{"type":{"coding":[{"system":"http://terminology.hl7.org/CodeSystem/v2-0203","code":"MR"}]},"system":"https://bonnie-fhir.healthit.gov/","value":"63487c2d0968f8012254015b"}],"active":true,"name":[{"use":"usual","family":"DENOMFail","given":["AssessTerm1"]}],"gender":"female","birthDate":"1998-02-14"},"request":{"method":"PUT","url":"Patient/75e27496-6999-4aa6-942e-285335503512"}},{"fullUrl":"https://madie.cms.gov/Observation/fdb817d8-1fa4-4e40-8b50-2f8d9e5247e6","resource":{"resourceType":"Observation","id":"fdb817d8-1fa4-4e40-8b50-2f8d9e5247e6","meta":{"profile":["http://hl7.org/fhir/us/qicore/StructureDefinition/qicore-simple-observation"]},"status":"final","category":[{"coding":[{"system":"http://terminology.hl7.org/CodeSystem/observation-category","code":"exam","display":"exam","userSelected":true}]}],"code":{"coding":[{"system":"http://loinc.org","code":"11637-6"}]},"subject":{"reference":"Patient/75e27496-6999-4aa6-942e-285335503512"},"effectiveDateTime":"2025-09-19T09:00:00.000+00:00","valueInteger":0},"request":{"method":"PUT","url":"Observation/fdb817d8-1fa4-4e40-8b50-2f8d9e5247e6"}},{"fullUrl":"https://madie.cms.gov/Observation/0f83708c-deef-478d-bdb4-2b6e4ba49e74","resource":{"resourceType":"Observation","id":"0f83708c-deef-478d-bdb4-2b6e4ba49e74","meta":{"profile":["http://hl7.org/fhir/us/qicore/StructureDefinition/qicore-simple-observation"]},"status":"final","category":[{"coding":[{"system":"http://terminology.hl7.org/CodeSystem/observation-category","code":"exam","display":"exam","userSelected":true}]}],"code":{"coding":[{"system":"http://loinc.org","code":"11639-2"}]},"subject":{"reference":"Patient/75e27496-6999-4aa6-942e-285335503512"},"effectiveDateTime":"2025-09-19T09:00:00.000+00:00","valueInteger":1},"request":{"method":"PUT","url":"Observation/0f83708c-deef-478d-bdb4-2b6e4ba49e74"}},{"fullUrl":"https://madie.cms.gov/Observation/4f47d407-0b1b-49f9-967f-7a49a6cf7532","resource":{"resourceType":"Observation","id":"4f47d407-0b1b-49f9-967f-7a49a6cf7532","meta":{"profile":["http://hl7.org/fhir/us/qicore/StructureDefinition/qicore-simple-observation"]},"status":"final","category":[{"coding":[{"system":"http://terminology.hl7.org/CodeSystem/observation-category","code":"exam","display":"exam","userSelected":true}]}],"code":{"coding":[{"system":"http://loinc.org","code":"11884-4"}]},"subject":{"reference":"Patient/75e27496-6999-4aa6-942e-285335503512"},"effectiveDateTime":"2026-06-08T20:00:00.000+00:00","valueQuantity":{"value":37,"system":"http://unitsofmeasure.org","code":"wk"}},"request":{"method":"PUT","url":"Observation/4f47d407-0b1b-49f9-967f-7a49a6cf7532"}},{"fullUrl":"https://madie.cms.gov/Observation/bb7f7d2c-08b1-44e3-8fc2-3da4e957280f","resource":{"resourceType":"Observation","id":"bb7f7d2c-08b1-44e3-8fc2-3da4e957280f","meta":{"profile":["http://hl7.org/fhir/us/qicore/StructureDefinition/qicore-simple-observation"]},"status":"final","category":[{"coding":[{"system":"http://terminology.hl7.org/CodeSystem/observation-category","code":"exam","display":"exam","userSelected":true}]}],"code":{"coding":[{"system":"http://loinc.org","code":"93857-1"}]},"subject":{"reference":"Patient/75e27496-6999-4aa6-942e-285335503512"},"effectiveDateTime":"2026-06-08T20:00:00.000+00:00","valueDateTime":"2026-06-08T20:00:00.000+00:00"},"request":{"method":"PUT","url":"Observation/bb7f7d2c-08b1-44e3-8fc2-3da4e957280f"}},{"fullUrl":"https://madie.cms.gov/Encounter/314730da-e751-4ea9-8815-b9e0380f589c","resource":{"resourceType":"Encounter","id":"314730da-e751-4ea9-8815-b9e0380f589c","meta":{"profile":["http://hl7.org/fhir/us/qicore/StructureDefinition/qicore-encounter"]},"status":"finished","class":{"system":"http://terminology.hl7.org/CodeSystem/v3-ActCode","code":"IMP","display":"inpatient encounter"},"type":[{"coding":[{"system":"http://snomed.info/sct","code":"8715000"}]}],"subject":{"reference":"Patient/75e27496-6999-4aa6-942e-285335503512"},"period":{"start":"2026-06-08T08:00:00.000+00:00","end":"2026-06-10T08:15:00.000+00:00"},"length":{"value":2,"unit":"days"},"reasonReference":[{"reference":"Condition/delivery-of-singleton-df6a"}]},"request":{"method":"PUT","url":"Encounter/314730da-e751-4ea9-8815-b9e0380f589c"}},{"fullUrl":"https://madie.cms.gov/Procedure/d619a71a-1cfe-478a-9027-3f2adae80451","resource":{"resourceType":"Procedure","id":"d619a71a-1cfe-478a-9027-3f2adae80451","meta":{"profile":["http://hl7.org/fhir/us/qicore/StructureDefinition/qicore-procedure"]},"extension":[{"url":"http://hl7.org/fhir/us/qicore/StructureDefinition/qicore-recorded","valueDateTime":"2014-04-05T13:35:00.000+00:00"}],"status":"completed","code":{"coding":[{"system":"http://www.cms.gov/Medicare/Coding/ICD10","code":"10D00Z0"},{"system":"http://snomed.info/sct","code":"4504004"}]},"subject":{"reference":"Patient/75e27496-6999-4aa6-942e-285335503512"},"performedPeriod":{"start":"2026-06-08T20:00:00.000+00:00","end":"2026-06-08T20:15:00.000+00:00"}},"request":{"method":"PUT","url":"Procedure/d619a71a-1cfe-478a-9027-3f2adae80451"}},{"fullUrl":"https://madie.cms.gov/Condition/b8a21735-beaa-4749-8a55-4f6daa283c29","resource":{"resourceType":"Condition","id":"b8a21735-beaa-4749-8a55-4f6daa283c29","meta":{"profile":["http://hl7.org/fhir/us/qicore/StructureDefinition/qicore-condition-encounter-diagnosis"]},"category":[{"coding":[{"system":"http://terminology.hl7.org/CodeSystem/condition-category","code":"encounter-diagnosis","display":"Encounter Diagnosis"}]}],"code":{"coding":[{"system":"http://snomed.info/sct","version":"2022-09","code":"169826009","display":"Single live birth from singleton pregnancy (finding)","userSelected":true}]},"subject":{"reference":"Patient/75e27496-6999-4aa6-942e-285335503512"},"encounter":{"reference":"Encounter/314730da-e751-4ea9-8815-b9e0380f589c"},"recordedDate":"2026-10-21T08:00:00.000+00:00"},"request":{"method":"PUT","url":"Condition/b8a21735-beaa-4749-8a55-4f6daa283c29"}},{"fullUrl":"https://madie.cms.gov/Coverage/45175b5c-97f0-4b49-93c6-73b5120e5e6f","resource":{"resourceType":"Coverage","id":"45175b5c-97f0-4b49-93c6-73b5120e5e6f","meta":{"profile":["http://hl7.org/fhir/us/qicore/StructureDefinition/qicore-coverage"]},"status":"active","subscriberId":"523435","beneficiary":{"reference":"Patient/75e27496-6999-4aa6-942e-285335503512"},"relationship":{"coding":[{"system":"http://terminology.hl7.org/CodeSystem/subscriber-relationship","code":"self"}]},"payor":[{"reference":"Organization/3fc39827-4cf5-4f4c-b2df-e10ac85e20b0"}]},"request":{"method":"PUT","url":"Coverage/45175b5c-97f0-4b49-93c6-73b5120e5e6f"}},{"fullUrl":"https://madie.cms.gov/Organization/3fc39827-4cf5-4f4c-b2df-e10ac85e20b0","resource":{"resourceType":"Organization","id":"3fc39827-4cf5-4f4c-b2df-e10ac85e20b0","meta":{"profile":["http://hl7.org/fhir/us/qicore/StructureDefinition/qicore-organization"]},"identifier":[{"use":"temp","system":"urn:oid:2.16.840.1.113883.4.4","value":"21-3259825"}],"active":true,"type":[{"coding":[{"system":"http://terminology.hl7.org/CodeSystem/organization-type","code":"pay","display":"Payer"}]}],"name":"Blue Cross Blue Shield of Texas","telecom":[{"system":"phone","value":"(+1) 972-766-6900"}],"address":[{"use":"billing","type":"postal","line":["P.O. Box 660044"],"city":"Dallas","state":"TX","postalCode":"75266-0044","country":"USA"}]},"request":{"method":"PUT","url":"Organization/3fc39827-4cf5-4f4c-b2df-e10ac85e20b0"}},{"fullUrl":"https://madie.cms.gov/Practitioner/00d5dac9-1e4a-4f76-b341-d497543ff0a5","resource":{"resourceType":"Practitioner","id":"00d5dac9-1e4a-4f76-b341-d497543ff0a5","meta":{"profile":["http://hl7.org/fhir/us/qicore/StructureDefinition/qicore-practitioner"]},"identifier":[{"system":"http://hl7.org/fhir/sid/us-npi","value":"1234567890"}],"name":[{"family":"Evil","prefix":["Dr"]}]},"request":{"method":"PUT","url":"Practitioner/00d5dac9-1e4a-4f76-b341-d497543ff0a5"}},{"fullUrl":"https://madie.cms.gov/MeasureReport/e1d1d4ae-43a4-45f3-8589-6c974af5d745","resource":{"resourceType":"MeasureReport","id":"e1d1d4ae-43a4-45f3-8589-6c974af5d745","meta":{"profile":["http://hl7.org/fhir/us/cqfmeasures/StructureDefinition/test-case-cqfm"]},"contained":[{"resourceType":"Parameters","id":"e27af2d7-daed-4e4c-942f-e2318ab8ddaf-parameters","parameter":[{"name":"subject","valueString":"75e27496-6999-4aa6-942e-285335503512"}]}],"extension":[{"url":"http://hl7.org/fhir/StructureDefinition/cqf-inputParameters","valueReference":{"reference":"#e27af2d7-daed-4e4c-942f-e2318ab8ddaf-parameters"}},{"url":"http://hl7.org/fhir/us/cqfmeasures/StructureDefinition/cqfm-testCaseDescription","valueMarkdown":"\"Term Newborn=1, Relevant Date/time < 42weeks prior to delivery and DENOM fail\nPreterm Births=0, Relevant Date/time < 42weeks prior to delivery\n\"\n"}],"modifierExtension":[{"url":"http://hl7.org/fhir/us/cqfmeasures/StructureDefinition/cqfm-isTestCase","valueBoolean":true}],"status":"complete","type":"individual","measure":"https://madie.cms.gov/Measure/CMS0334FHIRPCCesareanBirth","period":{"start":"2026-01-01","end":"2026-12-31"},"group":[{"id":"Group_1","population":[{"id":"InitialPopulation_1","code":{"coding":[{"system":"http://terminology.hl7.org/CodeSystem/measure-population","code":"initial-population","display":"Initial Population"}]},"count":1},{"id":"Denominator_1","code":{"coding":[{"system":"http://terminology.hl7.org/CodeSystem/measure-population","code":"denominator","display":"Denominator"}]},"count":0},{"id":"DenominatorExclusion_1","code":{"coding":[{"system":"http://terminology.hl7.org/CodeSystem/measure-population","code":"denominator-exclusion","display":"Denominator Exclusion"}]},"count":0},{"id":"Numerator_1","code":{"coding":[{"system":"http://terminology.hl7.org/CodeSystem/measure-population","code":"numerator","display":"Numerator"}]},"count":0}],"measureScore":{"value":0.0}}],"evaluatedResource":[{"reference":"Patient/75e27496-6999-4aa6-942e-285335503512"},{"reference":"Observation/fdb817d8-1fa4-4e40-8b50-2f8d9e5247e6"},{"reference":"Observation/0f83708c-deef-478d-bdb4-2b6e4ba49e74"},{"reference":"Observation/4f47d407-0b1b-49f9-967f-7a49a6cf7532"},{"reference":"Observation/bb7f7d2c-08b1-44e3-8fc2-3da4e957280f"},{"reference":"Encounter/314730da-e751-4ea9-8815-b9e0380f589c"},{"reference":"Procedure/d619a71a-1cfe-478a-9027-3f2adae80451"},{"reference":"Condition/b8a21735-beaa-4749-8a55-4f6daa283c29"},{"reference":"Coverage/45175b5c-97f0-4b49-93c6-73b5120e5e6f"},{"reference":"Organization/3fc39827-4cf5-4f4c-b2df-e10ac85e20b0"},{"reference":"Practitioner/00d5dac9-1e4a-4f76-b341-d497543ff0a5"}]},"request":{"method":"PUT","url":"MeasureReport/e1d1d4ae-43a4-45f3-8589-6c974af5d745"}}]},"request":{"method":"PUT","url":"Bundle/63487c2d0968f8012254015b"}},{"fullUrl":"Observation/0f83708c-deef-478d-bdb4-2b6e4ba49e74","resource":{"resourceType":"Observation","id":"0f83708c-deef-478d-bdb4-2b6e4ba49e74","meta":{"profile":["http://hl7.org/fhir/us/qicore/StructureDefinition/qicore-simple-observation"]},"status":"final","category":[{"coding":[{"system":"http://terminology.hl7.org/CodeSystem/observation-category","code":"exam","display":"exam","userSelected":true}]}],"code":{"coding":[{"system":"http://loinc.org","code":"11639-2"}]},"subject":{"reference":"Patient/75e27496-6999-4aa6-942e-285335503512"},"effectiveDateTime":"2025-09-19T09:00:00.000+00:00","valueInteger":1},"request":{"method":"PUT","url":"Observation/0f83708c-deef-478d-bdb4-2b6e4ba49e74"}},{"fullUrl":"Observation/4f47d407-0b1b-49f9-967f-7a49a6cf7532","resource":{"resourceType":"Observation","id":"4f47d407-0b1b-49f9-967f-7a49a6cf7532","meta":{"profile":["http://hl7.org/fhir/us/qicore/StructureDefinition/qicore-simple-observation"]},"status":"final","category":[{"coding":[{"system":"http://terminology.hl7.org/CodeSystem/observation-category","code":"exam","display":"exam","userSelected":true}]}],"code":{"coding":[{"system":"http://loinc.org","code":"11884-4"}]},"subject":{"reference":"Patient/75e27496-6999-4aa6-942e-285335503512"},"effectiveDateTime":"2026-06-08T20:00:00.000+00:00","valueQuantity":{"value":37,"system":"http://unitsofmeasure.org","code":"wk"}},"request":{"method":"PUT","url":"Observation/4f47d407-0b1b-49f9-967f-7a49a6cf7532"}},{"fullUrl":"Condition/b8a21735-beaa-4749-8a55-4f6daa283c29","resource":{"resourceType":"Condition","id":"b8a21735-beaa-4749-8a55-4f6daa283c29","meta":{"profile":["http://hl7.org/fhir/us/qicore/StructureDefinition/qicore-condition-encounter-diagnosis"]},"category":[{"coding":[{"system":"http://terminology.hl7.org/CodeSystem/condition-category","code":"encounter-diagnosis","display":"Encounter Diagnosis"}]}],"code":{"coding":[{"system":"http://snomed.info/sct","version":"2022-09","code":"169826009","display":"Single live birth from singleton pregnancy (finding)","userSelected":true}]},"subject":{"reference":"Patient/75e27496-6999-4aa6-942e-285335503512"},"encounter":{"reference":"Encounter/314730da-e751-4ea9-8815-b9e0380f589c"},"recordedDate":"2026-10-21T08:00:00.000+00:00"},"request":{"method":"PUT","url":"Condition/b8a21735-beaa-4749-8a55-4f6daa283c29"}},{"fullUrl":"Practitioner/00d5dac9-1e4a-4f76-b341-d497543ff0a5","resource":{"resourceType":"Practitioner","id":"00d5dac9-1e4a-4f76-b341-d497543ff0a5","meta":{"profile":["http://hl7.org/fhir/us/qicore/StructureDefinition/qicore-practitioner"]},"identifier":[{"system":"http://hl7.org/fhir/sid/us-npi","value":"1234567890"}],"name":[{"family":"Evil","prefix":["Dr"]}]},"request":{"method":"PUT","url":"Practitioner/00d5dac9-1e4a-4f76-b341-d497543ff0a5"}},{"fullUrl":"Coverage/45175b5c-97f0-4b49-93c6-73b5120e5e6f","resource":{"resourceType":"Coverage","id":"45175b5c-97f0-4b49-93c6-73b5120e5e6f","meta":{"profile":["http://hl7.org/fhir/us/qicore/StructureDefinition/qicore-coverage"]},"status":"active","subscriberId":"523435","beneficiary":{"reference":"Patient/75e27496-6999-4aa6-942e-285335503512"},"relationship":{"coding":[{"system":"http://terminology.hl7.org/CodeSystem/subscriber-relationship","code":"self"}]},"payor":[{"reference":"Organization/3fc39827-4cf5-4f4c-b2df-e10ac85e20b0"}]},"request":{"method":"PUT","url":"Coverage/45175b5c-97f0-4b49-93c6-73b5120e5e6f"}},{"fullUrl":"Procedure/d619a71a-1cfe-478a-9027-3f2adae80451","resource":{"resourceType":"Procedure","id":"d619a71a-1cfe-478a-9027-3f2adae80451","meta":{"profile":["http://hl7.org/fhir/us/qicore/StructureDefinition/qicore-procedure"]},"extension":[{"url":"http://hl7.org/fhir/us/qicore/StructureDefinition/qicore-recorded","valueDateTime":"2014-04-05T13:35:00.000+00:00"}],"status":"completed","code":{"coding":[{"system":"http://www.cms.gov/Medicare/Coding/ICD10","code":"10D00Z0"},{"system":"http://snomed.info/sct","code":"4504004"}]},"subject":{"reference":"Patient/75e27496-6999-4aa6-942e-285335503512"},"performedPeriod":{"start":"2026-06-08T20:00:00.000+00:00","end":"2026-06-08T20:15:00.000+00:00"}},"request":{"method":"PUT","url":"Procedure/d619a71a-1cfe-478a-9027-3f2adae80451"}},{"fullUrl":"Encounter/314730da-e751-4ea9-8815-b9e0380f589c","resource":{"resourceType":"Encounter","id":"314730da-e751-4ea9-8815-b9e0380f589c","meta":{"profile":["http://hl7.org/fhir/us/qicore/StructureDefinition/qicore-encounter"]},"status":"finished","class":{"system":"http://terminology.hl7.org/CodeSystem/v3-ActCode","code":"IMP","display":"inpatient encounter"},"type":[{"coding":[{"system":"http://snomed.info/sct","code":"8715000"}]}],"subject":{"reference":"Patient/75e27496-6999-4aa6-942e-285335503512"},"period":{"start":"2026-06-08T08:00:00.000+00:00","end":"2026-06-10T08:15:00.000+00:00"},"length":{"value":2,"unit":"days"},"reasonReference":[{"reference":"Condition/delivery-of-singleton-df6a"}]},"request":{"method":"PUT","url":"Encounter/314730da-e751-4ea9-8815-b9e0380f589c"}},{"fullUrl":"MeasureReport/e1d1d4ae-43a4-45f3-8589-6c974af5d745","resource":{"resourceType":"MeasureReport","id":"e1d1d4ae-43a4-45f3-8589-6c974af5d745","meta":{"profile":["http://hl7.org/fhir/us/cqfmeasures/StructureDefinition/test-case-cqfm"]},"contained":[{"resourceType":"Parameters","id":"e27af2d7-daed-4e4c-942f-e2318ab8ddaf-parameters","parameter":[{"name":"subject","valueString":"75e27496-6999-4aa6-942e-285335503512"}]}],"extension":[{"url":"http://hl7.org/fhir/StructureDefinition/cqf-inputParameters","valueReference":{"reference":"#e27af2d7-daed-4e4c-942f-e2318ab8ddaf-parameters"}},{"url":"http://hl7.org/fhir/us/cqfmeasures/StructureDefinition/cqfm-testCaseDescription","valueMarkdown":"\"Term Newborn=1, Relevant Date/time < 42weeks prior to delivery and DENOM fail\nPreterm Births=0, Relevant Date/time < 42weeks prior to delivery\n\"\n"}],"modifierExtension":[{"url":"http://hl7.org/fhir/us/cqfmeasures/StructureDefinition/cqfm-isTestCase","valueBoolean":true}],"status":"complete","type":"individual","measure":"https://madie.cms.gov/Measure/CMS0334FHIRPCCesareanBirth","period":{"start":"2026-01-01","end":"2026-12-31"},"group":[{"id":"Group_1","population":[{"id":"InitialPopulation_1","code":{"coding":[{"system":"http://terminology.hl7.org/CodeSystem/measure-population","code":"initial-population","display":"Initial Population"}]},"count":1},{"id":"Denominator_1","code":{"coding":[{"system":"http://terminology.hl7.org/CodeSystem/measure-population","code":"denominator","display":"Denominator"}]},"count":0},{"id":"DenominatorExclusion_1","code":{"coding":[{"system":"http://terminology.hl7.org/CodeSystem/measure-population","code":"denominator-exclusion","display":"Denominator Exclusion"}]},"count":0},{"id":"Numerator_1","code":{"coding":[{"system":"http://terminology.hl7.org/CodeSystem/measure-population","code":"numerator","display":"Numerator"}]},"count":0}],"measureScore":{"value":0.0}}],"evaluatedResource":[{"reference":"Patient/75e27496-6999-4aa6-942e-285335503512"},{"reference":"Observation/fdb817d8-1fa4-4e40-8b50-2f8d9e5247e6"},{"reference":"Observation/0f83708c-deef-478d-bdb4-2b6e4ba49e74"},{"reference":"Observation/4f47d407-0b1b-49f9-967f-7a49a6cf7532"},{"reference":"Observation/bb7f7d2c-08b1-44e3-8fc2-3da4e957280f"},{"reference":"Encounter/314730da-e751-4ea9-8815-b9e0380f589c"},{"reference":"Procedure/d619a71a-1cfe-478a-9027-3f2adae80451"},{"reference":"Condition/b8a21735-beaa-4749-8a55-4f6daa283c29"},{"reference":"Coverage/45175b5c-97f0-4b49-93c6-73b5120e5e6f"},{"reference":"Organization/3fc39827-4cf5-4f4c-b2df-e10ac85e20b0"},{"reference":"Practitioner/00d5dac9-1e4a-4f76-b341-d497543ff0a5"}]},"request":{"method":"PUT","url":"MeasureReport/e1d1d4ae-43a4-45f3-8589-6c974af5d745"}},{"fullUrl":"Patient/75e27496-6999-4aa6-942e-285335503512","resource":{"resourceType":"Patient","id":"75e27496-6999-4aa6-942e-285335503512","meta":{"profile":["http://hl7.org/fhir/us/qicore/StructureDefinition/qicore-patient"]},"text":{"status":"generated","div":"<div xmlns=\"http://www.w3.org/1999/xhtml\"><div class=\"hapiHeaderText\">AssessTerm1<b>DENOMFail</b></div><table class=\"hapiPropertyTable\"><tbody><tr><td>Identifier</td><td>3d741787aa738fa636b1082e91ae1904963d7b4c579cafa8ea4afffc8342b0a3</td></tr><tr><td>Date of birth</td><td><span>14 February 1985</span></td></tr></tbody></table></div>"},"extension":[{"url":"http://hl7.org/fhir/us/core/StructureDefinition/us-core-race","extension":[{"url":"ombCategory","valueCoding":{"system":"urn:oid:2.16.840.1.113883.6.238","code":"1002-5","display":"American Indian or Alaska Native","userSelected":true}},{"url":"text","valueString":"American Indian or Alaska Native"}]},{"url":"http://hl7.org/fhir/us/core/StructureDefinition/us-core-ethnicity","extension":[{"url":"ombCategory","valueCoding":{"system":"urn:oid:2.16.840.1.113883.6.238","code":"2135-2","display":"Hispanic or Latino","userSelected":true}},{"url":"text","valueString":"Hispanic or Latino"}]}],"identifier":[{"type":{"coding":[{"system":"http://terminology.hl7.org/CodeSystem/v2-0203","code":"MR"}]},"system":"https://bonnie-fhir.healthit.gov/","value":"63487c2d0968f8012254015b"}],"active":true,"name":[{"use":"usual","family":"DENOMFail","given":["AssessTerm1"]}],"gender":"female","birthDate":"1998-02-14"},"request":{"method":"PUT","url":"Patient/75e27496-6999-4aa6-942e-285335503512"}},{"fullUrl":"Observation/bb7f7d2c-08b1-44e3-8fc2-3da4e957280f","resource":{"resourceType":"Observation","id":"bb7f7d2c-08b1-44e3-8fc2-3da4e957280f","meta":{"profile":["http://hl7.org/fhir/us/qicore/StructureDefinition/qicore-simple-observation"]},"status":"final","category":[{"coding":[{"system":"http://terminology.hl7.org/CodeSystem/observation-category","code":"exam","display":"exam","userSelected":true}]}],"code":{"coding":[{"system":"http://loinc.org","code":"93857-1"}]},"subject":{"reference":"Patient/75e27496-6999-4aa6-942e-285335503512"},"effectiveDateTime":"2026-06-08T20:00:00.000+00:00","valueDateTime":"2026-06-08T20:00:00.000+00:00"},"request":{"method":"PUT","url":"Observation/bb7f7d2c-08b1-44e3-8fc2-3da4e957280f"}},{"fullUrl":"Observation/fdb817d8-1fa4-4e40-8b50-2f8d9e5247e6","resource":{"resourceType":"Observation","id":"fdb817d8-1fa4-4e40-8b50-2f8d9e5247e6","meta":{"profile":["http://hl7.org/fhir/us/qicore/StructureDefinition/qicore-simple-observation"]},"status":"final","category":[{"coding":[{"system":"http://terminology.hl7.org/CodeSystem/observation-category","code":"exam","display":"exam","userSelected":true}]}],"code":{"coding":[{"system":"http://loinc.org","code":"11637-6"}]},"subject":{"reference":"Patient/75e27496-6999-4aa6-942e-285335503512"},"effectiveDateTime":"2025-09-19T09:00:00.000+00:00","valueInteger":0},"request":{"method":"PUT","url":"Observation/fdb817d8-1fa4-4e40-8b50-2f8d9e5247e6"}}]}