{"resourceType":"Bundle","id":"tests-9379f076-ee69-460f-9c02-d763c4891e0d-bundle","type":"transaction","entry":[{"fullUrl":"Organization/ddaa119d-ab26-4ad3-ac1c-62f0e35b3dd3","resource":{"resourceType":"Organization","id":"ddaa119d-ab26-4ad3-ac1c-62f0e35b3dd3","meta":{"profile":["http://hl7.org/fhir/us/qicore/StructureDefinition/qicore-organization"]},"identifier":[{"use":"temp","system":"urn:oid:2.16.840.1.113883.4.4","value":"21-3259825"}],"active":true,"type":[{"coding":[{"system":"http://terminology.hl7.org/CodeSystem/organization-type","code":"pay","display":"Payer"}]}],"name":"Blue Cross Blue Shield of Texas","telecom":[{"system":"phone","value":"(+1) 972-766-6900"}],"address":[{"use":"billing","type":"postal","line":["P.O. Box 660044"],"city":"Dallas","state":"TX","postalCode":"75266-0044","country":"USA"}]},"request":{"method":"PUT","url":"Organization/ddaa119d-ab26-4ad3-ac1c-62f0e35b3dd3"}},{"fullUrl":"Patient/9379f076-ee69-460f-9c02-d763c4891e0d","resource":{"resourceType":"Patient","id":"9379f076-ee69-460f-9c02-d763c4891e0d","meta":{"profile":["http://hl7.org/fhir/us/qicore/StructureDefinition/qicore-patient"]},"text":{"status":"generated","div":"<div xmlns=\"http://www.w3.org/1999/xhtml\"><div class=\"hapiHeaderText\">ProcDelivStartAtEncInpStart<b>IPOPPass</b></div><table class=\"hapiPropertyTable\"><tbody><tr><td>Identifier</td><td>5c05b56286ceef6b3739c6d66e73a6f8be510476054eff3a61df4a6cad50439d</td></tr><tr><td>Date of birth</td><td><span>14 February 1985</span></td></tr></tbody></table></div>"},"extension":[{"url":"http://hl7.org/fhir/us/core/StructureDefinition/us-core-race","extension":[{"url":"ombCategory","valueCoding":{"system":"urn:oid:2.16.840.1.113883.6.238","code":"1002-5","display":"American Indian or Alaska Native","userSelected":true}},{"url":"text","valueString":"American Indian or Alaska Native"}]},{"url":"http://hl7.org/fhir/us/core/StructureDefinition/us-core-ethnicity","extension":[{"url":"ombCategory","valueCoding":{"system":"urn:oid:2.16.840.1.113883.6.238","code":"2135-2","display":"Hispanic or Latino","userSelected":true}},{"url":"text","valueString":"Hispanic or Latino"}]}],"identifier":[{"type":{"coding":[{"system":"http://terminology.hl7.org/CodeSystem/v2-0203","code":"MR"}]},"system":"https://bonnie-fhir.healthit.gov/","value":"63487c2d0968f8012254014e"}],"active":true,"name":[{"use":"usual","family":"IPOPPass","given":["ProcDelivStartAtEncInpStart"]}],"gender":"other","birthDate":"1998-02-14"},"request":{"method":"PUT","url":"Patient/9379f076-ee69-460f-9c02-d763c4891e0d"}},{"fullUrl":"MeasureReport/e4f7ebe0-d60e-4c0c-ac04-3f96cacb5899","resource":{"resourceType":"MeasureReport","id":"e4f7ebe0-d60e-4c0c-ac04-3f96cacb5899","meta":{"profile":["http://hl7.org/fhir/us/cqfmeasures/StructureDefinition/test-case-cqfm"]},"contained":[{"resourceType":"Parameters","id":"a820e153-04ba-47b2-970b-abaf90717b1c-parameters","parameter":[{"name":"subject","valueString":"9379f076-ee69-460f-9c02-d763c4891e0d"}]}],"extension":[{"url":"http://hl7.org/fhir/StructureDefinition/cqf-inputParameters","valueReference":{"reference":"#a820e153-04ba-47b2-970b-abaf90717b1c-parameters"}},{"url":"http://hl7.org/fhir/us/cqfmeasures/StructureDefinition/cqfm-testCaseDescription","valueMarkdown":"Passes IP.  Proc Deliv Start Equal To Enc Inp Start.\n"}],"modifierExtension":[{"url":"http://hl7.org/fhir/us/cqfmeasures/StructureDefinition/cqfm-isTestCase","valueBoolean":true}],"status":"complete","type":"individual","measure":"https://madie.cms.gov/Measure/CMS0334FHIRPCCesareanBirth","period":{"start":"2026-01-01","end":"2026-12-31"},"group":[{"id":"Group_1","population":[{"id":"InitialPopulation_1","code":{"coding":[{"system":"http://terminology.hl7.org/CodeSystem/measure-population","code":"initial-population","display":"Initial Population"}]},"count":1},{"id":"Denominator_1","code":{"coding":[{"system":"http://terminology.hl7.org/CodeSystem/measure-population","code":"denominator","display":"Denominator"}]},"count":0},{"id":"DenominatorExclusion_1","code":{"coding":[{"system":"http://terminology.hl7.org/CodeSystem/measure-population","code":"denominator-exclusion","display":"Denominator Exclusion"}]},"count":0},{"id":"Numerator_1","code":{"coding":[{"system":"http://terminology.hl7.org/CodeSystem/measure-population","code":"numerator","display":"Numerator"}]},"count":0}],"measureScore":{"value":0.0}}],"evaluatedResource":[{"reference":"Patient/9379f076-ee69-460f-9c02-d763c4891e0d"},{"reference":"Encounter/3b7e9a64-3720-4229-bd92-ca531dd6f009"},{"reference":"Coverage/a6045a01-534a-4684-b293-d7f6ec3ea145"},{"reference":"Procedure/1f9f86f1-5e99-4050-bd3e-07a38ff33469"},{"reference":"Organization/ddaa119d-ab26-4ad3-ac1c-62f0e35b3dd3"},{"reference":"Practitioner/57da861d-a6dc-4821-8de0-742f95538240"}]},"request":{"method":"PUT","url":"MeasureReport/e4f7ebe0-d60e-4c0c-ac04-3f96cacb5899"}},{"fullUrl":"Bundle/63487c2d0968f8012254014e","resource":{"resourceType":"Bundle","id":"63487c2d0968f8012254014e","type":"transaction","entry":[{"fullUrl":"https://madie.cms.gov/Patient/9379f076-ee69-460f-9c02-d763c4891e0d","resource":{"resourceType":"Patient","id":"9379f076-ee69-460f-9c02-d763c4891e0d","meta":{"profile":["http://hl7.org/fhir/us/qicore/StructureDefinition/qicore-patient"]},"text":{"status":"generated","div":"<div xmlns=\"http://www.w3.org/1999/xhtml\"><div class=\"hapiHeaderText\">ProcDelivStartAtEncInpStart<b>IPOPPass</b></div><table class=\"hapiPropertyTable\"><tbody><tr><td>Identifier</td><td>5c05b56286ceef6b3739c6d66e73a6f8be510476054eff3a61df4a6cad50439d</td></tr><tr><td>Date of birth</td><td><span>14 February 1985</span></td></tr></tbody></table></div>"},"extension":[{"url":"http://hl7.org/fhir/us/core/StructureDefinition/us-core-race","extension":[{"url":"ombCategory","valueCoding":{"system":"urn:oid:2.16.840.1.113883.6.238","code":"1002-5","display":"American Indian or Alaska Native","userSelected":true}},{"url":"text","valueString":"American Indian or Alaska Native"}]},{"url":"http://hl7.org/fhir/us/core/StructureDefinition/us-core-ethnicity","extension":[{"url":"ombCategory","valueCoding":{"system":"urn:oid:2.16.840.1.113883.6.238","code":"2135-2","display":"Hispanic or Latino","userSelected":true}},{"url":"text","valueString":"Hispanic or Latino"}]}],"identifier":[{"type":{"coding":[{"system":"http://terminology.hl7.org/CodeSystem/v2-0203","code":"MR"}]},"system":"https://bonnie-fhir.healthit.gov/","value":"63487c2d0968f8012254014e"}],"active":true,"name":[{"use":"usual","family":"IPOPPass","given":["ProcDelivStartAtEncInpStart"]}],"gender":"other","birthDate":"1998-02-14"},"request":{"method":"PUT","url":"Patient/9379f076-ee69-460f-9c02-d763c4891e0d"}},{"fullUrl":"https://madie.cms.gov/Encounter/3b7e9a64-3720-4229-bd92-ca531dd6f009","resource":{"resourceType":"Encounter","id":"3b7e9a64-3720-4229-bd92-ca531dd6f009","meta":{"profile":["http://hl7.org/fhir/us/qicore/StructureDefinition/qicore-encounter"]},"status":"finished","class":{"system":"http://terminology.hl7.org/CodeSystem/v3-ActCode","code":"IMP","display":"inpatient encounter"},"type":[{"coding":[{"system":"http://snomed.info/sct","code":"8715000"}]}],"subject":{"reference":"Patient/9379f076-ee69-460f-9c02-d763c4891e0d"},"period":{"start":"2026-11-28T08:00:00.000+00:00","end":"2026-11-30T08:15:00.000+00:00"},"diagnosis":[{"condition":{"reference":"Condition/Condition-2"},"use":{"coding":[{"system":"http://snomed.info/sct","code":"169826009","display":"Single live birth from singleton pregnancy (finding)"}]}}]},"request":{"method":"PUT","url":"Encounter/3b7e9a64-3720-4229-bd92-ca531dd6f009"}},{"fullUrl":"https://madie.cms.gov/Coverage/a6045a01-534a-4684-b293-d7f6ec3ea145","resource":{"resourceType":"Coverage","id":"a6045a01-534a-4684-b293-d7f6ec3ea145","meta":{"profile":["http://hl7.org/fhir/us/qicore/StructureDefinition/qicore-coverage"]},"status":"active","subscriberId":"523435","beneficiary":{"reference":"Patient/9379f076-ee69-460f-9c02-d763c4891e0d"},"relationship":{"coding":[{"system":"http://terminology.hl7.org/CodeSystem/subscriber-relationship","code":"self"}]},"period":{"start":"1986-02-14T08:00:00.000+00:00"},"payor":[{"reference":"Organization/ddaa119d-ab26-4ad3-ac1c-62f0e35b3dd3"}]},"request":{"method":"PUT","url":"Coverage/a6045a01-534a-4684-b293-d7f6ec3ea145"}},{"fullUrl":"https://madie.cms.gov/Procedure/1f9f86f1-5e99-4050-bd3e-07a38ff33469","resource":{"resourceType":"Procedure","id":"1f9f86f1-5e99-4050-bd3e-07a38ff33469","meta":{"profile":["http://hl7.org/fhir/us/qicore/StructureDefinition/qicore-procedure"]},"extension":[{"url":"http://hl7.org/fhir/us/qicore/StructureDefinition/qicore-recorded","valueDateTime":"2014-04-05T13:35:00.000+00:00"}],"status":"completed","code":{"coding":[{"system":"http://www.cms.gov/Medicare/Coding/ICD10","code":"10D00Z0"},{"system":"http://www.icd10data.com/icd10pcs","code":"10D00Z0","userSelected":true}]},"subject":{"reference":"Patient/9379f076-ee69-460f-9c02-d763c4891e0d"},"performedPeriod":{"start":"2026-11-28T08:00:00.000+00:00","end":"2026-11-28T20:15:00.000+00:00"}},"request":{"method":"PUT","url":"Procedure/1f9f86f1-5e99-4050-bd3e-07a38ff33469"}},{"fullUrl":"https://madie.cms.gov/Organization/ddaa119d-ab26-4ad3-ac1c-62f0e35b3dd3","resource":{"resourceType":"Organization","id":"ddaa119d-ab26-4ad3-ac1c-62f0e35b3dd3","meta":{"profile":["http://hl7.org/fhir/us/qicore/StructureDefinition/qicore-organization"]},"identifier":[{"use":"temp","system":"urn:oid:2.16.840.1.113883.4.4","value":"21-3259825"}],"active":true,"type":[{"coding":[{"system":"http://terminology.hl7.org/CodeSystem/organization-type","code":"pay","display":"Payer"}]}],"name":"Blue Cross Blue Shield of Texas","telecom":[{"system":"phone","value":"(+1) 972-766-6900"}],"address":[{"use":"billing","type":"postal","line":["P.O. Box 660044"],"city":"Dallas","state":"TX","postalCode":"75266-0044","country":"USA"}]},"request":{"method":"PUT","url":"Organization/ddaa119d-ab26-4ad3-ac1c-62f0e35b3dd3"}},{"fullUrl":"https://madie.cms.gov/Practitioner/57da861d-a6dc-4821-8de0-742f95538240","resource":{"resourceType":"Practitioner","id":"57da861d-a6dc-4821-8de0-742f95538240","meta":{"profile":["http://hl7.org/fhir/us/qicore/StructureDefinition/qicore-practitioner"]},"identifier":[{"system":"http://hl7.org/fhir/sid/us-npi","value":"1234567890"}],"name":[{"family":"Evil","prefix":["Dr"]}]},"request":{"method":"PUT","url":"Practitioner/57da861d-a6dc-4821-8de0-742f95538240"}},{"fullUrl":"https://madie.cms.gov/MeasureReport/e4f7ebe0-d60e-4c0c-ac04-3f96cacb5899","resource":{"resourceType":"MeasureReport","id":"e4f7ebe0-d60e-4c0c-ac04-3f96cacb5899","meta":{"profile":["http://hl7.org/fhir/us/cqfmeasures/StructureDefinition/test-case-cqfm"]},"contained":[{"resourceType":"Parameters","id":"a820e153-04ba-47b2-970b-abaf90717b1c-parameters","parameter":[{"name":"subject","valueString":"9379f076-ee69-460f-9c02-d763c4891e0d"}]}],"extension":[{"url":"http://hl7.org/fhir/StructureDefinition/cqf-inputParameters","valueReference":{"reference":"#a820e153-04ba-47b2-970b-abaf90717b1c-parameters"}},{"url":"http://hl7.org/fhir/us/cqfmeasures/StructureDefinition/cqfm-testCaseDescription","valueMarkdown":"Passes IP.  Proc Deliv Start Equal To Enc Inp Start.\n"}],"modifierExtension":[{"url":"http://hl7.org/fhir/us/cqfmeasures/StructureDefinition/cqfm-isTestCase","valueBoolean":true}],"status":"complete","type":"individual","measure":"https://madie.cms.gov/Measure/CMS0334FHIRPCCesareanBirth","period":{"start":"2026-01-01","end":"2026-12-31"},"group":[{"id":"Group_1","population":[{"id":"InitialPopulation_1","code":{"coding":[{"system":"http://terminology.hl7.org/CodeSystem/measure-population","code":"initial-population","display":"Initial Population"}]},"count":1},{"id":"Denominator_1","code":{"coding":[{"system":"http://terminology.hl7.org/CodeSystem/measure-population","code":"denominator","display":"Denominator"}]},"count":0},{"id":"DenominatorExclusion_1","code":{"coding":[{"system":"http://terminology.hl7.org/CodeSystem/measure-population","code":"denominator-exclusion","display":"Denominator Exclusion"}]},"count":0},{"id":"Numerator_1","code":{"coding":[{"system":"http://terminology.hl7.org/CodeSystem/measure-population","code":"numerator","display":"Numerator"}]},"count":0}],"measureScore":{"value":0.0}}],"evaluatedResource":[{"reference":"Patient/9379f076-ee69-460f-9c02-d763c4891e0d"},{"reference":"Encounter/3b7e9a64-3720-4229-bd92-ca531dd6f009"},{"reference":"Coverage/a6045a01-534a-4684-b293-d7f6ec3ea145"},{"reference":"Procedure/1f9f86f1-5e99-4050-bd3e-07a38ff33469"},{"reference":"Organization/ddaa119d-ab26-4ad3-ac1c-62f0e35b3dd3"},{"reference":"Practitioner/57da861d-a6dc-4821-8de0-742f95538240"}]},"request":{"method":"PUT","url":"MeasureReport/e4f7ebe0-d60e-4c0c-ac04-3f96cacb5899"}}]},"request":{"method":"PUT","url":"Bundle/63487c2d0968f8012254014e"}},{"fullUrl":"Coverage/a6045a01-534a-4684-b293-d7f6ec3ea145","resource":{"resourceType":"Coverage","id":"a6045a01-534a-4684-b293-d7f6ec3ea145","meta":{"profile":["http://hl7.org/fhir/us/qicore/StructureDefinition/qicore-coverage"]},"status":"active","subscriberId":"523435","beneficiary":{"reference":"Patient/9379f076-ee69-460f-9c02-d763c4891e0d"},"relationship":{"coding":[{"system":"http://terminology.hl7.org/CodeSystem/subscriber-relationship","code":"self"}]},"period":{"start":"1986-02-14T08:00:00.000+00:00"},"payor":[{"reference":"Organization/ddaa119d-ab26-4ad3-ac1c-62f0e35b3dd3"}]},"request":{"method":"PUT","url":"Coverage/a6045a01-534a-4684-b293-d7f6ec3ea145"}},{"fullUrl":"Practitioner/57da861d-a6dc-4821-8de0-742f95538240","resource":{"resourceType":"Practitioner","id":"57da861d-a6dc-4821-8de0-742f95538240","meta":{"profile":["http://hl7.org/fhir/us/qicore/StructureDefinition/qicore-practitioner"]},"identifier":[{"system":"http://hl7.org/fhir/sid/us-npi","value":"1234567890"}],"name":[{"family":"Evil","prefix":["Dr"]}]},"request":{"method":"PUT","url":"Practitioner/57da861d-a6dc-4821-8de0-742f95538240"}},{"fullUrl":"Procedure/1f9f86f1-5e99-4050-bd3e-07a38ff33469","resource":{"resourceType":"Procedure","id":"1f9f86f1-5e99-4050-bd3e-07a38ff33469","meta":{"profile":["http://hl7.org/fhir/us/qicore/StructureDefinition/qicore-procedure"]},"extension":[{"url":"http://hl7.org/fhir/us/qicore/StructureDefinition/qicore-recorded","valueDateTime":"2014-04-05T13:35:00.000+00:00"}],"status":"completed","code":{"coding":[{"system":"http://www.cms.gov/Medicare/Coding/ICD10","code":"10D00Z0"},{"system":"http://www.icd10data.com/icd10pcs","code":"10D00Z0","userSelected":true}]},"subject":{"reference":"Patient/9379f076-ee69-460f-9c02-d763c4891e0d"},"performedPeriod":{"start":"2026-11-28T08:00:00.000+00:00","end":"2026-11-28T20:15:00.000+00:00"}},"request":{"method":"PUT","url":"Procedure/1f9f86f1-5e99-4050-bd3e-07a38ff33469"}},{"fullUrl":"Encounter/3b7e9a64-3720-4229-bd92-ca531dd6f009","resource":{"resourceType":"Encounter","id":"3b7e9a64-3720-4229-bd92-ca531dd6f009","meta":{"profile":["http://hl7.org/fhir/us/qicore/StructureDefinition/qicore-encounter"]},"status":"finished","class":{"system":"http://terminology.hl7.org/CodeSystem/v3-ActCode","code":"IMP","display":"inpatient encounter"},"type":[{"coding":[{"system":"http://snomed.info/sct","code":"8715000"}]}],"subject":{"reference":"Patient/9379f076-ee69-460f-9c02-d763c4891e0d"},"period":{"start":"2026-11-28T08:00:00.000+00:00","end":"2026-11-30T08:15:00.000+00:00"},"diagnosis":[{"condition":{"reference":"Condition/Condition-2"},"use":{"coding":[{"system":"http://snomed.info/sct","code":"169826009","display":"Single live birth from singleton pregnancy (finding)"}]}}]},"request":{"method":"PUT","url":"Encounter/3b7e9a64-3720-4229-bd92-ca531dd6f009"}}]}