{"resourceType":"Bundle","id":"tests-c24efa29-0d0b-42d0-b07e-3c0ed4fcc873-bundle","type":"transaction","entry":[{"fullUrl":"Bundle/63487c300968f801225401ce","resource":{"resourceType":"Bundle","id":"63487c300968f801225401ce","type":"transaction","entry":[{"fullUrl":"https://madie.cms.gov/Patient/c24efa29-0d0b-42d0-b07e-3c0ed4fcc873","resource":{"resourceType":"Patient","id":"c24efa29-0d0b-42d0-b07e-3c0ed4fcc873","meta":{"profile":["http://hl7.org/fhir/us/qicore/StructureDefinition/qicore-patient"]},"text":{"status":"generated","div":"<div xmlns=\"http://www.w3.org/1999/xhtml\"><div class=\"hapiHeaderText\">AssessPerfAbnPresRelvtPeriodB4TimeOfDelivDuringEnc<b>DENEXPASS</b></div><table class=\"hapiPropertyTable\"><tbody><tr><td>Identifier</td><td>db09244543fe550232b604cb7d87decbeb851047882e641e3fe736fdce398a0a</td></tr><tr><td>Date of birth</td><td><span>14 February 1985</span></td></tr></tbody></table></div>"},"extension":[{"url":"http://hl7.org/fhir/us/core/StructureDefinition/us-core-race","extension":[{"url":"ombCategory","valueCoding":{"system":"urn:oid:2.16.840.1.113883.6.238","code":"1002-5","display":"American Indian or Alaska Native","userSelected":true}},{"url":"text","valueString":"American Indian or Alaska Native"}]},{"url":"http://hl7.org/fhir/us/core/StructureDefinition/us-core-ethnicity","extension":[{"url":"ombCategory","valueCoding":{"system":"urn:oid:2.16.840.1.113883.6.238","code":"2135-2","display":"Hispanic or Latino","userSelected":true}},{"url":"text","valueString":"Hispanic or Latino"}]}],"identifier":[{"type":{"coding":[{"system":"http://terminology.hl7.org/CodeSystem/v2-0203","code":"MR"}]},"system":"https://bonnie-fhir.healthit.gov/","value":"63487c300968f801225401ce"}],"active":true,"name":[{"use":"usual","family":"DENEXPass","given":["AssessPerfAbnPresRelvtPeriodB4TimeOfDelivDuringEnc"]}],"gender":"female","birthDate":"1998-02-14"},"request":{"method":"PUT","url":"Patient/c24efa29-0d0b-42d0-b07e-3c0ed4fcc873"}},{"fullUrl":"https://madie.cms.gov/Observation/595882ff-de8e-4ff2-95f9-7d1a1198e9a9","resource":{"resourceType":"Observation","id":"595882ff-de8e-4ff2-95f9-7d1a1198e9a9","meta":{"profile":["http://hl7.org/fhir/us/qicore/StructureDefinition/qicore-simple-observation"]},"status":"final","category":[{"coding":[{"system":"http://terminology.hl7.org/CodeSystem/observation-category","code":"exam","display":"exam","userSelected":true}]}],"code":{"coding":[{"system":"http://loinc.org","code":"11996-6"}]},"subject":{"reference":"Patient/c24efa29-0d0b-42d0-b07e-3c0ed4fcc873"},"effectiveDateTime":"2026-06-08T08:00:00.000+00:00","performer":[{"reference":"Organization/example1","display":"Hendricks Country Hospital"}],"valueInteger":1},"request":{"method":"PUT","url":"Observation/595882ff-de8e-4ff2-95f9-7d1a1198e9a9"}},{"fullUrl":"https://madie.cms.gov/Observation/966fab1f-5c30-4c1a-a720-bd0646e0e81c","resource":{"resourceType":"Observation","id":"966fab1f-5c30-4c1a-a720-bd0646e0e81c","meta":{"profile":["http://hl7.org/fhir/us/qicore/StructureDefinition/qicore-simple-observation"]},"status":"final","category":[{"coding":[{"system":"http://terminology.hl7.org/CodeSystem/observation-category","code":"exam","display":"exam","userSelected":true}]}],"code":{"coding":[{"system":"http://loinc.org","code":"11884-4"}]},"subject":{"reference":"Patient/c24efa29-0d0b-42d0-b07e-3c0ed4fcc873"},"effectiveDateTime":"2026-06-08T08:00:00.000+00:00","performer":[{"reference":"Organization/example1","display":"Hendricks Country Hospital"}],"valueQuantity":{"value":43,"system":"http://unitsofmeasure.org","code":"wk"}},"request":{"method":"PUT","url":"Observation/966fab1f-5c30-4c1a-a720-bd0646e0e81c"}},{"fullUrl":"https://madie.cms.gov/Observation/321e95d7-991d-4539-a4dd-4cdf389804c6","resource":{"resourceType":"Observation","id":"321e95d7-991d-4539-a4dd-4cdf389804c6","meta":{"profile":["http://hl7.org/fhir/us/qicore/StructureDefinition/qicore-simple-observation"]},"status":"final","category":[{"coding":[{"system":"http://terminology.hl7.org/CodeSystem/observation-category","code":"exam","display":"exam","userSelected":true}]}],"code":{"coding":[{"system":"http://loinc.org","code":"93857-1"}]},"subject":{"reference":"Patient/c24efa29-0d0b-42d0-b07e-3c0ed4fcc873"},"effectiveDateTime":"2026-06-08T20:30:00.000+00:00","performer":[{"reference":"Organization/example1","display":"Hendricks Country Hospital"}],"valueDateTime":"2026-06-08T08:30:00.000+00:00"},"request":{"method":"PUT","url":"Observation/321e95d7-991d-4539-a4dd-4cdf389804c6"}},{"fullUrl":"https://madie.cms.gov/Observation/2224c676-acf5-41c3-a175-4bb006010af8","resource":{"resourceType":"Observation","id":"2224c676-acf5-41c3-a175-4bb006010af8","meta":{"profile":["http://hl7.org/fhir/us/qicore/StructureDefinition/qicore-simple-observation"]},"status":"final","category":[{"coding":[{"system":"http://terminology.hl7.org/CodeSystem/observation-category","code":"exam","display":"exam","userSelected":true}]}],"code":{"coding":[{"system":"http://snomed.info/sct","code":"18559007"}]},"subject":{"reference":"Patient/c24efa29-0d0b-42d0-b07e-3c0ed4fcc873"},"effectiveDateTime":"2026-06-08T08:29:00.000+00:00","performer":[{"reference":"Organization/example1","display":"Hendricks Country Hospital"}]},"request":{"method":"PUT","url":"Observation/2224c676-acf5-41c3-a175-4bb006010af8"}},{"fullUrl":"https://madie.cms.gov/Encounter/183b4f3f-c7eb-4f1e-9cda-e754b21cf727","resource":{"resourceType":"Encounter","id":"183b4f3f-c7eb-4f1e-9cda-e754b21cf727","meta":{"profile":["http://hl7.org/fhir/us/qicore/StructureDefinition/qicore-encounter"]},"status":"finished","class":{"system":"http://terminology.hl7.org/CodeSystem/v3-ActCode","code":"IMP","display":"inpatient encounter"},"type":[{"coding":[{"system":"http://snomed.info/sct","code":"8715000"}]}],"subject":{"reference":"Patient/c24efa29-0d0b-42d0-b07e-3c0ed4fcc873"},"period":{"start":"2026-06-08T08:00:00.000+00:00","end":"2026-06-10T08:15:00.000+00:00"},"reasonReference":[{"reference":"Condition/07ce82aa-9a08-49ae-9371-9caff039f37e"}]},"request":{"method":"PUT","url":"Encounter/183b4f3f-c7eb-4f1e-9cda-e754b21cf727"}},{"fullUrl":"https://madie.cms.gov/Procedure/886f4b1d-3e32-48eb-8d0a-1deed6294c0f","resource":{"resourceType":"Procedure","id":"886f4b1d-3e32-48eb-8d0a-1deed6294c0f","meta":{"profile":["http://hl7.org/fhir/us/qicore/StructureDefinition/qicore-procedure"]},"extension":[{"url":"http://hl7.org/fhir/us/qicore/StructureDefinition/qicore-recorded","valueDateTime":"2014-04-05T13:35:00.000+00:00"}],"status":"completed","code":{"coding":[{"system":"http://snomed.info/sct","code":"4504004"}]},"subject":{"reference":"Patient/c24efa29-0d0b-42d0-b07e-3c0ed4fcc873"},"performedPeriod":{"start":"2026-06-08T20:00:00.000+00:00","end":"2026-06-18T20:00:00.000+00:00"}},"request":{"method":"PUT","url":"Procedure/886f4b1d-3e32-48eb-8d0a-1deed6294c0f"}},{"fullUrl":"https://madie.cms.gov/Condition/07ce82aa-9a08-49ae-9371-9caff039f37e","resource":{"resourceType":"Condition","id":"07ce82aa-9a08-49ae-9371-9caff039f37e","meta":{"profile":["http://hl7.org/fhir/us/qicore/StructureDefinition/qicore-condition-encounter-diagnosis"]},"category":[{"coding":[{"system":"http://terminology.hl7.org/CodeSystem/condition-category","code":"encounter-diagnosis","display":"Encounter Diagnosis"}]}],"code":{"coding":[{"system":"http://snomed.info/sct","version":"2022-09","code":"169826009","display":"Single live birth (finding)","userSelected":true}]},"subject":{"reference":"Patient/c24efa29-0d0b-42d0-b07e-3c0ed4fcc873"},"encounter":{"reference":"Encounter/183b4f3f-c7eb-4f1e-9cda-e754b21cf727"},"recordedDate":"2026-10-17T08:00:00.000+00:00"},"request":{"method":"PUT","url":"Condition/07ce82aa-9a08-49ae-9371-9caff039f37e"}},{"fullUrl":"https://madie.cms.gov/Coverage/ef4f0b78-cfdb-44c4-9c3e-38360f56a06c","resource":{"resourceType":"Coverage","id":"ef4f0b78-cfdb-44c4-9c3e-38360f56a06c","meta":{"profile":["http://hl7.org/fhir/us/qicore/StructureDefinition/qicore-coverage"]},"status":"active","subscriberId":"523435","beneficiary":{"reference":"Patient/c24efa29-0d0b-42d0-b07e-3c0ed4fcc873"},"relationship":{"coding":[{"system":"http://terminology.hl7.org/CodeSystem/subscriber-relationship","code":"self"}]},"payor":[{"reference":"Organization/3f25fdd9-d56d-49ae-9ec8-7be8cfe0f14d"}]},"request":{"method":"PUT","url":"Coverage/ef4f0b78-cfdb-44c4-9c3e-38360f56a06c"}},{"fullUrl":"https://madie.cms.gov/Organization/3f25fdd9-d56d-49ae-9ec8-7be8cfe0f14d","resource":{"resourceType":"Organization","id":"3f25fdd9-d56d-49ae-9ec8-7be8cfe0f14d","meta":{"profile":["http://hl7.org/fhir/us/qicore/StructureDefinition/qicore-organization"]},"identifier":[{"use":"temp","system":"urn:oid:2.16.840.1.113883.4.4","value":"21-3259825"}],"active":true,"type":[{"coding":[{"system":"http://terminology.hl7.org/CodeSystem/organization-type","code":"pay","display":"Payer"}]}],"name":"Blue Cross Blue Shield of Texas","telecom":[{"system":"phone","value":"(+1) 972-766-6900"}],"address":[{"use":"billing","type":"postal","line":["P.O. Box 660044"],"city":"Dallas","state":"TX","postalCode":"75266-0044","country":"USA"}]},"request":{"method":"PUT","url":"Organization/3f25fdd9-d56d-49ae-9ec8-7be8cfe0f14d"}},{"fullUrl":"https://madie.cms.gov/Practitioner/b3c62e69-eb3b-4087-92fd-9bde11f2fc71","resource":{"resourceType":"Practitioner","id":"b3c62e69-eb3b-4087-92fd-9bde11f2fc71","meta":{"profile":["http://hl7.org/fhir/us/qicore/StructureDefinition/qicore-practitioner"]},"identifier":[{"system":"http://hl7.org/fhir/sid/us-npi","value":"1234567890"}],"name":[{"family":"Evil","prefix":["Dr"]}]},"request":{"method":"PUT","url":"Practitioner/b3c62e69-eb3b-4087-92fd-9bde11f2fc71"}},{"fullUrl":"https://madie.cms.gov/MeasureReport/4a7dafd8-047c-43c7-a8de-e6cd57b104c4","resource":{"resourceType":"MeasureReport","id":"4a7dafd8-047c-43c7-a8de-e6cd57b104c4","meta":{"profile":["http://hl7.org/fhir/us/cqfmeasures/StructureDefinition/test-case-cqfm"]},"contained":[{"resourceType":"Parameters","id":"8a37a159-e12d-441e-b303-1c1ae6caa337-parameters","parameter":[{"name":"subject","valueString":"c24efa29-0d0b-42d0-b07e-3c0ed4fcc873"}]}],"extension":[{"url":"http://hl7.org/fhir/StructureDefinition/cqf-inputParameters","valueReference":{"reference":"#8a37a159-e12d-441e-b303-1c1ae6caa337-parameters"}},{"url":"http://hl7.org/fhir/us/cqfmeasures/StructureDefinition/cqfm-testCaseDescription","valueMarkdown":"EGA 43 weeks; Assessment performed Abnormal presentation relevant Period  before time of delivery and during Enc \n"}],"modifierExtension":[{"url":"http://hl7.org/fhir/us/cqfmeasures/StructureDefinition/cqfm-isTestCase","valueBoolean":true}],"status":"complete","type":"individual","measure":"https://madie.cms.gov/Measure/CMS0334FHIRPCCesareanBirth","period":{"start":"2026-01-01","end":"2026-12-31"},"group":[{"id":"Group_1","population":[{"id":"InitialPopulation_1","code":{"coding":[{"system":"http://terminology.hl7.org/CodeSystem/measure-population","code":"initial-population","display":"Initial Population"}]},"count":1},{"id":"Denominator_1","code":{"coding":[{"system":"http://terminology.hl7.org/CodeSystem/measure-population","code":"denominator","display":"Denominator"}]},"count":1},{"id":"DenominatorExclusion_1","code":{"coding":[{"system":"http://terminology.hl7.org/CodeSystem/measure-population","code":"denominator-exclusion","display":"Denominator Exclusion"}]},"count":1},{"id":"Numerator_1","code":{"coding":[{"system":"http://terminology.hl7.org/CodeSystem/measure-population","code":"numerator","display":"Numerator"}]},"count":0}],"measureScore":{"value":0.0}}],"evaluatedResource":[{"reference":"Patient/c24efa29-0d0b-42d0-b07e-3c0ed4fcc873"},{"reference":"Observation/595882ff-de8e-4ff2-95f9-7d1a1198e9a9"},{"reference":"Observation/966fab1f-5c30-4c1a-a720-bd0646e0e81c"},{"reference":"Observation/321e95d7-991d-4539-a4dd-4cdf389804c6"},{"reference":"Observation/2224c676-acf5-41c3-a175-4bb006010af8"},{"reference":"Encounter/183b4f3f-c7eb-4f1e-9cda-e754b21cf727"},{"reference":"Procedure/886f4b1d-3e32-48eb-8d0a-1deed6294c0f"},{"reference":"Condition/07ce82aa-9a08-49ae-9371-9caff039f37e"},{"reference":"Coverage/ef4f0b78-cfdb-44c4-9c3e-38360f56a06c"},{"reference":"Organization/3f25fdd9-d56d-49ae-9ec8-7be8cfe0f14d"},{"reference":"Practitioner/b3c62e69-eb3b-4087-92fd-9bde11f2fc71"}]},"request":{"method":"PUT","url":"MeasureReport/4a7dafd8-047c-43c7-a8de-e6cd57b104c4"}}]},"request":{"method":"PUT","url":"Bundle/63487c300968f801225401ce"}},{"fullUrl":"Observation/966fab1f-5c30-4c1a-a720-bd0646e0e81c","resource":{"resourceType":"Observation","id":"966fab1f-5c30-4c1a-a720-bd0646e0e81c","meta":{"profile":["http://hl7.org/fhir/us/qicore/StructureDefinition/qicore-simple-observation"]},"status":"final","category":[{"coding":[{"system":"http://terminology.hl7.org/CodeSystem/observation-category","code":"exam","display":"exam","userSelected":true}]}],"code":{"coding":[{"system":"http://loinc.org","code":"11884-4"}]},"subject":{"reference":"Patient/c24efa29-0d0b-42d0-b07e-3c0ed4fcc873"},"effectiveDateTime":"2026-06-08T08:00:00.000+00:00","performer":[{"reference":"Organization/example1","display":"Hendricks Country Hospital"}],"valueQuantity":{"value":43,"system":"http://unitsofmeasure.org","code":"wk"}},"request":{"method":"PUT","url":"Observation/966fab1f-5c30-4c1a-a720-bd0646e0e81c"}},{"fullUrl":"Organization/3f25fdd9-d56d-49ae-9ec8-7be8cfe0f14d","resource":{"resourceType":"Organization","id":"3f25fdd9-d56d-49ae-9ec8-7be8cfe0f14d","meta":{"profile":["http://hl7.org/fhir/us/qicore/StructureDefinition/qicore-organization"]},"identifier":[{"use":"temp","system":"urn:oid:2.16.840.1.113883.4.4","value":"21-3259825"}],"active":true,"type":[{"coding":[{"system":"http://terminology.hl7.org/CodeSystem/organization-type","code":"pay","display":"Payer"}]}],"name":"Blue Cross Blue Shield of Texas","telecom":[{"system":"phone","value":"(+1) 972-766-6900"}],"address":[{"use":"billing","type":"postal","line":["P.O. Box 660044"],"city":"Dallas","state":"TX","postalCode":"75266-0044","country":"USA"}]},"request":{"method":"PUT","url":"Organization/3f25fdd9-d56d-49ae-9ec8-7be8cfe0f14d"}},{"fullUrl":"Condition/07ce82aa-9a08-49ae-9371-9caff039f37e","resource":{"resourceType":"Condition","id":"07ce82aa-9a08-49ae-9371-9caff039f37e","meta":{"profile":["http://hl7.org/fhir/us/qicore/StructureDefinition/qicore-condition-encounter-diagnosis"]},"category":[{"coding":[{"system":"http://terminology.hl7.org/CodeSystem/condition-category","code":"encounter-diagnosis","display":"Encounter Diagnosis"}]}],"code":{"coding":[{"system":"http://snomed.info/sct","version":"2022-09","code":"169826009","display":"Single live birth (finding)","userSelected":true}]},"subject":{"reference":"Patient/c24efa29-0d0b-42d0-b07e-3c0ed4fcc873"},"encounter":{"reference":"Encounter/183b4f3f-c7eb-4f1e-9cda-e754b21cf727"},"recordedDate":"2026-10-17T08:00:00.000+00:00"},"request":{"method":"PUT","url":"Condition/07ce82aa-9a08-49ae-9371-9caff039f37e"}},{"fullUrl":"Practitioner/b3c62e69-eb3b-4087-92fd-9bde11f2fc71","resource":{"resourceType":"Practitioner","id":"b3c62e69-eb3b-4087-92fd-9bde11f2fc71","meta":{"profile":["http://hl7.org/fhir/us/qicore/StructureDefinition/qicore-practitioner"]},"identifier":[{"system":"http://hl7.org/fhir/sid/us-npi","value":"1234567890"}],"name":[{"family":"Evil","prefix":["Dr"]}]},"request":{"method":"PUT","url":"Practitioner/b3c62e69-eb3b-4087-92fd-9bde11f2fc71"}},{"fullUrl":"Encounter/183b4f3f-c7eb-4f1e-9cda-e754b21cf727","resource":{"resourceType":"Encounter","id":"183b4f3f-c7eb-4f1e-9cda-e754b21cf727","meta":{"profile":["http://hl7.org/fhir/us/qicore/StructureDefinition/qicore-encounter"]},"status":"finished","class":{"system":"http://terminology.hl7.org/CodeSystem/v3-ActCode","code":"IMP","display":"inpatient encounter"},"type":[{"coding":[{"system":"http://snomed.info/sct","code":"8715000"}]}],"subject":{"reference":"Patient/c24efa29-0d0b-42d0-b07e-3c0ed4fcc873"},"period":{"start":"2026-06-08T08:00:00.000+00:00","end":"2026-06-10T08:15:00.000+00:00"},"reasonReference":[{"reference":"Condition/07ce82aa-9a08-49ae-9371-9caff039f37e"}]},"request":{"method":"PUT","url":"Encounter/183b4f3f-c7eb-4f1e-9cda-e754b21cf727"}},{"fullUrl":"Observation/321e95d7-991d-4539-a4dd-4cdf389804c6","resource":{"resourceType":"Observation","id":"321e95d7-991d-4539-a4dd-4cdf389804c6","meta":{"profile":["http://hl7.org/fhir/us/qicore/StructureDefinition/qicore-simple-observation"]},"status":"final","category":[{"coding":[{"system":"http://terminology.hl7.org/CodeSystem/observation-category","code":"exam","display":"exam","userSelected":true}]}],"code":{"coding":[{"system":"http://loinc.org","code":"93857-1"}]},"subject":{"reference":"Patient/c24efa29-0d0b-42d0-b07e-3c0ed4fcc873"},"effectiveDateTime":"2026-06-08T20:30:00.000+00:00","performer":[{"reference":"Organization/example1","display":"Hendricks Country Hospital"}],"valueDateTime":"2026-06-08T08:30:00.000+00:00"},"request":{"method":"PUT","url":"Observation/321e95d7-991d-4539-a4dd-4cdf389804c6"}},{"fullUrl":"Procedure/886f4b1d-3e32-48eb-8d0a-1deed6294c0f","resource":{"resourceType":"Procedure","id":"886f4b1d-3e32-48eb-8d0a-1deed6294c0f","meta":{"profile":["http://hl7.org/fhir/us/qicore/StructureDefinition/qicore-procedure"]},"extension":[{"url":"http://hl7.org/fhir/us/qicore/StructureDefinition/qicore-recorded","valueDateTime":"2014-04-05T13:35:00.000+00:00"}],"status":"completed","code":{"coding":[{"system":"http://snomed.info/sct","code":"4504004"}]},"subject":{"reference":"Patient/c24efa29-0d0b-42d0-b07e-3c0ed4fcc873"},"performedPeriod":{"start":"2026-06-08T20:00:00.000+00:00","end":"2026-06-18T20:00:00.000+00:00"}},"request":{"method":"PUT","url":"Procedure/886f4b1d-3e32-48eb-8d0a-1deed6294c0f"}},{"fullUrl":"Observation/595882ff-de8e-4ff2-95f9-7d1a1198e9a9","resource":{"resourceType":"Observation","id":"595882ff-de8e-4ff2-95f9-7d1a1198e9a9","meta":{"profile":["http://hl7.org/fhir/us/qicore/StructureDefinition/qicore-simple-observation"]},"status":"final","category":[{"coding":[{"system":"http://terminology.hl7.org/CodeSystem/observation-category","code":"exam","display":"exam","userSelected":true}]}],"code":{"coding":[{"system":"http://loinc.org","code":"11996-6"}]},"subject":{"reference":"Patient/c24efa29-0d0b-42d0-b07e-3c0ed4fcc873"},"effectiveDateTime":"2026-06-08T08:00:00.000+00:00","performer":[{"reference":"Organization/example1","display":"Hendricks Country Hospital"}],"valueInteger":1},"request":{"method":"PUT","url":"Observation/595882ff-de8e-4ff2-95f9-7d1a1198e9a9"}},{"fullUrl":"Coverage/ef4f0b78-cfdb-44c4-9c3e-38360f56a06c","resource":{"resourceType":"Coverage","id":"ef4f0b78-cfdb-44c4-9c3e-38360f56a06c","meta":{"profile":["http://hl7.org/fhir/us/qicore/StructureDefinition/qicore-coverage"]},"status":"active","subscriberId":"523435","beneficiary":{"reference":"Patient/c24efa29-0d0b-42d0-b07e-3c0ed4fcc873"},"relationship":{"coding":[{"system":"http://terminology.hl7.org/CodeSystem/subscriber-relationship","code":"self"}]},"payor":[{"reference":"Organization/3f25fdd9-d56d-49ae-9ec8-7be8cfe0f14d"}]},"request":{"method":"PUT","url":"Coverage/ef4f0b78-cfdb-44c4-9c3e-38360f56a06c"}},{"fullUrl":"Patient/c24efa29-0d0b-42d0-b07e-3c0ed4fcc873","resource":{"resourceType":"Patient","id":"c24efa29-0d0b-42d0-b07e-3c0ed4fcc873","meta":{"profile":["http://hl7.org/fhir/us/qicore/StructureDefinition/qicore-patient"]},"text":{"status":"generated","div":"<div xmlns=\"http://www.w3.org/1999/xhtml\"><div class=\"hapiHeaderText\">AssessPerfAbnPresRelvtPeriodB4TimeOfDelivDuringEnc<b>DENEXPASS</b></div><table class=\"hapiPropertyTable\"><tbody><tr><td>Identifier</td><td>db09244543fe550232b604cb7d87decbeb851047882e641e3fe736fdce398a0a</td></tr><tr><td>Date of birth</td><td><span>14 February 1985</span></td></tr></tbody></table></div>"},"extension":[{"url":"http://hl7.org/fhir/us/core/StructureDefinition/us-core-race","extension":[{"url":"ombCategory","valueCoding":{"system":"urn:oid:2.16.840.1.113883.6.238","code":"1002-5","display":"American Indian or Alaska Native","userSelected":true}},{"url":"text","valueString":"American Indian or Alaska Native"}]},{"url":"http://hl7.org/fhir/us/core/StructureDefinition/us-core-ethnicity","extension":[{"url":"ombCategory","valueCoding":{"system":"urn:oid:2.16.840.1.113883.6.238","code":"2135-2","display":"Hispanic or Latino","userSelected":true}},{"url":"text","valueString":"Hispanic or Latino"}]}],"identifier":[{"type":{"coding":[{"system":"http://terminology.hl7.org/CodeSystem/v2-0203","code":"MR"}]},"system":"https://bonnie-fhir.healthit.gov/","value":"63487c300968f801225401ce"}],"active":true,"name":[{"use":"usual","family":"DENEXPass","given":["AssessPerfAbnPresRelvtPeriodB4TimeOfDelivDuringEnc"]}],"gender":"female","birthDate":"1998-02-14"},"request":{"method":"PUT","url":"Patient/c24efa29-0d0b-42d0-b07e-3c0ed4fcc873"}},{"fullUrl":"MeasureReport/4a7dafd8-047c-43c7-a8de-e6cd57b104c4","resource":{"resourceType":"MeasureReport","id":"4a7dafd8-047c-43c7-a8de-e6cd57b104c4","meta":{"profile":["http://hl7.org/fhir/us/cqfmeasures/StructureDefinition/test-case-cqfm"]},"contained":[{"resourceType":"Parameters","id":"8a37a159-e12d-441e-b303-1c1ae6caa337-parameters","parameter":[{"name":"subject","valueString":"c24efa29-0d0b-42d0-b07e-3c0ed4fcc873"}]}],"extension":[{"url":"http://hl7.org/fhir/StructureDefinition/cqf-inputParameters","valueReference":{"reference":"#8a37a159-e12d-441e-b303-1c1ae6caa337-parameters"}},{"url":"http://hl7.org/fhir/us/cqfmeasures/StructureDefinition/cqfm-testCaseDescription","valueMarkdown":"EGA 43 weeks; Assessment performed Abnormal presentation relevant Period  before time of delivery and during Enc \n"}],"modifierExtension":[{"url":"http://hl7.org/fhir/us/cqfmeasures/StructureDefinition/cqfm-isTestCase","valueBoolean":true}],"status":"complete","type":"individual","measure":"https://madie.cms.gov/Measure/CMS0334FHIRPCCesareanBirth","period":{"start":"2026-01-01","end":"2026-12-31"},"group":[{"id":"Group_1","population":[{"id":"InitialPopulation_1","code":{"coding":[{"system":"http://terminology.hl7.org/CodeSystem/measure-population","code":"initial-population","display":"Initial Population"}]},"count":1},{"id":"Denominator_1","code":{"coding":[{"system":"http://terminology.hl7.org/CodeSystem/measure-population","code":"denominator","display":"Denominator"}]},"count":1},{"id":"DenominatorExclusion_1","code":{"coding":[{"system":"http://terminology.hl7.org/CodeSystem/measure-population","code":"denominator-exclusion","display":"Denominator Exclusion"}]},"count":1},{"id":"Numerator_1","code":{"coding":[{"system":"http://terminology.hl7.org/CodeSystem/measure-population","code":"numerator","display":"Numerator"}]},"count":0}],"measureScore":{"value":0.0}}],"evaluatedResource":[{"reference":"Patient/c24efa29-0d0b-42d0-b07e-3c0ed4fcc873"},{"reference":"Observation/595882ff-de8e-4ff2-95f9-7d1a1198e9a9"},{"reference":"Observation/966fab1f-5c30-4c1a-a720-bd0646e0e81c"},{"reference":"Observation/321e95d7-991d-4539-a4dd-4cdf389804c6"},{"reference":"Observation/2224c676-acf5-41c3-a175-4bb006010af8"},{"reference":"Encounter/183b4f3f-c7eb-4f1e-9cda-e754b21cf727"},{"reference":"Procedure/886f4b1d-3e32-48eb-8d0a-1deed6294c0f"},{"reference":"Condition/07ce82aa-9a08-49ae-9371-9caff039f37e"},{"reference":"Coverage/ef4f0b78-cfdb-44c4-9c3e-38360f56a06c"},{"reference":"Organization/3f25fdd9-d56d-49ae-9ec8-7be8cfe0f14d"},{"reference":"Practitioner/b3c62e69-eb3b-4087-92fd-9bde11f2fc71"}]},"request":{"method":"PUT","url":"MeasureReport/4a7dafd8-047c-43c7-a8de-e6cd57b104c4"}},{"fullUrl":"Observation/2224c676-acf5-41c3-a175-4bb006010af8","resource":{"resourceType":"Observation","id":"2224c676-acf5-41c3-a175-4bb006010af8","meta":{"profile":["http://hl7.org/fhir/us/qicore/StructureDefinition/qicore-simple-observation"]},"status":"final","category":[{"coding":[{"system":"http://terminology.hl7.org/CodeSystem/observation-category","code":"exam","display":"exam","userSelected":true}]}],"code":{"coding":[{"system":"http://snomed.info/sct","code":"18559007"}]},"subject":{"reference":"Patient/c24efa29-0d0b-42d0-b07e-3c0ed4fcc873"},"effectiveDateTime":"2026-06-08T08:29:00.000+00:00","performer":[{"reference":"Organization/example1","display":"Hendricks Country Hospital"}]},"request":{"method":"PUT","url":"Observation/2224c676-acf5-41c3-a175-4bb006010af8"}}]}