{"resourceType":"Bundle","id":"tests-a354a551-030b-4e72-979a-a81cbb7b8249-bundle","type":"transaction","entry":[{"fullUrl":"Organization/24f83c87-7b97-47c0-857b-200fd3da3fa9","resource":{"resourceType":"Organization","id":"24f83c87-7b97-47c0-857b-200fd3da3fa9","meta":{"profile":["http://hl7.org/fhir/us/qicore/StructureDefinition/qicore-organization"]},"identifier":[{"use":"temp","system":"urn:oid:2.16.840.1.113883.4.4","value":"21-3259825"}],"active":true,"type":[{"coding":[{"system":"http://terminology.hl7.org/CodeSystem/organization-type","code":"pay","display":"Payer"}]}],"name":"Blue Cross Blue Shield of Texas","telecom":[{"system":"phone","value":"(+1) 972-766-6900"}],"address":[{"use":"billing","type":"postal","line":["P.O. Box 660044"],"city":"Dallas","state":"TX","postalCode":"75266-0044","country":"USA"}]},"request":{"method":"PUT","url":"Organization/24f83c87-7b97-47c0-857b-200fd3da3fa9"}},{"fullUrl":"Patient/a354a551-030b-4e72-979a-a81cbb7b8249","resource":{"resourceType":"Patient","id":"a354a551-030b-4e72-979a-a81cbb7b8249","meta":{"profile":["http://hl7.org/fhir/us/qicore/StructureDefinition/qicore-patient"]},"text":{"status":"generated","div":"<div xmlns=\"http://www.w3.org/1999/xhtml\"><div class=\"hapiHeaderText\">AssessP1<b>DENOMFail</b></div><table class=\"hapiPropertyTable\"><tbody><tr><td>Identifier</td><td>433af885768545c0b7502198218da0f1b5a64d7905cba864af8028ff627f6e9c</td></tr><tr><td>Date of birth</td><td><span>14 February 1985</span></td></tr></tbody></table></div>"},"extension":[{"url":"http://hl7.org/fhir/us/core/StructureDefinition/us-core-race","extension":[{"url":"ombCategory","valueCoding":{"system":"urn:oid:2.16.840.1.113883.6.238","code":"1002-5","display":"American Indian or Alaska Native","userSelected":true}},{"url":"text","valueString":"American Indian or Alaska Native"}]},{"url":"http://hl7.org/fhir/us/core/StructureDefinition/us-core-ethnicity","extension":[{"url":"ombCategory","valueCoding":{"system":"urn:oid:2.16.840.1.113883.6.238","code":"2135-2","display":"Hispanic or Latino","userSelected":true}},{"url":"text","valueString":"Hispanic or Latino"}]}],"identifier":[{"type":{"coding":[{"system":"http://terminology.hl7.org/CodeSystem/v2-0203","code":"MR"}]},"system":"https://bonnie-fhir.healthit.gov/","value":"63487c2d0968f80122540145"}],"active":true,"name":[{"use":"usual","family":"DENOMFail","given":["AssessP1"]}],"gender":"female","birthDate":"1998-02-14"},"request":{"method":"PUT","url":"Patient/a354a551-030b-4e72-979a-a81cbb7b8249"}},{"fullUrl":"Condition/c3c1e8ba-c9f7-41ea-8c5e-358d162e05c9","resource":{"resourceType":"Condition","id":"c3c1e8ba-c9f7-41ea-8c5e-358d162e05c9","meta":{"profile":["http://hl7.org/fhir/us/qicore/StructureDefinition/qicore-condition-encounter-diagnosis"]},"category":[{"coding":[{"system":"http://terminology.hl7.org/CodeSystem/condition-category","code":"encounter-diagnosis","display":"Encounter Diagnosis"}]}],"code":{"coding":[{"system":"http://snomed.info/sct","version":"2022-09","code":"169826009","display":"Single live birth from singleton pregnancy (finding)","userSelected":true}]},"subject":{"reference":"Patient/a354a551-030b-4e72-979a-a81cbb7b8249"},"encounter":{"reference":"Encounter/328ecf2e-14ff-41bf-999f-f2a6b4345f46"},"recordedDate":"2026-10-21T08:00:00.000+00:00"},"request":{"method":"PUT","url":"Condition/c3c1e8ba-c9f7-41ea-8c5e-358d162e05c9"}},{"fullUrl":"Observation/08e7e816-27c6-4003-bbae-cd4e140391c6","resource":{"resourceType":"Observation","id":"08e7e816-27c6-4003-bbae-cd4e140391c6","meta":{"profile":["http://hl7.org/fhir/us/qicore/StructureDefinition/qicore-simple-observation"]},"status":"final","category":[{"coding":[{"system":"http://terminology.hl7.org/CodeSystem/observation-category","code":"exam","display":"exam","userSelected":true}]}],"code":{"coding":[{"system":"http://loinc.org","code":"11977-6"}]},"subject":{"reference":"Patient/a354a551-030b-4e72-979a-a81cbb7b8249"},"effectiveDateTime":"2026-03-08T09:00:00.000+00:00","valueInteger":1},"request":{"method":"PUT","url":"Observation/08e7e816-27c6-4003-bbae-cd4e140391c6"}},{"fullUrl":"Practitioner/651f2754-f010-4869-b6a7-43d1d75cf405","resource":{"resourceType":"Practitioner","id":"651f2754-f010-4869-b6a7-43d1d75cf405","meta":{"profile":["http://hl7.org/fhir/us/qicore/StructureDefinition/qicore-practitioner"]},"identifier":[{"system":"http://hl7.org/fhir/sid/us-npi","value":"1234567890"}],"name":[{"family":"Evil","prefix":["Dr"]}]},"request":{"method":"PUT","url":"Practitioner/651f2754-f010-4869-b6a7-43d1d75cf405"}},{"fullUrl":"Procedure/1f3cb378-c01b-4bb1-a70b-0ae8b5196853","resource":{"resourceType":"Procedure","id":"1f3cb378-c01b-4bb1-a70b-0ae8b5196853","meta":{"profile":["http://hl7.org/fhir/us/qicore/StructureDefinition/qicore-procedure"]},"extension":[{"url":"http://hl7.org/fhir/us/qicore/StructureDefinition/qicore-recorded","valueDateTime":"2014-04-05T13:35:00.000+00:00"}],"status":"completed","code":{"coding":[{"system":"http://www.cms.gov/Medicare/Coding/ICD10","code":"10D00Z0"},{"system":"http://snomed.info/sct","code":"4504004"}]},"subject":{"reference":"Patient/a354a551-030b-4e72-979a-a81cbb7b8249"},"performedPeriod":{"start":"2026-06-08T20:00:00.000+00:00","end":"2026-06-08T20:15:00.000+00:00"}},"request":{"method":"PUT","url":"Procedure/1f3cb378-c01b-4bb1-a70b-0ae8b5196853"}},{"fullUrl":"Coverage/de07c39d-f42c-480d-a811-7a55a1e0c1ff","resource":{"resourceType":"Coverage","id":"de07c39d-f42c-480d-a811-7a55a1e0c1ff","meta":{"profile":["http://hl7.org/fhir/us/qicore/StructureDefinition/qicore-coverage"]},"status":"active","subscriberId":"523435","beneficiary":{"reference":"Patient/a354a551-030b-4e72-979a-a81cbb7b8249"},"relationship":{"coding":[{"system":"http://terminology.hl7.org/CodeSystem/subscriber-relationship","code":"self"}]},"payor":[{"reference":"Organization/24f83c87-7b97-47c0-857b-200fd3da3fa9"}]},"request":{"method":"PUT","url":"Coverage/de07c39d-f42c-480d-a811-7a55a1e0c1ff"}},{"fullUrl":"Observation/3815a4db-7118-4f86-a28e-5fde7b5d95e7","resource":{"resourceType":"Observation","id":"3815a4db-7118-4f86-a28e-5fde7b5d95e7","meta":{"profile":["http://hl7.org/fhir/us/qicore/StructureDefinition/qicore-simple-observation"]},"status":"final","category":[{"coding":[{"system":"http://terminology.hl7.org/CodeSystem/observation-category","code":"exam","display":"exam","userSelected":true}]}],"code":{"coding":[{"system":"http://loinc.org","code":"93857-1"}]},"subject":{"reference":"Patient/a354a551-030b-4e72-979a-a81cbb7b8249"},"effectiveDateTime":"2026-06-08T20:00:00.000+00:00","valueDateTime":"2026-06-08T20:00:00.000+00:00"},"request":{"method":"PUT","url":"Observation/3815a4db-7118-4f86-a28e-5fde7b5d95e7"}},{"fullUrl":"Observation/f6b8f3c7-6a0e-4f4f-9b9e-bdf241bd2f6a","resource":{"resourceType":"Observation","id":"f6b8f3c7-6a0e-4f4f-9b9e-bdf241bd2f6a","meta":{"profile":["http://hl7.org/fhir/us/qicore/StructureDefinition/qicore-simple-observation"]},"status":"final","category":[{"coding":[{"system":"http://terminology.hl7.org/CodeSystem/observation-category","code":"exam","display":"exam","userSelected":true}]}],"code":{"coding":[{"system":"http://loinc.org","code":"11884-4"}]},"subject":{"reference":"Patient/a354a551-030b-4e72-979a-a81cbb7b8249"},"effectiveDateTime":"2026-06-08T20:00:00.000+00:00","valueQuantity":{"value":37,"system":"http://unitsofmeasure.org","code":"wk"}},"request":{"method":"PUT","url":"Observation/f6b8f3c7-6a0e-4f4f-9b9e-bdf241bd2f6a"}},{"fullUrl":"MeasureReport/a03f7f88-2f58-4b6b-b886-415ca05f669f","resource":{"resourceType":"MeasureReport","id":"a03f7f88-2f58-4b6b-b886-415ca05f669f","meta":{"profile":["http://hl7.org/fhir/us/cqfmeasures/StructureDefinition/test-case-cqfm"]},"contained":[{"resourceType":"Parameters","id":"8e4e36c8-4a4c-4c8b-9b3c-cf4efdc263d9-parameters","parameter":[{"name":"subject","valueString":"a354a551-030b-4e72-979a-a81cbb7b8249"}]}],"extension":[{"url":"http://hl7.org/fhir/StructureDefinition/cqf-inputParameters","valueReference":{"reference":"#8e4e36c8-4a4c-4c8b-9b3c-cf4efdc263d9-parameters"}},{"url":"http://hl7.org/fhir/us/cqfmeasures/StructureDefinition/cqfm-testCaseDescription","valueMarkdown":"Passes IP,  fail Denom with  Parity= 1\n"}],"modifierExtension":[{"url":"http://hl7.org/fhir/us/cqfmeasures/StructureDefinition/cqfm-isTestCase","valueBoolean":true}],"status":"complete","type":"individual","measure":"https://madie.cms.gov/Measure/CMS0334FHIRPCCesareanBirth","period":{"start":"2026-01-01","end":"2026-12-31"},"group":[{"id":"Group_1","population":[{"id":"InitialPopulation_1","code":{"coding":[{"system":"http://terminology.hl7.org/CodeSystem/measure-population","code":"initial-population","display":"Initial Population"}]},"count":1},{"id":"Denominator_1","code":{"coding":[{"system":"http://terminology.hl7.org/CodeSystem/measure-population","code":"denominator","display":"Denominator"}]},"count":0},{"id":"DenominatorExclusion_1","code":{"coding":[{"system":"http://terminology.hl7.org/CodeSystem/measure-population","code":"denominator-exclusion","display":"Denominator Exclusion"}]},"count":0},{"id":"Numerator_1","code":{"coding":[{"system":"http://terminology.hl7.org/CodeSystem/measure-population","code":"numerator","display":"Numerator"}]},"count":0}],"measureScore":{"value":0.0}}],"evaluatedResource":[{"reference":"Patient/a354a551-030b-4e72-979a-a81cbb7b8249"},{"reference":"Observation/08e7e816-27c6-4003-bbae-cd4e140391c6"},{"reference":"Observation/f6b8f3c7-6a0e-4f4f-9b9e-bdf241bd2f6a"},{"reference":"Observation/3815a4db-7118-4f86-a28e-5fde7b5d95e7"},{"reference":"Encounter/328ecf2e-14ff-41bf-999f-f2a6b4345f46"},{"reference":"Procedure/1f3cb378-c01b-4bb1-a70b-0ae8b5196853"},{"reference":"Condition/c3c1e8ba-c9f7-41ea-8c5e-358d162e05c9"},{"reference":"Coverage/de07c39d-f42c-480d-a811-7a55a1e0c1ff"},{"reference":"Organization/24f83c87-7b97-47c0-857b-200fd3da3fa9"},{"reference":"Practitioner/651f2754-f010-4869-b6a7-43d1d75cf405"}]},"request":{"method":"PUT","url":"MeasureReport/a03f7f88-2f58-4b6b-b886-415ca05f669f"}},{"fullUrl":"Encounter/328ecf2e-14ff-41bf-999f-f2a6b4345f46","resource":{"resourceType":"Encounter","id":"328ecf2e-14ff-41bf-999f-f2a6b4345f46","meta":{"profile":["http://hl7.org/fhir/us/qicore/StructureDefinition/qicore-encounter"]},"status":"finished","class":{"system":"http://terminology.hl7.org/CodeSystem/v3-ActCode","code":"IMP","display":"inpatient encounter"},"type":[{"coding":[{"system":"http://snomed.info/sct","code":"8715000"}]}],"subject":{"reference":"Patient/a354a551-030b-4e72-979a-a81cbb7b8249"},"period":{"start":"2026-06-08T08:00:00.000+00:00","end":"2026-06-10T08:15:00.000+00:00"},"length":{"value":2,"unit":"days"},"reasonReference":[{"reference":"Condition/c3c1e8ba-c9f7-41ea-8c5e-358d162e05c9"}]},"request":{"method":"PUT","url":"Encounter/328ecf2e-14ff-41bf-999f-f2a6b4345f46"}},{"fullUrl":"Bundle/63487c2d0968f80122540145","resource":{"resourceType":"Bundle","id":"63487c2d0968f80122540145","type":"transaction","entry":[{"fullUrl":"https://madie.cms.gov/Patient/a354a551-030b-4e72-979a-a81cbb7b8249","resource":{"resourceType":"Patient","id":"a354a551-030b-4e72-979a-a81cbb7b8249","meta":{"profile":["http://hl7.org/fhir/us/qicore/StructureDefinition/qicore-patient"]},"text":{"status":"generated","div":"<div xmlns=\"http://www.w3.org/1999/xhtml\"><div class=\"hapiHeaderText\">AssessP1<b>DENOMFail</b></div><table class=\"hapiPropertyTable\"><tbody><tr><td>Identifier</td><td>433af885768545c0b7502198218da0f1b5a64d7905cba864af8028ff627f6e9c</td></tr><tr><td>Date of birth</td><td><span>14 February 1985</span></td></tr></tbody></table></div>"},"extension":[{"url":"http://hl7.org/fhir/us/core/StructureDefinition/us-core-race","extension":[{"url":"ombCategory","valueCoding":{"system":"urn:oid:2.16.840.1.113883.6.238","code":"1002-5","display":"American Indian or Alaska Native","userSelected":true}},{"url":"text","valueString":"American Indian or Alaska Native"}]},{"url":"http://hl7.org/fhir/us/core/StructureDefinition/us-core-ethnicity","extension":[{"url":"ombCategory","valueCoding":{"system":"urn:oid:2.16.840.1.113883.6.238","code":"2135-2","display":"Hispanic or Latino","userSelected":true}},{"url":"text","valueString":"Hispanic or Latino"}]}],"identifier":[{"type":{"coding":[{"system":"http://terminology.hl7.org/CodeSystem/v2-0203","code":"MR"}]},"system":"https://bonnie-fhir.healthit.gov/","value":"63487c2d0968f80122540145"}],"active":true,"name":[{"use":"usual","family":"DENOMFail","given":["AssessP1"]}],"gender":"female","birthDate":"1998-02-14"},"request":{"method":"PUT","url":"Patient/a354a551-030b-4e72-979a-a81cbb7b8249"}},{"fullUrl":"https://madie.cms.gov/Observation/08e7e816-27c6-4003-bbae-cd4e140391c6","resource":{"resourceType":"Observation","id":"08e7e816-27c6-4003-bbae-cd4e140391c6","meta":{"profile":["http://hl7.org/fhir/us/qicore/StructureDefinition/qicore-simple-observation"]},"status":"final","category":[{"coding":[{"system":"http://terminology.hl7.org/CodeSystem/observation-category","code":"exam","display":"exam","userSelected":true}]}],"code":{"coding":[{"system":"http://loinc.org","code":"11977-6"}]},"subject":{"reference":"Patient/a354a551-030b-4e72-979a-a81cbb7b8249"},"effectiveDateTime":"2026-03-08T09:00:00.000+00:00","valueInteger":1},"request":{"method":"PUT","url":"Observation/08e7e816-27c6-4003-bbae-cd4e140391c6"}},{"fullUrl":"https://madie.cms.gov/Observation/f6b8f3c7-6a0e-4f4f-9b9e-bdf241bd2f6a","resource":{"resourceType":"Observation","id":"f6b8f3c7-6a0e-4f4f-9b9e-bdf241bd2f6a","meta":{"profile":["http://hl7.org/fhir/us/qicore/StructureDefinition/qicore-simple-observation"]},"status":"final","category":[{"coding":[{"system":"http://terminology.hl7.org/CodeSystem/observation-category","code":"exam","display":"exam","userSelected":true}]}],"code":{"coding":[{"system":"http://loinc.org","code":"11884-4"}]},"subject":{"reference":"Patient/a354a551-030b-4e72-979a-a81cbb7b8249"},"effectiveDateTime":"2026-06-08T20:00:00.000+00:00","valueQuantity":{"value":37,"system":"http://unitsofmeasure.org","code":"wk"}},"request":{"method":"PUT","url":"Observation/f6b8f3c7-6a0e-4f4f-9b9e-bdf241bd2f6a"}},{"fullUrl":"https://madie.cms.gov/Observation/3815a4db-7118-4f86-a28e-5fde7b5d95e7","resource":{"resourceType":"Observation","id":"3815a4db-7118-4f86-a28e-5fde7b5d95e7","meta":{"profile":["http://hl7.org/fhir/us/qicore/StructureDefinition/qicore-simple-observation"]},"status":"final","category":[{"coding":[{"system":"http://terminology.hl7.org/CodeSystem/observation-category","code":"exam","display":"exam","userSelected":true}]}],"code":{"coding":[{"system":"http://loinc.org","code":"93857-1"}]},"subject":{"reference":"Patient/a354a551-030b-4e72-979a-a81cbb7b8249"},"effectiveDateTime":"2026-06-08T20:00:00.000+00:00","valueDateTime":"2026-06-08T20:00:00.000+00:00"},"request":{"method":"PUT","url":"Observation/3815a4db-7118-4f86-a28e-5fde7b5d95e7"}},{"fullUrl":"https://madie.cms.gov/Encounter/328ecf2e-14ff-41bf-999f-f2a6b4345f46","resource":{"resourceType":"Encounter","id":"328ecf2e-14ff-41bf-999f-f2a6b4345f46","meta":{"profile":["http://hl7.org/fhir/us/qicore/StructureDefinition/qicore-encounter"]},"status":"finished","class":{"system":"http://terminology.hl7.org/CodeSystem/v3-ActCode","code":"IMP","display":"inpatient encounter"},"type":[{"coding":[{"system":"http://snomed.info/sct","code":"8715000"}]}],"subject":{"reference":"Patient/a354a551-030b-4e72-979a-a81cbb7b8249"},"period":{"start":"2026-06-08T08:00:00.000+00:00","end":"2026-06-10T08:15:00.000+00:00"},"length":{"value":2,"unit":"days"},"reasonReference":[{"reference":"Condition/c3c1e8ba-c9f7-41ea-8c5e-358d162e05c9"}]},"request":{"method":"PUT","url":"Encounter/328ecf2e-14ff-41bf-999f-f2a6b4345f46"}},{"fullUrl":"https://madie.cms.gov/Procedure/1f3cb378-c01b-4bb1-a70b-0ae8b5196853","resource":{"resourceType":"Procedure","id":"1f3cb378-c01b-4bb1-a70b-0ae8b5196853","meta":{"profile":["http://hl7.org/fhir/us/qicore/StructureDefinition/qicore-procedure"]},"extension":[{"url":"http://hl7.org/fhir/us/qicore/StructureDefinition/qicore-recorded","valueDateTime":"2014-04-05T13:35:00.000+00:00"}],"status":"completed","code":{"coding":[{"system":"http://www.cms.gov/Medicare/Coding/ICD10","code":"10D00Z0"},{"system":"http://snomed.info/sct","code":"4504004"}]},"subject":{"reference":"Patient/a354a551-030b-4e72-979a-a81cbb7b8249"},"performedPeriod":{"start":"2026-06-08T20:00:00.000+00:00","end":"2026-06-08T20:15:00.000+00:00"}},"request":{"method":"PUT","url":"Procedure/1f3cb378-c01b-4bb1-a70b-0ae8b5196853"}},{"fullUrl":"https://madie.cms.gov/Condition/c3c1e8ba-c9f7-41ea-8c5e-358d162e05c9","resource":{"resourceType":"Condition","id":"c3c1e8ba-c9f7-41ea-8c5e-358d162e05c9","meta":{"profile":["http://hl7.org/fhir/us/qicore/StructureDefinition/qicore-condition-encounter-diagnosis"]},"category":[{"coding":[{"system":"http://terminology.hl7.org/CodeSystem/condition-category","code":"encounter-diagnosis","display":"Encounter Diagnosis"}]}],"code":{"coding":[{"system":"http://snomed.info/sct","version":"2022-09","code":"169826009","display":"Single live birth from singleton pregnancy (finding)","userSelected":true}]},"subject":{"reference":"Patient/a354a551-030b-4e72-979a-a81cbb7b8249"},"encounter":{"reference":"Encounter/328ecf2e-14ff-41bf-999f-f2a6b4345f46"},"recordedDate":"2026-10-21T08:00:00.000+00:00"},"request":{"method":"PUT","url":"Condition/c3c1e8ba-c9f7-41ea-8c5e-358d162e05c9"}},{"fullUrl":"https://madie.cms.gov/Coverage/de07c39d-f42c-480d-a811-7a55a1e0c1ff","resource":{"resourceType":"Coverage","id":"de07c39d-f42c-480d-a811-7a55a1e0c1ff","meta":{"profile":["http://hl7.org/fhir/us/qicore/StructureDefinition/qicore-coverage"]},"status":"active","subscriberId":"523435","beneficiary":{"reference":"Patient/a354a551-030b-4e72-979a-a81cbb7b8249"},"relationship":{"coding":[{"system":"http://terminology.hl7.org/CodeSystem/subscriber-relationship","code":"self"}]},"payor":[{"reference":"Organization/24f83c87-7b97-47c0-857b-200fd3da3fa9"}]},"request":{"method":"PUT","url":"Coverage/de07c39d-f42c-480d-a811-7a55a1e0c1ff"}},{"fullUrl":"https://madie.cms.gov/Organization/24f83c87-7b97-47c0-857b-200fd3da3fa9","resource":{"resourceType":"Organization","id":"24f83c87-7b97-47c0-857b-200fd3da3fa9","meta":{"profile":["http://hl7.org/fhir/us/qicore/StructureDefinition/qicore-organization"]},"identifier":[{"use":"temp","system":"urn:oid:2.16.840.1.113883.4.4","value":"21-3259825"}],"active":true,"type":[{"coding":[{"system":"http://terminology.hl7.org/CodeSystem/organization-type","code":"pay","display":"Payer"}]}],"name":"Blue Cross Blue Shield of Texas","telecom":[{"system":"phone","value":"(+1) 972-766-6900"}],"address":[{"use":"billing","type":"postal","line":["P.O. Box 660044"],"city":"Dallas","state":"TX","postalCode":"75266-0044","country":"USA"}]},"request":{"method":"PUT","url":"Organization/24f83c87-7b97-47c0-857b-200fd3da3fa9"}},{"fullUrl":"https://madie.cms.gov/Practitioner/651f2754-f010-4869-b6a7-43d1d75cf405","resource":{"resourceType":"Practitioner","id":"651f2754-f010-4869-b6a7-43d1d75cf405","meta":{"profile":["http://hl7.org/fhir/us/qicore/StructureDefinition/qicore-practitioner"]},"identifier":[{"system":"http://hl7.org/fhir/sid/us-npi","value":"1234567890"}],"name":[{"family":"Evil","prefix":["Dr"]}]},"request":{"method":"PUT","url":"Practitioner/651f2754-f010-4869-b6a7-43d1d75cf405"}},{"fullUrl":"https://madie.cms.gov/MeasureReport/a03f7f88-2f58-4b6b-b886-415ca05f669f","resource":{"resourceType":"MeasureReport","id":"a03f7f88-2f58-4b6b-b886-415ca05f669f","meta":{"profile":["http://hl7.org/fhir/us/cqfmeasures/StructureDefinition/test-case-cqfm"]},"contained":[{"resourceType":"Parameters","id":"8e4e36c8-4a4c-4c8b-9b3c-cf4efdc263d9-parameters","parameter":[{"name":"subject","valueString":"a354a551-030b-4e72-979a-a81cbb7b8249"}]}],"extension":[{"url":"http://hl7.org/fhir/StructureDefinition/cqf-inputParameters","valueReference":{"reference":"#8e4e36c8-4a4c-4c8b-9b3c-cf4efdc263d9-parameters"}},{"url":"http://hl7.org/fhir/us/cqfmeasures/StructureDefinition/cqfm-testCaseDescription","valueMarkdown":"Passes IP,  fail Denom with  Parity= 1\n"}],"modifierExtension":[{"url":"http://hl7.org/fhir/us/cqfmeasures/StructureDefinition/cqfm-isTestCase","valueBoolean":true}],"status":"complete","type":"individual","measure":"https://madie.cms.gov/Measure/CMS0334FHIRPCCesareanBirth","period":{"start":"2026-01-01","end":"2026-12-31"},"group":[{"id":"Group_1","population":[{"id":"InitialPopulation_1","code":{"coding":[{"system":"http://terminology.hl7.org/CodeSystem/measure-population","code":"initial-population","display":"Initial Population"}]},"count":1},{"id":"Denominator_1","code":{"coding":[{"system":"http://terminology.hl7.org/CodeSystem/measure-population","code":"denominator","display":"Denominator"}]},"count":0},{"id":"DenominatorExclusion_1","code":{"coding":[{"system":"http://terminology.hl7.org/CodeSystem/measure-population","code":"denominator-exclusion","display":"Denominator Exclusion"}]},"count":0},{"id":"Numerator_1","code":{"coding":[{"system":"http://terminology.hl7.org/CodeSystem/measure-population","code":"numerator","display":"Numerator"}]},"count":0}],"measureScore":{"value":0.0}}],"evaluatedResource":[{"reference":"Patient/a354a551-030b-4e72-979a-a81cbb7b8249"},{"reference":"Observation/08e7e816-27c6-4003-bbae-cd4e140391c6"},{"reference":"Observation/f6b8f3c7-6a0e-4f4f-9b9e-bdf241bd2f6a"},{"reference":"Observation/3815a4db-7118-4f86-a28e-5fde7b5d95e7"},{"reference":"Encounter/328ecf2e-14ff-41bf-999f-f2a6b4345f46"},{"reference":"Procedure/1f3cb378-c01b-4bb1-a70b-0ae8b5196853"},{"reference":"Condition/c3c1e8ba-c9f7-41ea-8c5e-358d162e05c9"},{"reference":"Coverage/de07c39d-f42c-480d-a811-7a55a1e0c1ff"},{"reference":"Organization/24f83c87-7b97-47c0-857b-200fd3da3fa9"},{"reference":"Practitioner/651f2754-f010-4869-b6a7-43d1d75cf405"}]},"request":{"method":"PUT","url":"MeasureReport/a03f7f88-2f58-4b6b-b886-415ca05f669f"}}]},"request":{"method":"PUT","url":"Bundle/63487c2d0968f80122540145"}}]}