{"resourceType":"Bundle","id":"tests-446532f2-7a4c-43cd-91ab-44bcd198526c-bundle","type":"transaction","entry":[{"fullUrl":"Condition/e39a41b0-4f1e-46d5-bfe0-27ca3a45d03e","resource":{"resourceType":"Condition","id":"e39a41b0-4f1e-46d5-bfe0-27ca3a45d03e","meta":{"profile":["http://hl7.org/fhir/us/qicore/StructureDefinition/qicore-condition-encounter-diagnosis"]},"category":[{"coding":[{"system":"http://terminology.hl7.org/CodeSystem/condition-category","code":"encounter-diagnosis","display":"Encounter Diagnosis"}]}],"code":{"coding":[{"system":"http://snomed.info/sct","version":"2022-09","code":"169826009","display":"Single live birth from singleton pregnancy (finding)","userSelected":true}]},"subject":{"reference":"Patient/446532f2-7a4c-43cd-91ab-44bcd198526c"},"encounter":{"reference":"Encounter/5b64fe2b-5371-446e-a628-526ac7beb1c4"},"recordedDate":"2026-10-21T08:00:00.000+00:00"},"request":{"method":"PUT","url":"Condition/e39a41b0-4f1e-46d5-bfe0-27ca3a45d03e"}},{"fullUrl":"Observation/55311994-ddd8-414e-94ad-32eb98d790b4","resource":{"resourceType":"Observation","id":"55311994-ddd8-414e-94ad-32eb98d790b4","meta":{"profile":["http://hl7.org/fhir/us/qicore/StructureDefinition/qicore-simple-observation"]},"status":"final","category":[{"coding":[{"system":"http://terminology.hl7.org/CodeSystem/observation-category","code":"exam","display":"exam","userSelected":true}]}],"code":{"coding":[{"system":"http://loinc.org","code":"11637-6"}]},"subject":{"reference":"Patient/446532f2-7a4c-43cd-91ab-44bcd198526c"},"effectiveDateTime":"2025-09-19T09:00:00.000+00:00","valueInteger":0},"request":{"method":"PUT","url":"Observation/55311994-ddd8-414e-94ad-32eb98d790b4"}},{"fullUrl":"Bundle/63487c2d0968f80122540161","resource":{"resourceType":"Bundle","id":"63487c2d0968f80122540161","type":"transaction","entry":[{"fullUrl":"https://madie.cms.gov/Patient/446532f2-7a4c-43cd-91ab-44bcd198526c","resource":{"resourceType":"Patient","id":"446532f2-7a4c-43cd-91ab-44bcd198526c","meta":{"profile":["http://hl7.org/fhir/us/qicore/StructureDefinition/qicore-patient"]},"text":{"status":"generated","div":"<div xmlns=\"http://www.w3.org/1999/xhtml\"><div class=\"hapiHeaderText\">AssessTerm0RelDtTimeEQTimeOfDeliv<b>DENOMFail</b></div><table class=\"hapiPropertyTable\"><tbody><tr><td>Identifier</td><td>6673ad2e7afdbe2b64b32198d497922374113f8e5685f7318cb6bb4ecc9fb9d7</td></tr><tr><td>Date of birth</td><td><span>14 February 1985</span></td></tr></tbody></table></div>"},"extension":[{"url":"http://hl7.org/fhir/us/core/StructureDefinition/us-core-race","extension":[{"url":"ombCategory","valueCoding":{"system":"urn:oid:2.16.840.1.113883.6.238","code":"1002-5","display":"American Indian or Alaska Native","userSelected":true}},{"url":"text","valueString":"American Indian or Alaska Native"}]},{"url":"http://hl7.org/fhir/us/core/StructureDefinition/us-core-ethnicity","extension":[{"url":"ombCategory","valueCoding":{"system":"urn:oid:2.16.840.1.113883.6.238","code":"2135-2","display":"Hispanic or Latino","userSelected":true}},{"url":"text","valueString":"Hispanic or Latino"}]}],"identifier":[{"type":{"coding":[{"system":"http://terminology.hl7.org/CodeSystem/v2-0203","code":"MR"}]},"system":"https://bonnie-fhir.healthit.gov/","value":"63487c2d0968f80122540161"}],"active":true,"name":[{"use":"usual","family":"DENOMFail","given":["AssessTerm0RelDtTimeEQTimeOfDeliv"]}],"gender":"female","birthDate":"1998-02-14"},"request":{"method":"PUT","url":"Patient/446532f2-7a4c-43cd-91ab-44bcd198526c"}},{"fullUrl":"https://madie.cms.gov/Observation/55311994-ddd8-414e-94ad-32eb98d790b4","resource":{"resourceType":"Observation","id":"55311994-ddd8-414e-94ad-32eb98d790b4","meta":{"profile":["http://hl7.org/fhir/us/qicore/StructureDefinition/qicore-simple-observation"]},"status":"final","category":[{"coding":[{"system":"http://terminology.hl7.org/CodeSystem/observation-category","code":"exam","display":"exam","userSelected":true}]}],"code":{"coding":[{"system":"http://loinc.org","code":"11637-6"}]},"subject":{"reference":"Patient/446532f2-7a4c-43cd-91ab-44bcd198526c"},"effectiveDateTime":"2025-09-19T09:00:00.000+00:00","valueInteger":0},"request":{"method":"PUT","url":"Observation/55311994-ddd8-414e-94ad-32eb98d790b4"}},{"fullUrl":"https://madie.cms.gov/Observation/a637b64f-3ae5-4fbc-8df5-1ce10cb5b4ae","resource":{"resourceType":"Observation","id":"a637b64f-3ae5-4fbc-8df5-1ce10cb5b4ae","meta":{"profile":["http://hl7.org/fhir/us/qicore/StructureDefinition/qicore-simple-observation"]},"status":"final","category":[{"coding":[{"system":"http://terminology.hl7.org/CodeSystem/observation-category","code":"exam","display":"exam","userSelected":true}]}],"code":{"coding":[{"system":"http://loinc.org","code":"11639-2"}]},"subject":{"reference":"Patient/446532f2-7a4c-43cd-91ab-44bcd198526c"},"effectiveDateTime":"2026-06-08T20:00:00.000+00:00","valueInteger":0},"request":{"method":"PUT","url":"Observation/a637b64f-3ae5-4fbc-8df5-1ce10cb5b4ae"}},{"fullUrl":"https://madie.cms.gov/Observation/33ad693f-616a-480f-a8e4-95079387390b","resource":{"resourceType":"Observation","id":"33ad693f-616a-480f-a8e4-95079387390b","meta":{"profile":["http://hl7.org/fhir/us/qicore/StructureDefinition/qicore-simple-observation"]},"status":"final","category":[{"coding":[{"system":"http://terminology.hl7.org/CodeSystem/observation-category","code":"exam","display":"exam","userSelected":true}]}],"code":{"coding":[{"system":"http://loinc.org","code":"11884-4"}]},"subject":{"reference":"Patient/446532f2-7a4c-43cd-91ab-44bcd198526c"},"effectiveDateTime":"2026-06-08T20:00:00.000+00:00","valueQuantity":{"value":37,"system":"http://unitsofmeasure.org","code":"wk"}},"request":{"method":"PUT","url":"Observation/33ad693f-616a-480f-a8e4-95079387390b"}},{"fullUrl":"https://madie.cms.gov/Observation/6169efa2-681f-4527-b932-e3a1c15cbd82","resource":{"resourceType":"Observation","id":"6169efa2-681f-4527-b932-e3a1c15cbd82","meta":{"profile":["http://hl7.org/fhir/us/qicore/StructureDefinition/qicore-simple-observation"]},"status":"final","category":[{"coding":[{"system":"http://terminology.hl7.org/CodeSystem/observation-category","code":"exam","display":"exam","userSelected":true}]}],"code":{"coding":[{"system":"http://loinc.org","code":"93857-1"}]},"subject":{"reference":"Patient/446532f2-7a4c-43cd-91ab-44bcd198526c"},"effectiveDateTime":"2026-06-08T20:00:00.000+00:00","valueDateTime":"2026-06-08T20:00:00.000+00:00"},"request":{"method":"PUT","url":"Observation/6169efa2-681f-4527-b932-e3a1c15cbd82"}},{"fullUrl":"https://madie.cms.gov/Encounter/5b64fe2b-5371-446e-a628-526ac7beb1c4","resource":{"resourceType":"Encounter","id":"5b64fe2b-5371-446e-a628-526ac7beb1c4","meta":{"profile":["http://hl7.org/fhir/us/qicore/StructureDefinition/qicore-encounter"]},"status":"finished","class":{"system":"http://terminology.hl7.org/CodeSystem/v3-ActCode","code":"IMP","display":"inpatient encounter"},"type":[{"coding":[{"system":"http://snomed.info/sct","code":"8715000"}]}],"subject":{"reference":"Patient/446532f2-7a4c-43cd-91ab-44bcd198526c"},"period":{"start":"2026-06-08T08:00:00.000+00:00","end":"2026-06-10T08:15:00.000+00:00"},"length":{"value":2,"unit":"days"},"reasonReference":[{"reference":"Condition/e39a41b0-4f1e-46d5-bfe0-27ca3a45d03e"}]},"request":{"method":"PUT","url":"Encounter/5b64fe2b-5371-446e-a628-526ac7beb1c4"}},{"fullUrl":"https://madie.cms.gov/Procedure/719223bb-07a4-439b-aecb-1d4cdc742720","resource":{"resourceType":"Procedure","id":"719223bb-07a4-439b-aecb-1d4cdc742720","meta":{"profile":["http://hl7.org/fhir/us/qicore/StructureDefinition/qicore-procedure"]},"extension":[{"url":"http://hl7.org/fhir/us/qicore/StructureDefinition/qicore-recorded","valueDateTime":"2014-04-05T13:35:00.000+00:00"}],"status":"completed","code":{"coding":[{"system":"http://www.cms.gov/Medicare/Coding/ICD10","code":"10D00Z0"},{"system":"http://snomed.info/sct","code":"4504004"}]},"subject":{"reference":"Patient/446532f2-7a4c-43cd-91ab-44bcd198526c"},"performedPeriod":{"start":"2026-06-08T20:00:00.000+00:00","end":"2026-06-08T20:15:00.000+00:00"}},"request":{"method":"PUT","url":"Procedure/719223bb-07a4-439b-aecb-1d4cdc742720"}},{"fullUrl":"https://madie.cms.gov/Condition/e39a41b0-4f1e-46d5-bfe0-27ca3a45d03e","resource":{"resourceType":"Condition","id":"e39a41b0-4f1e-46d5-bfe0-27ca3a45d03e","meta":{"profile":["http://hl7.org/fhir/us/qicore/StructureDefinition/qicore-condition-encounter-diagnosis"]},"category":[{"coding":[{"system":"http://terminology.hl7.org/CodeSystem/condition-category","code":"encounter-diagnosis","display":"Encounter Diagnosis"}]}],"code":{"coding":[{"system":"http://snomed.info/sct","version":"2022-09","code":"169826009","display":"Single live birth from singleton pregnancy (finding)","userSelected":true}]},"subject":{"reference":"Patient/446532f2-7a4c-43cd-91ab-44bcd198526c"},"encounter":{"reference":"Encounter/5b64fe2b-5371-446e-a628-526ac7beb1c4"},"recordedDate":"2026-10-21T08:00:00.000+00:00"},"request":{"method":"PUT","url":"Condition/e39a41b0-4f1e-46d5-bfe0-27ca3a45d03e"}},{"fullUrl":"https://madie.cms.gov/Coverage/ce00aa31-bfac-4602-bea0-3adeca7ca25a","resource":{"resourceType":"Coverage","id":"ce00aa31-bfac-4602-bea0-3adeca7ca25a","meta":{"profile":["http://hl7.org/fhir/us/qicore/StructureDefinition/qicore-coverage"]},"status":"active","subscriberId":"523435","beneficiary":{"reference":"Patient/446532f2-7a4c-43cd-91ab-44bcd198526c"},"relationship":{"coding":[{"system":"http://terminology.hl7.org/CodeSystem/subscriber-relationship","code":"self"}]},"payor":[{"reference":"Organization/8629e232-c725-4d53-b542-0d3bdb62ef5a"}]},"request":{"method":"PUT","url":"Coverage/ce00aa31-bfac-4602-bea0-3adeca7ca25a"}},{"fullUrl":"https://madie.cms.gov/Organization/8629e232-c725-4d53-b542-0d3bdb62ef5a","resource":{"resourceType":"Organization","id":"8629e232-c725-4d53-b542-0d3bdb62ef5a","meta":{"profile":["http://hl7.org/fhir/us/qicore/StructureDefinition/qicore-organization"]},"identifier":[{"use":"temp","system":"urn:oid:2.16.840.1.113883.4.4","value":"21-3259825"}],"active":true,"type":[{"coding":[{"system":"http://terminology.hl7.org/CodeSystem/organization-type","code":"pay","display":"Payer"}]}],"name":"Blue Cross Blue Shield of Texas","telecom":[{"system":"phone","value":"(+1) 972-766-6900"}],"address":[{"use":"billing","type":"postal","line":["P.O. Box 660044"],"city":"Dallas","state":"TX","postalCode":"75266-0044","country":"USA"}]},"request":{"method":"PUT","url":"Organization/8629e232-c725-4d53-b542-0d3bdb62ef5a"}},{"fullUrl":"https://madie.cms.gov/Practitioner/f39d6856-747f-4a8d-8c55-942a951c98b1","resource":{"resourceType":"Practitioner","id":"f39d6856-747f-4a8d-8c55-942a951c98b1","meta":{"profile":["http://hl7.org/fhir/us/qicore/StructureDefinition/qicore-practitioner"]},"identifier":[{"system":"http://hl7.org/fhir/sid/us-npi","value":"1234567890"}],"name":[{"family":"Evil","prefix":["Dr"]}]},"request":{"method":"PUT","url":"Practitioner/f39d6856-747f-4a8d-8c55-942a951c98b1"}},{"fullUrl":"https://madie.cms.gov/MeasureReport/a855cd39-17f4-4486-a7ab-6de16c6c88d9","resource":{"resourceType":"MeasureReport","id":"a855cd39-17f4-4486-a7ab-6de16c6c88d9","meta":{"profile":["http://hl7.org/fhir/us/cqfmeasures/StructureDefinition/test-case-cqfm"]},"contained":[{"resourceType":"Parameters","id":"f45cdf51-8feb-45c6-babf-1280ec8f36ca-parameters","parameter":[{"name":"subject","valueString":"446532f2-7a4c-43cd-91ab-44bcd198526c"}]}],"extension":[{"url":"http://hl7.org/fhir/StructureDefinition/cqf-inputParameters","valueReference":{"reference":"#f45cdf51-8feb-45c6-babf-1280ec8f36ca-parameters"}},{"url":"http://hl7.org/fhir/us/cqfmeasures/StructureDefinition/cqfm-testCaseDescription","valueMarkdown":"\"Preterm Births=0, Relevant date/time < 42weeks prior to Asse delivery\nTerm Newborn=0, Relevant date/time same datetime as Asse delivery\"\n"}],"modifierExtension":[{"url":"http://hl7.org/fhir/us/cqfmeasures/StructureDefinition/cqfm-isTestCase","valueBoolean":true}],"status":"complete","type":"individual","measure":"https://madie.cms.gov/Measure/CMS0334FHIRPCCesareanBirth","period":{"start":"2026-01-01","end":"2026-12-31"},"group":[{"id":"Group_1","population":[{"id":"InitialPopulation_1","code":{"coding":[{"system":"http://terminology.hl7.org/CodeSystem/measure-population","code":"initial-population","display":"Initial Population"}]},"count":1},{"id":"Denominator_1","code":{"coding":[{"system":"http://terminology.hl7.org/CodeSystem/measure-population","code":"denominator","display":"Denominator"}]},"count":0},{"id":"DenominatorExclusion_1","code":{"coding":[{"system":"http://terminology.hl7.org/CodeSystem/measure-population","code":"denominator-exclusion","display":"Denominator Exclusion"}]},"count":0},{"id":"Numerator_1","code":{"coding":[{"system":"http://terminology.hl7.org/CodeSystem/measure-population","code":"numerator","display":"Numerator"}]},"count":0}],"measureScore":{"value":0.0}}],"evaluatedResource":[{"reference":"Patient/446532f2-7a4c-43cd-91ab-44bcd198526c"},{"reference":"Observation/55311994-ddd8-414e-94ad-32eb98d790b4"},{"reference":"Observation/a637b64f-3ae5-4fbc-8df5-1ce10cb5b4ae"},{"reference":"Observation/33ad693f-616a-480f-a8e4-95079387390b"},{"reference":"Observation/6169efa2-681f-4527-b932-e3a1c15cbd82"},{"reference":"Encounter/5b64fe2b-5371-446e-a628-526ac7beb1c4"},{"reference":"Procedure/719223bb-07a4-439b-aecb-1d4cdc742720"},{"reference":"Condition/e39a41b0-4f1e-46d5-bfe0-27ca3a45d03e"},{"reference":"Coverage/ce00aa31-bfac-4602-bea0-3adeca7ca25a"},{"reference":"Organization/8629e232-c725-4d53-b542-0d3bdb62ef5a"},{"reference":"Practitioner/f39d6856-747f-4a8d-8c55-942a951c98b1"}]},"request":{"method":"PUT","url":"MeasureReport/a855cd39-17f4-4486-a7ab-6de16c6c88d9"}}]},"request":{"method":"PUT","url":"Bundle/63487c2d0968f80122540161"}},{"fullUrl":"Observation/6169efa2-681f-4527-b932-e3a1c15cbd82","resource":{"resourceType":"Observation","id":"6169efa2-681f-4527-b932-e3a1c15cbd82","meta":{"profile":["http://hl7.org/fhir/us/qicore/StructureDefinition/qicore-simple-observation"]},"status":"final","category":[{"coding":[{"system":"http://terminology.hl7.org/CodeSystem/observation-category","code":"exam","display":"exam","userSelected":true}]}],"code":{"coding":[{"system":"http://loinc.org","code":"93857-1"}]},"subject":{"reference":"Patient/446532f2-7a4c-43cd-91ab-44bcd198526c"},"effectiveDateTime":"2026-06-08T20:00:00.000+00:00","valueDateTime":"2026-06-08T20:00:00.000+00:00"},"request":{"method":"PUT","url":"Observation/6169efa2-681f-4527-b932-e3a1c15cbd82"}},{"fullUrl":"Coverage/ce00aa31-bfac-4602-bea0-3adeca7ca25a","resource":{"resourceType":"Coverage","id":"ce00aa31-bfac-4602-bea0-3adeca7ca25a","meta":{"profile":["http://hl7.org/fhir/us/qicore/StructureDefinition/qicore-coverage"]},"status":"active","subscriberId":"523435","beneficiary":{"reference":"Patient/446532f2-7a4c-43cd-91ab-44bcd198526c"},"relationship":{"coding":[{"system":"http://terminology.hl7.org/CodeSystem/subscriber-relationship","code":"self"}]},"payor":[{"reference":"Organization/8629e232-c725-4d53-b542-0d3bdb62ef5a"}]},"request":{"method":"PUT","url":"Coverage/ce00aa31-bfac-4602-bea0-3adeca7ca25a"}},{"fullUrl":"MeasureReport/a855cd39-17f4-4486-a7ab-6de16c6c88d9","resource":{"resourceType":"MeasureReport","id":"a855cd39-17f4-4486-a7ab-6de16c6c88d9","meta":{"profile":["http://hl7.org/fhir/us/cqfmeasures/StructureDefinition/test-case-cqfm"]},"contained":[{"resourceType":"Parameters","id":"f45cdf51-8feb-45c6-babf-1280ec8f36ca-parameters","parameter":[{"name":"subject","valueString":"446532f2-7a4c-43cd-91ab-44bcd198526c"}]}],"extension":[{"url":"http://hl7.org/fhir/StructureDefinition/cqf-inputParameters","valueReference":{"reference":"#f45cdf51-8feb-45c6-babf-1280ec8f36ca-parameters"}},{"url":"http://hl7.org/fhir/us/cqfmeasures/StructureDefinition/cqfm-testCaseDescription","valueMarkdown":"\"Preterm Births=0, Relevant date/time < 42weeks prior to Asse delivery\nTerm Newborn=0, Relevant date/time same datetime as Asse delivery\"\n"}],"modifierExtension":[{"url":"http://hl7.org/fhir/us/cqfmeasures/StructureDefinition/cqfm-isTestCase","valueBoolean":true}],"status":"complete","type":"individual","measure":"https://madie.cms.gov/Measure/CMS0334FHIRPCCesareanBirth","period":{"start":"2026-01-01","end":"2026-12-31"},"group":[{"id":"Group_1","population":[{"id":"InitialPopulation_1","code":{"coding":[{"system":"http://terminology.hl7.org/CodeSystem/measure-population","code":"initial-population","display":"Initial Population"}]},"count":1},{"id":"Denominator_1","code":{"coding":[{"system":"http://terminology.hl7.org/CodeSystem/measure-population","code":"denominator","display":"Denominator"}]},"count":0},{"id":"DenominatorExclusion_1","code":{"coding":[{"system":"http://terminology.hl7.org/CodeSystem/measure-population","code":"denominator-exclusion","display":"Denominator Exclusion"}]},"count":0},{"id":"Numerator_1","code":{"coding":[{"system":"http://terminology.hl7.org/CodeSystem/measure-population","code":"numerator","display":"Numerator"}]},"count":0}],"measureScore":{"value":0.0}}],"evaluatedResource":[{"reference":"Patient/446532f2-7a4c-43cd-91ab-44bcd198526c"},{"reference":"Observation/55311994-ddd8-414e-94ad-32eb98d790b4"},{"reference":"Observation/a637b64f-3ae5-4fbc-8df5-1ce10cb5b4ae"},{"reference":"Observation/33ad693f-616a-480f-a8e4-95079387390b"},{"reference":"Observation/6169efa2-681f-4527-b932-e3a1c15cbd82"},{"reference":"Encounter/5b64fe2b-5371-446e-a628-526ac7beb1c4"},{"reference":"Procedure/719223bb-07a4-439b-aecb-1d4cdc742720"},{"reference":"Condition/e39a41b0-4f1e-46d5-bfe0-27ca3a45d03e"},{"reference":"Coverage/ce00aa31-bfac-4602-bea0-3adeca7ca25a"},{"reference":"Organization/8629e232-c725-4d53-b542-0d3bdb62ef5a"},{"reference":"Practitioner/f39d6856-747f-4a8d-8c55-942a951c98b1"}]},"request":{"method":"PUT","url":"MeasureReport/a855cd39-17f4-4486-a7ab-6de16c6c88d9"}},{"fullUrl":"Observation/33ad693f-616a-480f-a8e4-95079387390b","resource":{"resourceType":"Observation","id":"33ad693f-616a-480f-a8e4-95079387390b","meta":{"profile":["http://hl7.org/fhir/us/qicore/StructureDefinition/qicore-simple-observation"]},"status":"final","category":[{"coding":[{"system":"http://terminology.hl7.org/CodeSystem/observation-category","code":"exam","display":"exam","userSelected":true}]}],"code":{"coding":[{"system":"http://loinc.org","code":"11884-4"}]},"subject":{"reference":"Patient/446532f2-7a4c-43cd-91ab-44bcd198526c"},"effectiveDateTime":"2026-06-08T20:00:00.000+00:00","valueQuantity":{"value":37,"system":"http://unitsofmeasure.org","code":"wk"}},"request":{"method":"PUT","url":"Observation/33ad693f-616a-480f-a8e4-95079387390b"}},{"fullUrl":"Patient/446532f2-7a4c-43cd-91ab-44bcd198526c","resource":{"resourceType":"Patient","id":"446532f2-7a4c-43cd-91ab-44bcd198526c","meta":{"profile":["http://hl7.org/fhir/us/qicore/StructureDefinition/qicore-patient"]},"text":{"status":"generated","div":"<div xmlns=\"http://www.w3.org/1999/xhtml\"><div class=\"hapiHeaderText\">AssessTerm0RelDtTimeEQTimeOfDeliv<b>DENOMFail</b></div><table class=\"hapiPropertyTable\"><tbody><tr><td>Identifier</td><td>6673ad2e7afdbe2b64b32198d497922374113f8e5685f7318cb6bb4ecc9fb9d7</td></tr><tr><td>Date of birth</td><td><span>14 February 1985</span></td></tr></tbody></table></div>"},"extension":[{"url":"http://hl7.org/fhir/us/core/StructureDefinition/us-core-race","extension":[{"url":"ombCategory","valueCoding":{"system":"urn:oid:2.16.840.1.113883.6.238","code":"1002-5","display":"American Indian or Alaska Native","userSelected":true}},{"url":"text","valueString":"American Indian or Alaska Native"}]},{"url":"http://hl7.org/fhir/us/core/StructureDefinition/us-core-ethnicity","extension":[{"url":"ombCategory","valueCoding":{"system":"urn:oid:2.16.840.1.113883.6.238","code":"2135-2","display":"Hispanic or Latino","userSelected":true}},{"url":"text","valueString":"Hispanic or Latino"}]}],"identifier":[{"type":{"coding":[{"system":"http://terminology.hl7.org/CodeSystem/v2-0203","code":"MR"}]},"system":"https://bonnie-fhir.healthit.gov/","value":"63487c2d0968f80122540161"}],"active":true,"name":[{"use":"usual","family":"DENOMFail","given":["AssessTerm0RelDtTimeEQTimeOfDeliv"]}],"gender":"female","birthDate":"1998-02-14"},"request":{"method":"PUT","url":"Patient/446532f2-7a4c-43cd-91ab-44bcd198526c"}},{"fullUrl":"Practitioner/f39d6856-747f-4a8d-8c55-942a951c98b1","resource":{"resourceType":"Practitioner","id":"f39d6856-747f-4a8d-8c55-942a951c98b1","meta":{"profile":["http://hl7.org/fhir/us/qicore/StructureDefinition/qicore-practitioner"]},"identifier":[{"system":"http://hl7.org/fhir/sid/us-npi","value":"1234567890"}],"name":[{"family":"Evil","prefix":["Dr"]}]},"request":{"method":"PUT","url":"Practitioner/f39d6856-747f-4a8d-8c55-942a951c98b1"}},{"fullUrl":"Encounter/5b64fe2b-5371-446e-a628-526ac7beb1c4","resource":{"resourceType":"Encounter","id":"5b64fe2b-5371-446e-a628-526ac7beb1c4","meta":{"profile":["http://hl7.org/fhir/us/qicore/StructureDefinition/qicore-encounter"]},"status":"finished","class":{"system":"http://terminology.hl7.org/CodeSystem/v3-ActCode","code":"IMP","display":"inpatient encounter"},"type":[{"coding":[{"system":"http://snomed.info/sct","code":"8715000"}]}],"subject":{"reference":"Patient/446532f2-7a4c-43cd-91ab-44bcd198526c"},"period":{"start":"2026-06-08T08:00:00.000+00:00","end":"2026-06-10T08:15:00.000+00:00"},"length":{"value":2,"unit":"days"},"reasonReference":[{"reference":"Condition/e39a41b0-4f1e-46d5-bfe0-27ca3a45d03e"}]},"request":{"method":"PUT","url":"Encounter/5b64fe2b-5371-446e-a628-526ac7beb1c4"}},{"fullUrl":"Organization/8629e232-c725-4d53-b542-0d3bdb62ef5a","resource":{"resourceType":"Organization","id":"8629e232-c725-4d53-b542-0d3bdb62ef5a","meta":{"profile":["http://hl7.org/fhir/us/qicore/StructureDefinition/qicore-organization"]},"identifier":[{"use":"temp","system":"urn:oid:2.16.840.1.113883.4.4","value":"21-3259825"}],"active":true,"type":[{"coding":[{"system":"http://terminology.hl7.org/CodeSystem/organization-type","code":"pay","display":"Payer"}]}],"name":"Blue Cross Blue Shield of Texas","telecom":[{"system":"phone","value":"(+1) 972-766-6900"}],"address":[{"use":"billing","type":"postal","line":["P.O. Box 660044"],"city":"Dallas","state":"TX","postalCode":"75266-0044","country":"USA"}]},"request":{"method":"PUT","url":"Organization/8629e232-c725-4d53-b542-0d3bdb62ef5a"}},{"fullUrl":"Observation/a637b64f-3ae5-4fbc-8df5-1ce10cb5b4ae","resource":{"resourceType":"Observation","id":"a637b64f-3ae5-4fbc-8df5-1ce10cb5b4ae","meta":{"profile":["http://hl7.org/fhir/us/qicore/StructureDefinition/qicore-simple-observation"]},"status":"final","category":[{"coding":[{"system":"http://terminology.hl7.org/CodeSystem/observation-category","code":"exam","display":"exam","userSelected":true}]}],"code":{"coding":[{"system":"http://loinc.org","code":"11639-2"}]},"subject":{"reference":"Patient/446532f2-7a4c-43cd-91ab-44bcd198526c"},"effectiveDateTime":"2026-06-08T20:00:00.000+00:00","valueInteger":0},"request":{"method":"PUT","url":"Observation/a637b64f-3ae5-4fbc-8df5-1ce10cb5b4ae"}},{"fullUrl":"Procedure/719223bb-07a4-439b-aecb-1d4cdc742720","resource":{"resourceType":"Procedure","id":"719223bb-07a4-439b-aecb-1d4cdc742720","meta":{"profile":["http://hl7.org/fhir/us/qicore/StructureDefinition/qicore-procedure"]},"extension":[{"url":"http://hl7.org/fhir/us/qicore/StructureDefinition/qicore-recorded","valueDateTime":"2014-04-05T13:35:00.000+00:00"}],"status":"completed","code":{"coding":[{"system":"http://www.cms.gov/Medicare/Coding/ICD10","code":"10D00Z0"},{"system":"http://snomed.info/sct","code":"4504004"}]},"subject":{"reference":"Patient/446532f2-7a4c-43cd-91ab-44bcd198526c"},"performedPeriod":{"start":"2026-06-08T20:00:00.000+00:00","end":"2026-06-08T20:15:00.000+00:00"}},"request":{"method":"PUT","url":"Procedure/719223bb-07a4-439b-aecb-1d4cdc742720"}}]}