{"resourceType":"Bundle","id":"tests-4b7b91d4-6f82-4db4-bc04-846bc01796b1-bundle","type":"transaction","entry":[{"fullUrl":"Observation/9e2896ca-cced-4c44-95eb-6385548afd02","resource":{"resourceType":"Observation","id":"9e2896ca-cced-4c44-95eb-6385548afd02","meta":{"profile":["http://hl7.org/fhir/us/qicore/StructureDefinition/qicore-simple-observation"]},"status":"final","category":[{"coding":[{"system":"http://terminology.hl7.org/CodeSystem/observation-category","code":"exam","display":"exam","userSelected":true}]}],"code":{"coding":[{"system":"http://loinc.org","code":"11996-6"}]},"subject":{"reference":"Patient/4b7b91d4-6f82-4db4-bc04-846bc01796b1"},"effectiveDateTime":"2026-04-09T08:00:00.000+00:00","valueInteger":2},"request":{"method":"PUT","url":"Observation/9e2896ca-cced-4c44-95eb-6385548afd02"}},{"fullUrl":"Bundle/63487c2e0968f8012254017c","resource":{"resourceType":"Bundle","id":"63487c2e0968f8012254017c","type":"transaction","entry":[{"fullUrl":"https://madie.cms.gov/Patient/4b7b91d4-6f82-4db4-bc04-846bc01796b1","resource":{"resourceType":"Patient","id":"4b7b91d4-6f82-4db4-bc04-846bc01796b1","meta":{"profile":["http://hl7.org/fhir/us/qicore/StructureDefinition/qicore-patient"]},"text":{"status":"generated","div":"<div xmlns=\"http://www.w3.org/1999/xhtml\"><div class=\"hapiHeaderText\">AssessG2P0 <b>DENPASS </b></div><table class=\"hapiPropertyTable\"><tbody><tr><td>Identifier</td><td>7ba44015901d3cd7e5539bec3f21dcf010a0d16b413410d65a34b2ae152ba10f</td></tr><tr><td>Date of birth</td><td><span>14 February 1985</span></td></tr></tbody></table></div>"},"extension":[{"url":"http://hl7.org/fhir/us/core/StructureDefinition/us-core-race","extension":[{"url":"ombCategory","valueCoding":{"system":"urn:oid:2.16.840.1.113883.6.238","code":"1002-5","display":"American Indian or Alaska Native","userSelected":true}},{"url":"text","valueString":"American Indian or Alaska Native"}]},{"url":"http://hl7.org/fhir/us/core/StructureDefinition/us-core-ethnicity","extension":[{"url":"ombCategory","valueCoding":{"system":"urn:oid:2.16.840.1.113883.6.238","code":"2135-2","display":"Hispanic or Latino","userSelected":true}},{"url":"text","valueString":"Hispanic or Latino"}]}],"identifier":[{"type":{"coding":[{"system":"http://terminology.hl7.org/CodeSystem/v2-0203","code":"MR"}]},"system":"https://bonnie-fhir.healthit.gov/","value":"63487c2e0968f8012254017c"}],"active":true,"name":[{"use":"usual","family":"DENPass","given":["AssessG2P0"]}],"gender":"female","birthDate":"1998-02-14"},"request":{"method":"PUT","url":"Patient/4b7b91d4-6f82-4db4-bc04-846bc01796b1"}},{"fullUrl":"https://madie.cms.gov/Observation/c8e3165d-d6eb-423b-a1d4-fedf18c1345e","resource":{"resourceType":"Observation","id":"c8e3165d-d6eb-423b-a1d4-fedf18c1345e","meta":{"profile":["http://hl7.org/fhir/us/qicore/StructureDefinition/qicore-simple-observation"]},"status":"final","category":[{"coding":[{"system":"http://terminology.hl7.org/CodeSystem/observation-category","code":"exam","display":"exam","userSelected":true}]}],"code":{"coding":[{"system":"http://loinc.org","code":"11977-6"}]},"subject":{"reference":"Patient/4b7b91d4-6f82-4db4-bc04-846bc01796b1"},"effectiveDateTime":"2026-04-08T09:00:00.000+00:00","valueInteger":0},"request":{"method":"PUT","url":"Observation/c8e3165d-d6eb-423b-a1d4-fedf18c1345e"}},{"fullUrl":"https://madie.cms.gov/Observation/9e2896ca-cced-4c44-95eb-6385548afd02","resource":{"resourceType":"Observation","id":"9e2896ca-cced-4c44-95eb-6385548afd02","meta":{"profile":["http://hl7.org/fhir/us/qicore/StructureDefinition/qicore-simple-observation"]},"status":"final","category":[{"coding":[{"system":"http://terminology.hl7.org/CodeSystem/observation-category","code":"exam","display":"exam","userSelected":true}]}],"code":{"coding":[{"system":"http://loinc.org","code":"11996-6"}]},"subject":{"reference":"Patient/4b7b91d4-6f82-4db4-bc04-846bc01796b1"},"effectiveDateTime":"2026-04-09T08:00:00.000+00:00","valueInteger":2},"request":{"method":"PUT","url":"Observation/9e2896ca-cced-4c44-95eb-6385548afd02"}},{"fullUrl":"https://madie.cms.gov/Observation/5f01251d-7e76-4874-bd61-acbacd168aab","resource":{"resourceType":"Observation","id":"5f01251d-7e76-4874-bd61-acbacd168aab","meta":{"profile":["http://hl7.org/fhir/us/qicore/StructureDefinition/qicore-simple-observation"]},"status":"final","category":[{"coding":[{"system":"http://terminology.hl7.org/CodeSystem/observation-category","code":"exam","display":"exam","userSelected":true}]}],"code":{"coding":[{"system":"http://loinc.org","code":"11884-4"}]},"subject":{"reference":"Patient/4b7b91d4-6f82-4db4-bc04-846bc01796b1"},"effectiveDateTime":"2026-06-08T07:00:00.000+00:00","valueQuantity":{"value":37,"system":"http://unitsofmeasure.org","code":"wk"}},"request":{"method":"PUT","url":"Observation/5f01251d-7e76-4874-bd61-acbacd168aab"}},{"fullUrl":"https://madie.cms.gov/Observation/b890069f-cfcb-4231-9d61-86029d9ef37b","resource":{"resourceType":"Observation","id":"b890069f-cfcb-4231-9d61-86029d9ef37b","meta":{"profile":["http://hl7.org/fhir/us/qicore/StructureDefinition/qicore-simple-observation"]},"status":"final","category":[{"coding":[{"system":"http://terminology.hl7.org/CodeSystem/observation-category","code":"exam","display":"exam","userSelected":true}]}],"code":{"coding":[{"system":"http://loinc.org","code":"93857-1"}]},"subject":{"reference":"Patient/4b7b91d4-6f82-4db4-bc04-846bc01796b1"},"effectiveDateTime":"2026-06-08T07:15:00.000+00:00","valueDateTime":"2026-06-08T07:15:00.000+00:00"},"request":{"method":"PUT","url":"Observation/b890069f-cfcb-4231-9d61-86029d9ef37b"}},{"fullUrl":"https://madie.cms.gov/Encounter/93fa4887-4cfc-4087-a7ae-8956ce999b95","resource":{"resourceType":"Encounter","id":"93fa4887-4cfc-4087-a7ae-8956ce999b95","meta":{"profile":["http://hl7.org/fhir/us/qicore/StructureDefinition/qicore-encounter"]},"status":"finished","class":{"system":"http://terminology.hl7.org/CodeSystem/v3-ActCode","code":"IMP","display":"inpatient encounter"},"type":[{"coding":[{"system":"http://snomed.info/sct","code":"8715000"}]}],"subject":{"reference":"Patient/4b7b91d4-6f82-4db4-bc04-846bc01796b1"},"period":{"start":"2026-06-08T05:00:00.000+00:00","end":"2026-06-10T08:15:00.000+00:00"},"length":{"value":2,"unit":"days"},"reasonReference":[{"reference":"Condition/4db09ceb-2ea1-48a9-81af-a307ae38a859"}]},"request":{"method":"PUT","url":"Encounter/93fa4887-4cfc-4087-a7ae-8956ce999b95"}},{"fullUrl":"https://madie.cms.gov/Procedure/06aa2060-c570-4ea6-ae7b-5f70fa3b8773","resource":{"resourceType":"Procedure","id":"06aa2060-c570-4ea6-ae7b-5f70fa3b8773","meta":{"profile":["http://hl7.org/fhir/us/qicore/StructureDefinition/qicore-procedure"]},"extension":[{"url":"http://hl7.org/fhir/us/qicore/StructureDefinition/qicore-recorded","valueDateTime":"2014-04-05T13:35:00.000+00:00"}],"status":"completed","code":{"coding":[{"system":"http://www.cms.gov/Medicare/Coding/ICD10","code":"10D00Z0"}]},"subject":{"reference":"Patient/4b7b91d4-6f82-4db4-bc04-846bc01796b1"},"performedPeriod":{"start":"2026-06-08T06:00:00.000+00:00","end":"2026-06-08T07:15:00.000+00:00"}},"request":{"method":"PUT","url":"Procedure/06aa2060-c570-4ea6-ae7b-5f70fa3b8773"}},{"fullUrl":"https://madie.cms.gov/Procedure/5703567f-d01a-4900-a7c2-ed2857c5f887","resource":{"resourceType":"Procedure","id":"5703567f-d01a-4900-a7c2-ed2857c5f887","meta":{"profile":["http://hl7.org/fhir/us/qicore/StructureDefinition/qicore-procedure"]},"extension":[{"url":"http://hl7.org/fhir/us/qicore/StructureDefinition/qicore-recorded","valueDateTime":"2014-04-05T13:35:00.000+00:00"}],"status":"completed","code":{"coding":[{"system":"http://www.cms.gov/Medicare/Coding/ICD10","code":"10D00Z0"}]},"subject":{"reference":"Patient/4b7b91d4-6f82-4db4-bc04-846bc01796b1"},"performedPeriod":{"start":"2026-06-08T06:00:00.000+00:00","end":"2026-06-08T07:15:00.000+00:00"}},"request":{"method":"PUT","url":"Procedure/5703567f-d01a-4900-a7c2-ed2857c5f887"}},{"fullUrl":"https://madie.cms.gov/Condition/4db09ceb-2ea1-48a9-81af-a307ae38a859","resource":{"resourceType":"Condition","id":"4db09ceb-2ea1-48a9-81af-a307ae38a859","meta":{"profile":["http://hl7.org/fhir/us/qicore/StructureDefinition/qicore-condition-encounter-diagnosis"]},"category":[{"coding":[{"system":"http://terminology.hl7.org/CodeSystem/condition-category","code":"encounter-diagnosis","display":"Encounter Diagnosis"}]}],"code":{"coding":[{"system":"http://snomed.info/sct","version":"2022-09","code":"169826009","display":"Single live birth from singleton pregnancy (finding)","userSelected":true}]},"subject":{"reference":"Patient/4b7b91d4-6f82-4db4-bc04-846bc01796b1"},"encounter":{"reference":"Encounter/93fa4887-4cfc-4087-a7ae-8956ce999b95"},"recordedDate":"2026-10-18T08:00:00.000+00:00"},"request":{"method":"PUT","url":"Condition/4db09ceb-2ea1-48a9-81af-a307ae38a859"}},{"fullUrl":"https://madie.cms.gov/Coverage/c54da822-9a01-4ccf-9efc-5b9cacdfc705","resource":{"resourceType":"Coverage","id":"c54da822-9a01-4ccf-9efc-5b9cacdfc705","meta":{"profile":["http://hl7.org/fhir/us/qicore/StructureDefinition/qicore-coverage"]},"status":"active","subscriberId":"523435","beneficiary":{"reference":"Patient/4b7b91d4-6f82-4db4-bc04-846bc01796b1"},"relationship":{"coding":[{"system":"http://terminology.hl7.org/CodeSystem/subscriber-relationship","code":"self"}]},"payor":[{"reference":"Organization/ee67d5c8-5a27-4425-aede-e6a0e08839ef"}]},"request":{"method":"PUT","url":"Coverage/c54da822-9a01-4ccf-9efc-5b9cacdfc705"}},{"fullUrl":"https://madie.cms.gov/Organization/ee67d5c8-5a27-4425-aede-e6a0e08839ef","resource":{"resourceType":"Organization","id":"ee67d5c8-5a27-4425-aede-e6a0e08839ef","meta":{"profile":["http://hl7.org/fhir/us/qicore/StructureDefinition/qicore-organization"]},"identifier":[{"use":"temp","system":"urn:oid:2.16.840.1.113883.4.4","value":"21-3259825"}],"active":true,"type":[{"coding":[{"system":"http://terminology.hl7.org/CodeSystem/organization-type","code":"pay","display":"Payer"}]}],"name":"Blue Cross Blue Shield of Texas","telecom":[{"system":"phone","value":"(+1) 972-766-6900"}],"address":[{"use":"billing","type":"postal","line":["P.O. Box 660044"],"city":"Dallas","state":"TX","postalCode":"75266-0044","country":"USA"}]},"request":{"method":"PUT","url":"Organization/ee67d5c8-5a27-4425-aede-e6a0e08839ef"}},{"fullUrl":"https://madie.cms.gov/Practitioner/9eee215a-d00f-4aed-9add-2064c9cae178","resource":{"resourceType":"Practitioner","id":"9eee215a-d00f-4aed-9add-2064c9cae178","meta":{"profile":["http://hl7.org/fhir/us/qicore/StructureDefinition/qicore-practitioner"]},"identifier":[{"system":"http://hl7.org/fhir/sid/us-npi","value":"1234567890"}],"name":[{"family":"Evil","prefix":["Dr"]}]},"request":{"method":"PUT","url":"Practitioner/9eee215a-d00f-4aed-9add-2064c9cae178"}},{"fullUrl":"https://madie.cms.gov/MeasureReport/f8e0226b-3833-47bc-944e-6728349b4cb6","resource":{"resourceType":"MeasureReport","id":"f8e0226b-3833-47bc-944e-6728349b4cb6","meta":{"profile":["http://hl7.org/fhir/us/cqfmeasures/StructureDefinition/test-case-cqfm"]},"contained":[{"resourceType":"Parameters","id":"e6c56e7c-42fc-474d-bfb7-bf6b20c9cafe-parameters","parameter":[{"name":"subject","valueString":"4b7b91d4-6f82-4db4-bc04-846bc01796b1"}]}],"extension":[{"url":"http://hl7.org/fhir/StructureDefinition/cqf-inputParameters","valueReference":{"reference":"#e6c56e7c-42fc-474d-bfb7-bf6b20c9cafe-parameters"}},{"url":"http://hl7.org/fhir/us/cqfmeasures/StructureDefinition/cqfm-testCaseDescription","valueMarkdown":"This patient has Gravida 2 Parity 0.  This measure accepts Parity 0 for denom regardless of Gravida value (union).\n"}],"modifierExtension":[{"url":"http://hl7.org/fhir/us/cqfmeasures/StructureDefinition/cqfm-isTestCase","valueBoolean":true}],"status":"complete","type":"individual","measure":"https://madie.cms.gov/Measure/CMS0334FHIRPCCesareanBirth","period":{"start":"2026-01-01","end":"2026-12-31"},"group":[{"id":"Group_1","population":[{"id":"InitialPopulation_1","code":{"coding":[{"system":"http://terminology.hl7.org/CodeSystem/measure-population","code":"initial-population","display":"Initial Population"}]},"count":1},{"id":"Denominator_1","code":{"coding":[{"system":"http://terminology.hl7.org/CodeSystem/measure-population","code":"denominator","display":"Denominator"}]},"count":1},{"id":"DenominatorExclusion_1","code":{"coding":[{"system":"http://terminology.hl7.org/CodeSystem/measure-population","code":"denominator-exclusion","display":"Denominator Exclusion"}]},"count":0},{"id":"Numerator_1","code":{"coding":[{"system":"http://terminology.hl7.org/CodeSystem/measure-population","code":"numerator","display":"Numerator"}]},"count":1}],"measureScore":{"value":0.0}}],"evaluatedResource":[{"reference":"Patient/4b7b91d4-6f82-4db4-bc04-846bc01796b1"},{"reference":"Observation/c8e3165d-d6eb-423b-a1d4-fedf18c1345e"},{"reference":"Observation/9e2896ca-cced-4c44-95eb-6385548afd02"},{"reference":"Observation/5f01251d-7e76-4874-bd61-acbacd168aab"},{"reference":"Observation/b890069f-cfcb-4231-9d61-86029d9ef37b"},{"reference":"Encounter/93fa4887-4cfc-4087-a7ae-8956ce999b95"},{"reference":"Procedure/06aa2060-c570-4ea6-ae7b-5f70fa3b8773"},{"reference":"Procedure/5703567f-d01a-4900-a7c2-ed2857c5f887"},{"reference":"Condition/4db09ceb-2ea1-48a9-81af-a307ae38a859"},{"reference":"Coverage/c54da822-9a01-4ccf-9efc-5b9cacdfc705"},{"reference":"Organization/ee67d5c8-5a27-4425-aede-e6a0e08839ef"},{"reference":"Practitioner/9eee215a-d00f-4aed-9add-2064c9cae178"}]},"request":{"method":"PUT","url":"MeasureReport/f8e0226b-3833-47bc-944e-6728349b4cb6"}}]},"request":{"method":"PUT","url":"Bundle/63487c2e0968f8012254017c"}},{"fullUrl":"Coverage/c54da822-9a01-4ccf-9efc-5b9cacdfc705","resource":{"resourceType":"Coverage","id":"c54da822-9a01-4ccf-9efc-5b9cacdfc705","meta":{"profile":["http://hl7.org/fhir/us/qicore/StructureDefinition/qicore-coverage"]},"status":"active","subscriberId":"523435","beneficiary":{"reference":"Patient/4b7b91d4-6f82-4db4-bc04-846bc01796b1"},"relationship":{"coding":[{"system":"http://terminology.hl7.org/CodeSystem/subscriber-relationship","code":"self"}]},"payor":[{"reference":"Organization/ee67d5c8-5a27-4425-aede-e6a0e08839ef"}]},"request":{"method":"PUT","url":"Coverage/c54da822-9a01-4ccf-9efc-5b9cacdfc705"}},{"fullUrl":"Observation/c8e3165d-d6eb-423b-a1d4-fedf18c1345e","resource":{"resourceType":"Observation","id":"c8e3165d-d6eb-423b-a1d4-fedf18c1345e","meta":{"profile":["http://hl7.org/fhir/us/qicore/StructureDefinition/qicore-simple-observation"]},"status":"final","category":[{"coding":[{"system":"http://terminology.hl7.org/CodeSystem/observation-category","code":"exam","display":"exam","userSelected":true}]}],"code":{"coding":[{"system":"http://loinc.org","code":"11977-6"}]},"subject":{"reference":"Patient/4b7b91d4-6f82-4db4-bc04-846bc01796b1"},"effectiveDateTime":"2026-04-08T09:00:00.000+00:00","valueInteger":0},"request":{"method":"PUT","url":"Observation/c8e3165d-d6eb-423b-a1d4-fedf18c1345e"}},{"fullUrl":"Procedure/5703567f-d01a-4900-a7c2-ed2857c5f887","resource":{"resourceType":"Procedure","id":"5703567f-d01a-4900-a7c2-ed2857c5f887","meta":{"profile":["http://hl7.org/fhir/us/qicore/StructureDefinition/qicore-procedure"]},"extension":[{"url":"http://hl7.org/fhir/us/qicore/StructureDefinition/qicore-recorded","valueDateTime":"2014-04-05T13:35:00.000+00:00"}],"status":"completed","code":{"coding":[{"system":"http://www.cms.gov/Medicare/Coding/ICD10","code":"10D00Z0"}]},"subject":{"reference":"Patient/4b7b91d4-6f82-4db4-bc04-846bc01796b1"},"performedPeriod":{"start":"2026-06-08T06:00:00.000+00:00","end":"2026-06-08T07:15:00.000+00:00"}},"request":{"method":"PUT","url":"Procedure/5703567f-d01a-4900-a7c2-ed2857c5f887"}},{"fullUrl":"Patient/4b7b91d4-6f82-4db4-bc04-846bc01796b1","resource":{"resourceType":"Patient","id":"4b7b91d4-6f82-4db4-bc04-846bc01796b1","meta":{"profile":["http://hl7.org/fhir/us/qicore/StructureDefinition/qicore-patient"]},"text":{"status":"generated","div":"<div xmlns=\"http://www.w3.org/1999/xhtml\"><div class=\"hapiHeaderText\">AssessG2P0 <b>DENPASS </b></div><table class=\"hapiPropertyTable\"><tbody><tr><td>Identifier</td><td>7ba44015901d3cd7e5539bec3f21dcf010a0d16b413410d65a34b2ae152ba10f</td></tr><tr><td>Date of birth</td><td><span>14 February 1985</span></td></tr></tbody></table></div>"},"extension":[{"url":"http://hl7.org/fhir/us/core/StructureDefinition/us-core-race","extension":[{"url":"ombCategory","valueCoding":{"system":"urn:oid:2.16.840.1.113883.6.238","code":"1002-5","display":"American Indian or Alaska Native","userSelected":true}},{"url":"text","valueString":"American Indian or Alaska Native"}]},{"url":"http://hl7.org/fhir/us/core/StructureDefinition/us-core-ethnicity","extension":[{"url":"ombCategory","valueCoding":{"system":"urn:oid:2.16.840.1.113883.6.238","code":"2135-2","display":"Hispanic or Latino","userSelected":true}},{"url":"text","valueString":"Hispanic or Latino"}]}],"identifier":[{"type":{"coding":[{"system":"http://terminology.hl7.org/CodeSystem/v2-0203","code":"MR"}]},"system":"https://bonnie-fhir.healthit.gov/","value":"63487c2e0968f8012254017c"}],"active":true,"name":[{"use":"usual","family":"DENPass","given":["AssessG2P0"]}],"gender":"female","birthDate":"1998-02-14"},"request":{"method":"PUT","url":"Patient/4b7b91d4-6f82-4db4-bc04-846bc01796b1"}},{"fullUrl":"Encounter/93fa4887-4cfc-4087-a7ae-8956ce999b95","resource":{"resourceType":"Encounter","id":"93fa4887-4cfc-4087-a7ae-8956ce999b95","meta":{"profile":["http://hl7.org/fhir/us/qicore/StructureDefinition/qicore-encounter"]},"status":"finished","class":{"system":"http://terminology.hl7.org/CodeSystem/v3-ActCode","code":"IMP","display":"inpatient encounter"},"type":[{"coding":[{"system":"http://snomed.info/sct","code":"8715000"}]}],"subject":{"reference":"Patient/4b7b91d4-6f82-4db4-bc04-846bc01796b1"},"period":{"start":"2026-06-08T05:00:00.000+00:00","end":"2026-06-10T08:15:00.000+00:00"},"length":{"value":2,"unit":"days"},"reasonReference":[{"reference":"Condition/4db09ceb-2ea1-48a9-81af-a307ae38a859"}]},"request":{"method":"PUT","url":"Encounter/93fa4887-4cfc-4087-a7ae-8956ce999b95"}},{"fullUrl":"Practitioner/9eee215a-d00f-4aed-9add-2064c9cae178","resource":{"resourceType":"Practitioner","id":"9eee215a-d00f-4aed-9add-2064c9cae178","meta":{"profile":["http://hl7.org/fhir/us/qicore/StructureDefinition/qicore-practitioner"]},"identifier":[{"system":"http://hl7.org/fhir/sid/us-npi","value":"1234567890"}],"name":[{"family":"Evil","prefix":["Dr"]}]},"request":{"method":"PUT","url":"Practitioner/9eee215a-d00f-4aed-9add-2064c9cae178"}},{"fullUrl":"Observation/5f01251d-7e76-4874-bd61-acbacd168aab","resource":{"resourceType":"Observation","id":"5f01251d-7e76-4874-bd61-acbacd168aab","meta":{"profile":["http://hl7.org/fhir/us/qicore/StructureDefinition/qicore-simple-observation"]},"status":"final","category":[{"coding":[{"system":"http://terminology.hl7.org/CodeSystem/observation-category","code":"exam","display":"exam","userSelected":true}]}],"code":{"coding":[{"system":"http://loinc.org","code":"11884-4"}]},"subject":{"reference":"Patient/4b7b91d4-6f82-4db4-bc04-846bc01796b1"},"effectiveDateTime":"2026-06-08T07:00:00.000+00:00","valueQuantity":{"value":37,"system":"http://unitsofmeasure.org","code":"wk"}},"request":{"method":"PUT","url":"Observation/5f01251d-7e76-4874-bd61-acbacd168aab"}},{"fullUrl":"Procedure/06aa2060-c570-4ea6-ae7b-5f70fa3b8773","resource":{"resourceType":"Procedure","id":"06aa2060-c570-4ea6-ae7b-5f70fa3b8773","meta":{"profile":["http://hl7.org/fhir/us/qicore/StructureDefinition/qicore-procedure"]},"extension":[{"url":"http://hl7.org/fhir/us/qicore/StructureDefinition/qicore-recorded","valueDateTime":"2014-04-05T13:35:00.000+00:00"}],"status":"completed","code":{"coding":[{"system":"http://www.cms.gov/Medicare/Coding/ICD10","code":"10D00Z0"}]},"subject":{"reference":"Patient/4b7b91d4-6f82-4db4-bc04-846bc01796b1"},"performedPeriod":{"start":"2026-06-08T06:00:00.000+00:00","end":"2026-06-08T07:15:00.000+00:00"}},"request":{"method":"PUT","url":"Procedure/06aa2060-c570-4ea6-ae7b-5f70fa3b8773"}},{"fullUrl":"MeasureReport/f8e0226b-3833-47bc-944e-6728349b4cb6","resource":{"resourceType":"MeasureReport","id":"f8e0226b-3833-47bc-944e-6728349b4cb6","meta":{"profile":["http://hl7.org/fhir/us/cqfmeasures/StructureDefinition/test-case-cqfm"]},"contained":[{"resourceType":"Parameters","id":"e6c56e7c-42fc-474d-bfb7-bf6b20c9cafe-parameters","parameter":[{"name":"subject","valueString":"4b7b91d4-6f82-4db4-bc04-846bc01796b1"}]}],"extension":[{"url":"http://hl7.org/fhir/StructureDefinition/cqf-inputParameters","valueReference":{"reference":"#e6c56e7c-42fc-474d-bfb7-bf6b20c9cafe-parameters"}},{"url":"http://hl7.org/fhir/us/cqfmeasures/StructureDefinition/cqfm-testCaseDescription","valueMarkdown":"This patient has Gravida 2 Parity 0.  This measure accepts Parity 0 for denom regardless of Gravida value (union).\n"}],"modifierExtension":[{"url":"http://hl7.org/fhir/us/cqfmeasures/StructureDefinition/cqfm-isTestCase","valueBoolean":true}],"status":"complete","type":"individual","measure":"https://madie.cms.gov/Measure/CMS0334FHIRPCCesareanBirth","period":{"start":"2026-01-01","end":"2026-12-31"},"group":[{"id":"Group_1","population":[{"id":"InitialPopulation_1","code":{"coding":[{"system":"http://terminology.hl7.org/CodeSystem/measure-population","code":"initial-population","display":"Initial Population"}]},"count":1},{"id":"Denominator_1","code":{"coding":[{"system":"http://terminology.hl7.org/CodeSystem/measure-population","code":"denominator","display":"Denominator"}]},"count":1},{"id":"DenominatorExclusion_1","code":{"coding":[{"system":"http://terminology.hl7.org/CodeSystem/measure-population","code":"denominator-exclusion","display":"Denominator Exclusion"}]},"count":0},{"id":"Numerator_1","code":{"coding":[{"system":"http://terminology.hl7.org/CodeSystem/measure-population","code":"numerator","display":"Numerator"}]},"count":1}],"measureScore":{"value":0.0}}],"evaluatedResource":[{"reference":"Patient/4b7b91d4-6f82-4db4-bc04-846bc01796b1"},{"reference":"Observation/c8e3165d-d6eb-423b-a1d4-fedf18c1345e"},{"reference":"Observation/9e2896ca-cced-4c44-95eb-6385548afd02"},{"reference":"Observation/5f01251d-7e76-4874-bd61-acbacd168aab"},{"reference":"Observation/b890069f-cfcb-4231-9d61-86029d9ef37b"},{"reference":"Encounter/93fa4887-4cfc-4087-a7ae-8956ce999b95"},{"reference":"Procedure/06aa2060-c570-4ea6-ae7b-5f70fa3b8773"},{"reference":"Procedure/5703567f-d01a-4900-a7c2-ed2857c5f887"},{"reference":"Condition/4db09ceb-2ea1-48a9-81af-a307ae38a859"},{"reference":"Coverage/c54da822-9a01-4ccf-9efc-5b9cacdfc705"},{"reference":"Organization/ee67d5c8-5a27-4425-aede-e6a0e08839ef"},{"reference":"Practitioner/9eee215a-d00f-4aed-9add-2064c9cae178"}]},"request":{"method":"PUT","url":"MeasureReport/f8e0226b-3833-47bc-944e-6728349b4cb6"}},{"fullUrl":"Observation/b890069f-cfcb-4231-9d61-86029d9ef37b","resource":{"resourceType":"Observation","id":"b890069f-cfcb-4231-9d61-86029d9ef37b","meta":{"profile":["http://hl7.org/fhir/us/qicore/StructureDefinition/qicore-simple-observation"]},"status":"final","category":[{"coding":[{"system":"http://terminology.hl7.org/CodeSystem/observation-category","code":"exam","display":"exam","userSelected":true}]}],"code":{"coding":[{"system":"http://loinc.org","code":"93857-1"}]},"subject":{"reference":"Patient/4b7b91d4-6f82-4db4-bc04-846bc01796b1"},"effectiveDateTime":"2026-06-08T07:15:00.000+00:00","valueDateTime":"2026-06-08T07:15:00.000+00:00"},"request":{"method":"PUT","url":"Observation/b890069f-cfcb-4231-9d61-86029d9ef37b"}},{"fullUrl":"Organization/ee67d5c8-5a27-4425-aede-e6a0e08839ef","resource":{"resourceType":"Organization","id":"ee67d5c8-5a27-4425-aede-e6a0e08839ef","meta":{"profile":["http://hl7.org/fhir/us/qicore/StructureDefinition/qicore-organization"]},"identifier":[{"use":"temp","system":"urn:oid:2.16.840.1.113883.4.4","value":"21-3259825"}],"active":true,"type":[{"coding":[{"system":"http://terminology.hl7.org/CodeSystem/organization-type","code":"pay","display":"Payer"}]}],"name":"Blue Cross Blue Shield of Texas","telecom":[{"system":"phone","value":"(+1) 972-766-6900"}],"address":[{"use":"billing","type":"postal","line":["P.O. Box 660044"],"city":"Dallas","state":"TX","postalCode":"75266-0044","country":"USA"}]},"request":{"method":"PUT","url":"Organization/ee67d5c8-5a27-4425-aede-e6a0e08839ef"}},{"fullUrl":"Condition/4db09ceb-2ea1-48a9-81af-a307ae38a859","resource":{"resourceType":"Condition","id":"4db09ceb-2ea1-48a9-81af-a307ae38a859","meta":{"profile":["http://hl7.org/fhir/us/qicore/StructureDefinition/qicore-condition-encounter-diagnosis"]},"category":[{"coding":[{"system":"http://terminology.hl7.org/CodeSystem/condition-category","code":"encounter-diagnosis","display":"Encounter Diagnosis"}]}],"code":{"coding":[{"system":"http://snomed.info/sct","version":"2022-09","code":"169826009","display":"Single live birth from singleton pregnancy (finding)","userSelected":true}]},"subject":{"reference":"Patient/4b7b91d4-6f82-4db4-bc04-846bc01796b1"},"encounter":{"reference":"Encounter/93fa4887-4cfc-4087-a7ae-8956ce999b95"},"recordedDate":"2026-10-18T08:00:00.000+00:00"},"request":{"method":"PUT","url":"Condition/4db09ceb-2ea1-48a9-81af-a307ae38a859"}}]}