{"resourceType":"Bundle","id":"tests-996a87a2-020a-49e6-bc06-79ecc49cfa73-bundle","type":"transaction","entry":[{"fullUrl":"Coverage/2a422d55-173b-4a25-9852-4ee8d64d025b","resource":{"resourceType":"Coverage","id":"2a422d55-173b-4a25-9852-4ee8d64d025b","meta":{"profile":["http://hl7.org/fhir/us/qicore/StructureDefinition/qicore-coverage"]},"status":"active","subscriberId":"523435","beneficiary":{"reference":"Patient/996a87a2-020a-49e6-bc06-79ecc49cfa73"},"relationship":{"coding":[{"system":"http://terminology.hl7.org/CodeSystem/subscriber-relationship","code":"self"}]},"payor":[{"reference":"Organization/6dedcd1b-ee4a-44e7-8232-81645a5d0ed4"}]},"request":{"method":"PUT","url":"Coverage/2a422d55-173b-4a25-9852-4ee8d64d025b"}},{"fullUrl":"Practitioner/cb2b360a-3a47-40ca-b6b1-911a4d77d516","resource":{"resourceType":"Practitioner","id":"cb2b360a-3a47-40ca-b6b1-911a4d77d516","meta":{"profile":["http://hl7.org/fhir/us/qicore/StructureDefinition/qicore-practitioner"]},"identifier":[{"system":"http://hl7.org/fhir/sid/us-npi","value":"1234567899"}],"name":[{"family":"Evil","prefix":["Dr"]}]},"request":{"method":"PUT","url":"Practitioner/cb2b360a-3a47-40ca-b6b1-911a4d77d516"}},{"fullUrl":"Patient/996a87a2-020a-49e6-bc06-79ecc49cfa73","resource":{"resourceType":"Patient","id":"996a87a2-020a-49e6-bc06-79ecc49cfa73","meta":{"profile":["http://hl7.org/fhir/us/qicore/StructureDefinition/qicore-patient"]},"text":{"status":"generated","div":"<div xmlns=\"http://www.w3.org/1999/xhtml\"><div class=\"hapiHeaderText\">AssessPreTerm0RelDate42wksB4DelivDateTime<b>DENOMFail</b></div><table class=\"hapiPropertyTable\"><tbody><tr><td>Identifier</td><td>ae2c858214ff9b1ffdc193923955b0f25c757408279ae2f0e7ea89ca980dbad8</td></tr><tr><td>Date of birth</td><td><span>14 February 1985</span></td></tr></tbody></table></div>"},"extension":[{"url":"http://hl7.org/fhir/us/core/StructureDefinition/us-core-race","extension":[{"url":"ombCategory","valueCoding":{"system":"urn:oid:2.16.840.1.113883.6.238","code":"1002-5","display":"American Indian or Alaska Native","userSelected":true}},{"url":"text","valueString":"American Indian or Alaska Native"}]},{"url":"http://hl7.org/fhir/us/core/StructureDefinition/us-core-ethnicity","extension":[{"url":"ombCategory","valueCoding":{"system":"urn:oid:2.16.840.1.113883.6.238","code":"2135-2","display":"Hispanic or Latino","userSelected":true}},{"url":"text","valueString":"Hispanic or Latino"}]}],"identifier":[{"type":{"coding":[{"system":"http://terminology.hl7.org/CodeSystem/v2-0203","code":"MR"}]},"system":"https://bonnie-fhir.healthit.gov/","value":"63487c2f0968f8012254018f"}],"active":true,"name":[{"use":"usual","family":"DENOMFail","given":["AssessPreTerm0RelPerStartTime42wksB4DelivDateTime"]}],"gender":"female","birthDate":"1998-02-14"},"request":{"method":"PUT","url":"Patient/996a87a2-020a-49e6-bc06-79ecc49cfa73"}},{"fullUrl":"Bundle/63487c2f0968f8012254018f","resource":{"resourceType":"Bundle","id":"63487c2f0968f8012254018f","type":"transaction","entry":[{"fullUrl":"https://madie.cms.gov/Patient/996a87a2-020a-49e6-bc06-79ecc49cfa73","resource":{"resourceType":"Patient","id":"996a87a2-020a-49e6-bc06-79ecc49cfa73","meta":{"profile":["http://hl7.org/fhir/us/qicore/StructureDefinition/qicore-patient"]},"text":{"status":"generated","div":"<div xmlns=\"http://www.w3.org/1999/xhtml\"><div class=\"hapiHeaderText\">AssessPreTerm0RelDate42wksB4DelivDateTime<b>DENOMFail</b></div><table class=\"hapiPropertyTable\"><tbody><tr><td>Identifier</td><td>ae2c858214ff9b1ffdc193923955b0f25c757408279ae2f0e7ea89ca980dbad8</td></tr><tr><td>Date of birth</td><td><span>14 February 1985</span></td></tr></tbody></table></div>"},"extension":[{"url":"http://hl7.org/fhir/us/core/StructureDefinition/us-core-race","extension":[{"url":"ombCategory","valueCoding":{"system":"urn:oid:2.16.840.1.113883.6.238","code":"1002-5","display":"American Indian or Alaska Native","userSelected":true}},{"url":"text","valueString":"American Indian or Alaska Native"}]},{"url":"http://hl7.org/fhir/us/core/StructureDefinition/us-core-ethnicity","extension":[{"url":"ombCategory","valueCoding":{"system":"urn:oid:2.16.840.1.113883.6.238","code":"2135-2","display":"Hispanic or Latino","userSelected":true}},{"url":"text","valueString":"Hispanic or Latino"}]}],"identifier":[{"type":{"coding":[{"system":"http://terminology.hl7.org/CodeSystem/v2-0203","code":"MR"}]},"system":"https://bonnie-fhir.healthit.gov/","value":"63487c2f0968f8012254018f"}],"active":true,"name":[{"use":"usual","family":"DENOMFail","given":["AssessPreTerm0RelPerStartTime42wksB4DelivDateTime"]}],"gender":"female","birthDate":"1998-02-14"},"request":{"method":"PUT","url":"Patient/996a87a2-020a-49e6-bc06-79ecc49cfa73"}},{"fullUrl":"https://madie.cms.gov/Observation/747babe6-8b17-457b-a3d9-80ebd23edb9c","resource":{"resourceType":"Observation","id":"747babe6-8b17-457b-a3d9-80ebd23edb9c","meta":{"profile":["http://hl7.org/fhir/us/qicore/StructureDefinition/qicore-simple-observation"]},"status":"final","category":[{"coding":[{"system":"http://terminology.hl7.org/CodeSystem/observation-category","code":"exam","display":"exam","userSelected":true}]}],"code":{"coding":[{"system":"http://loinc.org","code":"11637-6"}]},"subject":{"reference":"Patient/996a87a2-020a-49e6-bc06-79ecc49cfa73"},"effectivePeriod":{"start":"2025-08-14T19:59:00.000+00:00","end":"2025-08-19T20:00:00.000+00:00"},"performer":[{"reference":"Organization/example1","display":"Hendricks Country Hospital"}],"valueInteger":0},"request":{"method":"PUT","url":"Observation/747babe6-8b17-457b-a3d9-80ebd23edb9c"}},{"fullUrl":"https://madie.cms.gov/Observation/d09991f4-b367-49d7-a960-f0889ac3b072","resource":{"resourceType":"Observation","id":"d09991f4-b367-49d7-a960-f0889ac3b072","meta":{"profile":["http://hl7.org/fhir/us/qicore/StructureDefinition/qicore-simple-observation"]},"status":"final","category":[{"coding":[{"system":"http://terminology.hl7.org/CodeSystem/observation-category","code":"exam","display":"exam","userSelected":true}]}],"code":{"coding":[{"system":"http://loinc.org","code":"11639-2"}]},"subject":{"reference":"Patient/996a87a2-020a-49e6-bc06-79ecc49cfa73"},"effectiveDateTime":"2025-09-19T09:00:00.000+00:00","performer":[{"reference":"Organization/example1","display":"Hendricks Country Hospital"}],"valueInteger":0},"request":{"method":"PUT","url":"Observation/d09991f4-b367-49d7-a960-f0889ac3b072"}},{"fullUrl":"https://madie.cms.gov/Observation/9b0d21e1-af0b-4474-ac12-6c6a80bbcbb2","resource":{"resourceType":"Observation","id":"9b0d21e1-af0b-4474-ac12-6c6a80bbcbb2","meta":{"profile":["http://hl7.org/fhir/us/qicore/StructureDefinition/qicore-simple-observation"]},"status":"final","category":[{"coding":[{"system":"http://terminology.hl7.org/CodeSystem/observation-category","code":"exam","display":"exam","userSelected":true}]}],"code":{"coding":[{"system":"http://loinc.org","code":"11884-4"}]},"subject":{"reference":"Patient/996a87a2-020a-49e6-bc06-79ecc49cfa73"},"effectiveDateTime":"2026-06-08T20:00:00.000+00:00","performer":[{"reference":"Organization/example1","display":"Hendricks Country Hospital"}],"valueQuantity":{"value":42,"system":"http://unitsofmeasure.org","code":"wk"}},"request":{"method":"PUT","url":"Observation/9b0d21e1-af0b-4474-ac12-6c6a80bbcbb2"}},{"fullUrl":"https://madie.cms.gov/Observation/e7d4b946-5988-42fd-9ba5-88ec097713ce","resource":{"resourceType":"Observation","id":"e7d4b946-5988-42fd-9ba5-88ec097713ce","meta":{"profile":["http://hl7.org/fhir/us/qicore/StructureDefinition/qicore-simple-observation"]},"status":"final","category":[{"coding":[{"system":"http://terminology.hl7.org/CodeSystem/observation-category","code":"exam","display":"exam","userSelected":true}]}],"code":{"coding":[{"system":"http://loinc.org","code":"93857-1"}]},"subject":{"reference":"Patient/996a87a2-020a-49e6-bc06-79ecc49cfa73"},"effectiveDateTime":"2026-06-08T20:00:00.000+00:00","performer":[{"reference":"Organization/example1","display":"Hendricks Country Hospital"}],"valueDateTime":"2026-06-08T20:00:00.000+00:00"},"request":{"method":"PUT","url":"Observation/e7d4b946-5988-42fd-9ba5-88ec097713ce"}},{"fullUrl":"https://madie.cms.gov/Encounter/a5e2f086-b1c3-4cc7-bbab-ee71459c8566","resource":{"resourceType":"Encounter","id":"a5e2f086-b1c3-4cc7-bbab-ee71459c8566","meta":{"profile":["http://hl7.org/fhir/us/qicore/StructureDefinition/qicore-encounter"]},"status":"finished","class":{"system":"http://terminology.hl7.org/CodeSystem/v3-ActCode","code":"IMP","display":"inpatient encounter"},"type":[{"coding":[{"system":"http://snomed.info/sct","code":"8715000"}]}],"subject":{"reference":"Patient/996a87a2-020a-49e6-bc06-79ecc49cfa73"},"period":{"start":"2026-06-08T08:00:00.000+00:00","end":"2026-06-10T08:15:00.000+00:00"},"length":{"value":2,"unit":"days"},"reasonCode":[{"coding":[{"system":"http://snomed.info/sct","code":"169826009","display":"Single live birth from singleton pregnancy (finding)"}]}]},"request":{"method":"PUT","url":"Encounter/a5e2f086-b1c3-4cc7-bbab-ee71459c8566"}},{"fullUrl":"https://madie.cms.gov/Procedure/8ad01af9-14d9-47fe-8bc9-614323945335","resource":{"resourceType":"Procedure","id":"8ad01af9-14d9-47fe-8bc9-614323945335","meta":{"profile":["http://hl7.org/fhir/us/qicore/StructureDefinition/qicore-procedure"]},"extension":[{"url":"http://hl7.org/fhir/us/qicore/StructureDefinition/qicore-recorded","valueDateTime":"2014-04-05T13:35:00.000+00:00"}],"status":"completed","code":{"coding":[{"system":"http://www.cms.gov/Medicare/Coding/ICD10","code":"10D00Z0"},{"system":"http://snomed.info/sct","code":"4504004"}]},"subject":{"reference":"Patient/996a87a2-020a-49e6-bc06-79ecc49cfa73"},"performedPeriod":{"start":"2026-06-08T20:00:00.000+00:00","end":"2026-06-08T20:15:00.000+00:00"}},"request":{"method":"PUT","url":"Procedure/8ad01af9-14d9-47fe-8bc9-614323945335"}},{"fullUrl":"https://madie.cms.gov/Condition/f4a0533d-53dc-4f26-a02c-73052dc82b3f","resource":{"resourceType":"Condition","id":"f4a0533d-53dc-4f26-a02c-73052dc82b3f","meta":{"profile":["http://hl7.org/fhir/us/qicore/StructureDefinition/qicore-condition-encounter-diagnosis"]},"category":[{"coding":[{"system":"http://terminology.hl7.org/CodeSystem/condition-category","code":"encounter-diagnosis","display":"Encounter Diagnosis"}]}],"code":{"coding":[{"system":"http://snomed.info/sct","version":"2022-09","code":"169826009","display":"Single live birth from singleton pregnancy (finding)","userSelected":true}]},"subject":{"reference":"Patient/996a87a2-020a-49e6-bc06-79ecc49cfa73"},"encounter":{"reference":"Encounter/a5e2f086-b1c3-4cc7-bbab-ee71459c8566"},"recordedDate":"2026-10-20T08:00:00.000+00:00"},"request":{"method":"PUT","url":"Condition/f4a0533d-53dc-4f26-a02c-73052dc82b3f"}},{"fullUrl":"https://madie.cms.gov/Coverage/2a422d55-173b-4a25-9852-4ee8d64d025b","resource":{"resourceType":"Coverage","id":"2a422d55-173b-4a25-9852-4ee8d64d025b","meta":{"profile":["http://hl7.org/fhir/us/qicore/StructureDefinition/qicore-coverage"]},"status":"active","subscriberId":"523435","beneficiary":{"reference":"Patient/996a87a2-020a-49e6-bc06-79ecc49cfa73"},"relationship":{"coding":[{"system":"http://terminology.hl7.org/CodeSystem/subscriber-relationship","code":"self"}]},"payor":[{"reference":"Organization/6dedcd1b-ee4a-44e7-8232-81645a5d0ed4"}]},"request":{"method":"PUT","url":"Coverage/2a422d55-173b-4a25-9852-4ee8d64d025b"}},{"fullUrl":"https://madie.cms.gov/Organization/6dedcd1b-ee4a-44e7-8232-81645a5d0ed4","resource":{"resourceType":"Organization","id":"6dedcd1b-ee4a-44e7-8232-81645a5d0ed4","meta":{"profile":["http://hl7.org/fhir/us/qicore/StructureDefinition/qicore-organization"]},"identifier":[{"use":"temp","system":"urn:oid:2.16.840.1.113883.4.4","value":"21-3259825"}],"active":true,"type":[{"coding":[{"system":"http://terminology.hl7.org/CodeSystem/organization-type","code":"pay","display":"Payer"}]}],"name":"Blue Cross Blue Shield of Texas","telecom":[{"system":"phone","value":"(+1) 972-766-6900"}],"address":[{"use":"billing","type":"postal","line":["P.O. Box 660044"],"city":"Dallas","state":"TX","postalCode":"75266-0044","country":"USA"}]},"request":{"method":"PUT","url":"Organization/6dedcd1b-ee4a-44e7-8232-81645a5d0ed4"}},{"fullUrl":"https://madie.cms.gov/Practitioner/cb2b360a-3a47-40ca-b6b1-911a4d77d516","resource":{"resourceType":"Practitioner","id":"cb2b360a-3a47-40ca-b6b1-911a4d77d516","meta":{"profile":["http://hl7.org/fhir/us/qicore/StructureDefinition/qicore-practitioner"]},"identifier":[{"system":"http://hl7.org/fhir/sid/us-npi","value":"1234567899"}],"name":[{"family":"Evil","prefix":["Dr"]}]},"request":{"method":"PUT","url":"Practitioner/cb2b360a-3a47-40ca-b6b1-911a4d77d516"}},{"fullUrl":"https://madie.cms.gov/MeasureReport/aa24eeaf-8f89-4c76-9af7-fc5ce9dbc0e0","resource":{"resourceType":"MeasureReport","id":"aa24eeaf-8f89-4c76-9af7-fc5ce9dbc0e0","meta":{"profile":["http://hl7.org/fhir/us/cqfmeasures/StructureDefinition/test-case-cqfm"]},"contained":[{"resourceType":"Parameters","id":"3fd235da-b708-4a95-a3ec-36f582f65999-parameters","parameter":[{"name":"subject","valueString":"996a87a2-020a-49e6-bc06-79ecc49cfa73"}]}],"extension":[{"url":"http://hl7.org/fhir/StructureDefinition/cqf-inputParameters","valueReference":{"reference":"#3fd235da-b708-4a95-a3ec-36f582f65999-parameters"}},{"url":"http://hl7.org/fhir/us/cqfmeasures/StructureDefinition/cqfm-testCaseDescription","valueMarkdown":"Preterm = 0, Relative Period Start Time is 42 weeks 1 Minute before Delivery Date/Time.  Denom will fail."}],"modifierExtension":[{"url":"http://hl7.org/fhir/us/cqfmeasures/StructureDefinition/cqfm-isTestCase","valueBoolean":true}],"status":"complete","type":"individual","measure":"https://madie.cms.gov/Measure/CMS0334FHIRPCCesareanBirth","period":{"start":"2026-01-01","end":"2026-12-31"},"group":[{"id":"Group_1","population":[{"id":"InitialPopulation_1","code":{"coding":[{"system":"http://terminology.hl7.org/CodeSystem/measure-population","code":"initial-population","display":"Initial Population"}]},"count":1},{"id":"Denominator_1","code":{"coding":[{"system":"http://terminology.hl7.org/CodeSystem/measure-population","code":"denominator","display":"Denominator"}]},"count":0},{"id":"DenominatorExclusion_1","code":{"coding":[{"system":"http://terminology.hl7.org/CodeSystem/measure-population","code":"denominator-exclusion","display":"Denominator Exclusion"}]},"count":0},{"id":"Numerator_1","code":{"coding":[{"system":"http://terminology.hl7.org/CodeSystem/measure-population","code":"numerator","display":"Numerator"}]},"count":0}],"measureScore":{"value":0.0}}],"evaluatedResource":[{"reference":"Patient/996a87a2-020a-49e6-bc06-79ecc49cfa73"},{"reference":"Observation/747babe6-8b17-457b-a3d9-80ebd23edb9c"},{"reference":"Observation/d09991f4-b367-49d7-a960-f0889ac3b072"},{"reference":"Observation/9b0d21e1-af0b-4474-ac12-6c6a80bbcbb2"},{"reference":"Observation/e7d4b946-5988-42fd-9ba5-88ec097713ce"},{"reference":"Encounter/a5e2f086-b1c3-4cc7-bbab-ee71459c8566"},{"reference":"Procedure/8ad01af9-14d9-47fe-8bc9-614323945335"},{"reference":"Condition/f4a0533d-53dc-4f26-a02c-73052dc82b3f"},{"reference":"Coverage/2a422d55-173b-4a25-9852-4ee8d64d025b"},{"reference":"Organization/6dedcd1b-ee4a-44e7-8232-81645a5d0ed4"},{"reference":"Practitioner/cb2b360a-3a47-40ca-b6b1-911a4d77d516"}]},"request":{"method":"PUT","url":"MeasureReport/aa24eeaf-8f89-4c76-9af7-fc5ce9dbc0e0"}}]},"request":{"method":"PUT","url":"Bundle/63487c2f0968f8012254018f"}},{"fullUrl":"Encounter/a5e2f086-b1c3-4cc7-bbab-ee71459c8566","resource":{"resourceType":"Encounter","id":"a5e2f086-b1c3-4cc7-bbab-ee71459c8566","meta":{"profile":["http://hl7.org/fhir/us/qicore/StructureDefinition/qicore-encounter"]},"status":"finished","class":{"system":"http://terminology.hl7.org/CodeSystem/v3-ActCode","code":"IMP","display":"inpatient encounter"},"type":[{"coding":[{"system":"http://snomed.info/sct","code":"8715000"}]}],"subject":{"reference":"Patient/996a87a2-020a-49e6-bc06-79ecc49cfa73"},"period":{"start":"2026-06-08T08:00:00.000+00:00","end":"2026-06-10T08:15:00.000+00:00"},"length":{"value":2,"unit":"days"},"reasonCode":[{"coding":[{"system":"http://snomed.info/sct","code":"169826009","display":"Single live birth from singleton pregnancy (finding)"}]}]},"request":{"method":"PUT","url":"Encounter/a5e2f086-b1c3-4cc7-bbab-ee71459c8566"}},{"fullUrl":"Procedure/8ad01af9-14d9-47fe-8bc9-614323945335","resource":{"resourceType":"Procedure","id":"8ad01af9-14d9-47fe-8bc9-614323945335","meta":{"profile":["http://hl7.org/fhir/us/qicore/StructureDefinition/qicore-procedure"]},"extension":[{"url":"http://hl7.org/fhir/us/qicore/StructureDefinition/qicore-recorded","valueDateTime":"2014-04-05T13:35:00.000+00:00"}],"status":"completed","code":{"coding":[{"system":"http://www.cms.gov/Medicare/Coding/ICD10","code":"10D00Z0"},{"system":"http://snomed.info/sct","code":"4504004"}]},"subject":{"reference":"Patient/996a87a2-020a-49e6-bc06-79ecc49cfa73"},"performedPeriod":{"start":"2026-06-08T20:00:00.000+00:00","end":"2026-06-08T20:15:00.000+00:00"}},"request":{"method":"PUT","url":"Procedure/8ad01af9-14d9-47fe-8bc9-614323945335"}},{"fullUrl":"MeasureReport/aa24eeaf-8f89-4c76-9af7-fc5ce9dbc0e0","resource":{"resourceType":"MeasureReport","id":"aa24eeaf-8f89-4c76-9af7-fc5ce9dbc0e0","meta":{"profile":["http://hl7.org/fhir/us/cqfmeasures/StructureDefinition/test-case-cqfm"]},"contained":[{"resourceType":"Parameters","id":"3fd235da-b708-4a95-a3ec-36f582f65999-parameters","parameter":[{"name":"subject","valueString":"996a87a2-020a-49e6-bc06-79ecc49cfa73"}]}],"extension":[{"url":"http://hl7.org/fhir/StructureDefinition/cqf-inputParameters","valueReference":{"reference":"#3fd235da-b708-4a95-a3ec-36f582f65999-parameters"}},{"url":"http://hl7.org/fhir/us/cqfmeasures/StructureDefinition/cqfm-testCaseDescription","valueMarkdown":"Preterm = 0, Relative Period Start Time is 42 weeks 1 Minute before Delivery Date/Time.  Denom will fail."}],"modifierExtension":[{"url":"http://hl7.org/fhir/us/cqfmeasures/StructureDefinition/cqfm-isTestCase","valueBoolean":true}],"status":"complete","type":"individual","measure":"https://madie.cms.gov/Measure/CMS0334FHIRPCCesareanBirth","period":{"start":"2026-01-01","end":"2026-12-31"},"group":[{"id":"Group_1","population":[{"id":"InitialPopulation_1","code":{"coding":[{"system":"http://terminology.hl7.org/CodeSystem/measure-population","code":"initial-population","display":"Initial Population"}]},"count":1},{"id":"Denominator_1","code":{"coding":[{"system":"http://terminology.hl7.org/CodeSystem/measure-population","code":"denominator","display":"Denominator"}]},"count":0},{"id":"DenominatorExclusion_1","code":{"coding":[{"system":"http://terminology.hl7.org/CodeSystem/measure-population","code":"denominator-exclusion","display":"Denominator Exclusion"}]},"count":0},{"id":"Numerator_1","code":{"coding":[{"system":"http://terminology.hl7.org/CodeSystem/measure-population","code":"numerator","display":"Numerator"}]},"count":0}],"measureScore":{"value":0.0}}],"evaluatedResource":[{"reference":"Patient/996a87a2-020a-49e6-bc06-79ecc49cfa73"},{"reference":"Observation/747babe6-8b17-457b-a3d9-80ebd23edb9c"},{"reference":"Observation/d09991f4-b367-49d7-a960-f0889ac3b072"},{"reference":"Observation/9b0d21e1-af0b-4474-ac12-6c6a80bbcbb2"},{"reference":"Observation/e7d4b946-5988-42fd-9ba5-88ec097713ce"},{"reference":"Encounter/a5e2f086-b1c3-4cc7-bbab-ee71459c8566"},{"reference":"Procedure/8ad01af9-14d9-47fe-8bc9-614323945335"},{"reference":"Condition/f4a0533d-53dc-4f26-a02c-73052dc82b3f"},{"reference":"Coverage/2a422d55-173b-4a25-9852-4ee8d64d025b"},{"reference":"Organization/6dedcd1b-ee4a-44e7-8232-81645a5d0ed4"},{"reference":"Practitioner/cb2b360a-3a47-40ca-b6b1-911a4d77d516"}]},"request":{"method":"PUT","url":"MeasureReport/aa24eeaf-8f89-4c76-9af7-fc5ce9dbc0e0"}},{"fullUrl":"Observation/9b0d21e1-af0b-4474-ac12-6c6a80bbcbb2","resource":{"resourceType":"Observation","id":"9b0d21e1-af0b-4474-ac12-6c6a80bbcbb2","meta":{"profile":["http://hl7.org/fhir/us/qicore/StructureDefinition/qicore-simple-observation"]},"status":"final","category":[{"coding":[{"system":"http://terminology.hl7.org/CodeSystem/observation-category","code":"exam","display":"exam","userSelected":true}]}],"code":{"coding":[{"system":"http://loinc.org","code":"11884-4"}]},"subject":{"reference":"Patient/996a87a2-020a-49e6-bc06-79ecc49cfa73"},"effectiveDateTime":"2026-06-08T20:00:00.000+00:00","performer":[{"reference":"Organization/example1","display":"Hendricks Country Hospital"}],"valueQuantity":{"value":42,"system":"http://unitsofmeasure.org","code":"wk"}},"request":{"method":"PUT","url":"Observation/9b0d21e1-af0b-4474-ac12-6c6a80bbcbb2"}},{"fullUrl":"Organization/6dedcd1b-ee4a-44e7-8232-81645a5d0ed4","resource":{"resourceType":"Organization","id":"6dedcd1b-ee4a-44e7-8232-81645a5d0ed4","meta":{"profile":["http://hl7.org/fhir/us/qicore/StructureDefinition/qicore-organization"]},"identifier":[{"use":"temp","system":"urn:oid:2.16.840.1.113883.4.4","value":"21-3259825"}],"active":true,"type":[{"coding":[{"system":"http://terminology.hl7.org/CodeSystem/organization-type","code":"pay","display":"Payer"}]}],"name":"Blue Cross Blue Shield of Texas","telecom":[{"system":"phone","value":"(+1) 972-766-6900"}],"address":[{"use":"billing","type":"postal","line":["P.O. Box 660044"],"city":"Dallas","state":"TX","postalCode":"75266-0044","country":"USA"}]},"request":{"method":"PUT","url":"Organization/6dedcd1b-ee4a-44e7-8232-81645a5d0ed4"}},{"fullUrl":"Observation/e7d4b946-5988-42fd-9ba5-88ec097713ce","resource":{"resourceType":"Observation","id":"e7d4b946-5988-42fd-9ba5-88ec097713ce","meta":{"profile":["http://hl7.org/fhir/us/qicore/StructureDefinition/qicore-simple-observation"]},"status":"final","category":[{"coding":[{"system":"http://terminology.hl7.org/CodeSystem/observation-category","code":"exam","display":"exam","userSelected":true}]}],"code":{"coding":[{"system":"http://loinc.org","code":"93857-1"}]},"subject":{"reference":"Patient/996a87a2-020a-49e6-bc06-79ecc49cfa73"},"effectiveDateTime":"2026-06-08T20:00:00.000+00:00","performer":[{"reference":"Organization/example1","display":"Hendricks Country Hospital"}],"valueDateTime":"2026-06-08T20:00:00.000+00:00"},"request":{"method":"PUT","url":"Observation/e7d4b946-5988-42fd-9ba5-88ec097713ce"}},{"fullUrl":"Condition/f4a0533d-53dc-4f26-a02c-73052dc82b3f","resource":{"resourceType":"Condition","id":"f4a0533d-53dc-4f26-a02c-73052dc82b3f","meta":{"profile":["http://hl7.org/fhir/us/qicore/StructureDefinition/qicore-condition-encounter-diagnosis"]},"category":[{"coding":[{"system":"http://terminology.hl7.org/CodeSystem/condition-category","code":"encounter-diagnosis","display":"Encounter Diagnosis"}]}],"code":{"coding":[{"system":"http://snomed.info/sct","version":"2022-09","code":"169826009","display":"Single live birth from singleton pregnancy (finding)","userSelected":true}]},"subject":{"reference":"Patient/996a87a2-020a-49e6-bc06-79ecc49cfa73"},"encounter":{"reference":"Encounter/a5e2f086-b1c3-4cc7-bbab-ee71459c8566"},"recordedDate":"2026-10-20T08:00:00.000+00:00"},"request":{"method":"PUT","url":"Condition/f4a0533d-53dc-4f26-a02c-73052dc82b3f"}},{"fullUrl":"Observation/747babe6-8b17-457b-a3d9-80ebd23edb9c","resource":{"resourceType":"Observation","id":"747babe6-8b17-457b-a3d9-80ebd23edb9c","meta":{"profile":["http://hl7.org/fhir/us/qicore/StructureDefinition/qicore-simple-observation"]},"status":"final","category":[{"coding":[{"system":"http://terminology.hl7.org/CodeSystem/observation-category","code":"exam","display":"exam","userSelected":true}]}],"code":{"coding":[{"system":"http://loinc.org","code":"11637-6"}]},"subject":{"reference":"Patient/996a87a2-020a-49e6-bc06-79ecc49cfa73"},"effectivePeriod":{"start":"2025-08-14T19:59:00.000+00:00","end":"2025-08-19T20:00:00.000+00:00"},"performer":[{"reference":"Organization/example1","display":"Hendricks Country Hospital"}],"valueInteger":0},"request":{"method":"PUT","url":"Observation/747babe6-8b17-457b-a3d9-80ebd23edb9c"}},{"fullUrl":"Observation/d09991f4-b367-49d7-a960-f0889ac3b072","resource":{"resourceType":"Observation","id":"d09991f4-b367-49d7-a960-f0889ac3b072","meta":{"profile":["http://hl7.org/fhir/us/qicore/StructureDefinition/qicore-simple-observation"]},"status":"final","category":[{"coding":[{"system":"http://terminology.hl7.org/CodeSystem/observation-category","code":"exam","display":"exam","userSelected":true}]}],"code":{"coding":[{"system":"http://loinc.org","code":"11639-2"}]},"subject":{"reference":"Patient/996a87a2-020a-49e6-bc06-79ecc49cfa73"},"effectiveDateTime":"2025-09-19T09:00:00.000+00:00","performer":[{"reference":"Organization/example1","display":"Hendricks Country Hospital"}],"valueInteger":0},"request":{"method":"PUT","url":"Observation/d09991f4-b367-49d7-a960-f0889ac3b072"}}]}