{"resourceType":"Bundle","id":"tests-6131e62d-2869-4814-9060-4442dbcdc7be-bundle","type":"transaction","entry":[{"fullUrl":"Patient/6131e62d-2869-4814-9060-4442dbcdc7be","resource":{"resourceType":"Patient","id":"6131e62d-2869-4814-9060-4442dbcdc7be","meta":{"profile":["http://hl7.org/fhir/us/qicore/StructureDefinition/qicore-patient"]},"text":{"status":"generated","div":"<div xmlns=\"http://www.w3.org/1999/xhtml\"><div class=\"hapiHeaderText\">AssessPerfAbnPresRelvtPeriodAFTimeOfDelivDuringEnc<b>DENEXFAIL</b></div><table class=\"hapiPropertyTable\"><tbody><tr><td>Identifier</td><td>db09244543fe550232b604cb7d87decbeb851047882e641e3fe736fdce398a0a</td></tr><tr><td>Date of birth</td><td><span>14 February 1985</span></td></tr></tbody></table></div>"},"extension":[{"url":"http://hl7.org/fhir/us/core/StructureDefinition/us-core-race","extension":[{"url":"ombCategory","valueCoding":{"system":"urn:oid:2.16.840.1.113883.6.238","code":"1002-5","display":"American Indian or Alaska Native","userSelected":true}},{"url":"text","valueString":"American Indian or Alaska Native"}]},{"url":"http://hl7.org/fhir/us/core/StructureDefinition/us-core-ethnicity","extension":[{"url":"ombCategory","valueCoding":{"system":"urn:oid:2.16.840.1.113883.6.238","code":"2135-2","display":"Hispanic or Latino","userSelected":true}},{"url":"text","valueString":"Hispanic or Latino"}]}],"identifier":[{"type":{"coding":[{"system":"http://terminology.hl7.org/CodeSystem/v2-0203","code":"MR"}]},"system":"https://bonnie-fhir.healthit.gov/","value":"63487c300968f801225401d0"}],"active":true,"name":[{"use":"usual","family":"DENEXFail","given":["AssessPerfAbnPresRelvtPeriodAFTimeOfDelivDuringEnc"]}],"gender":"female","birthDate":"1998-02-14"},"request":{"method":"PUT","url":"Patient/6131e62d-2869-4814-9060-4442dbcdc7be"}},{"fullUrl":"Condition/c2b500f3-5b11-4029-8e73-d193f4abb899","resource":{"resourceType":"Condition","id":"c2b500f3-5b11-4029-8e73-d193f4abb899","meta":{"profile":["http://hl7.org/fhir/us/qicore/StructureDefinition/qicore-condition-encounter-diagnosis"]},"category":[{"coding":[{"system":"http://terminology.hl7.org/CodeSystem/condition-category","code":"encounter-diagnosis","display":"Encounter Diagnosis"}]}],"code":{"coding":[{"system":"http://snomed.info/sct","version":"2022-09","code":"169826009","display":"Single live birth (finding)","userSelected":true}]},"subject":{"reference":"Patient/6131e62d-2869-4814-9060-4442dbcdc7be"},"encounter":{"reference":"Encounter/6716c469-adb4-4d96-8be3-3b70e18e7638"},"recordedDate":"2026-10-17T08:00:00.000+00:00"},"request":{"method":"PUT","url":"Condition/c2b500f3-5b11-4029-8e73-d193f4abb899"}},{"fullUrl":"Observation/b72f1e2e-f302-4f60-b551-2f3f1040d820","resource":{"resourceType":"Observation","id":"b72f1e2e-f302-4f60-b551-2f3f1040d820","meta":{"profile":["http://hl7.org/fhir/us/qicore/StructureDefinition/qicore-simple-observation"]},"status":"final","category":[{"coding":[{"system":"http://terminology.hl7.org/CodeSystem/observation-category","code":"exam","display":"exam","userSelected":true}]}],"code":{"coding":[{"system":"http://loinc.org","code":"11996-6"}]},"subject":{"reference":"Patient/6131e62d-2869-4814-9060-4442dbcdc7be"},"effectiveDateTime":"2026-06-08T08:00:00.000+00:00","performer":[{"reference":"Organization/example1","display":"Hendricks Country Hospital"}],"valueInteger":1},"request":{"method":"PUT","url":"Observation/b72f1e2e-f302-4f60-b551-2f3f1040d820"}},{"fullUrl":"Observation/72235eff-f051-4ea8-a663-b930e910099b","resource":{"resourceType":"Observation","id":"72235eff-f051-4ea8-a663-b930e910099b","meta":{"profile":["http://hl7.org/fhir/us/qicore/StructureDefinition/qicore-simple-observation"]},"status":"final","category":[{"coding":[{"system":"http://terminology.hl7.org/CodeSystem/observation-category","code":"exam","display":"exam","userSelected":true}]}],"code":{"coding":[{"system":"http://loinc.org","code":"93857-1"}]},"subject":{"reference":"Patient/6131e62d-2869-4814-9060-4442dbcdc7be"},"effectiveDateTime":"2026-06-08T20:30:00.000+00:00","performer":[{"reference":"Organization/example1","display":"Hendricks Country Hospital"}],"valueDateTime":"2026-06-08T08:30:00.000+00:00"},"request":{"method":"PUT","url":"Observation/72235eff-f051-4ea8-a663-b930e910099b"}},{"fullUrl":"Coverage/5ae59dd4-4527-4ed7-9ecf-0489aab3e8ca","resource":{"resourceType":"Coverage","id":"5ae59dd4-4527-4ed7-9ecf-0489aab3e8ca","meta":{"profile":["http://hl7.org/fhir/us/qicore/StructureDefinition/qicore-coverage"]},"status":"active","subscriberId":"523435","beneficiary":{"reference":"Patient/6131e62d-2869-4814-9060-4442dbcdc7be"},"relationship":{"coding":[{"system":"http://terminology.hl7.org/CodeSystem/subscriber-relationship","code":"self"}]},"payor":[{"reference":"Organization/4de710f3-933f-426b-9431-b166a109efd1"}]},"request":{"method":"PUT","url":"Coverage/5ae59dd4-4527-4ed7-9ecf-0489aab3e8ca"}},{"fullUrl":"Practitioner/828d1e50-62a2-44dc-aa4b-51475c992937","resource":{"resourceType":"Practitioner","id":"828d1e50-62a2-44dc-aa4b-51475c992937","meta":{"profile":["http://hl7.org/fhir/us/qicore/StructureDefinition/qicore-practitioner"]},"identifier":[{"system":"http://hl7.org/fhir/sid/us-npi","value":"1234567890"}],"name":[{"family":"Evil","prefix":["Dr"]}]},"request":{"method":"PUT","url":"Practitioner/828d1e50-62a2-44dc-aa4b-51475c992937"}},{"fullUrl":"Procedure/ec46a8d0-1695-4b94-a246-a08020365291","resource":{"resourceType":"Procedure","id":"ec46a8d0-1695-4b94-a246-a08020365291","meta":{"profile":["http://hl7.org/fhir/us/qicore/StructureDefinition/qicore-procedure"]},"extension":[{"url":"http://hl7.org/fhir/us/qicore/StructureDefinition/qicore-recorded","valueDateTime":"2014-04-05T13:35:00.000+00:00"}],"status":"completed","code":{"coding":[{"system":"http://snomed.info/sct","code":"4504004"}]},"subject":{"reference":"Patient/6131e62d-2869-4814-9060-4442dbcdc7be"},"performedPeriod":{"start":"2026-06-08T20:00:00.000+00:00","end":"2026-06-18T20:00:00.000+00:00"}},"request":{"method":"PUT","url":"Procedure/ec46a8d0-1695-4b94-a246-a08020365291"}},{"fullUrl":"MeasureReport/10f8ec16-bab0-40f7-915e-31226d51817d","resource":{"resourceType":"MeasureReport","id":"10f8ec16-bab0-40f7-915e-31226d51817d","meta":{"profile":["http://hl7.org/fhir/us/cqfmeasures/StructureDefinition/test-case-cqfm"]},"contained":[{"resourceType":"Parameters","id":"15f07424-94fc-4016-ad21-0fd975ba36e7-parameters","parameter":[{"name":"subject","valueString":"6131e62d-2869-4814-9060-4442dbcdc7be"}]}],"extension":[{"url":"http://hl7.org/fhir/StructureDefinition/cqf-inputParameters","valueReference":{"reference":"#15f07424-94fc-4016-ad21-0fd975ba36e7-parameters"}},{"url":"http://hl7.org/fhir/us/cqfmeasures/StructureDefinition/cqfm-testCaseDescription","valueMarkdown":"EGA 43 weeks; Failed DenExcl because Assessment performed Abnormal presentation relevant Period after time of delivery and during Enc \n"}],"modifierExtension":[{"url":"http://hl7.org/fhir/us/cqfmeasures/StructureDefinition/cqfm-isTestCase","valueBoolean":true}],"status":"complete","type":"individual","measure":"https://madie.cms.gov/Measure/CMS0334FHIRPCCesareanBirth","period":{"start":"2026-01-01","end":"2026-12-31"},"group":[{"id":"Group_1","population":[{"id":"InitialPopulation_1","code":{"coding":[{"system":"http://terminology.hl7.org/CodeSystem/measure-population","code":"initial-population","display":"Initial Population"}]},"count":1},{"id":"Denominator_1","code":{"coding":[{"system":"http://terminology.hl7.org/CodeSystem/measure-population","code":"denominator","display":"Denominator"}]},"count":1},{"id":"DenominatorExclusion_1","code":{"coding":[{"system":"http://terminology.hl7.org/CodeSystem/measure-population","code":"denominator-exclusion","display":"Denominator Exclusion"}]},"count":0},{"id":"Numerator_1","code":{"coding":[{"system":"http://terminology.hl7.org/CodeSystem/measure-population","code":"numerator","display":"Numerator"}]},"count":0}],"measureScore":{"value":0.0}}],"evaluatedResource":[{"reference":"Patient/6131e62d-2869-4814-9060-4442dbcdc7be"},{"reference":"Observation/b72f1e2e-f302-4f60-b551-2f3f1040d820"},{"reference":"Observation/d6ef1ad8-d214-4be6-abfd-1dc4e0209ce5"},{"reference":"Observation/72235eff-f051-4ea8-a663-b930e910099b"},{"reference":"Observation/2a0722bb-bd99-412f-b77a-6126cb84539b"},{"reference":"Encounter/6716c469-adb4-4d96-8be3-3b70e18e7638"},{"reference":"Procedure/ec46a8d0-1695-4b94-a246-a08020365291"},{"reference":"Condition/c2b500f3-5b11-4029-8e73-d193f4abb899"},{"reference":"Coverage/5ae59dd4-4527-4ed7-9ecf-0489aab3e8ca"},{"reference":"Organization/4de710f3-933f-426b-9431-b166a109efd1"},{"reference":"Practitioner/828d1e50-62a2-44dc-aa4b-51475c992937"}]},"request":{"method":"PUT","url":"MeasureReport/10f8ec16-bab0-40f7-915e-31226d51817d"}},{"fullUrl":"Bundle/63487c300968f801225401d0","resource":{"resourceType":"Bundle","id":"63487c300968f801225401d0","type":"transaction","entry":[{"fullUrl":"https://madie.cms.gov/Patient/6131e62d-2869-4814-9060-4442dbcdc7be","resource":{"resourceType":"Patient","id":"6131e62d-2869-4814-9060-4442dbcdc7be","meta":{"profile":["http://hl7.org/fhir/us/qicore/StructureDefinition/qicore-patient"]},"text":{"status":"generated","div":"<div xmlns=\"http://www.w3.org/1999/xhtml\"><div class=\"hapiHeaderText\">AssessPerfAbnPresRelvtPeriodAFTimeOfDelivDuringEnc<b>DENEXFAIL</b></div><table class=\"hapiPropertyTable\"><tbody><tr><td>Identifier</td><td>db09244543fe550232b604cb7d87decbeb851047882e641e3fe736fdce398a0a</td></tr><tr><td>Date of birth</td><td><span>14 February 1985</span></td></tr></tbody></table></div>"},"extension":[{"url":"http://hl7.org/fhir/us/core/StructureDefinition/us-core-race","extension":[{"url":"ombCategory","valueCoding":{"system":"urn:oid:2.16.840.1.113883.6.238","code":"1002-5","display":"American Indian or Alaska Native","userSelected":true}},{"url":"text","valueString":"American Indian or Alaska Native"}]},{"url":"http://hl7.org/fhir/us/core/StructureDefinition/us-core-ethnicity","extension":[{"url":"ombCategory","valueCoding":{"system":"urn:oid:2.16.840.1.113883.6.238","code":"2135-2","display":"Hispanic or Latino","userSelected":true}},{"url":"text","valueString":"Hispanic or Latino"}]}],"identifier":[{"type":{"coding":[{"system":"http://terminology.hl7.org/CodeSystem/v2-0203","code":"MR"}]},"system":"https://bonnie-fhir.healthit.gov/","value":"63487c300968f801225401d0"}],"active":true,"name":[{"use":"usual","family":"DENEXFail","given":["AssessPerfAbnPresRelvtPeriodAFTimeOfDelivDuringEnc"]}],"gender":"female","birthDate":"1998-02-14"},"request":{"method":"PUT","url":"Patient/6131e62d-2869-4814-9060-4442dbcdc7be"}},{"fullUrl":"https://madie.cms.gov/Observation/b72f1e2e-f302-4f60-b551-2f3f1040d820","resource":{"resourceType":"Observation","id":"b72f1e2e-f302-4f60-b551-2f3f1040d820","meta":{"profile":["http://hl7.org/fhir/us/qicore/StructureDefinition/qicore-simple-observation"]},"status":"final","category":[{"coding":[{"system":"http://terminology.hl7.org/CodeSystem/observation-category","code":"exam","display":"exam","userSelected":true}]}],"code":{"coding":[{"system":"http://loinc.org","code":"11996-6"}]},"subject":{"reference":"Patient/6131e62d-2869-4814-9060-4442dbcdc7be"},"effectiveDateTime":"2026-06-08T08:00:00.000+00:00","performer":[{"reference":"Organization/example1","display":"Hendricks Country Hospital"}],"valueInteger":1},"request":{"method":"PUT","url":"Observation/b72f1e2e-f302-4f60-b551-2f3f1040d820"}},{"fullUrl":"https://madie.cms.gov/Observation/d6ef1ad8-d214-4be6-abfd-1dc4e0209ce5","resource":{"resourceType":"Observation","id":"d6ef1ad8-d214-4be6-abfd-1dc4e0209ce5","meta":{"profile":["http://hl7.org/fhir/us/qicore/StructureDefinition/qicore-simple-observation"]},"status":"final","category":[{"coding":[{"system":"http://terminology.hl7.org/CodeSystem/observation-category","code":"exam","display":"exam","userSelected":true}]}],"code":{"coding":[{"system":"http://loinc.org","code":"11884-4"}]},"subject":{"reference":"Patient/6131e62d-2869-4814-9060-4442dbcdc7be"},"effectiveDateTime":"2026-06-08T08:00:00.000+00:00","performer":[{"reference":"Organization/example1","display":"Hendricks Country Hospital"}],"valueQuantity":{"value":43,"system":"http://unitsofmeasure.org","code":"wk"}},"request":{"method":"PUT","url":"Observation/d6ef1ad8-d214-4be6-abfd-1dc4e0209ce5"}},{"fullUrl":"https://madie.cms.gov/Observation/72235eff-f051-4ea8-a663-b930e910099b","resource":{"resourceType":"Observation","id":"72235eff-f051-4ea8-a663-b930e910099b","meta":{"profile":["http://hl7.org/fhir/us/qicore/StructureDefinition/qicore-simple-observation"]},"status":"final","category":[{"coding":[{"system":"http://terminology.hl7.org/CodeSystem/observation-category","code":"exam","display":"exam","userSelected":true}]}],"code":{"coding":[{"system":"http://loinc.org","code":"93857-1"}]},"subject":{"reference":"Patient/6131e62d-2869-4814-9060-4442dbcdc7be"},"effectiveDateTime":"2026-06-08T20:30:00.000+00:00","performer":[{"reference":"Organization/example1","display":"Hendricks Country Hospital"}],"valueDateTime":"2026-06-08T08:30:00.000+00:00"},"request":{"method":"PUT","url":"Observation/72235eff-f051-4ea8-a663-b930e910099b"}},{"fullUrl":"https://madie.cms.gov/Observation/2a0722bb-bd99-412f-b77a-6126cb84539b","resource":{"resourceType":"Observation","id":"2a0722bb-bd99-412f-b77a-6126cb84539b","meta":{"profile":["http://hl7.org/fhir/us/qicore/StructureDefinition/qicore-simple-observation"]},"status":"final","category":[{"coding":[{"system":"http://terminology.hl7.org/CodeSystem/observation-category","code":"exam","display":"exam","userSelected":true}]}],"code":{"coding":[{"system":"http://snomed.info/sct","code":"18559007"}]},"subject":{"reference":"Patient/6131e62d-2869-4814-9060-4442dbcdc7be"},"effectivePeriod":{"start":"2026-06-08T08:35:00.000+00:00","end":"2026-06-08T08:35:00.000+00:00"},"performer":[{"reference":"Organization/example1","display":"Hendricks Country Hospital"}]},"request":{"method":"PUT","url":"Observation/2a0722bb-bd99-412f-b77a-6126cb84539b"}},{"fullUrl":"https://madie.cms.gov/Encounter/6716c469-adb4-4d96-8be3-3b70e18e7638","resource":{"resourceType":"Encounter","id":"6716c469-adb4-4d96-8be3-3b70e18e7638","meta":{"profile":["http://hl7.org/fhir/us/qicore/StructureDefinition/qicore-encounter"]},"status":"finished","class":{"system":"http://terminology.hl7.org/CodeSystem/v3-ActCode","code":"IMP","display":"inpatient encounter"},"type":[{"coding":[{"system":"http://snomed.info/sct","code":"8715000"}]}],"subject":{"reference":"Patient/6131e62d-2869-4814-9060-4442dbcdc7be"},"period":{"start":"2026-06-08T08:00:00.000+00:00","end":"2026-06-10T08:15:00.000+00:00"},"reasonReference":[{"reference":"Condition/c2b500f3-5b11-4029-8e73-d193f4abb899"}]},"request":{"method":"PUT","url":"Encounter/6716c469-adb4-4d96-8be3-3b70e18e7638"}},{"fullUrl":"https://madie.cms.gov/Procedure/ec46a8d0-1695-4b94-a246-a08020365291","resource":{"resourceType":"Procedure","id":"ec46a8d0-1695-4b94-a246-a08020365291","meta":{"profile":["http://hl7.org/fhir/us/qicore/StructureDefinition/qicore-procedure"]},"extension":[{"url":"http://hl7.org/fhir/us/qicore/StructureDefinition/qicore-recorded","valueDateTime":"2014-04-05T13:35:00.000+00:00"}],"status":"completed","code":{"coding":[{"system":"http://snomed.info/sct","code":"4504004"}]},"subject":{"reference":"Patient/6131e62d-2869-4814-9060-4442dbcdc7be"},"performedPeriod":{"start":"2026-06-08T20:00:00.000+00:00","end":"2026-06-18T20:00:00.000+00:00"}},"request":{"method":"PUT","url":"Procedure/ec46a8d0-1695-4b94-a246-a08020365291"}},{"fullUrl":"https://madie.cms.gov/Condition/c2b500f3-5b11-4029-8e73-d193f4abb899","resource":{"resourceType":"Condition","id":"c2b500f3-5b11-4029-8e73-d193f4abb899","meta":{"profile":["http://hl7.org/fhir/us/qicore/StructureDefinition/qicore-condition-encounter-diagnosis"]},"category":[{"coding":[{"system":"http://terminology.hl7.org/CodeSystem/condition-category","code":"encounter-diagnosis","display":"Encounter Diagnosis"}]}],"code":{"coding":[{"system":"http://snomed.info/sct","version":"2022-09","code":"169826009","display":"Single live birth (finding)","userSelected":true}]},"subject":{"reference":"Patient/6131e62d-2869-4814-9060-4442dbcdc7be"},"encounter":{"reference":"Encounter/6716c469-adb4-4d96-8be3-3b70e18e7638"},"recordedDate":"2026-10-17T08:00:00.000+00:00"},"request":{"method":"PUT","url":"Condition/c2b500f3-5b11-4029-8e73-d193f4abb899"}},{"fullUrl":"https://madie.cms.gov/Coverage/5ae59dd4-4527-4ed7-9ecf-0489aab3e8ca","resource":{"resourceType":"Coverage","id":"5ae59dd4-4527-4ed7-9ecf-0489aab3e8ca","meta":{"profile":["http://hl7.org/fhir/us/qicore/StructureDefinition/qicore-coverage"]},"status":"active","subscriberId":"523435","beneficiary":{"reference":"Patient/6131e62d-2869-4814-9060-4442dbcdc7be"},"relationship":{"coding":[{"system":"http://terminology.hl7.org/CodeSystem/subscriber-relationship","code":"self"}]},"payor":[{"reference":"Organization/4de710f3-933f-426b-9431-b166a109efd1"}]},"request":{"method":"PUT","url":"Coverage/5ae59dd4-4527-4ed7-9ecf-0489aab3e8ca"}},{"fullUrl":"https://madie.cms.gov/Organization/4de710f3-933f-426b-9431-b166a109efd1","resource":{"resourceType":"Organization","id":"4de710f3-933f-426b-9431-b166a109efd1","meta":{"profile":["http://hl7.org/fhir/us/qicore/StructureDefinition/qicore-organization"]},"identifier":[{"use":"temp","system":"urn:oid:2.16.840.1.113883.4.4","value":"21-3259825"}],"active":true,"type":[{"coding":[{"system":"http://terminology.hl7.org/CodeSystem/organization-type","code":"pay","display":"Payer"}]}],"name":"Blue Cross Blue Shield of Texas","telecom":[{"system":"phone","value":"(+1) 972-766-6900"}],"address":[{"use":"billing","type":"postal","line":["P.O. Box 660044"],"city":"Dallas","state":"TX","postalCode":"75266-0044","country":"USA"}]},"request":{"method":"PUT","url":"Organization/4de710f3-933f-426b-9431-b166a109efd1"}},{"fullUrl":"https://madie.cms.gov/Practitioner/828d1e50-62a2-44dc-aa4b-51475c992937","resource":{"resourceType":"Practitioner","id":"828d1e50-62a2-44dc-aa4b-51475c992937","meta":{"profile":["http://hl7.org/fhir/us/qicore/StructureDefinition/qicore-practitioner"]},"identifier":[{"system":"http://hl7.org/fhir/sid/us-npi","value":"1234567890"}],"name":[{"family":"Evil","prefix":["Dr"]}]},"request":{"method":"PUT","url":"Practitioner/828d1e50-62a2-44dc-aa4b-51475c992937"}},{"fullUrl":"https://madie.cms.gov/MeasureReport/10f8ec16-bab0-40f7-915e-31226d51817d","resource":{"resourceType":"MeasureReport","id":"10f8ec16-bab0-40f7-915e-31226d51817d","meta":{"profile":["http://hl7.org/fhir/us/cqfmeasures/StructureDefinition/test-case-cqfm"]},"contained":[{"resourceType":"Parameters","id":"15f07424-94fc-4016-ad21-0fd975ba36e7-parameters","parameter":[{"name":"subject","valueString":"6131e62d-2869-4814-9060-4442dbcdc7be"}]}],"extension":[{"url":"http://hl7.org/fhir/StructureDefinition/cqf-inputParameters","valueReference":{"reference":"#15f07424-94fc-4016-ad21-0fd975ba36e7-parameters"}},{"url":"http://hl7.org/fhir/us/cqfmeasures/StructureDefinition/cqfm-testCaseDescription","valueMarkdown":"EGA 43 weeks; Failed DenExcl because Assessment performed Abnormal presentation relevant Period after time of delivery and during Enc \n"}],"modifierExtension":[{"url":"http://hl7.org/fhir/us/cqfmeasures/StructureDefinition/cqfm-isTestCase","valueBoolean":true}],"status":"complete","type":"individual","measure":"https://madie.cms.gov/Measure/CMS0334FHIRPCCesareanBirth","period":{"start":"2026-01-01","end":"2026-12-31"},"group":[{"id":"Group_1","population":[{"id":"InitialPopulation_1","code":{"coding":[{"system":"http://terminology.hl7.org/CodeSystem/measure-population","code":"initial-population","display":"Initial Population"}]},"count":1},{"id":"Denominator_1","code":{"coding":[{"system":"http://terminology.hl7.org/CodeSystem/measure-population","code":"denominator","display":"Denominator"}]},"count":1},{"id":"DenominatorExclusion_1","code":{"coding":[{"system":"http://terminology.hl7.org/CodeSystem/measure-population","code":"denominator-exclusion","display":"Denominator Exclusion"}]},"count":0},{"id":"Numerator_1","code":{"coding":[{"system":"http://terminology.hl7.org/CodeSystem/measure-population","code":"numerator","display":"Numerator"}]},"count":0}],"measureScore":{"value":0.0}}],"evaluatedResource":[{"reference":"Patient/6131e62d-2869-4814-9060-4442dbcdc7be"},{"reference":"Observation/b72f1e2e-f302-4f60-b551-2f3f1040d820"},{"reference":"Observation/d6ef1ad8-d214-4be6-abfd-1dc4e0209ce5"},{"reference":"Observation/72235eff-f051-4ea8-a663-b930e910099b"},{"reference":"Observation/2a0722bb-bd99-412f-b77a-6126cb84539b"},{"reference":"Encounter/6716c469-adb4-4d96-8be3-3b70e18e7638"},{"reference":"Procedure/ec46a8d0-1695-4b94-a246-a08020365291"},{"reference":"Condition/c2b500f3-5b11-4029-8e73-d193f4abb899"},{"reference":"Coverage/5ae59dd4-4527-4ed7-9ecf-0489aab3e8ca"},{"reference":"Organization/4de710f3-933f-426b-9431-b166a109efd1"},{"reference":"Practitioner/828d1e50-62a2-44dc-aa4b-51475c992937"}]},"request":{"method":"PUT","url":"MeasureReport/10f8ec16-bab0-40f7-915e-31226d51817d"}}]},"request":{"method":"PUT","url":"Bundle/63487c300968f801225401d0"}},{"fullUrl":"Observation/2a0722bb-bd99-412f-b77a-6126cb84539b","resource":{"resourceType":"Observation","id":"2a0722bb-bd99-412f-b77a-6126cb84539b","meta":{"profile":["http://hl7.org/fhir/us/qicore/StructureDefinition/qicore-simple-observation"]},"status":"final","category":[{"coding":[{"system":"http://terminology.hl7.org/CodeSystem/observation-category","code":"exam","display":"exam","userSelected":true}]}],"code":{"coding":[{"system":"http://snomed.info/sct","code":"18559007"}]},"subject":{"reference":"Patient/6131e62d-2869-4814-9060-4442dbcdc7be"},"effectivePeriod":{"start":"2026-06-08T08:35:00.000+00:00","end":"2026-06-08T08:35:00.000+00:00"},"performer":[{"reference":"Organization/example1","display":"Hendricks Country Hospital"}]},"request":{"method":"PUT","url":"Observation/2a0722bb-bd99-412f-b77a-6126cb84539b"}},{"fullUrl":"Organization/4de710f3-933f-426b-9431-b166a109efd1","resource":{"resourceType":"Organization","id":"4de710f3-933f-426b-9431-b166a109efd1","meta":{"profile":["http://hl7.org/fhir/us/qicore/StructureDefinition/qicore-organization"]},"identifier":[{"use":"temp","system":"urn:oid:2.16.840.1.113883.4.4","value":"21-3259825"}],"active":true,"type":[{"coding":[{"system":"http://terminology.hl7.org/CodeSystem/organization-type","code":"pay","display":"Payer"}]}],"name":"Blue Cross Blue Shield of Texas","telecom":[{"system":"phone","value":"(+1) 972-766-6900"}],"address":[{"use":"billing","type":"postal","line":["P.O. Box 660044"],"city":"Dallas","state":"TX","postalCode":"75266-0044","country":"USA"}]},"request":{"method":"PUT","url":"Organization/4de710f3-933f-426b-9431-b166a109efd1"}},{"fullUrl":"Encounter/6716c469-adb4-4d96-8be3-3b70e18e7638","resource":{"resourceType":"Encounter","id":"6716c469-adb4-4d96-8be3-3b70e18e7638","meta":{"profile":["http://hl7.org/fhir/us/qicore/StructureDefinition/qicore-encounter"]},"status":"finished","class":{"system":"http://terminology.hl7.org/CodeSystem/v3-ActCode","code":"IMP","display":"inpatient encounter"},"type":[{"coding":[{"system":"http://snomed.info/sct","code":"8715000"}]}],"subject":{"reference":"Patient/6131e62d-2869-4814-9060-4442dbcdc7be"},"period":{"start":"2026-06-08T08:00:00.000+00:00","end":"2026-06-10T08:15:00.000+00:00"},"reasonReference":[{"reference":"Condition/c2b500f3-5b11-4029-8e73-d193f4abb899"}]},"request":{"method":"PUT","url":"Encounter/6716c469-adb4-4d96-8be3-3b70e18e7638"}},{"fullUrl":"Observation/d6ef1ad8-d214-4be6-abfd-1dc4e0209ce5","resource":{"resourceType":"Observation","id":"d6ef1ad8-d214-4be6-abfd-1dc4e0209ce5","meta":{"profile":["http://hl7.org/fhir/us/qicore/StructureDefinition/qicore-simple-observation"]},"status":"final","category":[{"coding":[{"system":"http://terminology.hl7.org/CodeSystem/observation-category","code":"exam","display":"exam","userSelected":true}]}],"code":{"coding":[{"system":"http://loinc.org","code":"11884-4"}]},"subject":{"reference":"Patient/6131e62d-2869-4814-9060-4442dbcdc7be"},"effectiveDateTime":"2026-06-08T08:00:00.000+00:00","performer":[{"reference":"Organization/example1","display":"Hendricks Country Hospital"}],"valueQuantity":{"value":43,"system":"http://unitsofmeasure.org","code":"wk"}},"request":{"method":"PUT","url":"Observation/d6ef1ad8-d214-4be6-abfd-1dc4e0209ce5"}}]}