{"resourceType":"Bundle","id":"tests-e9c9f925-0076-4762-8392-e4d964caaedf-bundle","type":"transaction","entry":[{"fullUrl":"Patient/e9c9f925-0076-4762-8392-e4d964caaedf","resource":{"resourceType":"Patient","id":"e9c9f925-0076-4762-8392-e4d964caaedf","meta":{"profile":["http://hl7.org/fhir/us/qicore/StructureDefinition/qicore-patient"]},"text":{"status":"generated","div":"<div xmlns=\"http://www.w3.org/1999/xhtml\"><div class=\"hapiHeaderText\">AssessEDDRelDtTimeB4TimeOfDelivAndEncStart<b>DENPASS</b></div><table class=\"hapiPropertyTable\"><tbody><tr><td>Identifier</td><td>b00b06f67015bda652373741cca10f65466d828e3a674df9528f73ec417ce0bb</td></tr><tr><td>Date of birth</td><td><span>14 February 1985</span></td></tr></tbody></table></div>"},"extension":[{"url":"http://hl7.org/fhir/us/core/StructureDefinition/us-core-race","extension":[{"url":"ombCategory","valueCoding":{"system":"urn:oid:2.16.840.1.113883.6.238","code":"1002-5","display":"American Indian or Alaska Native","userSelected":true}},{"url":"text","valueString":"American Indian or Alaska Native"}]},{"url":"http://hl7.org/fhir/us/core/StructureDefinition/us-core-ethnicity","extension":[{"url":"ombCategory","valueCoding":{"system":"urn:oid:2.16.840.1.113883.6.238","code":"2135-2","display":"Hispanic or Latino","userSelected":true}},{"url":"text","valueString":"Hispanic or Latino"}]}],"identifier":[{"type":{"coding":[{"system":"http://terminology.hl7.org/CodeSystem/v2-0203","code":"MR"}]},"system":"https://bonnie-fhir.healthit.gov/","value":"63487c2f0968f801225401ad"}],"active":true,"name":[{"use":"usual","family":"DENPass","given":["AssessEDDRelDtTimeB4TimeOfDelivAndEncStart"]}],"gender":"female","birthDate":"1998-02-14"},"request":{"method":"PUT","url":"Patient/e9c9f925-0076-4762-8392-e4d964caaedf"}},{"fullUrl":"Observation/f4567a8d-60c5-4816-bf18-9d0554a09376","resource":{"resourceType":"Observation","id":"f4567a8d-60c5-4816-bf18-9d0554a09376","meta":{"profile":["http://hl7.org/fhir/us/qicore/StructureDefinition/qicore-simple-observation"]},"status":"final","category":[{"coding":[{"system":"http://terminology.hl7.org/CodeSystem/observation-category","code":"exam","display":"exam","userSelected":true}]}],"code":{"coding":[{"system":"http://loinc.org","code":"11778-8"}]},"subject":{"reference":"Patient/e9c9f925-0076-4762-8392-e4d964caaedf"},"effectiveDateTime":"2026-01-14T07:59:00.000+00:00","performer":[{"reference":"Organization/example1","display":"Hendricks Country Hospital"}],"valueDateTime":"2026-02-04T08:00:00.000+00:00"},"request":{"method":"PUT","url":"Observation/f4567a8d-60c5-4816-bf18-9d0554a09376"}},{"fullUrl":"Practitioner/d7749df1-0727-4614-9fa3-b28dfc7ffd5c","resource":{"resourceType":"Practitioner","id":"d7749df1-0727-4614-9fa3-b28dfc7ffd5c","meta":{"profile":["http://hl7.org/fhir/us/qicore/StructureDefinition/qicore-practitioner"]},"identifier":[{"system":"http://hl7.org/fhir/sid/us-npi","value":"1234567890"}],"name":[{"family":"Evil","prefix":["Dr"]}]},"request":{"method":"PUT","url":"Practitioner/d7749df1-0727-4614-9fa3-b28dfc7ffd5c"}},{"fullUrl":"Bundle/63487c2f0968f801225401ad","resource":{"resourceType":"Bundle","id":"63487c2f0968f801225401ad","type":"transaction","entry":[{"fullUrl":"https://madie.cms.gov/Patient/e9c9f925-0076-4762-8392-e4d964caaedf","resource":{"resourceType":"Patient","id":"e9c9f925-0076-4762-8392-e4d964caaedf","meta":{"profile":["http://hl7.org/fhir/us/qicore/StructureDefinition/qicore-patient"]},"text":{"status":"generated","div":"<div xmlns=\"http://www.w3.org/1999/xhtml\"><div class=\"hapiHeaderText\">AssessEDDRelDtTimeB4TimeOfDelivAndEncStart<b>DENPASS</b></div><table class=\"hapiPropertyTable\"><tbody><tr><td>Identifier</td><td>b00b06f67015bda652373741cca10f65466d828e3a674df9528f73ec417ce0bb</td></tr><tr><td>Date of birth</td><td><span>14 February 1985</span></td></tr></tbody></table></div>"},"extension":[{"url":"http://hl7.org/fhir/us/core/StructureDefinition/us-core-race","extension":[{"url":"ombCategory","valueCoding":{"system":"urn:oid:2.16.840.1.113883.6.238","code":"1002-5","display":"American Indian or Alaska Native","userSelected":true}},{"url":"text","valueString":"American Indian or Alaska Native"}]},{"url":"http://hl7.org/fhir/us/core/StructureDefinition/us-core-ethnicity","extension":[{"url":"ombCategory","valueCoding":{"system":"urn:oid:2.16.840.1.113883.6.238","code":"2135-2","display":"Hispanic or Latino","userSelected":true}},{"url":"text","valueString":"Hispanic or Latino"}]}],"identifier":[{"type":{"coding":[{"system":"http://terminology.hl7.org/CodeSystem/v2-0203","code":"MR"}]},"system":"https://bonnie-fhir.healthit.gov/","value":"63487c2f0968f801225401ad"}],"active":true,"name":[{"use":"usual","family":"DENPass","given":["AssessEDDRelDtTimeB4TimeOfDelivAndEncStart"]}],"gender":"female","birthDate":"1998-02-14"},"request":{"method":"PUT","url":"Patient/e9c9f925-0076-4762-8392-e4d964caaedf"}},{"fullUrl":"https://madie.cms.gov/Observation/b3cbad80-f4cc-417b-b13e-3c2dc4f19e41","resource":{"resourceType":"Observation","id":"b3cbad80-f4cc-417b-b13e-3c2dc4f19e41","meta":{"profile":["http://hl7.org/fhir/us/qicore/StructureDefinition/qicore-simple-observation"]},"status":"final","category":[{"coding":[{"system":"http://terminology.hl7.org/CodeSystem/observation-category","code":"exam","display":"exam","userSelected":true}]}],"code":{"coding":[{"system":"http://loinc.org","code":"93857-1"}]},"subject":{"reference":"Patient/e9c9f925-0076-4762-8392-e4d964caaedf"},"effectiveDateTime":"2026-01-15T08:00:00.000+00:00","performer":[{"reference":"Organization/example1","display":"Hendricks Country Hospital"}],"valueDateTime":"2026-01-15T08:00:00.000+00:00"},"request":{"method":"PUT","url":"Observation/b3cbad80-f4cc-417b-b13e-3c2dc4f19e41"}},{"fullUrl":"https://madie.cms.gov/Observation/f4567a8d-60c5-4816-bf18-9d0554a09376","resource":{"resourceType":"Observation","id":"f4567a8d-60c5-4816-bf18-9d0554a09376","meta":{"profile":["http://hl7.org/fhir/us/qicore/StructureDefinition/qicore-simple-observation"]},"status":"final","category":[{"coding":[{"system":"http://terminology.hl7.org/CodeSystem/observation-category","code":"exam","display":"exam","userSelected":true}]}],"code":{"coding":[{"system":"http://loinc.org","code":"11778-8"}]},"subject":{"reference":"Patient/e9c9f925-0076-4762-8392-e4d964caaedf"},"effectiveDateTime":"2026-01-14T07:59:00.000+00:00","performer":[{"reference":"Organization/example1","display":"Hendricks Country Hospital"}],"valueDateTime":"2026-02-04T08:00:00.000+00:00"},"request":{"method":"PUT","url":"Observation/f4567a8d-60c5-4816-bf18-9d0554a09376"}},{"fullUrl":"https://madie.cms.gov/Observation/649a7ab1-e783-4695-b2e9-9f5d682bb958","resource":{"resourceType":"Observation","id":"649a7ab1-e783-4695-b2e9-9f5d682bb958","meta":{"profile":["http://hl7.org/fhir/us/qicore/StructureDefinition/qicore-simple-observation"]},"status":"final","category":[{"coding":[{"system":"http://terminology.hl7.org/CodeSystem/observation-category","code":"exam","display":"exam","userSelected":true}]}],"code":{"coding":[{"system":"http://loinc.org","code":"11996-6"}]},"subject":{"reference":"Patient/e9c9f925-0076-4762-8392-e4d964caaedf"},"effectiveDateTime":"2026-01-15T07:59:00.000+00:00","performer":[{"reference":"Organization/example1","display":"Hendricks Country Hospital"}],"valueInteger":1},"request":{"method":"PUT","url":"Observation/649a7ab1-e783-4695-b2e9-9f5d682bb958"}},{"fullUrl":"https://madie.cms.gov/Encounter/0aa607b6-1d72-447d-ac62-4c582d45fbd3","resource":{"resourceType":"Encounter","id":"0aa607b6-1d72-447d-ac62-4c582d45fbd3","meta":{"profile":["http://hl7.org/fhir/us/qicore/StructureDefinition/qicore-encounter"]},"status":"finished","class":{"system":"http://terminology.hl7.org/CodeSystem/v3-ActCode","code":"IMP","display":"inpatient encounter"},"type":[{"coding":[{"system":"http://snomed.info/sct","code":"183452005"}]}],"subject":{"reference":"Patient/e9c9f925-0076-4762-8392-e4d964caaedf"},"period":{"start":"2026-01-15T08:00:00.000+00:00","end":"2026-01-20T08:15:00.000+00:00"},"reasonCode":[{"coding":[{"system":"http://snomed.info/sct","code":"169826009","display":"Single live birth from singleton pregnancy (finding)"}]}]},"request":{"method":"PUT","url":"Encounter/0aa607b6-1d72-447d-ac62-4c582d45fbd3"}},{"fullUrl":"https://madie.cms.gov/Procedure/62e99b70-534e-4d8e-8754-0ccb07bb92c2","resource":{"resourceType":"Procedure","id":"62e99b70-534e-4d8e-8754-0ccb07bb92c2","meta":{"profile":["http://hl7.org/fhir/us/qicore/StructureDefinition/qicore-procedure"]},"extension":[{"url":"http://hl7.org/fhir/us/qicore/StructureDefinition/qicore-recorded","valueDateTime":"2014-04-05T13:35:00.000+00:00"}],"status":"completed","code":{"coding":[{"system":"http://www.cms.gov/Medicare/Coding/ICD10","code":"10D07Z3"}]},"subject":{"reference":"Patient/e9c9f925-0076-4762-8392-e4d964caaedf"},"performedPeriod":{"start":"2026-01-15T08:10:00.000+00:00","end":"2026-01-15T09:14:00.000+00:00"}},"request":{"method":"PUT","url":"Procedure/62e99b70-534e-4d8e-8754-0ccb07bb92c2"}},{"fullUrl":"https://madie.cms.gov/Condition/226870af-a8b9-4133-a4d0-5b80058a503f","resource":{"resourceType":"Condition","id":"226870af-a8b9-4133-a4d0-5b80058a503f","meta":{"profile":["http://hl7.org/fhir/us/qicore/StructureDefinition/qicore-condition-encounter-diagnosis"]},"category":[{"coding":[{"system":"http://terminology.hl7.org/CodeSystem/condition-category","code":"encounter-diagnosis","display":"Encounter Diagnosis"}]}],"code":{"coding":[{"system":"http://snomed.info/sct","version":"2022-09","code":"169826009","display":"Single live birth (finding)","userSelected":true}]},"subject":{"reference":"Patient/e9c9f925-0076-4762-8392-e4d964caaedf"},"encounter":{"reference":"Encounter/0aa607b6-1d72-447d-ac62-4c582d45fbd3"},"recordedDate":"2026-10-18T08:00:00.000+00:00"},"request":{"method":"PUT","url":"Condition/226870af-a8b9-4133-a4d0-5b80058a503f"}},{"fullUrl":"https://madie.cms.gov/Coverage/45abbe5c-7854-46a3-a7f0-9276151ab8b1","resource":{"resourceType":"Coverage","id":"45abbe5c-7854-46a3-a7f0-9276151ab8b1","meta":{"profile":["http://hl7.org/fhir/us/qicore/StructureDefinition/qicore-coverage"]},"status":"active","beneficiary":{"reference":"Patient/e9c9f925-0076-4762-8392-e4d964caaedf"},"payor":[{"reference":"Organization/a818eb83-5dee-4b9e-8db4-c8d8532faae2"}]},"request":{"method":"PUT","url":"Coverage/45abbe5c-7854-46a3-a7f0-9276151ab8b1"}},{"fullUrl":"https://madie.cms.gov/Organization/a818eb83-5dee-4b9e-8db4-c8d8532faae2","resource":{"resourceType":"Organization","id":"a818eb83-5dee-4b9e-8db4-c8d8532faae2","meta":{"profile":["http://hl7.org/fhir/us/qicore/StructureDefinition/qicore-organization"]},"identifier":[{"use":"temp","system":"urn:oid:2.16.840.1.113883.4.4","value":"21-3259825"}],"active":true,"type":[{"coding":[{"system":"http://terminology.hl7.org/CodeSystem/organization-type","code":"pay","display":"Payer"}]}],"name":"Blue Cross Blue Shield of Texas","telecom":[{"system":"phone","value":"(+1) 972-766-6900"}],"address":[{"use":"billing","type":"postal","line":["P.O. Box 660044"],"city":"Dallas","state":"TX","postalCode":"75266-0044","country":"USA"}]},"request":{"method":"PUT","url":"Organization/a818eb83-5dee-4b9e-8db4-c8d8532faae2"}},{"fullUrl":"https://madie.cms.gov/Practitioner/d7749df1-0727-4614-9fa3-b28dfc7ffd5c","resource":{"resourceType":"Practitioner","id":"d7749df1-0727-4614-9fa3-b28dfc7ffd5c","meta":{"profile":["http://hl7.org/fhir/us/qicore/StructureDefinition/qicore-practitioner"]},"identifier":[{"system":"http://hl7.org/fhir/sid/us-npi","value":"1234567890"}],"name":[{"family":"Evil","prefix":["Dr"]}]},"request":{"method":"PUT","url":"Practitioner/d7749df1-0727-4614-9fa3-b28dfc7ffd5c"}},{"fullUrl":"https://madie.cms.gov/MeasureReport/64f6bb73-76c6-4b93-8424-149c73e2041a","resource":{"resourceType":"MeasureReport","id":"64f6bb73-76c6-4b93-8424-149c73e2041a","meta":{"profile":["http://hl7.org/fhir/us/cqfmeasures/StructureDefinition/test-case-cqfm"]},"contained":[{"resourceType":"Parameters","id":"8fd1840a-8a46-467e-b29a-1edc7ea77efe-parameters","parameter":[{"name":"subject","valueString":"e9c9f925-0076-4762-8392-e4d964caaedf"}]}],"extension":[{"url":"http://hl7.org/fhir/StructureDefinition/cqf-inputParameters","valueReference":{"reference":"#8fd1840a-8a46-467e-b29a-1edc7ea77efe-parameters"}},{"url":"http://hl7.org/fhir/us/cqfmeasures/StructureDefinition/cqfm-testCaseDescription","valueMarkdown":"Passes: IP, Pass DENOM, Pt is 27 years of age,  encounter dx delivery of singleton, gravida=1authored less than 42 weeks prior to delivery, Delivery date Estimated Relevant DateTime before the Time of Delivery and before Enc Start DT\n"}],"modifierExtension":[{"url":"http://hl7.org/fhir/us/cqfmeasures/StructureDefinition/cqfm-isTestCase","valueBoolean":true}],"status":"complete","type":"individual","measure":"https://madie.cms.gov/Measure/CMS0334FHIRPCCesareanBirth","period":{"start":"2026-01-01","end":"2026-12-31"},"group":[{"id":"Group_1","population":[{"id":"InitialPopulation_1","code":{"coding":[{"system":"http://terminology.hl7.org/CodeSystem/measure-population","code":"initial-population","display":"Initial Population"}]},"count":1},{"id":"Denominator_1","code":{"coding":[{"system":"http://terminology.hl7.org/CodeSystem/measure-population","code":"denominator","display":"Denominator"}]},"count":1},{"id":"DenominatorExclusion_1","code":{"coding":[{"system":"http://terminology.hl7.org/CodeSystem/measure-population","code":"denominator-exclusion","display":"Denominator Exclusion"}]},"count":0},{"id":"Numerator_1","code":{"coding":[{"system":"http://terminology.hl7.org/CodeSystem/measure-population","code":"numerator","display":"Numerator"}]},"count":0}],"measureScore":{"value":0.0}}],"evaluatedResource":[{"reference":"Patient/e9c9f925-0076-4762-8392-e4d964caaedf"},{"reference":"Observation/b3cbad80-f4cc-417b-b13e-3c2dc4f19e41"},{"reference":"Observation/f4567a8d-60c5-4816-bf18-9d0554a09376"},{"reference":"Observation/649a7ab1-e783-4695-b2e9-9f5d682bb958"},{"reference":"Encounter/0aa607b6-1d72-447d-ac62-4c582d45fbd3"},{"reference":"Procedure/62e99b70-534e-4d8e-8754-0ccb07bb92c2"},{"reference":"Condition/226870af-a8b9-4133-a4d0-5b80058a503f"},{"reference":"Coverage/45abbe5c-7854-46a3-a7f0-9276151ab8b1"},{"reference":"Organization/a818eb83-5dee-4b9e-8db4-c8d8532faae2"},{"reference":"Practitioner/d7749df1-0727-4614-9fa3-b28dfc7ffd5c"}]},"request":{"method":"PUT","url":"MeasureReport/64f6bb73-76c6-4b93-8424-149c73e2041a"}}]},"request":{"method":"PUT","url":"Bundle/63487c2f0968f801225401ad"}},{"fullUrl":"Organization/a818eb83-5dee-4b9e-8db4-c8d8532faae2","resource":{"resourceType":"Organization","id":"a818eb83-5dee-4b9e-8db4-c8d8532faae2","meta":{"profile":["http://hl7.org/fhir/us/qicore/StructureDefinition/qicore-organization"]},"identifier":[{"use":"temp","system":"urn:oid:2.16.840.1.113883.4.4","value":"21-3259825"}],"active":true,"type":[{"coding":[{"system":"http://terminology.hl7.org/CodeSystem/organization-type","code":"pay","display":"Payer"}]}],"name":"Blue Cross Blue Shield of Texas","telecom":[{"system":"phone","value":"(+1) 972-766-6900"}],"address":[{"use":"billing","type":"postal","line":["P.O. Box 660044"],"city":"Dallas","state":"TX","postalCode":"75266-0044","country":"USA"}]},"request":{"method":"PUT","url":"Organization/a818eb83-5dee-4b9e-8db4-c8d8532faae2"}},{"fullUrl":"Observation/b3cbad80-f4cc-417b-b13e-3c2dc4f19e41","resource":{"resourceType":"Observation","id":"b3cbad80-f4cc-417b-b13e-3c2dc4f19e41","meta":{"profile":["http://hl7.org/fhir/us/qicore/StructureDefinition/qicore-simple-observation"]},"status":"final","category":[{"coding":[{"system":"http://terminology.hl7.org/CodeSystem/observation-category","code":"exam","display":"exam","userSelected":true}]}],"code":{"coding":[{"system":"http://loinc.org","code":"93857-1"}]},"subject":{"reference":"Patient/e9c9f925-0076-4762-8392-e4d964caaedf"},"effectiveDateTime":"2026-01-15T08:00:00.000+00:00","performer":[{"reference":"Organization/example1","display":"Hendricks Country Hospital"}],"valueDateTime":"2026-01-15T08:00:00.000+00:00"},"request":{"method":"PUT","url":"Observation/b3cbad80-f4cc-417b-b13e-3c2dc4f19e41"}},{"fullUrl":"Encounter/0aa607b6-1d72-447d-ac62-4c582d45fbd3","resource":{"resourceType":"Encounter","id":"0aa607b6-1d72-447d-ac62-4c582d45fbd3","meta":{"profile":["http://hl7.org/fhir/us/qicore/StructureDefinition/qicore-encounter"]},"status":"finished","class":{"system":"http://terminology.hl7.org/CodeSystem/v3-ActCode","code":"IMP","display":"inpatient encounter"},"type":[{"coding":[{"system":"http://snomed.info/sct","code":"183452005"}]}],"subject":{"reference":"Patient/e9c9f925-0076-4762-8392-e4d964caaedf"},"period":{"start":"2026-01-15T08:00:00.000+00:00","end":"2026-01-20T08:15:00.000+00:00"},"reasonCode":[{"coding":[{"system":"http://snomed.info/sct","code":"169826009","display":"Single live birth from singleton pregnancy (finding)"}]}]},"request":{"method":"PUT","url":"Encounter/0aa607b6-1d72-447d-ac62-4c582d45fbd3"}},{"fullUrl":"Procedure/62e99b70-534e-4d8e-8754-0ccb07bb92c2","resource":{"resourceType":"Procedure","id":"62e99b70-534e-4d8e-8754-0ccb07bb92c2","meta":{"profile":["http://hl7.org/fhir/us/qicore/StructureDefinition/qicore-procedure"]},"extension":[{"url":"http://hl7.org/fhir/us/qicore/StructureDefinition/qicore-recorded","valueDateTime":"2014-04-05T13:35:00.000+00:00"}],"status":"completed","code":{"coding":[{"system":"http://www.cms.gov/Medicare/Coding/ICD10","code":"10D07Z3"}]},"subject":{"reference":"Patient/e9c9f925-0076-4762-8392-e4d964caaedf"},"performedPeriod":{"start":"2026-01-15T08:10:00.000+00:00","end":"2026-01-15T09:14:00.000+00:00"}},"request":{"method":"PUT","url":"Procedure/62e99b70-534e-4d8e-8754-0ccb07bb92c2"}},{"fullUrl":"Observation/649a7ab1-e783-4695-b2e9-9f5d682bb958","resource":{"resourceType":"Observation","id":"649a7ab1-e783-4695-b2e9-9f5d682bb958","meta":{"profile":["http://hl7.org/fhir/us/qicore/StructureDefinition/qicore-simple-observation"]},"status":"final","category":[{"coding":[{"system":"http://terminology.hl7.org/CodeSystem/observation-category","code":"exam","display":"exam","userSelected":true}]}],"code":{"coding":[{"system":"http://loinc.org","code":"11996-6"}]},"subject":{"reference":"Patient/e9c9f925-0076-4762-8392-e4d964caaedf"},"effectiveDateTime":"2026-01-15T07:59:00.000+00:00","performer":[{"reference":"Organization/example1","display":"Hendricks Country Hospital"}],"valueInteger":1},"request":{"method":"PUT","url":"Observation/649a7ab1-e783-4695-b2e9-9f5d682bb958"}},{"fullUrl":"Coverage/45abbe5c-7854-46a3-a7f0-9276151ab8b1","resource":{"resourceType":"Coverage","id":"45abbe5c-7854-46a3-a7f0-9276151ab8b1","meta":{"profile":["http://hl7.org/fhir/us/qicore/StructureDefinition/qicore-coverage"]},"status":"active","beneficiary":{"reference":"Patient/e9c9f925-0076-4762-8392-e4d964caaedf"},"payor":[{"reference":"Organization/a818eb83-5dee-4b9e-8db4-c8d8532faae2"}]},"request":{"method":"PUT","url":"Coverage/45abbe5c-7854-46a3-a7f0-9276151ab8b1"}},{"fullUrl":"MeasureReport/64f6bb73-76c6-4b93-8424-149c73e2041a","resource":{"resourceType":"MeasureReport","id":"64f6bb73-76c6-4b93-8424-149c73e2041a","meta":{"profile":["http://hl7.org/fhir/us/cqfmeasures/StructureDefinition/test-case-cqfm"]},"contained":[{"resourceType":"Parameters","id":"8fd1840a-8a46-467e-b29a-1edc7ea77efe-parameters","parameter":[{"name":"subject","valueString":"e9c9f925-0076-4762-8392-e4d964caaedf"}]}],"extension":[{"url":"http://hl7.org/fhir/StructureDefinition/cqf-inputParameters","valueReference":{"reference":"#8fd1840a-8a46-467e-b29a-1edc7ea77efe-parameters"}},{"url":"http://hl7.org/fhir/us/cqfmeasures/StructureDefinition/cqfm-testCaseDescription","valueMarkdown":"Passes: IP, Pass DENOM, Pt is 27 years of age,  encounter dx delivery of singleton, gravida=1authored less than 42 weeks prior to delivery, Delivery date Estimated Relevant DateTime before the Time of Delivery and before Enc Start DT\n"}],"modifierExtension":[{"url":"http://hl7.org/fhir/us/cqfmeasures/StructureDefinition/cqfm-isTestCase","valueBoolean":true}],"status":"complete","type":"individual","measure":"https://madie.cms.gov/Measure/CMS0334FHIRPCCesareanBirth","period":{"start":"2026-01-01","end":"2026-12-31"},"group":[{"id":"Group_1","population":[{"id":"InitialPopulation_1","code":{"coding":[{"system":"http://terminology.hl7.org/CodeSystem/measure-population","code":"initial-population","display":"Initial Population"}]},"count":1},{"id":"Denominator_1","code":{"coding":[{"system":"http://terminology.hl7.org/CodeSystem/measure-population","code":"denominator","display":"Denominator"}]},"count":1},{"id":"DenominatorExclusion_1","code":{"coding":[{"system":"http://terminology.hl7.org/CodeSystem/measure-population","code":"denominator-exclusion","display":"Denominator Exclusion"}]},"count":0},{"id":"Numerator_1","code":{"coding":[{"system":"http://terminology.hl7.org/CodeSystem/measure-population","code":"numerator","display":"Numerator"}]},"count":0}],"measureScore":{"value":0.0}}],"evaluatedResource":[{"reference":"Patient/e9c9f925-0076-4762-8392-e4d964caaedf"},{"reference":"Observation/b3cbad80-f4cc-417b-b13e-3c2dc4f19e41"},{"reference":"Observation/f4567a8d-60c5-4816-bf18-9d0554a09376"},{"reference":"Observation/649a7ab1-e783-4695-b2e9-9f5d682bb958"},{"reference":"Encounter/0aa607b6-1d72-447d-ac62-4c582d45fbd3"},{"reference":"Procedure/62e99b70-534e-4d8e-8754-0ccb07bb92c2"},{"reference":"Condition/226870af-a8b9-4133-a4d0-5b80058a503f"},{"reference":"Coverage/45abbe5c-7854-46a3-a7f0-9276151ab8b1"},{"reference":"Organization/a818eb83-5dee-4b9e-8db4-c8d8532faae2"},{"reference":"Practitioner/d7749df1-0727-4614-9fa3-b28dfc7ffd5c"}]},"request":{"method":"PUT","url":"MeasureReport/64f6bb73-76c6-4b93-8424-149c73e2041a"}},{"fullUrl":"Condition/226870af-a8b9-4133-a4d0-5b80058a503f","resource":{"resourceType":"Condition","id":"226870af-a8b9-4133-a4d0-5b80058a503f","meta":{"profile":["http://hl7.org/fhir/us/qicore/StructureDefinition/qicore-condition-encounter-diagnosis"]},"category":[{"coding":[{"system":"http://terminology.hl7.org/CodeSystem/condition-category","code":"encounter-diagnosis","display":"Encounter Diagnosis"}]}],"code":{"coding":[{"system":"http://snomed.info/sct","version":"2022-09","code":"169826009","display":"Single live birth (finding)","userSelected":true}]},"subject":{"reference":"Patient/e9c9f925-0076-4762-8392-e4d964caaedf"},"encounter":{"reference":"Encounter/0aa607b6-1d72-447d-ac62-4c582d45fbd3"},"recordedDate":"2026-10-18T08:00:00.000+00:00"},"request":{"method":"PUT","url":"Condition/226870af-a8b9-4133-a4d0-5b80058a503f"}}]}