{"resourceType":"Bundle","id":"tests-d2556dbf-f07b-4208-921b-86d33f321760-bundle","type":"transaction","entry":[{"fullUrl":"Bundle/63487c2e0968f80122540168","resource":{"resourceType":"Bundle","id":"63487c2e0968f80122540168","type":"transaction","entry":[{"fullUrl":"https://madie.cms.gov/Patient/d2556dbf-f07b-4208-921b-86d33f321760","resource":{"resourceType":"Patient","id":"d2556dbf-f07b-4208-921b-86d33f321760","meta":{"profile":["http://hl7.org/fhir/us/qicore/StructureDefinition/qicore-patient"]},"text":{"status":"generated","div":"<div xmlns=\"http://www.w3.org/1999/xhtml\"><div class=\"hapiHeaderText\">AssessP0 <b>DENPASS </b></div><table class=\"hapiPropertyTable\"><tbody><tr><td>Identifier</td><td>c06cc2d514ccfaffa49c54295f23978df6f00fe92fbd59d826ce4eb31140ad8c</td></tr><tr><td>Date of birth</td><td><span>14 February 1985</span></td></tr></tbody></table></div>"},"extension":[{"url":"http://hl7.org/fhir/us/core/StructureDefinition/us-core-race","extension":[{"url":"ombCategory","valueCoding":{"system":"urn:oid:2.16.840.1.113883.6.238","code":"1002-5","display":"American Indian or Alaska Native","userSelected":true}},{"url":"text","valueString":"American Indian or Alaska Native"}]},{"url":"http://hl7.org/fhir/us/core/StructureDefinition/us-core-ethnicity","extension":[{"url":"ombCategory","valueCoding":{"system":"urn:oid:2.16.840.1.113883.6.238","code":"2135-2","display":"Hispanic or Latino","userSelected":true}},{"url":"text","valueString":"Hispanic or Latino"}]}],"identifier":[{"type":{"coding":[{"system":"http://terminology.hl7.org/CodeSystem/v2-0203","code":"MR"}]},"system":"https://bonnie-fhir.healthit.gov/","value":"63487c2e0968f80122540168"}],"active":true,"name":[{"use":"usual","family":"DENPass","given":["AssessP0"]}],"gender":"female","birthDate":"1998-02-14"},"request":{"method":"PUT","url":"Patient/d2556dbf-f07b-4208-921b-86d33f321760"}},{"fullUrl":"https://madie.cms.gov/Observation/4c4c0b65-cbd2-40f0-a859-06a6029d1b7f","resource":{"resourceType":"Observation","id":"4c4c0b65-cbd2-40f0-a859-06a6029d1b7f","meta":{"profile":["http://hl7.org/fhir/us/qicore/StructureDefinition/qicore-simple-observation"]},"status":"final","category":[{"coding":[{"system":"http://terminology.hl7.org/CodeSystem/observation-category","code":"exam","display":"exam","userSelected":true}]}],"code":{"coding":[{"system":"http://loinc.org","code":"11977-6"}]},"subject":{"reference":"Patient/d2556dbf-f07b-4208-921b-86d33f321760"},"effectiveDateTime":"2025-10-20T09:00:00.000+00:00","valueInteger":0},"request":{"method":"PUT","url":"Observation/4c4c0b65-cbd2-40f0-a859-06a6029d1b7f"}},{"fullUrl":"https://madie.cms.gov/Observation/e7544b20-e5ea-4bd4-84f5-53f39082d348","resource":{"resourceType":"Observation","id":"e7544b20-e5ea-4bd4-84f5-53f39082d348","meta":{"profile":["http://hl7.org/fhir/us/qicore/StructureDefinition/qicore-simple-observation"]},"status":"final","category":[{"coding":[{"system":"http://terminology.hl7.org/CodeSystem/observation-category","code":"exam","display":"exam","userSelected":true}]}],"code":{"coding":[{"system":"http://loinc.org","code":"11884-4"}]},"subject":{"reference":"Patient/d2556dbf-f07b-4208-921b-86d33f321760"},"effectiveDateTime":"2026-06-08T20:00:00.000+00:00","valueQuantity":{"value":37,"system":"http://unitsofmeasure.org","code":"wk"}},"request":{"method":"PUT","url":"Observation/e7544b20-e5ea-4bd4-84f5-53f39082d348"}},{"fullUrl":"https://madie.cms.gov/Observation/6811c743-3156-4d6f-8d8a-f18ead895732","resource":{"resourceType":"Observation","id":"6811c743-3156-4d6f-8d8a-f18ead895732","meta":{"profile":["http://hl7.org/fhir/us/qicore/StructureDefinition/qicore-simple-observation"]},"status":"final","category":[{"coding":[{"system":"http://terminology.hl7.org/CodeSystem/observation-category","code":"exam","display":"exam","userSelected":true}]}],"code":{"coding":[{"system":"http://loinc.org","code":"93857-1"}]},"subject":{"reference":"Patient/d2556dbf-f07b-4208-921b-86d33f321760"},"effectiveDateTime":"2026-06-08T20:00:00.000+00:00","valueDateTime":"2026-06-08T20:00:00.000+00:00"},"request":{"method":"PUT","url":"Observation/6811c743-3156-4d6f-8d8a-f18ead895732"}},{"fullUrl":"https://madie.cms.gov/Encounter/f369c74b-4118-4e45-b8b1-6cb9494171f4","resource":{"resourceType":"Encounter","id":"f369c74b-4118-4e45-b8b1-6cb9494171f4","meta":{"profile":["http://hl7.org/fhir/us/qicore/StructureDefinition/qicore-encounter"]},"status":"finished","class":{"system":"http://terminology.hl7.org/CodeSystem/v3-ActCode","code":"IMP","display":"inpatient encounter"},"type":[{"coding":[{"system":"http://snomed.info/sct","code":"8715000"}]}],"subject":{"reference":"Patient/d2556dbf-f07b-4208-921b-86d33f321760"},"period":{"start":"2026-06-08T08:00:00.000+00:00","end":"2026-06-10T08:15:00.000+00:00"},"reasonReference":[{"reference":"Condition/0ec05ba4-69dd-4b0f-9447-e75c821f5c54"}]},"request":{"method":"PUT","url":"Encounter/f369c74b-4118-4e45-b8b1-6cb9494171f4"}},{"fullUrl":"https://madie.cms.gov/Procedure/b9f3efd8-6710-4221-a742-db3f78200a73","resource":{"resourceType":"Procedure","id":"b9f3efd8-6710-4221-a742-db3f78200a73","meta":{"profile":["http://hl7.org/fhir/us/qicore/StructureDefinition/qicore-procedure"]},"extension":[{"url":"http://hl7.org/fhir/us/qicore/StructureDefinition/qicore-recorded","valueDateTime":"2014-04-05T13:35:00.000+00:00"}],"status":"completed","code":{"coding":[{"system":"http://snomed.info/sct","code":"4504004"}]},"subject":{"reference":"Patient/d2556dbf-f07b-4208-921b-86d33f321760"},"performedPeriod":{"start":"2026-06-08T20:00:00.000+00:00","end":"2026-06-08T20:15:00.000+00:00"}},"request":{"method":"PUT","url":"Procedure/b9f3efd8-6710-4221-a742-db3f78200a73"}},{"fullUrl":"https://madie.cms.gov/Condition/0ec05ba4-69dd-4b0f-9447-e75c821f5c54","resource":{"resourceType":"Condition","id":"0ec05ba4-69dd-4b0f-9447-e75c821f5c54","meta":{"profile":["http://hl7.org/fhir/us/qicore/StructureDefinition/qicore-condition-encounter-diagnosis"]},"category":[{"coding":[{"system":"http://terminology.hl7.org/CodeSystem/condition-category","code":"encounter-diagnosis","display":"Encounter Diagnosis"}]}],"code":{"coding":[{"system":"http://snomed.info/sct","version":"2022-09","code":"169826009","display":"Single live birth from singleton pregnancy (finding)","userSelected":true}]},"subject":{"reference":"Patient/d2556dbf-f07b-4208-921b-86d33f321760"},"encounter":{"reference":"Encounter/f369c74b-4118-4e45-b8b1-6cb9494171f4"},"recordedDate":"2026-10-14T08:00:00.000+00:00"},"request":{"method":"PUT","url":"Condition/0ec05ba4-69dd-4b0f-9447-e75c821f5c54"}},{"fullUrl":"https://madie.cms.gov/Coverage/153c7f9d-28ad-4f5e-805b-a0e22e487a63","resource":{"resourceType":"Coverage","id":"153c7f9d-28ad-4f5e-805b-a0e22e487a63","meta":{"profile":["http://hl7.org/fhir/us/qicore/StructureDefinition/qicore-coverage"]},"status":"active","subscriberId":"523435","beneficiary":{"reference":"Patient/d2556dbf-f07b-4208-921b-86d33f321760"},"relationship":{"coding":[{"system":"http://terminology.hl7.org/CodeSystem/subscriber-relationship","code":"self"}]},"payor":[{"reference":"Organization/c19a230c-9071-4a06-8856-6a25d52fa690"}]},"request":{"method":"PUT","url":"Coverage/153c7f9d-28ad-4f5e-805b-a0e22e487a63"}},{"fullUrl":"https://madie.cms.gov/Organization/c19a230c-9071-4a06-8856-6a25d52fa690","resource":{"resourceType":"Organization","id":"c19a230c-9071-4a06-8856-6a25d52fa690","meta":{"profile":["http://hl7.org/fhir/us/qicore/StructureDefinition/qicore-organization"]},"identifier":[{"use":"temp","system":"urn:oid:2.16.840.1.113883.4.4","value":"21-3259825"}],"active":true,"type":[{"coding":[{"system":"http://terminology.hl7.org/CodeSystem/organization-type","code":"pay","display":"Payer"}]}],"name":"Blue Cross Blue Shield of Texas","telecom":[{"system":"phone","value":"(+1) 972-766-6900"}],"address":[{"use":"billing","type":"postal","line":["P.O. Box 660044"],"city":"Dallas","state":"TX","postalCode":"75266-0044","country":"USA"}]},"request":{"method":"PUT","url":"Organization/c19a230c-9071-4a06-8856-6a25d52fa690"}},{"fullUrl":"https://madie.cms.gov/Practitioner/70faf707-7bd3-4018-bba2-338b81a39450","resource":{"resourceType":"Practitioner","id":"70faf707-7bd3-4018-bba2-338b81a39450","meta":{"profile":["http://hl7.org/fhir/us/qicore/StructureDefinition/qicore-practitioner"]},"identifier":[{"system":"http://hl7.org/fhir/sid/us-npi","value":"1234567890"}],"name":[{"family":"Evil","prefix":["Dr"]}]},"request":{"method":"PUT","url":"Practitioner/70faf707-7bd3-4018-bba2-338b81a39450"}},{"fullUrl":"https://madie.cms.gov/MeasureReport/598b30c4-5ebe-49ab-bf01-3e302cbde2d7","resource":{"resourceType":"MeasureReport","id":"598b30c4-5ebe-49ab-bf01-3e302cbde2d7","meta":{"profile":["http://hl7.org/fhir/us/cqfmeasures/StructureDefinition/test-case-cqfm"]},"contained":[{"resourceType":"Parameters","id":"b30f8a06-d64f-48a7-9298-f10379cae904-parameters","parameter":[{"name":"subject","valueString":"d2556dbf-f07b-4208-921b-86d33f321760"}]}],"extension":[{"url":"http://hl7.org/fhir/StructureDefinition/cqf-inputParameters","valueReference":{"reference":"#b30f8a06-d64f-48a7-9298-f10379cae904-parameters"}},{"url":"http://hl7.org/fhir/us/cqfmeasures/StructureDefinition/cqfm-testCaseDescription","valueMarkdown":"Parity=0, relevant date/time less than 42 weeks prior to delivery date/time\n"}],"modifierExtension":[{"url":"http://hl7.org/fhir/us/cqfmeasures/StructureDefinition/cqfm-isTestCase","valueBoolean":true}],"status":"complete","type":"individual","measure":"https://madie.cms.gov/Measure/CMS0334FHIRPCCesareanBirth","period":{"start":"2026-01-01","end":"2026-12-31"},"group":[{"id":"Group_1","population":[{"id":"InitialPopulation_1","code":{"coding":[{"system":"http://terminology.hl7.org/CodeSystem/measure-population","code":"initial-population","display":"Initial Population"}]},"count":1},{"id":"Denominator_1","code":{"coding":[{"system":"http://terminology.hl7.org/CodeSystem/measure-population","code":"denominator","display":"Denominator"}]},"count":1},{"id":"DenominatorExclusion_1","code":{"coding":[{"system":"http://terminology.hl7.org/CodeSystem/measure-population","code":"denominator-exclusion","display":"Denominator Exclusion"}]},"count":0},{"id":"Numerator_1","code":{"coding":[{"system":"http://terminology.hl7.org/CodeSystem/measure-population","code":"numerator","display":"Numerator"}]},"count":0}],"measureScore":{"value":0.0}}],"evaluatedResource":[{"reference":"Patient/d2556dbf-f07b-4208-921b-86d33f321760"},{"reference":"Observation/4c4c0b65-cbd2-40f0-a859-06a6029d1b7f"},{"reference":"Observation/e7544b20-e5ea-4bd4-84f5-53f39082d348"},{"reference":"Observation/6811c743-3156-4d6f-8d8a-f18ead895732"},{"reference":"Encounter/f369c74b-4118-4e45-b8b1-6cb9494171f4"},{"reference":"Procedure/b9f3efd8-6710-4221-a742-db3f78200a73"},{"reference":"Condition/0ec05ba4-69dd-4b0f-9447-e75c821f5c54"},{"reference":"Coverage/153c7f9d-28ad-4f5e-805b-a0e22e487a63"},{"reference":"Organization/c19a230c-9071-4a06-8856-6a25d52fa690"},{"reference":"Practitioner/70faf707-7bd3-4018-bba2-338b81a39450"}]},"request":{"method":"PUT","url":"MeasureReport/598b30c4-5ebe-49ab-bf01-3e302cbde2d7"}}]},"request":{"method":"PUT","url":"Bundle/63487c2e0968f80122540168"}},{"fullUrl":"Condition/0ec05ba4-69dd-4b0f-9447-e75c821f5c54","resource":{"resourceType":"Condition","id":"0ec05ba4-69dd-4b0f-9447-e75c821f5c54","meta":{"profile":["http://hl7.org/fhir/us/qicore/StructureDefinition/qicore-condition-encounter-diagnosis"]},"category":[{"coding":[{"system":"http://terminology.hl7.org/CodeSystem/condition-category","code":"encounter-diagnosis","display":"Encounter Diagnosis"}]}],"code":{"coding":[{"system":"http://snomed.info/sct","version":"2022-09","code":"169826009","display":"Single live birth from singleton pregnancy (finding)","userSelected":true}]},"subject":{"reference":"Patient/d2556dbf-f07b-4208-921b-86d33f321760"},"encounter":{"reference":"Encounter/f369c74b-4118-4e45-b8b1-6cb9494171f4"},"recordedDate":"2026-10-14T08:00:00.000+00:00"},"request":{"method":"PUT","url":"Condition/0ec05ba4-69dd-4b0f-9447-e75c821f5c54"}},{"fullUrl":"Patient/d2556dbf-f07b-4208-921b-86d33f321760","resource":{"resourceType":"Patient","id":"d2556dbf-f07b-4208-921b-86d33f321760","meta":{"profile":["http://hl7.org/fhir/us/qicore/StructureDefinition/qicore-patient"]},"text":{"status":"generated","div":"<div xmlns=\"http://www.w3.org/1999/xhtml\"><div class=\"hapiHeaderText\">AssessP0 <b>DENPASS </b></div><table class=\"hapiPropertyTable\"><tbody><tr><td>Identifier</td><td>c06cc2d514ccfaffa49c54295f23978df6f00fe92fbd59d826ce4eb31140ad8c</td></tr><tr><td>Date of birth</td><td><span>14 February 1985</span></td></tr></tbody></table></div>"},"extension":[{"url":"http://hl7.org/fhir/us/core/StructureDefinition/us-core-race","extension":[{"url":"ombCategory","valueCoding":{"system":"urn:oid:2.16.840.1.113883.6.238","code":"1002-5","display":"American Indian or Alaska Native","userSelected":true}},{"url":"text","valueString":"American Indian or Alaska Native"}]},{"url":"http://hl7.org/fhir/us/core/StructureDefinition/us-core-ethnicity","extension":[{"url":"ombCategory","valueCoding":{"system":"urn:oid:2.16.840.1.113883.6.238","code":"2135-2","display":"Hispanic or Latino","userSelected":true}},{"url":"text","valueString":"Hispanic or Latino"}]}],"identifier":[{"type":{"coding":[{"system":"http://terminology.hl7.org/CodeSystem/v2-0203","code":"MR"}]},"system":"https://bonnie-fhir.healthit.gov/","value":"63487c2e0968f80122540168"}],"active":true,"name":[{"use":"usual","family":"DENPass","given":["AssessP0"]}],"gender":"female","birthDate":"1998-02-14"},"request":{"method":"PUT","url":"Patient/d2556dbf-f07b-4208-921b-86d33f321760"}},{"fullUrl":"Observation/e7544b20-e5ea-4bd4-84f5-53f39082d348","resource":{"resourceType":"Observation","id":"e7544b20-e5ea-4bd4-84f5-53f39082d348","meta":{"profile":["http://hl7.org/fhir/us/qicore/StructureDefinition/qicore-simple-observation"]},"status":"final","category":[{"coding":[{"system":"http://terminology.hl7.org/CodeSystem/observation-category","code":"exam","display":"exam","userSelected":true}]}],"code":{"coding":[{"system":"http://loinc.org","code":"11884-4"}]},"subject":{"reference":"Patient/d2556dbf-f07b-4208-921b-86d33f321760"},"effectiveDateTime":"2026-06-08T20:00:00.000+00:00","valueQuantity":{"value":37,"system":"http://unitsofmeasure.org","code":"wk"}},"request":{"method":"PUT","url":"Observation/e7544b20-e5ea-4bd4-84f5-53f39082d348"}},{"fullUrl":"Organization/c19a230c-9071-4a06-8856-6a25d52fa690","resource":{"resourceType":"Organization","id":"c19a230c-9071-4a06-8856-6a25d52fa690","meta":{"profile":["http://hl7.org/fhir/us/qicore/StructureDefinition/qicore-organization"]},"identifier":[{"use":"temp","system":"urn:oid:2.16.840.1.113883.4.4","value":"21-3259825"}],"active":true,"type":[{"coding":[{"system":"http://terminology.hl7.org/CodeSystem/organization-type","code":"pay","display":"Payer"}]}],"name":"Blue Cross Blue Shield of Texas","telecom":[{"system":"phone","value":"(+1) 972-766-6900"}],"address":[{"use":"billing","type":"postal","line":["P.O. Box 660044"],"city":"Dallas","state":"TX","postalCode":"75266-0044","country":"USA"}]},"request":{"method":"PUT","url":"Organization/c19a230c-9071-4a06-8856-6a25d52fa690"}},{"fullUrl":"Encounter/f369c74b-4118-4e45-b8b1-6cb9494171f4","resource":{"resourceType":"Encounter","id":"f369c74b-4118-4e45-b8b1-6cb9494171f4","meta":{"profile":["http://hl7.org/fhir/us/qicore/StructureDefinition/qicore-encounter"]},"status":"finished","class":{"system":"http://terminology.hl7.org/CodeSystem/v3-ActCode","code":"IMP","display":"inpatient encounter"},"type":[{"coding":[{"system":"http://snomed.info/sct","code":"8715000"}]}],"subject":{"reference":"Patient/d2556dbf-f07b-4208-921b-86d33f321760"},"period":{"start":"2026-06-08T08:00:00.000+00:00","end":"2026-06-10T08:15:00.000+00:00"},"reasonReference":[{"reference":"Condition/0ec05ba4-69dd-4b0f-9447-e75c821f5c54"}]},"request":{"method":"PUT","url":"Encounter/f369c74b-4118-4e45-b8b1-6cb9494171f4"}},{"fullUrl":"Observation/4c4c0b65-cbd2-40f0-a859-06a6029d1b7f","resource":{"resourceType":"Observation","id":"4c4c0b65-cbd2-40f0-a859-06a6029d1b7f","meta":{"profile":["http://hl7.org/fhir/us/qicore/StructureDefinition/qicore-simple-observation"]},"status":"final","category":[{"coding":[{"system":"http://terminology.hl7.org/CodeSystem/observation-category","code":"exam","display":"exam","userSelected":true}]}],"code":{"coding":[{"system":"http://loinc.org","code":"11977-6"}]},"subject":{"reference":"Patient/d2556dbf-f07b-4208-921b-86d33f321760"},"effectiveDateTime":"2025-10-20T09:00:00.000+00:00","valueInteger":0},"request":{"method":"PUT","url":"Observation/4c4c0b65-cbd2-40f0-a859-06a6029d1b7f"}},{"fullUrl":"Procedure/b9f3efd8-6710-4221-a742-db3f78200a73","resource":{"resourceType":"Procedure","id":"b9f3efd8-6710-4221-a742-db3f78200a73","meta":{"profile":["http://hl7.org/fhir/us/qicore/StructureDefinition/qicore-procedure"]},"extension":[{"url":"http://hl7.org/fhir/us/qicore/StructureDefinition/qicore-recorded","valueDateTime":"2014-04-05T13:35:00.000+00:00"}],"status":"completed","code":{"coding":[{"system":"http://snomed.info/sct","code":"4504004"}]},"subject":{"reference":"Patient/d2556dbf-f07b-4208-921b-86d33f321760"},"performedPeriod":{"start":"2026-06-08T20:00:00.000+00:00","end":"2026-06-08T20:15:00.000+00:00"}},"request":{"method":"PUT","url":"Procedure/b9f3efd8-6710-4221-a742-db3f78200a73"}},{"fullUrl":"Practitioner/70faf707-7bd3-4018-bba2-338b81a39450","resource":{"resourceType":"Practitioner","id":"70faf707-7bd3-4018-bba2-338b81a39450","meta":{"profile":["http://hl7.org/fhir/us/qicore/StructureDefinition/qicore-practitioner"]},"identifier":[{"system":"http://hl7.org/fhir/sid/us-npi","value":"1234567890"}],"name":[{"family":"Evil","prefix":["Dr"]}]},"request":{"method":"PUT","url":"Practitioner/70faf707-7bd3-4018-bba2-338b81a39450"}},{"fullUrl":"Observation/6811c743-3156-4d6f-8d8a-f18ead895732","resource":{"resourceType":"Observation","id":"6811c743-3156-4d6f-8d8a-f18ead895732","meta":{"profile":["http://hl7.org/fhir/us/qicore/StructureDefinition/qicore-simple-observation"]},"status":"final","category":[{"coding":[{"system":"http://terminology.hl7.org/CodeSystem/observation-category","code":"exam","display":"exam","userSelected":true}]}],"code":{"coding":[{"system":"http://loinc.org","code":"93857-1"}]},"subject":{"reference":"Patient/d2556dbf-f07b-4208-921b-86d33f321760"},"effectiveDateTime":"2026-06-08T20:00:00.000+00:00","valueDateTime":"2026-06-08T20:00:00.000+00:00"},"request":{"method":"PUT","url":"Observation/6811c743-3156-4d6f-8d8a-f18ead895732"}},{"fullUrl":"MeasureReport/598b30c4-5ebe-49ab-bf01-3e302cbde2d7","resource":{"resourceType":"MeasureReport","id":"598b30c4-5ebe-49ab-bf01-3e302cbde2d7","meta":{"profile":["http://hl7.org/fhir/us/cqfmeasures/StructureDefinition/test-case-cqfm"]},"contained":[{"resourceType":"Parameters","id":"b30f8a06-d64f-48a7-9298-f10379cae904-parameters","parameter":[{"name":"subject","valueString":"d2556dbf-f07b-4208-921b-86d33f321760"}]}],"extension":[{"url":"http://hl7.org/fhir/StructureDefinition/cqf-inputParameters","valueReference":{"reference":"#b30f8a06-d64f-48a7-9298-f10379cae904-parameters"}},{"url":"http://hl7.org/fhir/us/cqfmeasures/StructureDefinition/cqfm-testCaseDescription","valueMarkdown":"Parity=0, relevant date/time less than 42 weeks prior to delivery date/time\n"}],"modifierExtension":[{"url":"http://hl7.org/fhir/us/cqfmeasures/StructureDefinition/cqfm-isTestCase","valueBoolean":true}],"status":"complete","type":"individual","measure":"https://madie.cms.gov/Measure/CMS0334FHIRPCCesareanBirth","period":{"start":"2026-01-01","end":"2026-12-31"},"group":[{"id":"Group_1","population":[{"id":"InitialPopulation_1","code":{"coding":[{"system":"http://terminology.hl7.org/CodeSystem/measure-population","code":"initial-population","display":"Initial Population"}]},"count":1},{"id":"Denominator_1","code":{"coding":[{"system":"http://terminology.hl7.org/CodeSystem/measure-population","code":"denominator","display":"Denominator"}]},"count":1},{"id":"DenominatorExclusion_1","code":{"coding":[{"system":"http://terminology.hl7.org/CodeSystem/measure-population","code":"denominator-exclusion","display":"Denominator Exclusion"}]},"count":0},{"id":"Numerator_1","code":{"coding":[{"system":"http://terminology.hl7.org/CodeSystem/measure-population","code":"numerator","display":"Numerator"}]},"count":0}],"measureScore":{"value":0.0}}],"evaluatedResource":[{"reference":"Patient/d2556dbf-f07b-4208-921b-86d33f321760"},{"reference":"Observation/4c4c0b65-cbd2-40f0-a859-06a6029d1b7f"},{"reference":"Observation/e7544b20-e5ea-4bd4-84f5-53f39082d348"},{"reference":"Observation/6811c743-3156-4d6f-8d8a-f18ead895732"},{"reference":"Encounter/f369c74b-4118-4e45-b8b1-6cb9494171f4"},{"reference":"Procedure/b9f3efd8-6710-4221-a742-db3f78200a73"},{"reference":"Condition/0ec05ba4-69dd-4b0f-9447-e75c821f5c54"},{"reference":"Coverage/153c7f9d-28ad-4f5e-805b-a0e22e487a63"},{"reference":"Organization/c19a230c-9071-4a06-8856-6a25d52fa690"},{"reference":"Practitioner/70faf707-7bd3-4018-bba2-338b81a39450"}]},"request":{"method":"PUT","url":"MeasureReport/598b30c4-5ebe-49ab-bf01-3e302cbde2d7"}},{"fullUrl":"Coverage/153c7f9d-28ad-4f5e-805b-a0e22e487a63","resource":{"resourceType":"Coverage","id":"153c7f9d-28ad-4f5e-805b-a0e22e487a63","meta":{"profile":["http://hl7.org/fhir/us/qicore/StructureDefinition/qicore-coverage"]},"status":"active","subscriberId":"523435","beneficiary":{"reference":"Patient/d2556dbf-f07b-4208-921b-86d33f321760"},"relationship":{"coding":[{"system":"http://terminology.hl7.org/CodeSystem/subscriber-relationship","code":"self"}]},"payor":[{"reference":"Organization/c19a230c-9071-4a06-8856-6a25d52fa690"}]},"request":{"method":"PUT","url":"Coverage/153c7f9d-28ad-4f5e-805b-a0e22e487a63"}}]}