{"resourceType":"Bundle","id":"tests-f448b52e-d9bf-4989-88c9-20b8a8d9907e-bundle","type":"transaction","entry":[{"fullUrl":"Practitioner/087fbc05-46a7-43b7-a182-4573eb3be196","resource":{"resourceType":"Practitioner","id":"087fbc05-46a7-43b7-a182-4573eb3be196","meta":{"profile":["http://hl7.org/fhir/us/qicore/StructureDefinition/qicore-practitioner"]},"identifier":[{"system":"http://hl7.org/fhir/sid/us-npi","value":"1234567890"}],"name":[{"family":"Evil","prefix":["Dr"]}]},"request":{"method":"PUT","url":"Practitioner/087fbc05-46a7-43b7-a182-4573eb3be196"}},{"fullUrl":"Condition/370dcc8a-9501-480a-b752-d5dade31a382","resource":{"resourceType":"Condition","id":"370dcc8a-9501-480a-b752-d5dade31a382","meta":{"profile":["http://hl7.org/fhir/us/qicore/StructureDefinition/qicore-condition-encounter-diagnosis"]},"category":[{"coding":[{"system":"http://terminology.hl7.org/CodeSystem/condition-category","code":"encounter-diagnosis","display":"Encounter Diagnosis"}]}],"code":{"coding":[{"system":"http://snomed.info/sct","version":"2022-09","code":"169826009","display":"Single live birth from singleton pregnancy (finding)","userSelected":true}]},"subject":{"reference":"Patient/f448b52e-d9bf-4989-88c9-20b8a8d9907e"},"encounter":{"reference":"Encounter/217188fb-fab9-4ba5-8ac1-d9d31849fc34"},"recordedDate":"2026-10-21T08:00:00.000+00:00"},"request":{"method":"PUT","url":"Condition/370dcc8a-9501-480a-b752-d5dade31a382"}},{"fullUrl":"Observation/bce32d82-6e85-4f89-bbc2-41690469b547","resource":{"resourceType":"Observation","id":"bce32d82-6e85-4f89-bbc2-41690469b547","meta":{"profile":["http://hl7.org/fhir/us/qicore/StructureDefinition/qicore-simple-observation"]},"status":"final","category":[{"coding":[{"system":"http://terminology.hl7.org/CodeSystem/observation-category","code":"exam","display":"exam","userSelected":true}]}],"code":{"coding":[{"system":"http://loinc.org","code":"11884-4"}]},"subject":{"reference":"Patient/f448b52e-d9bf-4989-88c9-20b8a8d9907e"},"effectiveDateTime":"2026-06-08T20:00:00.000+00:00","valueQuantity":{"value":37,"system":"http://unitsofmeasure.org","code":"wk"}},"request":{"method":"PUT","url":"Observation/bce32d82-6e85-4f89-bbc2-41690469b547"}},{"fullUrl":"Coverage/ed5cba05-7627-41ec-9aa5-4a19c3d06fc7","resource":{"resourceType":"Coverage","id":"ed5cba05-7627-41ec-9aa5-4a19c3d06fc7","meta":{"profile":["http://hl7.org/fhir/us/qicore/StructureDefinition/qicore-coverage"]},"status":"active","subscriberId":"523435","beneficiary":{"reference":"Patient/f448b52e-d9bf-4989-88c9-20b8a8d9907e"},"relationship":{"coding":[{"system":"http://terminology.hl7.org/CodeSystem/subscriber-relationship","code":"self"}]},"payor":[{"reference":"Organization/8763da0f-4809-4c8d-bda2-792a321c2560"}]},"request":{"method":"PUT","url":"Coverage/ed5cba05-7627-41ec-9aa5-4a19c3d06fc7"}},{"fullUrl":"Encounter/217188fb-fab9-4ba5-8ac1-d9d31849fc34","resource":{"resourceType":"Encounter","id":"217188fb-fab9-4ba5-8ac1-d9d31849fc34","meta":{"profile":["http://hl7.org/fhir/us/qicore/StructureDefinition/qicore-encounter"]},"status":"finished","class":{"system":"http://terminology.hl7.org/CodeSystem/v3-ActCode","code":"IMP","display":"inpatient encounter"},"type":[{"coding":[{"system":"http://snomed.info/sct","code":"8715000"}]}],"subject":{"reference":"Patient/f448b52e-d9bf-4989-88c9-20b8a8d9907e"},"period":{"start":"2026-06-08T08:00:00.000+00:00","end":"2026-06-10T08:15:00.000+00:00"},"length":{"value":2,"unit":"days"},"reasonReference":[{"reference":"Condition/370dcc8a-9501-480a-b752-d5dade31a382"}]},"request":{"method":"PUT","url":"Encounter/217188fb-fab9-4ba5-8ac1-d9d31849fc34"}},{"fullUrl":"Patient/f448b52e-d9bf-4989-88c9-20b8a8d9907e","resource":{"resourceType":"Patient","id":"f448b52e-d9bf-4989-88c9-20b8a8d9907e","meta":{"profile":["http://hl7.org/fhir/us/qicore/StructureDefinition/qicore-patient"]},"text":{"status":"generated","div":"<div xmlns=\"http://www.w3.org/1999/xhtml\"><div class=\"hapiHeaderText\">AssessP0RelDtTimeEQTimeOfDeliv <b>DENOMFail</b></div><table class=\"hapiPropertyTable\"><tbody><tr><td>Identifier</td><td>3ea719415f2f0fb521730d958474147ea3705811d2881f35f880c69e959fdbb1</td></tr><tr><td>Date of birth</td><td><span>14 February 1985</span></td></tr></tbody></table></div>"},"extension":[{"url":"http://hl7.org/fhir/us/core/StructureDefinition/us-core-race","extension":[{"url":"ombCategory","valueCoding":{"system":"urn:oid:2.16.840.1.113883.6.238","code":"1002-5","display":"American Indian or Alaska Native","userSelected":true}},{"url":"text","valueString":"American Indian or Alaska Native"}]},{"url":"http://hl7.org/fhir/us/core/StructureDefinition/us-core-ethnicity","extension":[{"url":"ombCategory","valueCoding":{"system":"urn:oid:2.16.840.1.113883.6.238","code":"2135-2","display":"Hispanic or Latino","userSelected":true}},{"url":"text","valueString":"Hispanic or Latino"}]}],"identifier":[{"type":{"coding":[{"system":"http://terminology.hl7.org/CodeSystem/v2-0203","code":"MR"}]},"system":"https://bonnie-fhir.healthit.gov/","value":"63487c2e0968f80122540167"}],"active":true,"name":[{"use":"usual","family":"DENOMFail","given":["AssessP0RelDtTimeEQTimeOfDeliv"]}],"gender":"female","birthDate":"1998-02-14"},"request":{"method":"PUT","url":"Patient/f448b52e-d9bf-4989-88c9-20b8a8d9907e"}},{"fullUrl":"Procedure/a7945cab-42ab-434a-9a6a-075e09cb1431","resource":{"resourceType":"Procedure","id":"a7945cab-42ab-434a-9a6a-075e09cb1431","meta":{"profile":["http://hl7.org/fhir/us/qicore/StructureDefinition/qicore-procedure"]},"extension":[{"url":"http://hl7.org/fhir/us/qicore/StructureDefinition/qicore-recorded","valueDateTime":"2014-04-05T13:35:00.000+00:00"}],"status":"completed","code":{"coding":[{"system":"http://www.cms.gov/Medicare/Coding/ICD10","code":"10D00Z0"},{"system":"http://snomed.info/sct","code":"4504004"}]},"subject":{"reference":"Patient/f448b52e-d9bf-4989-88c9-20b8a8d9907e"},"performedPeriod":{"start":"2026-06-08T20:00:00.000+00:00","end":"2026-06-08T20:15:00.000+00:00"}},"request":{"method":"PUT","url":"Procedure/a7945cab-42ab-434a-9a6a-075e09cb1431"}},{"fullUrl":"Organization/8763da0f-4809-4c8d-bda2-792a321c2560","resource":{"resourceType":"Organization","id":"8763da0f-4809-4c8d-bda2-792a321c2560","meta":{"profile":["http://hl7.org/fhir/us/qicore/StructureDefinition/qicore-organization"]},"identifier":[{"use":"temp","system":"urn:oid:2.16.840.1.113883.4.4","value":"21-3259825"}],"active":true,"type":[{"coding":[{"system":"http://terminology.hl7.org/CodeSystem/organization-type","code":"pay","display":"Payer"}]}],"name":"Blue Cross Blue Shield of Texas","telecom":[{"system":"phone","value":"(+1) 972-766-6900"}],"address":[{"use":"billing","type":"postal","line":["P.O. Box 660044"],"city":"Dallas","state":"TX","postalCode":"75266-0044","country":"USA"}]},"request":{"method":"PUT","url":"Organization/8763da0f-4809-4c8d-bda2-792a321c2560"}},{"fullUrl":"Bundle/63487c2e0968f80122540167","resource":{"resourceType":"Bundle","id":"63487c2e0968f80122540167","type":"transaction","entry":[{"fullUrl":"https://madie.cms.gov/Patient/f448b52e-d9bf-4989-88c9-20b8a8d9907e","resource":{"resourceType":"Patient","id":"f448b52e-d9bf-4989-88c9-20b8a8d9907e","meta":{"profile":["http://hl7.org/fhir/us/qicore/StructureDefinition/qicore-patient"]},"text":{"status":"generated","div":"<div xmlns=\"http://www.w3.org/1999/xhtml\"><div class=\"hapiHeaderText\">AssessP0RelDtTimeEQTimeOfDeliv <b>DENOMFail</b></div><table class=\"hapiPropertyTable\"><tbody><tr><td>Identifier</td><td>3ea719415f2f0fb521730d958474147ea3705811d2881f35f880c69e959fdbb1</td></tr><tr><td>Date of birth</td><td><span>14 February 1985</span></td></tr></tbody></table></div>"},"extension":[{"url":"http://hl7.org/fhir/us/core/StructureDefinition/us-core-race","extension":[{"url":"ombCategory","valueCoding":{"system":"urn:oid:2.16.840.1.113883.6.238","code":"1002-5","display":"American Indian or Alaska Native","userSelected":true}},{"url":"text","valueString":"American Indian or Alaska Native"}]},{"url":"http://hl7.org/fhir/us/core/StructureDefinition/us-core-ethnicity","extension":[{"url":"ombCategory","valueCoding":{"system":"urn:oid:2.16.840.1.113883.6.238","code":"2135-2","display":"Hispanic or Latino","userSelected":true}},{"url":"text","valueString":"Hispanic or Latino"}]}],"identifier":[{"type":{"coding":[{"system":"http://terminology.hl7.org/CodeSystem/v2-0203","code":"MR"}]},"system":"https://bonnie-fhir.healthit.gov/","value":"63487c2e0968f80122540167"}],"active":true,"name":[{"use":"usual","family":"DENOMFail","given":["AssessP0RelDtTimeEQTimeOfDeliv"]}],"gender":"female","birthDate":"1998-02-14"},"request":{"method":"PUT","url":"Patient/f448b52e-d9bf-4989-88c9-20b8a8d9907e"}},{"fullUrl":"https://madie.cms.gov/Observation/cc744b28-20ab-4abc-8ee2-61a831e421f1","resource":{"resourceType":"Observation","id":"cc744b28-20ab-4abc-8ee2-61a831e421f1","meta":{"profile":["http://hl7.org/fhir/us/qicore/StructureDefinition/qicore-simple-observation"]},"status":"final","category":[{"coding":[{"system":"http://terminology.hl7.org/CodeSystem/observation-category","code":"exam","display":"exam","userSelected":true}]}],"code":{"coding":[{"system":"http://loinc.org","code":"11977-6"}]},"subject":{"reference":"Patient/f448b52e-d9bf-4989-88c9-20b8a8d9907e"},"effectiveDateTime":"2026-06-08T20:00:00.000+00:00","valueInteger":0},"request":{"method":"PUT","url":"Observation/cc744b28-20ab-4abc-8ee2-61a831e421f1"}},{"fullUrl":"https://madie.cms.gov/Observation/bce32d82-6e85-4f89-bbc2-41690469b547","resource":{"resourceType":"Observation","id":"bce32d82-6e85-4f89-bbc2-41690469b547","meta":{"profile":["http://hl7.org/fhir/us/qicore/StructureDefinition/qicore-simple-observation"]},"status":"final","category":[{"coding":[{"system":"http://terminology.hl7.org/CodeSystem/observation-category","code":"exam","display":"exam","userSelected":true}]}],"code":{"coding":[{"system":"http://loinc.org","code":"11884-4"}]},"subject":{"reference":"Patient/f448b52e-d9bf-4989-88c9-20b8a8d9907e"},"effectiveDateTime":"2026-06-08T20:00:00.000+00:00","valueQuantity":{"value":37,"system":"http://unitsofmeasure.org","code":"wk"}},"request":{"method":"PUT","url":"Observation/bce32d82-6e85-4f89-bbc2-41690469b547"}},{"fullUrl":"https://madie.cms.gov/Observation/6107e818-2f90-404c-940e-8eccb18a2692","resource":{"resourceType":"Observation","id":"6107e818-2f90-404c-940e-8eccb18a2692","meta":{"profile":["http://hl7.org/fhir/us/qicore/StructureDefinition/qicore-simple-observation"]},"status":"final","category":[{"coding":[{"system":"http://terminology.hl7.org/CodeSystem/observation-category","code":"exam","display":"exam","userSelected":true}]}],"code":{"coding":[{"system":"http://loinc.org","code":"93857-1"}]},"subject":{"reference":"Patient/f448b52e-d9bf-4989-88c9-20b8a8d9907e"},"effectiveDateTime":"2026-06-08T20:00:00.000+00:00","valueDateTime":"2026-06-08T20:00:00.000+00:00"},"request":{"method":"PUT","url":"Observation/6107e818-2f90-404c-940e-8eccb18a2692"}},{"fullUrl":"https://madie.cms.gov/Encounter/217188fb-fab9-4ba5-8ac1-d9d31849fc34","resource":{"resourceType":"Encounter","id":"217188fb-fab9-4ba5-8ac1-d9d31849fc34","meta":{"profile":["http://hl7.org/fhir/us/qicore/StructureDefinition/qicore-encounter"]},"status":"finished","class":{"system":"http://terminology.hl7.org/CodeSystem/v3-ActCode","code":"IMP","display":"inpatient encounter"},"type":[{"coding":[{"system":"http://snomed.info/sct","code":"8715000"}]}],"subject":{"reference":"Patient/f448b52e-d9bf-4989-88c9-20b8a8d9907e"},"period":{"start":"2026-06-08T08:00:00.000+00:00","end":"2026-06-10T08:15:00.000+00:00"},"length":{"value":2,"unit":"days"},"reasonReference":[{"reference":"Condition/370dcc8a-9501-480a-b752-d5dade31a382"}]},"request":{"method":"PUT","url":"Encounter/217188fb-fab9-4ba5-8ac1-d9d31849fc34"}},{"fullUrl":"https://madie.cms.gov/Procedure/a7945cab-42ab-434a-9a6a-075e09cb1431","resource":{"resourceType":"Procedure","id":"a7945cab-42ab-434a-9a6a-075e09cb1431","meta":{"profile":["http://hl7.org/fhir/us/qicore/StructureDefinition/qicore-procedure"]},"extension":[{"url":"http://hl7.org/fhir/us/qicore/StructureDefinition/qicore-recorded","valueDateTime":"2014-04-05T13:35:00.000+00:00"}],"status":"completed","code":{"coding":[{"system":"http://www.cms.gov/Medicare/Coding/ICD10","code":"10D00Z0"},{"system":"http://snomed.info/sct","code":"4504004"}]},"subject":{"reference":"Patient/f448b52e-d9bf-4989-88c9-20b8a8d9907e"},"performedPeriod":{"start":"2026-06-08T20:00:00.000+00:00","end":"2026-06-08T20:15:00.000+00:00"}},"request":{"method":"PUT","url":"Procedure/a7945cab-42ab-434a-9a6a-075e09cb1431"}},{"fullUrl":"https://madie.cms.gov/Condition/370dcc8a-9501-480a-b752-d5dade31a382","resource":{"resourceType":"Condition","id":"370dcc8a-9501-480a-b752-d5dade31a382","meta":{"profile":["http://hl7.org/fhir/us/qicore/StructureDefinition/qicore-condition-encounter-diagnosis"]},"category":[{"coding":[{"system":"http://terminology.hl7.org/CodeSystem/condition-category","code":"encounter-diagnosis","display":"Encounter Diagnosis"}]}],"code":{"coding":[{"system":"http://snomed.info/sct","version":"2022-09","code":"169826009","display":"Single live birth from singleton pregnancy (finding)","userSelected":true}]},"subject":{"reference":"Patient/f448b52e-d9bf-4989-88c9-20b8a8d9907e"},"encounter":{"reference":"Encounter/217188fb-fab9-4ba5-8ac1-d9d31849fc34"},"recordedDate":"2026-10-21T08:00:00.000+00:00"},"request":{"method":"PUT","url":"Condition/370dcc8a-9501-480a-b752-d5dade31a382"}},{"fullUrl":"https://madie.cms.gov/Coverage/ed5cba05-7627-41ec-9aa5-4a19c3d06fc7","resource":{"resourceType":"Coverage","id":"ed5cba05-7627-41ec-9aa5-4a19c3d06fc7","meta":{"profile":["http://hl7.org/fhir/us/qicore/StructureDefinition/qicore-coverage"]},"status":"active","subscriberId":"523435","beneficiary":{"reference":"Patient/f448b52e-d9bf-4989-88c9-20b8a8d9907e"},"relationship":{"coding":[{"system":"http://terminology.hl7.org/CodeSystem/subscriber-relationship","code":"self"}]},"payor":[{"reference":"Organization/8763da0f-4809-4c8d-bda2-792a321c2560"}]},"request":{"method":"PUT","url":"Coverage/ed5cba05-7627-41ec-9aa5-4a19c3d06fc7"}},{"fullUrl":"https://madie.cms.gov/Organization/8763da0f-4809-4c8d-bda2-792a321c2560","resource":{"resourceType":"Organization","id":"8763da0f-4809-4c8d-bda2-792a321c2560","meta":{"profile":["http://hl7.org/fhir/us/qicore/StructureDefinition/qicore-organization"]},"identifier":[{"use":"temp","system":"urn:oid:2.16.840.1.113883.4.4","value":"21-3259825"}],"active":true,"type":[{"coding":[{"system":"http://terminology.hl7.org/CodeSystem/organization-type","code":"pay","display":"Payer"}]}],"name":"Blue Cross Blue Shield of Texas","telecom":[{"system":"phone","value":"(+1) 972-766-6900"}],"address":[{"use":"billing","type":"postal","line":["P.O. Box 660044"],"city":"Dallas","state":"TX","postalCode":"75266-0044","country":"USA"}]},"request":{"method":"PUT","url":"Organization/8763da0f-4809-4c8d-bda2-792a321c2560"}},{"fullUrl":"https://madie.cms.gov/Practitioner/087fbc05-46a7-43b7-a182-4573eb3be196","resource":{"resourceType":"Practitioner","id":"087fbc05-46a7-43b7-a182-4573eb3be196","meta":{"profile":["http://hl7.org/fhir/us/qicore/StructureDefinition/qicore-practitioner"]},"identifier":[{"system":"http://hl7.org/fhir/sid/us-npi","value":"1234567890"}],"name":[{"family":"Evil","prefix":["Dr"]}]},"request":{"method":"PUT","url":"Practitioner/087fbc05-46a7-43b7-a182-4573eb3be196"}},{"fullUrl":"https://madie.cms.gov/MeasureReport/86d29901-820b-4efe-85ed-0f9a3fe5962c","resource":{"resourceType":"MeasureReport","id":"86d29901-820b-4efe-85ed-0f9a3fe5962c","meta":{"profile":["http://hl7.org/fhir/us/cqfmeasures/StructureDefinition/test-case-cqfm"]},"contained":[{"resourceType":"Parameters","id":"09f78290-e516-4179-b9c6-d898b21cede6-parameters","parameter":[{"name":"subject","valueString":"f448b52e-d9bf-4989-88c9-20b8a8d9907e"}]}],"extension":[{"url":"http://hl7.org/fhir/StructureDefinition/cqf-inputParameters","valueReference":{"reference":"#09f78290-e516-4179-b9c6-d898b21cede6-parameters"}},{"url":"http://hl7.org/fhir/us/cqfmeasures/StructureDefinition/cqfm-testCaseDescription","valueMarkdown":"Parity=0, relative date/time same date and time as delivery date/time.\n"}],"modifierExtension":[{"url":"http://hl7.org/fhir/us/cqfmeasures/StructureDefinition/cqfm-isTestCase","valueBoolean":true}],"status":"complete","type":"individual","measure":"https://madie.cms.gov/Measure/CMS0334FHIRPCCesareanBirth","period":{"start":"2026-01-01","end":"2026-12-31"},"group":[{"id":"Group_1","population":[{"id":"InitialPopulation_1","code":{"coding":[{"system":"http://terminology.hl7.org/CodeSystem/measure-population","code":"initial-population","display":"Initial Population"}]},"count":1},{"id":"Denominator_1","code":{"coding":[{"system":"http://terminology.hl7.org/CodeSystem/measure-population","code":"denominator","display":"Denominator"}]},"count":0},{"id":"DenominatorExclusion_1","code":{"coding":[{"system":"http://terminology.hl7.org/CodeSystem/measure-population","code":"denominator-exclusion","display":"Denominator Exclusion"}]},"count":0},{"id":"Numerator_1","code":{"coding":[{"system":"http://terminology.hl7.org/CodeSystem/measure-population","code":"numerator","display":"Numerator"}]},"count":0}],"measureScore":{"value":0.0}}],"evaluatedResource":[{"reference":"Patient/f448b52e-d9bf-4989-88c9-20b8a8d9907e"},{"reference":"Observation/cc744b28-20ab-4abc-8ee2-61a831e421f1"},{"reference":"Observation/bce32d82-6e85-4f89-bbc2-41690469b547"},{"reference":"Observation/6107e818-2f90-404c-940e-8eccb18a2692"},{"reference":"Encounter/217188fb-fab9-4ba5-8ac1-d9d31849fc34"},{"reference":"Procedure/a7945cab-42ab-434a-9a6a-075e09cb1431"},{"reference":"Condition/370dcc8a-9501-480a-b752-d5dade31a382"},{"reference":"Coverage/ed5cba05-7627-41ec-9aa5-4a19c3d06fc7"},{"reference":"Organization/8763da0f-4809-4c8d-bda2-792a321c2560"},{"reference":"Practitioner/087fbc05-46a7-43b7-a182-4573eb3be196"}]},"request":{"method":"PUT","url":"MeasureReport/86d29901-820b-4efe-85ed-0f9a3fe5962c"}}]},"request":{"method":"PUT","url":"Bundle/63487c2e0968f80122540167"}},{"fullUrl":"Observation/cc744b28-20ab-4abc-8ee2-61a831e421f1","resource":{"resourceType":"Observation","id":"cc744b28-20ab-4abc-8ee2-61a831e421f1","meta":{"profile":["http://hl7.org/fhir/us/qicore/StructureDefinition/qicore-simple-observation"]},"status":"final","category":[{"coding":[{"system":"http://terminology.hl7.org/CodeSystem/observation-category","code":"exam","display":"exam","userSelected":true}]}],"code":{"coding":[{"system":"http://loinc.org","code":"11977-6"}]},"subject":{"reference":"Patient/f448b52e-d9bf-4989-88c9-20b8a8d9907e"},"effectiveDateTime":"2026-06-08T20:00:00.000+00:00","valueInteger":0},"request":{"method":"PUT","url":"Observation/cc744b28-20ab-4abc-8ee2-61a831e421f1"}},{"fullUrl":"Observation/6107e818-2f90-404c-940e-8eccb18a2692","resource":{"resourceType":"Observation","id":"6107e818-2f90-404c-940e-8eccb18a2692","meta":{"profile":["http://hl7.org/fhir/us/qicore/StructureDefinition/qicore-simple-observation"]},"status":"final","category":[{"coding":[{"system":"http://terminology.hl7.org/CodeSystem/observation-category","code":"exam","display":"exam","userSelected":true}]}],"code":{"coding":[{"system":"http://loinc.org","code":"93857-1"}]},"subject":{"reference":"Patient/f448b52e-d9bf-4989-88c9-20b8a8d9907e"},"effectiveDateTime":"2026-06-08T20:00:00.000+00:00","valueDateTime":"2026-06-08T20:00:00.000+00:00"},"request":{"method":"PUT","url":"Observation/6107e818-2f90-404c-940e-8eccb18a2692"}},{"fullUrl":"MeasureReport/86d29901-820b-4efe-85ed-0f9a3fe5962c","resource":{"resourceType":"MeasureReport","id":"86d29901-820b-4efe-85ed-0f9a3fe5962c","meta":{"profile":["http://hl7.org/fhir/us/cqfmeasures/StructureDefinition/test-case-cqfm"]},"contained":[{"resourceType":"Parameters","id":"09f78290-e516-4179-b9c6-d898b21cede6-parameters","parameter":[{"name":"subject","valueString":"f448b52e-d9bf-4989-88c9-20b8a8d9907e"}]}],"extension":[{"url":"http://hl7.org/fhir/StructureDefinition/cqf-inputParameters","valueReference":{"reference":"#09f78290-e516-4179-b9c6-d898b21cede6-parameters"}},{"url":"http://hl7.org/fhir/us/cqfmeasures/StructureDefinition/cqfm-testCaseDescription","valueMarkdown":"Parity=0, relative date/time same date and time as delivery date/time.\n"}],"modifierExtension":[{"url":"http://hl7.org/fhir/us/cqfmeasures/StructureDefinition/cqfm-isTestCase","valueBoolean":true}],"status":"complete","type":"individual","measure":"https://madie.cms.gov/Measure/CMS0334FHIRPCCesareanBirth","period":{"start":"2026-01-01","end":"2026-12-31"},"group":[{"id":"Group_1","population":[{"id":"InitialPopulation_1","code":{"coding":[{"system":"http://terminology.hl7.org/CodeSystem/measure-population","code":"initial-population","display":"Initial Population"}]},"count":1},{"id":"Denominator_1","code":{"coding":[{"system":"http://terminology.hl7.org/CodeSystem/measure-population","code":"denominator","display":"Denominator"}]},"count":0},{"id":"DenominatorExclusion_1","code":{"coding":[{"system":"http://terminology.hl7.org/CodeSystem/measure-population","code":"denominator-exclusion","display":"Denominator Exclusion"}]},"count":0},{"id":"Numerator_1","code":{"coding":[{"system":"http://terminology.hl7.org/CodeSystem/measure-population","code":"numerator","display":"Numerator"}]},"count":0}],"measureScore":{"value":0.0}}],"evaluatedResource":[{"reference":"Patient/f448b52e-d9bf-4989-88c9-20b8a8d9907e"},{"reference":"Observation/cc744b28-20ab-4abc-8ee2-61a831e421f1"},{"reference":"Observation/bce32d82-6e85-4f89-bbc2-41690469b547"},{"reference":"Observation/6107e818-2f90-404c-940e-8eccb18a2692"},{"reference":"Encounter/217188fb-fab9-4ba5-8ac1-d9d31849fc34"},{"reference":"Procedure/a7945cab-42ab-434a-9a6a-075e09cb1431"},{"reference":"Condition/370dcc8a-9501-480a-b752-d5dade31a382"},{"reference":"Coverage/ed5cba05-7627-41ec-9aa5-4a19c3d06fc7"},{"reference":"Organization/8763da0f-4809-4c8d-bda2-792a321c2560"},{"reference":"Practitioner/087fbc05-46a7-43b7-a182-4573eb3be196"}]},"request":{"method":"PUT","url":"MeasureReport/86d29901-820b-4efe-85ed-0f9a3fe5962c"}}]}