{"resourceType":"Bundle","id":"tests-fb35958d-f564-47d5-a75f-925b67b22f28-bundle","type":"transaction","entry":[{"resource":{"resourceType":"Observation","id":"af95592e-ea1d-482c-a847-a4285fc12d77","meta":{"profile":["http://hl7.org/fhir/us/qicore/StructureDefinition/qicore-simple-observation"]},"status":"final","category":[{"coding":[{"system":"http://terminology.hl7.org/CodeSystem/observation-category","code":"exam","display":"exam","userSelected":true}]}],"code":{"coding":[{"system":"http://loinc.org","code":"93857-1"}]},"subject":{"reference":"Patient/fb35958d-f564-47d5-a75f-925b67b22f28"},"effectiveDateTime":"2026-06-08T09:15:00.000+00:00","valueDateTime":"2026-06-08T09:15:00.000+00:00"},"request":{"method":"PUT","url":"Observation/af95592e-ea1d-482c-a847-a4285fc12d77"}},{"resource":{"resourceType":"Condition","id":"cb4db480-5846-4145-b58f-979f6c4c32e3","meta":{"profile":["http://hl7.org/fhir/us/qicore/StructureDefinition/qicore-condition-encounter-diagnosis"]},"category":[{"coding":[{"system":"http://terminology.hl7.org/CodeSystem/condition-category","code":"encounter-diagnosis","display":"Encounter Diagnosis"}]}],"code":{"coding":[{"system":"http://snomed.info/sct","version":"2022-09","code":"169826009","display":"Single live birth from singleton pregnancy (finding)","userSelected":true}]},"subject":{"reference":"Patient/fb35958d-f564-47d5-a75f-925b67b22f28"},"encounter":{"reference":"Encounter/eba656c5-9405-4c79-9cb7-fc8f37df252b"},"recordedDate":"2026-10-20T08:00:00.000+00:00"},"request":{"method":"PUT","url":"Condition/cb4db480-5846-4145-b58f-979f6c4c32e3"}},{"resource":{"resourceType":"MeasureReport","id":"6f8f0c53-5f61-4915-95c6-82f370a7cfed","meta":{"profile":["http://hl7.org/fhir/us/cqfmeasures/StructureDefinition/test-case-cqfm"]},"contained":[{"resourceType":"Parameters","id":"b3aa5625-08a4-43d5-9702-96604a06c637-parameters","parameter":[{"name":"subject","valueString":"fb35958d-f564-47d5-a75f-925b67b22f28"}]}],"extension":[{"url":"http://hl7.org/fhir/StructureDefinition/cqf-inputParameters","valueReference":{"reference":"#b3aa5625-08a4-43d5-9702-96604a06c637-parameters"}},{"url":"http://hl7.org/fhir/us/cqfmeasures/StructureDefinition/cqfm-testCaseDescription","valueMarkdown":"Passes: IP, Pt is 27 years of age,  encounter dx of delivery of singleton,, EGA @ 37 weeks  24 hours before TmDelivery.  \n"}],"modifierExtension":[{"url":"http://hl7.org/fhir/us/cqfmeasures/StructureDefinition/cqfm-isTestCase","valueBoolean":true}],"status":"complete","type":"individual","measure":"https://madie.cms.gov/Measure/CMS0334FHIRPCCesareanBirth","period":{"start":"2026-01-01","end":"2026-12-31"},"group":[{"id":"Group_1","population":[{"id":"InitialPopulation_1","code":{"coding":[{"system":"http://terminology.hl7.org/CodeSystem/measure-population","code":"initial-population","display":"Initial Population"}]},"count":1},{"id":"Denominator_1","code":{"coding":[{"system":"http://terminology.hl7.org/CodeSystem/measure-population","code":"denominator","display":"Denominator"}]},"count":1},{"id":"DenominatorExclusion_1","code":{"coding":[{"system":"http://terminology.hl7.org/CodeSystem/measure-population","code":"denominator-exclusion","display":"Denominator Exclusion"}]},"count":0},{"id":"Numerator_1","code":{"coding":[{"system":"http://terminology.hl7.org/CodeSystem/measure-population","code":"numerator","display":"Numerator"}]},"count":0}],"measureScore":{"value":0.0}}],"evaluatedResource":[{"reference":"Patient/fb35958d-f564-47d5-a75f-925b67b22f28"},{"reference":"Observation/e6b4c2e4-e4f2-40a5-bea9-bfe8a1bdb615"},{"reference":"Observation/bf70f0ab-cdb3-48c2-b7de-d41231626837"},{"reference":"Observation/af95592e-ea1d-482c-a847-a4285fc12d77"},{"reference":"Encounter/eba656c5-9405-4c79-9cb7-fc8f37df252b"},{"reference":"Coverage/a7d302b1-9cbc-45bd-91f4-173df2af25b0"},{"reference":"Procedure/7c3b1df8-0010-4042-a267-17606c70d24f"},{"reference":"Condition/cb4db480-5846-4145-b58f-979f6c4c32e3"},{"reference":"Organization/e25966c1-9cf9-4a3d-a87f-2e81764996dc"},{"reference":"Practitioner/f32030c4-e4e0-4f86-8389-92b1dd69f13a"}]},"request":{"method":"PUT","url":"MeasureReport/6f8f0c53-5f61-4915-95c6-82f370a7cfed"}},{"resource":{"resourceType":"Observation","id":"bf70f0ab-cdb3-48c2-b7de-d41231626837","meta":{"profile":["http://hl7.org/fhir/us/qicore/StructureDefinition/qicore-simple-observation"]},"status":"final","category":[{"coding":[{"system":"http://terminology.hl7.org/CodeSystem/observation-category","code":"exam","display":"exam","userSelected":true}]}],"code":{"coding":[{"system":"http://loinc.org","code":"11996-6"}]},"subject":{"reference":"Patient/fb35958d-f564-47d5-a75f-925b67b22f28"},"effectiveDateTime":"2026-06-08T08:00:00.000+00:00","valueInteger":1},"request":{"method":"PUT","url":"Observation/bf70f0ab-cdb3-48c2-b7de-d41231626837"}},{"resource":{"resourceType":"Bundle","id":"63487c2f0968f80122540198","type":"transaction","entry":[{"fullUrl":"https://madie.cms.gov/Patient/fb35958d-f564-47d5-a75f-925b67b22f28","resource":{"resourceType":"Patient","id":"fb35958d-f564-47d5-a75f-925b67b22f28","meta":{"profile":["http://hl7.org/fhir/us/qicore/StructureDefinition/qicore-patient"]},"text":{"status":"generated","div":"<div xmlns=\"http://www.w3.org/1999/xhtml\"><div class=\"hapiHeaderText\">AssessGATime24HrsB4TimeOfDeliv <b>DENPASS </b></div><table class=\"hapiPropertyTable\"><tbody><tr><td>Identifier</td><td>399eb1d15b18a70b0a1fc126870ee45fba3a6862e3faa339c35b816b8fe113c4</td></tr><tr><td>Date of birth</td><td><span>14 February 1985</span></td></tr></tbody></table></div>"},"extension":[{"url":"http://hl7.org/fhir/us/core/StructureDefinition/us-core-race","extension":[{"url":"ombCategory","valueCoding":{"system":"urn:oid:2.16.840.1.113883.6.238","code":"1002-5","display":"American Indian or Alaska Native","userSelected":true}},{"url":"text","valueString":"American Indian or Alaska Native"}]},{"url":"http://hl7.org/fhir/us/core/StructureDefinition/us-core-ethnicity","extension":[{"url":"ombCategory","valueCoding":{"system":"urn:oid:2.16.840.1.113883.6.238","code":"2135-2","display":"Hispanic or Latino","userSelected":true}},{"url":"text","valueString":"Hispanic or Latino"}]}],"identifier":[{"type":{"coding":[{"system":"http://terminology.hl7.org/CodeSystem/v2-0203","code":"MR"}]},"system":"https://bonnie-fhir.healthit.gov/","value":"63487c2f0968f80122540198"}],"active":true,"name":[{"use":"usual","family":"DENPass","given":["AssessGATime24HrsB4TimeOfDeliv"]}],"gender":"female","birthDate":"1998-02-14"},"request":{"method":"PUT","url":"Patient/fb35958d-f564-47d5-a75f-925b67b22f28"}},{"fullUrl":"https://madie.cms.gov/Observation/e6b4c2e4-e4f2-40a5-bea9-bfe8a1bdb615","resource":{"resourceType":"Observation","id":"e6b4c2e4-e4f2-40a5-bea9-bfe8a1bdb615","meta":{"profile":["http://hl7.org/fhir/us/qicore/StructureDefinition/qicore-simple-observation"]},"status":"final","category":[{"coding":[{"system":"http://terminology.hl7.org/CodeSystem/observation-category","code":"exam","display":"exam","userSelected":true}]}],"code":{"coding":[{"system":"http://loinc.org","code":"11884-4"}]},"subject":{"reference":"Patient/fb35958d-f564-47d5-a75f-925b67b22f28"},"effectiveDateTime":"2026-06-07T09:15:00.000+00:00","valueQuantity":{"value":37,"system":"http://unitsofmeasure.org","code":"wk"}},"request":{"method":"PUT","url":"Observation/e6b4c2e4-e4f2-40a5-bea9-bfe8a1bdb615"}},{"fullUrl":"https://madie.cms.gov/Observation/bf70f0ab-cdb3-48c2-b7de-d41231626837","resource":{"resourceType":"Observation","id":"bf70f0ab-cdb3-48c2-b7de-d41231626837","meta":{"profile":["http://hl7.org/fhir/us/qicore/StructureDefinition/qicore-simple-observation"]},"status":"final","category":[{"coding":[{"system":"http://terminology.hl7.org/CodeSystem/observation-category","code":"exam","display":"exam","userSelected":true}]}],"code":{"coding":[{"system":"http://loinc.org","code":"11996-6"}]},"subject":{"reference":"Patient/fb35958d-f564-47d5-a75f-925b67b22f28"},"effectiveDateTime":"2026-06-08T08:00:00.000+00:00","valueInteger":1},"request":{"method":"PUT","url":"Observation/bf70f0ab-cdb3-48c2-b7de-d41231626837"}},{"fullUrl":"https://madie.cms.gov/Observation/af95592e-ea1d-482c-a847-a4285fc12d77","resource":{"resourceType":"Observation","id":"af95592e-ea1d-482c-a847-a4285fc12d77","meta":{"profile":["http://hl7.org/fhir/us/qicore/StructureDefinition/qicore-simple-observation"]},"status":"final","category":[{"coding":[{"system":"http://terminology.hl7.org/CodeSystem/observation-category","code":"exam","display":"exam","userSelected":true}]}],"code":{"coding":[{"system":"http://loinc.org","code":"93857-1"}]},"subject":{"reference":"Patient/fb35958d-f564-47d5-a75f-925b67b22f28"},"effectiveDateTime":"2026-06-08T09:15:00.000+00:00","valueDateTime":"2026-06-08T09:15:00.000+00:00"},"request":{"method":"PUT","url":"Observation/af95592e-ea1d-482c-a847-a4285fc12d77"}},{"fullUrl":"https://madie.cms.gov/Encounter/eba656c5-9405-4c79-9cb7-fc8f37df252b","resource":{"resourceType":"Encounter","id":"eba656c5-9405-4c79-9cb7-fc8f37df252b","meta":{"profile":["http://hl7.org/fhir/us/qicore/StructureDefinition/qicore-encounter"]},"status":"finished","class":{"system":"http://terminology.hl7.org/CodeSystem/v3-ActCode","code":"IMP","display":"inpatient encounter"},"type":[{"coding":[{"system":"http://snomed.info/sct","code":"183452005"}]}],"subject":{"reference":"Patient/fb35958d-f564-47d5-a75f-925b67b22f28"},"period":{"start":"2026-06-08T08:00:00.000+00:00","end":"2026-06-10T08:15:00.000+00:00"},"length":{"value":2,"unit":"days"},"reasonReference":[{"reference":"Condition/cb4db480-5846-4145-b58f-979f6c4c32e3"}]},"request":{"method":"PUT","url":"Encounter/eba656c5-9405-4c79-9cb7-fc8f37df252b"}},{"fullUrl":"https://madie.cms.gov/Coverage/a7d302b1-9cbc-45bd-91f4-173df2af25b0","resource":{"resourceType":"Coverage","id":"a7d302b1-9cbc-45bd-91f4-173df2af25b0","meta":{"profile":["http://hl7.org/fhir/us/qicore/StructureDefinition/qicore-coverage"]},"status":"active","subscriberId":"523435","beneficiary":{"reference":"Patient/fb35958d-f564-47d5-a75f-925b67b22f28"},"relationship":{"coding":[{"system":"http://terminology.hl7.org/CodeSystem/subscriber-relationship","code":"self"}]},"period":{"start":"1986-02-14T08:00:00.000+00:00"},"payor":[{"reference":"Organization/e25966c1-9cf9-4a3d-a87f-2e81764996dc"}]},"request":{"method":"PUT","url":"Coverage/a7d302b1-9cbc-45bd-91f4-173df2af25b0"}},{"fullUrl":"https://madie.cms.gov/Procedure/7c3b1df8-0010-4042-a267-17606c70d24f","resource":{"resourceType":"Procedure","id":"7c3b1df8-0010-4042-a267-17606c70d24f","meta":{"profile":["http://hl7.org/fhir/us/qicore/StructureDefinition/qicore-procedure"]},"extension":[{"url":"http://hl7.org/fhir/us/qicore/StructureDefinition/qicore-recorded","valueDateTime":"2014-04-05T13:35:00.000+00:00"}],"status":"completed","code":{"coding":[{"system":"http://www.cms.gov/Medicare/Coding/ICD10","code":"10D07Z3"}]},"subject":{"reference":"Patient/fb35958d-f564-47d5-a75f-925b67b22f28"},"performedPeriod":{"start":"2026-06-08T08:00:00.000+00:00","end":"2026-06-08T09:15:00.000+00:00"}},"request":{"method":"PUT","url":"Procedure/7c3b1df8-0010-4042-a267-17606c70d24f"}},{"fullUrl":"https://madie.cms.gov/Condition/cb4db480-5846-4145-b58f-979f6c4c32e3","resource":{"resourceType":"Condition","id":"cb4db480-5846-4145-b58f-979f6c4c32e3","meta":{"profile":["http://hl7.org/fhir/us/qicore/StructureDefinition/qicore-condition-encounter-diagnosis"]},"category":[{"coding":[{"system":"http://terminology.hl7.org/CodeSystem/condition-category","code":"encounter-diagnosis","display":"Encounter Diagnosis"}]}],"code":{"coding":[{"system":"http://snomed.info/sct","version":"2022-09","code":"169826009","display":"Single live birth from singleton pregnancy (finding)","userSelected":true}]},"subject":{"reference":"Patient/fb35958d-f564-47d5-a75f-925b67b22f28"},"encounter":{"reference":"Encounter/eba656c5-9405-4c79-9cb7-fc8f37df252b"},"recordedDate":"2026-10-20T08:00:00.000+00:00"},"request":{"method":"PUT","url":"Condition/cb4db480-5846-4145-b58f-979f6c4c32e3"}},{"fullUrl":"https://madie.cms.gov/Organization/e25966c1-9cf9-4a3d-a87f-2e81764996dc","resource":{"resourceType":"Organization","id":"e25966c1-9cf9-4a3d-a87f-2e81764996dc","meta":{"profile":["http://hl7.org/fhir/us/qicore/StructureDefinition/qicore-organization"]},"identifier":[{"use":"temp","system":"urn:oid:2.16.840.1.113883.4.4","value":"21-3259825"}],"active":true,"type":[{"coding":[{"system":"http://terminology.hl7.org/CodeSystem/organization-type","code":"pay","display":"Payer"}]}],"name":"Blue Cross Blue Shield of Texas","telecom":[{"system":"phone","value":"(+1) 972-766-6900"}],"address":[{"use":"billing","type":"postal","line":["P.O. Box 660044"],"city":"Dallas","state":"TX","postalCode":"75266-0044","country":"USA"}]},"request":{"method":"PUT","url":"Organization/e25966c1-9cf9-4a3d-a87f-2e81764996dc"}},{"fullUrl":"https://madie.cms.gov/Practitioner/f32030c4-e4e0-4f86-8389-92b1dd69f13a","resource":{"resourceType":"Practitioner","id":"f32030c4-e4e0-4f86-8389-92b1dd69f13a","meta":{"profile":["http://hl7.org/fhir/us/qicore/StructureDefinition/qicore-practitioner"]},"identifier":[{"system":"http://hl7.org/fhir/sid/us-npi","value":"1234567890"}],"name":[{"family":"Evil","prefix":["Dr"]}]},"request":{"method":"PUT","url":"Practitioner/f32030c4-e4e0-4f86-8389-92b1dd69f13a"}},{"fullUrl":"https://madie.cms.gov/MeasureReport/6f8f0c53-5f61-4915-95c6-82f370a7cfed","resource":{"resourceType":"MeasureReport","id":"6f8f0c53-5f61-4915-95c6-82f370a7cfed","meta":{"profile":["http://hl7.org/fhir/us/cqfmeasures/StructureDefinition/test-case-cqfm"]},"contained":[{"resourceType":"Parameters","id":"b3aa5625-08a4-43d5-9702-96604a06c637-parameters","parameter":[{"name":"subject","valueString":"fb35958d-f564-47d5-a75f-925b67b22f28"}]}],"extension":[{"url":"http://hl7.org/fhir/StructureDefinition/cqf-inputParameters","valueReference":{"reference":"#b3aa5625-08a4-43d5-9702-96604a06c637-parameters"}},{"url":"http://hl7.org/fhir/us/cqfmeasures/StructureDefinition/cqfm-testCaseDescription","valueMarkdown":"Passes: IP, Pt is 27 years of age,  encounter dx of delivery of singleton,, EGA @ 37 weeks  24 hours before TmDelivery.  \n"}],"modifierExtension":[{"url":"http://hl7.org/fhir/us/cqfmeasures/StructureDefinition/cqfm-isTestCase","valueBoolean":true}],"status":"complete","type":"individual","measure":"https://madie.cms.gov/Measure/CMS0334FHIRPCCesareanBirth","period":{"start":"2026-01-01","end":"2026-12-31"},"group":[{"id":"Group_1","population":[{"id":"InitialPopulation_1","code":{"coding":[{"system":"http://terminology.hl7.org/CodeSystem/measure-population","code":"initial-population","display":"Initial Population"}]},"count":1},{"id":"Denominator_1","code":{"coding":[{"system":"http://terminology.hl7.org/CodeSystem/measure-population","code":"denominator","display":"Denominator"}]},"count":1},{"id":"DenominatorExclusion_1","code":{"coding":[{"system":"http://terminology.hl7.org/CodeSystem/measure-population","code":"denominator-exclusion","display":"Denominator Exclusion"}]},"count":0},{"id":"Numerator_1","code":{"coding":[{"system":"http://terminology.hl7.org/CodeSystem/measure-population","code":"numerator","display":"Numerator"}]},"count":0}],"measureScore":{"value":0.0}}],"evaluatedResource":[{"reference":"Patient/fb35958d-f564-47d5-a75f-925b67b22f28"},{"reference":"Observation/e6b4c2e4-e4f2-40a5-bea9-bfe8a1bdb615"},{"reference":"Observation/bf70f0ab-cdb3-48c2-b7de-d41231626837"},{"reference":"Observation/af95592e-ea1d-482c-a847-a4285fc12d77"},{"reference":"Encounter/eba656c5-9405-4c79-9cb7-fc8f37df252b"},{"reference":"Coverage/a7d302b1-9cbc-45bd-91f4-173df2af25b0"},{"reference":"Procedure/7c3b1df8-0010-4042-a267-17606c70d24f"},{"reference":"Condition/cb4db480-5846-4145-b58f-979f6c4c32e3"},{"reference":"Organization/e25966c1-9cf9-4a3d-a87f-2e81764996dc"},{"reference":"Practitioner/f32030c4-e4e0-4f86-8389-92b1dd69f13a"}]},"request":{"method":"PUT","url":"MeasureReport/6f8f0c53-5f61-4915-95c6-82f370a7cfed"}}]},"request":{"method":"PUT","url":"Bundle/63487c2f0968f80122540198"}},{"resource":{"resourceType":"Procedure","id":"7c3b1df8-0010-4042-a267-17606c70d24f","meta":{"profile":["http://hl7.org/fhir/us/qicore/StructureDefinition/qicore-procedure"]},"extension":[{"url":"http://hl7.org/fhir/us/qicore/StructureDefinition/qicore-recorded","valueDateTime":"2014-04-05T13:35:00.000+00:00"}],"status":"completed","code":{"coding":[{"system":"http://www.cms.gov/Medicare/Coding/ICD10","code":"10D07Z3"}]},"subject":{"reference":"Patient/fb35958d-f564-47d5-a75f-925b67b22f28"},"performedPeriod":{"start":"2026-06-08T08:00:00.000+00:00","end":"2026-06-08T09:15:00.000+00:00"}},"request":{"method":"PUT","url":"Procedure/7c3b1df8-0010-4042-a267-17606c70d24f"}},{"resource":{"resourceType":"Organization","id":"e25966c1-9cf9-4a3d-a87f-2e81764996dc","meta":{"profile":["http://hl7.org/fhir/us/qicore/StructureDefinition/qicore-organization"]},"identifier":[{"use":"temp","system":"urn:oid:2.16.840.1.113883.4.4","value":"21-3259825"}],"active":true,"type":[{"coding":[{"system":"http://terminology.hl7.org/CodeSystem/organization-type","code":"pay","display":"Payer"}]}],"name":"Blue Cross Blue Shield of Texas","telecom":[{"system":"phone","value":"(+1) 972-766-6900"}],"address":[{"use":"billing","type":"postal","line":["P.O. Box 660044"],"city":"Dallas","state":"TX","postalCode":"75266-0044","country":"USA"}]},"request":{"method":"PUT","url":"Organization/e25966c1-9cf9-4a3d-a87f-2e81764996dc"}},{"resource":{"resourceType":"Observation","id":"e6b4c2e4-e4f2-40a5-bea9-bfe8a1bdb615","meta":{"profile":["http://hl7.org/fhir/us/qicore/StructureDefinition/qicore-simple-observation"]},"status":"final","category":[{"coding":[{"system":"http://terminology.hl7.org/CodeSystem/observation-category","code":"exam","display":"exam","userSelected":true}]}],"code":{"coding":[{"system":"http://loinc.org","code":"11884-4"}]},"subject":{"reference":"Patient/fb35958d-f564-47d5-a75f-925b67b22f28"},"effectiveDateTime":"2026-06-07T09:15:00.000+00:00","valueQuantity":{"value":37,"system":"http://unitsofmeasure.org","code":"wk"}},"request":{"method":"PUT","url":"Observation/e6b4c2e4-e4f2-40a5-bea9-bfe8a1bdb615"}},{"resource":{"resourceType":"Patient","id":"fb35958d-f564-47d5-a75f-925b67b22f28","meta":{"profile":["http://hl7.org/fhir/us/qicore/StructureDefinition/qicore-patient"]},"text":{"status":"generated","div":"<div xmlns=\"http://www.w3.org/1999/xhtml\"><div class=\"hapiHeaderText\">AssessGATime24HrsB4TimeOfDeliv <b>DENPASS </b></div><table class=\"hapiPropertyTable\"><tbody><tr><td>Identifier</td><td>399eb1d15b18a70b0a1fc126870ee45fba3a6862e3faa339c35b816b8fe113c4</td></tr><tr><td>Date of birth</td><td><span>14 February 1985</span></td></tr></tbody></table></div>"},"extension":[{"url":"http://hl7.org/fhir/us/core/StructureDefinition/us-core-race","extension":[{"url":"ombCategory","valueCoding":{"system":"urn:oid:2.16.840.1.113883.6.238","code":"1002-5","display":"American Indian or Alaska Native","userSelected":true}},{"url":"text","valueString":"American Indian or Alaska Native"}]},{"url":"http://hl7.org/fhir/us/core/StructureDefinition/us-core-ethnicity","extension":[{"url":"ombCategory","valueCoding":{"system":"urn:oid:2.16.840.1.113883.6.238","code":"2135-2","display":"Hispanic or Latino","userSelected":true}},{"url":"text","valueString":"Hispanic or Latino"}]}],"identifier":[{"type":{"coding":[{"system":"http://terminology.hl7.org/CodeSystem/v2-0203","code":"MR"}]},"system":"https://bonnie-fhir.healthit.gov/","value":"63487c2f0968f80122540198"}],"active":true,"name":[{"use":"usual","family":"DENPass","given":["AssessGATime24HrsB4TimeOfDeliv"]}],"gender":"female","birthDate":"1998-02-14"},"request":{"method":"PUT","url":"Patient/fb35958d-f564-47d5-a75f-925b67b22f28"}},{"resource":{"resourceType":"Coverage","id":"a7d302b1-9cbc-45bd-91f4-173df2af25b0","meta":{"profile":["http://hl7.org/fhir/us/qicore/StructureDefinition/qicore-coverage"]},"status":"active","subscriberId":"523435","beneficiary":{"reference":"Patient/fb35958d-f564-47d5-a75f-925b67b22f28"},"relationship":{"coding":[{"system":"http://terminology.hl7.org/CodeSystem/subscriber-relationship","code":"self"}]},"period":{"start":"1986-02-14T08:00:00.000+00:00"},"payor":[{"reference":"Organization/e25966c1-9cf9-4a3d-a87f-2e81764996dc"}]},"request":{"method":"PUT","url":"Coverage/a7d302b1-9cbc-45bd-91f4-173df2af25b0"}},{"resource":{"resourceType":"Encounter","id":"eba656c5-9405-4c79-9cb7-fc8f37df252b","meta":{"profile":["http://hl7.org/fhir/us/qicore/StructureDefinition/qicore-encounter"]},"status":"finished","class":{"system":"http://terminology.hl7.org/CodeSystem/v3-ActCode","code":"IMP","display":"inpatient encounter"},"type":[{"coding":[{"system":"http://snomed.info/sct","code":"183452005"}]}],"subject":{"reference":"Patient/fb35958d-f564-47d5-a75f-925b67b22f28"},"period":{"start":"2026-06-08T08:00:00.000+00:00","end":"2026-06-10T08:15:00.000+00:00"},"length":{"value":2,"unit":"days"},"reasonReference":[{"reference":"Condition/cb4db480-5846-4145-b58f-979f6c4c32e3"}]},"request":{"method":"PUT","url":"Encounter/eba656c5-9405-4c79-9cb7-fc8f37df252b"}},{"resource":{"resourceType":"Practitioner","id":"f32030c4-e4e0-4f86-8389-92b1dd69f13a","meta":{"profile":["http://hl7.org/fhir/us/qicore/StructureDefinition/qicore-practitioner"]},"identifier":[{"system":"http://hl7.org/fhir/sid/us-npi","value":"1234567890"}],"name":[{"family":"Evil","prefix":["Dr"]}]},"request":{"method":"PUT","url":"Practitioner/f32030c4-e4e0-4f86-8389-92b1dd69f13a"}}]}