{"resourceType":"Bundle","id":"tests-9453e96c-c06a-469b-ab8f-e2cc32dc684c-bundle","type":"transaction","entry":[{"fullUrl":"Coverage/08cc46f9-8a7f-4094-8fcf-404af51c5db8","resource":{"resourceType":"Coverage","id":"08cc46f9-8a7f-4094-8fcf-404af51c5db8","meta":{"profile":["http://hl7.org/fhir/us/qicore/StructureDefinition/qicore-coverage"]},"status":"active","subscriberId":"523435","beneficiary":{"reference":"Patient/9453e96c-c06a-469b-ab8f-e2cc32dc684c"},"relationship":{"coding":[{"system":"http://terminology.hl7.org/CodeSystem/subscriber-relationship","code":"self"}]},"payor":[{"reference":"Organization/1aa94e29-b4b2-43d6-be03-753232708d97"}]},"request":{"method":"PUT","url":"Coverage/08cc46f9-8a7f-4094-8fcf-404af51c5db8"}},{"fullUrl":"Condition/b3c1ecdd-3e1e-4130-af66-4d04cd7d3349","resource":{"resourceType":"Condition","id":"b3c1ecdd-3e1e-4130-af66-4d04cd7d3349","meta":{"profile":["http://hl7.org/fhir/us/qicore/StructureDefinition/qicore-condition-encounter-diagnosis"]},"category":[{"coding":[{"system":"http://terminology.hl7.org/CodeSystem/condition-category","code":"encounter-diagnosis","display":"Encounter Diagnosis"}]}],"code":{"coding":[{"system":"http://snomed.info/sct","version":"2022-09","code":"169826009","display":"Single live birth from singleton pregnancy (finding)","userSelected":true}]},"subject":{"reference":"Patient/9453e96c-c06a-469b-ab8f-e2cc32dc684c"},"recordedDate":"2026-10-21T08:00:00.000+00:00"},"request":{"method":"PUT","url":"Condition/b3c1ecdd-3e1e-4130-af66-4d04cd7d3349"}},{"fullUrl":"Organization/1aa94e29-b4b2-43d6-be03-753232708d97","resource":{"resourceType":"Organization","id":"1aa94e29-b4b2-43d6-be03-753232708d97","meta":{"profile":["http://hl7.org/fhir/us/qicore/StructureDefinition/qicore-organization"]},"identifier":[{"use":"temp","system":"urn:oid:2.16.840.1.113883.4.4","value":"21-3259825"}],"active":true,"type":[{"coding":[{"system":"http://terminology.hl7.org/CodeSystem/organization-type","code":"pay","display":"Payer"}]}],"name":"Blue Cross Blue Shield of Texas","telecom":[{"system":"phone","value":"(+1) 972-766-6900"}],"address":[{"use":"billing","type":"postal","line":["P.O. Box 660044"],"city":"Dallas","state":"TX","postalCode":"75266-0044","country":"USA"}]},"request":{"method":"PUT","url":"Organization/1aa94e29-b4b2-43d6-be03-753232708d97"}},{"fullUrl":"Observation/2cd24089-0e48-4dbc-8533-4273bafddca8","resource":{"resourceType":"Observation","id":"2cd24089-0e48-4dbc-8533-4273bafddca8","meta":{"profile":["http://hl7.org/fhir/us/qicore/StructureDefinition/qicore-simple-observation"]},"status":"final","category":[{"coding":[{"system":"http://terminology.hl7.org/CodeSystem/observation-category","code":"exam","display":"exam","userSelected":true}]}],"code":{"coding":[{"system":"http://loinc.org","code":"11884-4"}]},"subject":{"reference":"Patient/9453e96c-c06a-469b-ab8f-e2cc32dc684c"},"effectiveDateTime":"2026-06-08T20:00:00.000+00:00","valueQuantity":{"value":37,"system":"http://unitsofmeasure.org","code":"wk"}},"request":{"method":"PUT","url":"Observation/2cd24089-0e48-4dbc-8533-4273bafddca8"}},{"fullUrl":"Encounter/cc12a49f-05dc-4825-8308-d8b668936a2e","resource":{"resourceType":"Encounter","id":"cc12a49f-05dc-4825-8308-d8b668936a2e","meta":{"profile":["http://hl7.org/fhir/us/qicore/StructureDefinition/qicore-encounter"]},"status":"finished","class":{"system":"http://terminology.hl7.org/CodeSystem/v3-ActCode","code":"IMP","display":"inpatient encounter"},"type":[{"coding":[{"system":"http://snomed.info/sct","code":"8715000"}]}],"subject":{"reference":"Patient/9453e96c-c06a-469b-ab8f-e2cc32dc684c"},"period":{"start":"2026-06-08T08:00:00.000+00:00","end":"2026-06-10T08:15:00.000+00:00"},"length":{"value":2,"unit":"days"},"reasonReference":[{"reference":"Condition/b3c1ecdd-3e1e-4130-af66-4d04cd7d3349"}]},"request":{"method":"PUT","url":"Encounter/cc12a49f-05dc-4825-8308-d8b668936a2e"}},{"fullUrl":"Observation/201d0662-1506-4db1-aa4a-29b68cc767f5","resource":{"resourceType":"Observation","id":"201d0662-1506-4db1-aa4a-29b68cc767f5","meta":{"profile":["http://hl7.org/fhir/us/qicore/StructureDefinition/qicore-simple-observation"]},"status":"final","category":[{"coding":[{"system":"http://terminology.hl7.org/CodeSystem/observation-category","code":"exam","display":"exam","userSelected":true}]}],"code":{"coding":[{"system":"http://loinc.org","code":"11639-2"}]},"subject":{"reference":"Patient/9453e96c-c06a-469b-ab8f-e2cc32dc684c"},"effectiveDateTime":"2025-09-19T09:00:00.000+00:00","valueInteger":0},"request":{"method":"PUT","url":"Observation/201d0662-1506-4db1-aa4a-29b68cc767f5"}},{"fullUrl":"MeasureReport/a46e613c-50d4-4401-94ba-0f6d4246f935","resource":{"resourceType":"MeasureReport","id":"a46e613c-50d4-4401-94ba-0f6d4246f935","meta":{"profile":["http://hl7.org/fhir/us/cqfmeasures/StructureDefinition/test-case-cqfm"]},"contained":[{"resourceType":"Parameters","id":"fcf6cd13-ddf3-41a0-97e5-888662714d21-parameters","parameter":[{"name":"subject","valueString":"9453e96c-c06a-469b-ab8f-e2cc32dc684c"}]}],"extension":[{"url":"http://hl7.org/fhir/StructureDefinition/cqf-inputParameters","valueReference":{"reference":"#fcf6cd13-ddf3-41a0-97e5-888662714d21-parameters"}},{"url":"http://hl7.org/fhir/us/cqfmeasures/StructureDefinition/cqfm-testCaseDescription","valueMarkdown":"\"Term Newborn=0,  <42wks B4 Asse delivery.\nPreterm=0, rel date/time 1 hour after delivery Datetime.\nwith note of timing logic needed to constrain the rel date/time time to no later than the time of Asse delivery time, DENOM will Fail\n\"\n"}],"modifierExtension":[{"url":"http://hl7.org/fhir/us/cqfmeasures/StructureDefinition/cqfm-isTestCase","valueBoolean":true}],"status":"complete","type":"individual","measure":"https://madie.cms.gov/Measure/CMS0334FHIRPCCesareanBirth","period":{"start":"2026-01-01","end":"2026-12-31"},"group":[{"id":"Group_1","population":[{"id":"InitialPopulation_1","code":{"coding":[{"system":"http://terminology.hl7.org/CodeSystem/measure-population","code":"initial-population","display":"Initial Population"}]},"count":1},{"id":"Denominator_1","code":{"coding":[{"system":"http://terminology.hl7.org/CodeSystem/measure-population","code":"denominator","display":"Denominator"}]},"count":0},{"id":"DenominatorExclusion_1","code":{"coding":[{"system":"http://terminology.hl7.org/CodeSystem/measure-population","code":"denominator-exclusion","display":"Denominator Exclusion"}]},"count":0},{"id":"Numerator_1","code":{"coding":[{"system":"http://terminology.hl7.org/CodeSystem/measure-population","code":"numerator","display":"Numerator"}]},"count":0}],"measureScore":{"value":0.0}}],"evaluatedResource":[{"reference":"Patient/9453e96c-c06a-469b-ab8f-e2cc32dc684c"},{"reference":"Observation/201d0662-1506-4db1-aa4a-29b68cc767f5"},{"reference":"Observation/2cd24089-0e48-4dbc-8533-4273bafddca8"},{"reference":"Observation/5c1f392f-8ff2-4a1f-8555-a3480af8c821"},{"reference":"Observation/b838fdb3-75cf-48c8-ac48-328993e792b4"},{"reference":"Encounter/cc12a49f-05dc-4825-8308-d8b668936a2e"},{"reference":"Procedure/e280e318-04be-494d-9939-a13f65ad25bc"},{"reference":"Condition/b3c1ecdd-3e1e-4130-af66-4d04cd7d3349"},{"reference":"Coverage/08cc46f9-8a7f-4094-8fcf-404af51c5db8"},{"reference":"Organization/1aa94e29-b4b2-43d6-be03-753232708d97"},{"reference":"Practitioner/6c2ce971-fb9f-427d-880b-c67e8b62aae1"}]},"request":{"method":"PUT","url":"MeasureReport/a46e613c-50d4-4401-94ba-0f6d4246f935"}},{"fullUrl":"Procedure/e280e318-04be-494d-9939-a13f65ad25bc","resource":{"resourceType":"Procedure","id":"e280e318-04be-494d-9939-a13f65ad25bc","meta":{"profile":["http://hl7.org/fhir/us/qicore/StructureDefinition/qicore-procedure"]},"extension":[{"url":"http://hl7.org/fhir/us/qicore/StructureDefinition/qicore-recorded","valueDateTime":"2014-04-05T13:35:00.000+00:00"}],"status":"completed","code":{"coding":[{"system":"http://www.cms.gov/Medicare/Coding/ICD10","code":"10D00Z0"},{"system":"http://snomed.info/sct","code":"4504004"},{"system":"http://www.icd10data.com/icd10pcs","code":"10D00Z0","userSelected":true}]},"subject":{"reference":"Patient/9453e96c-c06a-469b-ab8f-e2cc32dc684c"},"performedPeriod":{"start":"2026-06-08T20:00:00.000+00:00","end":"2026-06-08T20:15:00.000+00:00"}},"request":{"method":"PUT","url":"Procedure/e280e318-04be-494d-9939-a13f65ad25bc"}},{"fullUrl":"Observation/b838fdb3-75cf-48c8-ac48-328993e792b4","resource":{"resourceType":"Observation","id":"b838fdb3-75cf-48c8-ac48-328993e792b4","meta":{"profile":["http://hl7.org/fhir/us/qicore/StructureDefinition/qicore-simple-observation"]},"status":"final","category":[{"coding":[{"system":"http://terminology.hl7.org/CodeSystem/observation-category","code":"exam","display":"exam","userSelected":true}]}],"code":{"coding":[{"system":"http://loinc.org","code":"93857-1"}]},"subject":{"reference":"Patient/9453e96c-c06a-469b-ab8f-e2cc32dc684c"},"effectiveDateTime":"2026-06-08T20:00:00.000+00:00","valueDateTime":"2026-06-08T20:00:00.000+00:00"},"request":{"method":"PUT","url":"Observation/b838fdb3-75cf-48c8-ac48-328993e792b4"}},{"fullUrl":"Patient/9453e96c-c06a-469b-ab8f-e2cc32dc684c","resource":{"resourceType":"Patient","id":"9453e96c-c06a-469b-ab8f-e2cc32dc684c","meta":{"profile":["http://hl7.org/fhir/us/qicore/StructureDefinition/qicore-patient"]},"text":{"status":"generated","div":"<div xmlns=\"http://www.w3.org/1999/xhtml\"><div class=\"hapiHeaderText\">AssessPreTerm0RelDtTime1HourAfterDeliv<b>DENOMFail</b></div><table class=\"hapiPropertyTable\"><tbody><tr><td>Identifier</td><td>84b8753708c54db876aad59c3b5dceaad455214447efdaf1a626473420ae0ee9</td></tr><tr><td>Date of birth</td><td><span>14 February 1985</span></td></tr></tbody></table></div>"},"extension":[{"url":"http://hl7.org/fhir/us/core/StructureDefinition/us-core-race","extension":[{"url":"ombCategory","valueCoding":{"system":"urn:oid:2.16.840.1.113883.6.238","code":"1002-5","display":"American Indian or Alaska Native","userSelected":true}},{"url":"text","valueString":"American Indian or Alaska Native"}]},{"url":"http://hl7.org/fhir/us/core/StructureDefinition/us-core-ethnicity","extension":[{"url":"ombCategory","valueCoding":{"system":"urn:oid:2.16.840.1.113883.6.238","code":"2135-2","display":"Hispanic or Latino","userSelected":true}},{"url":"text","valueString":"Hispanic or Latino"}]}],"identifier":[{"type":{"coding":[{"system":"http://terminology.hl7.org/CodeSystem/v2-0203","code":"MR"}]},"system":"https://bonnie-fhir.healthit.gov/","value":"63487c2e0968f80122540185"}],"active":true,"name":[{"use":"usual","family":"DENOMFail","given":["AssessPreTerm0RelDtTime1HourAfterDeliv"]}],"gender":"female","birthDate":"1998-02-14"},"request":{"method":"PUT","url":"Patient/9453e96c-c06a-469b-ab8f-e2cc32dc684c"}},{"fullUrl":"Bundle/63487c2e0968f80122540185","resource":{"resourceType":"Bundle","id":"63487c2e0968f80122540185","type":"transaction","entry":[{"fullUrl":"https://madie.cms.gov/Patient/9453e96c-c06a-469b-ab8f-e2cc32dc684c","resource":{"resourceType":"Patient","id":"9453e96c-c06a-469b-ab8f-e2cc32dc684c","meta":{"profile":["http://hl7.org/fhir/us/qicore/StructureDefinition/qicore-patient"]},"text":{"status":"generated","div":"<div xmlns=\"http://www.w3.org/1999/xhtml\"><div class=\"hapiHeaderText\">AssessPreTerm0RelDtTime1HourAfterDeliv<b>DENOMFail</b></div><table class=\"hapiPropertyTable\"><tbody><tr><td>Identifier</td><td>84b8753708c54db876aad59c3b5dceaad455214447efdaf1a626473420ae0ee9</td></tr><tr><td>Date of birth</td><td><span>14 February 1985</span></td></tr></tbody></table></div>"},"extension":[{"url":"http://hl7.org/fhir/us/core/StructureDefinition/us-core-race","extension":[{"url":"ombCategory","valueCoding":{"system":"urn:oid:2.16.840.1.113883.6.238","code":"1002-5","display":"American Indian or Alaska Native","userSelected":true}},{"url":"text","valueString":"American Indian or Alaska Native"}]},{"url":"http://hl7.org/fhir/us/core/StructureDefinition/us-core-ethnicity","extension":[{"url":"ombCategory","valueCoding":{"system":"urn:oid:2.16.840.1.113883.6.238","code":"2135-2","display":"Hispanic or Latino","userSelected":true}},{"url":"text","valueString":"Hispanic or Latino"}]}],"identifier":[{"type":{"coding":[{"system":"http://terminology.hl7.org/CodeSystem/v2-0203","code":"MR"}]},"system":"https://bonnie-fhir.healthit.gov/","value":"63487c2e0968f80122540185"}],"active":true,"name":[{"use":"usual","family":"DENOMFail","given":["AssessPreTerm0RelDtTime1HourAfterDeliv"]}],"gender":"female","birthDate":"1998-02-14"},"request":{"method":"PUT","url":"Patient/9453e96c-c06a-469b-ab8f-e2cc32dc684c"}},{"fullUrl":"https://madie.cms.gov/Observation/201d0662-1506-4db1-aa4a-29b68cc767f5","resource":{"resourceType":"Observation","id":"201d0662-1506-4db1-aa4a-29b68cc767f5","meta":{"profile":["http://hl7.org/fhir/us/qicore/StructureDefinition/qicore-simple-observation"]},"status":"final","category":[{"coding":[{"system":"http://terminology.hl7.org/CodeSystem/observation-category","code":"exam","display":"exam","userSelected":true}]}],"code":{"coding":[{"system":"http://loinc.org","code":"11639-2"}]},"subject":{"reference":"Patient/9453e96c-c06a-469b-ab8f-e2cc32dc684c"},"effectiveDateTime":"2025-09-19T09:00:00.000+00:00","valueInteger":0},"request":{"method":"PUT","url":"Observation/201d0662-1506-4db1-aa4a-29b68cc767f5"}},{"fullUrl":"https://madie.cms.gov/Observation/2cd24089-0e48-4dbc-8533-4273bafddca8","resource":{"resourceType":"Observation","id":"2cd24089-0e48-4dbc-8533-4273bafddca8","meta":{"profile":["http://hl7.org/fhir/us/qicore/StructureDefinition/qicore-simple-observation"]},"status":"final","category":[{"coding":[{"system":"http://terminology.hl7.org/CodeSystem/observation-category","code":"exam","display":"exam","userSelected":true}]}],"code":{"coding":[{"system":"http://loinc.org","code":"11884-4"}]},"subject":{"reference":"Patient/9453e96c-c06a-469b-ab8f-e2cc32dc684c"},"effectiveDateTime":"2026-06-08T20:00:00.000+00:00","valueQuantity":{"value":37,"system":"http://unitsofmeasure.org","code":"wk"}},"request":{"method":"PUT","url":"Observation/2cd24089-0e48-4dbc-8533-4273bafddca8"}},{"fullUrl":"https://madie.cms.gov/Observation/5c1f392f-8ff2-4a1f-8555-a3480af8c821","resource":{"resourceType":"Observation","id":"5c1f392f-8ff2-4a1f-8555-a3480af8c821","meta":{"profile":["http://hl7.org/fhir/us/qicore/StructureDefinition/qicore-simple-observation"]},"status":"final","category":[{"coding":[{"system":"http://terminology.hl7.org/CodeSystem/observation-category","code":"exam","display":"exam","userSelected":true}]}],"code":{"coding":[{"system":"http://loinc.org","code":"11637-6"}]},"subject":{"reference":"Patient/9453e96c-c06a-469b-ab8f-e2cc32dc684c"},"effectiveDateTime":"2026-06-08T21:00:00.000+00:00","valueInteger":0},"request":{"method":"PUT","url":"Observation/5c1f392f-8ff2-4a1f-8555-a3480af8c821"}},{"fullUrl":"https://madie.cms.gov/Observation/b838fdb3-75cf-48c8-ac48-328993e792b4","resource":{"resourceType":"Observation","id":"b838fdb3-75cf-48c8-ac48-328993e792b4","meta":{"profile":["http://hl7.org/fhir/us/qicore/StructureDefinition/qicore-simple-observation"]},"status":"final","category":[{"coding":[{"system":"http://terminology.hl7.org/CodeSystem/observation-category","code":"exam","display":"exam","userSelected":true}]}],"code":{"coding":[{"system":"http://loinc.org","code":"93857-1"}]},"subject":{"reference":"Patient/9453e96c-c06a-469b-ab8f-e2cc32dc684c"},"effectiveDateTime":"2026-06-08T20:00:00.000+00:00","valueDateTime":"2026-06-08T20:00:00.000+00:00"},"request":{"method":"PUT","url":"Observation/b838fdb3-75cf-48c8-ac48-328993e792b4"}},{"fullUrl":"https://madie.cms.gov/Encounter/cc12a49f-05dc-4825-8308-d8b668936a2e","resource":{"resourceType":"Encounter","id":"cc12a49f-05dc-4825-8308-d8b668936a2e","meta":{"profile":["http://hl7.org/fhir/us/qicore/StructureDefinition/qicore-encounter"]},"status":"finished","class":{"system":"http://terminology.hl7.org/CodeSystem/v3-ActCode","code":"IMP","display":"inpatient encounter"},"type":[{"coding":[{"system":"http://snomed.info/sct","code":"8715000"}]}],"subject":{"reference":"Patient/9453e96c-c06a-469b-ab8f-e2cc32dc684c"},"period":{"start":"2026-06-08T08:00:00.000+00:00","end":"2026-06-10T08:15:00.000+00:00"},"length":{"value":2,"unit":"days"},"reasonReference":[{"reference":"Condition/b3c1ecdd-3e1e-4130-af66-4d04cd7d3349"}]},"request":{"method":"PUT","url":"Encounter/cc12a49f-05dc-4825-8308-d8b668936a2e"}},{"fullUrl":"https://madie.cms.gov/Procedure/e280e318-04be-494d-9939-a13f65ad25bc","resource":{"resourceType":"Procedure","id":"e280e318-04be-494d-9939-a13f65ad25bc","meta":{"profile":["http://hl7.org/fhir/us/qicore/StructureDefinition/qicore-procedure"]},"extension":[{"url":"http://hl7.org/fhir/us/qicore/StructureDefinition/qicore-recorded","valueDateTime":"2014-04-05T13:35:00.000+00:00"}],"status":"completed","code":{"coding":[{"system":"http://www.cms.gov/Medicare/Coding/ICD10","code":"10D00Z0"},{"system":"http://snomed.info/sct","code":"4504004"},{"system":"http://www.icd10data.com/icd10pcs","code":"10D00Z0","userSelected":true}]},"subject":{"reference":"Patient/9453e96c-c06a-469b-ab8f-e2cc32dc684c"},"performedPeriod":{"start":"2026-06-08T20:00:00.000+00:00","end":"2026-06-08T20:15:00.000+00:00"}},"request":{"method":"PUT","url":"Procedure/e280e318-04be-494d-9939-a13f65ad25bc"}},{"fullUrl":"https://madie.cms.gov/Condition/b3c1ecdd-3e1e-4130-af66-4d04cd7d3349","resource":{"resourceType":"Condition","id":"b3c1ecdd-3e1e-4130-af66-4d04cd7d3349","meta":{"profile":["http://hl7.org/fhir/us/qicore/StructureDefinition/qicore-condition-encounter-diagnosis"]},"category":[{"coding":[{"system":"http://terminology.hl7.org/CodeSystem/condition-category","code":"encounter-diagnosis","display":"Encounter Diagnosis"}]}],"code":{"coding":[{"system":"http://snomed.info/sct","version":"2022-09","code":"169826009","display":"Single live birth from singleton pregnancy (finding)","userSelected":true}]},"subject":{"reference":"Patient/9453e96c-c06a-469b-ab8f-e2cc32dc684c"},"recordedDate":"2026-10-21T08:00:00.000+00:00"},"request":{"method":"PUT","url":"Condition/b3c1ecdd-3e1e-4130-af66-4d04cd7d3349"}},{"fullUrl":"https://madie.cms.gov/Coverage/08cc46f9-8a7f-4094-8fcf-404af51c5db8","resource":{"resourceType":"Coverage","id":"08cc46f9-8a7f-4094-8fcf-404af51c5db8","meta":{"profile":["http://hl7.org/fhir/us/qicore/StructureDefinition/qicore-coverage"]},"status":"active","subscriberId":"523435","beneficiary":{"reference":"Patient/9453e96c-c06a-469b-ab8f-e2cc32dc684c"},"relationship":{"coding":[{"system":"http://terminology.hl7.org/CodeSystem/subscriber-relationship","code":"self"}]},"payor":[{"reference":"Organization/1aa94e29-b4b2-43d6-be03-753232708d97"}]},"request":{"method":"PUT","url":"Coverage/08cc46f9-8a7f-4094-8fcf-404af51c5db8"}},{"fullUrl":"https://madie.cms.gov/Organization/1aa94e29-b4b2-43d6-be03-753232708d97","resource":{"resourceType":"Organization","id":"1aa94e29-b4b2-43d6-be03-753232708d97","meta":{"profile":["http://hl7.org/fhir/us/qicore/StructureDefinition/qicore-organization"]},"identifier":[{"use":"temp","system":"urn:oid:2.16.840.1.113883.4.4","value":"21-3259825"}],"active":true,"type":[{"coding":[{"system":"http://terminology.hl7.org/CodeSystem/organization-type","code":"pay","display":"Payer"}]}],"name":"Blue Cross Blue Shield of Texas","telecom":[{"system":"phone","value":"(+1) 972-766-6900"}],"address":[{"use":"billing","type":"postal","line":["P.O. Box 660044"],"city":"Dallas","state":"TX","postalCode":"75266-0044","country":"USA"}]},"request":{"method":"PUT","url":"Organization/1aa94e29-b4b2-43d6-be03-753232708d97"}},{"fullUrl":"https://madie.cms.gov/Practitioner/6c2ce971-fb9f-427d-880b-c67e8b62aae1","resource":{"resourceType":"Practitioner","id":"6c2ce971-fb9f-427d-880b-c67e8b62aae1","meta":{"profile":["http://hl7.org/fhir/us/qicore/StructureDefinition/qicore-practitioner"]},"identifier":[{"system":"http://hl7.org/fhir/sid/us-npi","value":"1234567890"}],"name":[{"family":"Evil","prefix":["Dr"]}]},"request":{"method":"PUT","url":"Practitioner/6c2ce971-fb9f-427d-880b-c67e8b62aae1"}},{"fullUrl":"https://madie.cms.gov/MeasureReport/a46e613c-50d4-4401-94ba-0f6d4246f935","resource":{"resourceType":"MeasureReport","id":"a46e613c-50d4-4401-94ba-0f6d4246f935","meta":{"profile":["http://hl7.org/fhir/us/cqfmeasures/StructureDefinition/test-case-cqfm"]},"contained":[{"resourceType":"Parameters","id":"fcf6cd13-ddf3-41a0-97e5-888662714d21-parameters","parameter":[{"name":"subject","valueString":"9453e96c-c06a-469b-ab8f-e2cc32dc684c"}]}],"extension":[{"url":"http://hl7.org/fhir/StructureDefinition/cqf-inputParameters","valueReference":{"reference":"#fcf6cd13-ddf3-41a0-97e5-888662714d21-parameters"}},{"url":"http://hl7.org/fhir/us/cqfmeasures/StructureDefinition/cqfm-testCaseDescription","valueMarkdown":"\"Term Newborn=0,  <42wks B4 Asse delivery.\nPreterm=0, rel date/time 1 hour after delivery Datetime.\nwith note of timing logic needed to constrain the rel date/time time to no later than the time of Asse delivery time, DENOM will Fail\n\"\n"}],"modifierExtension":[{"url":"http://hl7.org/fhir/us/cqfmeasures/StructureDefinition/cqfm-isTestCase","valueBoolean":true}],"status":"complete","type":"individual","measure":"https://madie.cms.gov/Measure/CMS0334FHIRPCCesareanBirth","period":{"start":"2026-01-01","end":"2026-12-31"},"group":[{"id":"Group_1","population":[{"id":"InitialPopulation_1","code":{"coding":[{"system":"http://terminology.hl7.org/CodeSystem/measure-population","code":"initial-population","display":"Initial Population"}]},"count":1},{"id":"Denominator_1","code":{"coding":[{"system":"http://terminology.hl7.org/CodeSystem/measure-population","code":"denominator","display":"Denominator"}]},"count":0},{"id":"DenominatorExclusion_1","code":{"coding":[{"system":"http://terminology.hl7.org/CodeSystem/measure-population","code":"denominator-exclusion","display":"Denominator Exclusion"}]},"count":0},{"id":"Numerator_1","code":{"coding":[{"system":"http://terminology.hl7.org/CodeSystem/measure-population","code":"numerator","display":"Numerator"}]},"count":0}],"measureScore":{"value":0.0}}],"evaluatedResource":[{"reference":"Patient/9453e96c-c06a-469b-ab8f-e2cc32dc684c"},{"reference":"Observation/201d0662-1506-4db1-aa4a-29b68cc767f5"},{"reference":"Observation/2cd24089-0e48-4dbc-8533-4273bafddca8"},{"reference":"Observation/5c1f392f-8ff2-4a1f-8555-a3480af8c821"},{"reference":"Observation/b838fdb3-75cf-48c8-ac48-328993e792b4"},{"reference":"Encounter/cc12a49f-05dc-4825-8308-d8b668936a2e"},{"reference":"Procedure/e280e318-04be-494d-9939-a13f65ad25bc"},{"reference":"Condition/b3c1ecdd-3e1e-4130-af66-4d04cd7d3349"},{"reference":"Coverage/08cc46f9-8a7f-4094-8fcf-404af51c5db8"},{"reference":"Organization/1aa94e29-b4b2-43d6-be03-753232708d97"},{"reference":"Practitioner/6c2ce971-fb9f-427d-880b-c67e8b62aae1"}]},"request":{"method":"PUT","url":"MeasureReport/a46e613c-50d4-4401-94ba-0f6d4246f935"}}]},"request":{"method":"PUT","url":"Bundle/63487c2e0968f80122540185"}},{"fullUrl":"Practitioner/6c2ce971-fb9f-427d-880b-c67e8b62aae1","resource":{"resourceType":"Practitioner","id":"6c2ce971-fb9f-427d-880b-c67e8b62aae1","meta":{"profile":["http://hl7.org/fhir/us/qicore/StructureDefinition/qicore-practitioner"]},"identifier":[{"system":"http://hl7.org/fhir/sid/us-npi","value":"1234567890"}],"name":[{"family":"Evil","prefix":["Dr"]}]},"request":{"method":"PUT","url":"Practitioner/6c2ce971-fb9f-427d-880b-c67e8b62aae1"}},{"fullUrl":"Observation/5c1f392f-8ff2-4a1f-8555-a3480af8c821","resource":{"resourceType":"Observation","id":"5c1f392f-8ff2-4a1f-8555-a3480af8c821","meta":{"profile":["http://hl7.org/fhir/us/qicore/StructureDefinition/qicore-simple-observation"]},"status":"final","category":[{"coding":[{"system":"http://terminology.hl7.org/CodeSystem/observation-category","code":"exam","display":"exam","userSelected":true}]}],"code":{"coding":[{"system":"http://loinc.org","code":"11637-6"}]},"subject":{"reference":"Patient/9453e96c-c06a-469b-ab8f-e2cc32dc684c"},"effectiveDateTime":"2026-06-08T21:00:00.000+00:00","valueInteger":0},"request":{"method":"PUT","url":"Observation/5c1f392f-8ff2-4a1f-8555-a3480af8c821"}}]}