{"resourceType":"Bundle","id":"tests-0acdfbb5-024b-4ae7-bede-f3a627996733-bundle","type":"transaction","entry":[{"resource":{"resourceType":"Procedure","id":"4a5cbbb8-68f4-41eb-bc40-0ca3064fb782","meta":{"profile":["http://hl7.org/fhir/us/qicore/StructureDefinition/qicore-procedure"]},"extension":[{"url":"http://hl7.org/fhir/us/qicore/StructureDefinition/qicore-recorded","valueDateTime":"2014-04-05T13:35:00.000+00:00"}],"status":"completed","code":{"coding":[{"system":"http://snomed.info/sct","code":"11466000","userSelected":true}]},"subject":{"reference":"Patient/0acdfbb5-024b-4ae7-bede-f3a627996733"},"performedDateTime":"2026-06-08T20:00:00.000+00:00"},"request":{"method":"PUT","url":"Procedure/4a5cbbb8-68f4-41eb-bc40-0ca3064fb782"}},{"resource":{"resourceType":"Observation","id":"2856b0b9-51d1-416c-9355-834b16b624c8","meta":{"profile":["http://hl7.org/fhir/us/qicore/StructureDefinition/qicore-simple-observation"]},"status":"final","category":[{"coding":[{"system":"http://terminology.hl7.org/CodeSystem/observation-category","code":"exam","display":"exam","userSelected":true}]}],"code":{"coding":[{"system":"http://loinc.org","code":"11996-6"}]},"subject":{"reference":"Patient/0acdfbb5-024b-4ae7-bede-f3a627996733"},"effectiveDateTime":"2026-06-08T08:00:00.000+00:00","performer":[{"reference":"Organization/example1","display":"Hendricks Country Hospital"}],"valueInteger":1},"request":{"method":"PUT","url":"Observation/2856b0b9-51d1-416c-9355-834b16b624c8"}},{"resource":{"resourceType":"Condition","id":"c45c3de9-4c7f-43dc-be42-9d2254841aa3","meta":{"profile":["http://hl7.org/fhir/us/qicore/StructureDefinition/qicore-condition-encounter-diagnosis"]},"category":[{"coding":[{"system":"http://terminology.hl7.org/CodeSystem/condition-category","code":"encounter-diagnosis","display":"Encounter Diagnosis"}]}],"code":{"coding":[{"system":"http://snomed.info/sct","version":"2022-09","code":"169826009","display":"Single live birth (finding)","userSelected":true}]},"subject":{"reference":"Patient/0acdfbb5-024b-4ae7-bede-f3a627996733"},"encounter":{"reference":"Encounter/390f1b96-ac32-4fa1-8fe7-4430c1bc8081"},"recordedDate":"2026-10-17T08:00:00.000+00:00"},"request":{"method":"PUT","url":"Condition/c45c3de9-4c7f-43dc-be42-9d2254841aa3"}},{"resource":{"resourceType":"Practitioner","id":"b1131987-20e2-4331-975f-cd35714203fe","meta":{"profile":["http://hl7.org/fhir/us/qicore/StructureDefinition/qicore-practitioner"]},"identifier":[{"system":"http://hl7.org/fhir/sid/us-npi","value":"1234567890"}],"name":[{"family":"Evil","prefix":["Dr"]}]},"request":{"method":"PUT","url":"Practitioner/b1131987-20e2-4331-975f-cd35714203fe"}},{"resource":{"resourceType":"Observation","id":"bbb001e8-3712-4c24-9158-03fb1bef307a","meta":{"profile":["http://hl7.org/fhir/us/qicore/StructureDefinition/qicore-simple-observation"]},"status":"final","category":[{"coding":[{"system":"http://terminology.hl7.org/CodeSystem/observation-category","code":"exam","display":"exam","userSelected":true}]}],"code":{"coding":[{"system":"http://loinc.org","code":"11884-4"}]},"subject":{"reference":"Patient/0acdfbb5-024b-4ae7-bede-f3a627996733"},"effectiveDateTime":"2026-06-08T08:00:00.000+00:00","performer":[{"reference":"Organization/example1","display":"Hendricks Country Hospital"}],"valueQuantity":{"value":43,"system":"http://unitsofmeasure.org","code":"wk"}},"request":{"method":"PUT","url":"Observation/bbb001e8-3712-4c24-9158-03fb1bef307a"}},{"resource":{"resourceType":"Coverage","id":"7ffaf7a7-2fb6-40b7-82bf-8868ce340fa9","meta":{"profile":["http://hl7.org/fhir/us/qicore/StructureDefinition/qicore-coverage"]},"status":"active","subscriberId":"523435","beneficiary":{"reference":"Patient/0acdfbb5-024b-4ae7-bede-f3a627996733"},"relationship":{"coding":[{"system":"http://terminology.hl7.org/CodeSystem/subscriber-relationship","code":"self"}]},"payor":[{"reference":"Organization/43b89d25-a6cf-4795-bcfd-b6c4592e8078"}]},"request":{"method":"PUT","url":"Coverage/7ffaf7a7-2fb6-40b7-82bf-8868ce340fa9"}},{"resource":{"resourceType":"Observation","id":"a7d44186-3761-4ee8-80bb-68bd958f7c10","meta":{"profile":["http://hl7.org/fhir/us/qicore/StructureDefinition/qicore-simple-observation"]},"status":"final","category":[{"coding":[{"system":"http://terminology.hl7.org/CodeSystem/observation-category","code":"exam","display":"exam","userSelected":true}]}],"code":{"coding":[{"system":"http://loinc.org","code":"93857-1"}]},"subject":{"reference":"Patient/0acdfbb5-024b-4ae7-bede-f3a627996733"},"effectiveDateTime":"2026-06-08T20:00:00.000+00:00","performer":[{"reference":"Organization/example1","display":"Hendricks Country Hospital"}],"valueDateTime":"2026-06-08T20:00:00.000+00:00"},"request":{"method":"PUT","url":"Observation/a7d44186-3761-4ee8-80bb-68bd958f7c10"}},{"resource":{"resourceType":"Patient","id":"0acdfbb5-024b-4ae7-bede-f3a627996733","meta":{"profile":["http://hl7.org/fhir/us/qicore/StructureDefinition/qicore-patient"]},"text":{"status":"generated","div":"<div xmlns=\"http://www.w3.org/1999/xhtml\"><div class=\"hapiHeaderText\">EncDxNotPlacentaPrevia<b>DENEXFAIL</b></div><table class=\"hapiPropertyTable\"><tbody><tr><td>Identifier</td><td>26ae2095ae359d33c45002ef417f38a5e4f6a61da3ea75d0332f68a4cb93137e</td></tr><tr><td>Date of birth</td><td><span>14 February 1985</span></td></tr></tbody></table></div>"},"extension":[{"url":"http://hl7.org/fhir/us/core/StructureDefinition/us-core-race","extension":[{"url":"ombCategory","valueCoding":{"system":"urn:oid:2.16.840.1.113883.6.238","code":"1002-5","display":"American Indian or Alaska Native","userSelected":true}},{"url":"text","valueString":"American Indian or Alaska Native"}]},{"url":"http://hl7.org/fhir/us/core/StructureDefinition/us-core-ethnicity","extension":[{"url":"ombCategory","valueCoding":{"system":"urn:oid:2.16.840.1.113883.6.238","code":"2135-2","display":"Hispanic or Latino","userSelected":true}},{"url":"text","valueString":"Hispanic or Latino"}]}],"identifier":[{"type":{"coding":[{"system":"http://terminology.hl7.org/CodeSystem/v2-0203","code":"MR"}]},"system":"https://bonnie-fhir.healthit.gov/","value":"63487c300968f801225401bf"}],"active":true,"name":[{"use":"usual","family":"DENEXFail","given":["EncDxNotPlacentaPrevia"]}],"gender":"female","birthDate":"1998-02-14"},"request":{"method":"PUT","url":"Patient/0acdfbb5-024b-4ae7-bede-f3a627996733"}},{"resource":{"resourceType":"Organization","id":"43b89d25-a6cf-4795-bcfd-b6c4592e8078","meta":{"profile":["http://hl7.org/fhir/us/qicore/StructureDefinition/qicore-organization"]},"identifier":[{"use":"temp","system":"urn:oid:2.16.840.1.113883.4.4","value":"21-3259825"}],"active":true,"type":[{"coding":[{"system":"http://terminology.hl7.org/CodeSystem/organization-type","code":"pay","display":"Payer"}]}],"name":"Blue Cross Blue Shield of Texas","telecom":[{"system":"phone","value":"(+1) 972-766-6900"}],"address":[{"use":"billing","type":"postal","line":["P.O. Box 660044"],"city":"Dallas","state":"TX","postalCode":"75266-0044","country":"USA"}]},"request":{"method":"PUT","url":"Organization/43b89d25-a6cf-4795-bcfd-b6c4592e8078"}},{"resource":{"resourceType":"MeasureReport","id":"aa8ab3fc-d13e-4177-8927-17ae4015f6c2","meta":{"profile":["http://hl7.org/fhir/us/cqfmeasures/StructureDefinition/test-case-cqfm"]},"contained":[{"resourceType":"Parameters","id":"2f92bb2d-dc80-4e12-b7ad-e4a2bc3968bf-parameters","parameter":[{"name":"subject","valueString":"0acdfbb5-024b-4ae7-bede-f3a627996733"}]}],"extension":[{"url":"http://hl7.org/fhir/StructureDefinition/cqf-inputParameters","valueReference":{"reference":"#2f92bb2d-dc80-4e12-b7ad-e4a2bc3968bf-parameters"}},{"url":"http://hl7.org/fhir/us/cqfmeasures/StructureDefinition/cqfm-testCaseDescription","valueMarkdown":"EGA 43 weeks; Placenta previa not on encounter, gravida 1, \n"}],"modifierExtension":[{"url":"http://hl7.org/fhir/us/cqfmeasures/StructureDefinition/cqfm-isTestCase","valueBoolean":true}],"status":"complete","type":"individual","measure":"https://madie.cms.gov/Measure/CMS0334FHIRPCCesareanBirth","period":{"start":"2026-01-01","end":"2026-12-31"},"group":[{"id":"Group_1","population":[{"id":"InitialPopulation_1","code":{"coding":[{"system":"http://terminology.hl7.org/CodeSystem/measure-population","code":"initial-population","display":"Initial Population"}]},"count":1},{"id":"Denominator_1","code":{"coding":[{"system":"http://terminology.hl7.org/CodeSystem/measure-population","code":"denominator","display":"Denominator"}]},"count":1},{"id":"DenominatorExclusion_1","code":{"coding":[{"system":"http://terminology.hl7.org/CodeSystem/measure-population","code":"denominator-exclusion","display":"Denominator Exclusion"}]},"count":0},{"id":"Numerator_1","code":{"coding":[{"system":"http://terminology.hl7.org/CodeSystem/measure-population","code":"numerator","display":"Numerator"}]},"count":1}],"measureScore":{"value":0.0}}],"evaluatedResource":[{"reference":"Patient/0acdfbb5-024b-4ae7-bede-f3a627996733"},{"reference":"Observation/2856b0b9-51d1-416c-9355-834b16b624c8"},{"reference":"Observation/bbb001e8-3712-4c24-9158-03fb1bef307a"},{"reference":"Observation/a7d44186-3761-4ee8-80bb-68bd958f7c10"},{"reference":"Encounter/390f1b96-ac32-4fa1-8fe7-4430c1bc8081"},{"reference":"Procedure/4a5cbbb8-68f4-41eb-bc40-0ca3064fb782"},{"reference":"Condition/c45c3de9-4c7f-43dc-be42-9d2254841aa3"},{"reference":"Coverage/7ffaf7a7-2fb6-40b7-82bf-8868ce340fa9"},{"reference":"Organization/43b89d25-a6cf-4795-bcfd-b6c4592e8078"},{"reference":"Practitioner/b1131987-20e2-4331-975f-cd35714203fe"}]},"request":{"method":"PUT","url":"MeasureReport/aa8ab3fc-d13e-4177-8927-17ae4015f6c2"}},{"resource":{"resourceType":"Encounter","id":"390f1b96-ac32-4fa1-8fe7-4430c1bc8081","meta":{"profile":["http://hl7.org/fhir/us/qicore/StructureDefinition/qicore-encounter"]},"status":"finished","class":{"system":"http://terminology.hl7.org/CodeSystem/v3-ActCode","code":"IMP","display":"inpatient encounter"},"type":[{"coding":[{"system":"http://snomed.info/sct","code":"8715000"}]}],"subject":{"reference":"Patient/0acdfbb5-024b-4ae7-bede-f3a627996733"},"period":{"start":"2026-06-08T08:00:00.000+00:00","end":"2026-06-10T08:15:00.000+00:00"},"reasonCode":[{"coding":[{"system":"http://snomed.info/sct","code":"169826009","display":"Single live birth from singleton pregnancy (finding)"}]}]},"request":{"method":"PUT","url":"Encounter/390f1b96-ac32-4fa1-8fe7-4430c1bc8081"}},{"resource":{"resourceType":"Bundle","id":"63487c300968f801225401bf","type":"transaction","entry":[{"fullUrl":"https://madie.cms.gov/Patient/0acdfbb5-024b-4ae7-bede-f3a627996733","resource":{"resourceType":"Patient","id":"0acdfbb5-024b-4ae7-bede-f3a627996733","meta":{"profile":["http://hl7.org/fhir/us/qicore/StructureDefinition/qicore-patient"]},"text":{"status":"generated","div":"<div xmlns=\"http://www.w3.org/1999/xhtml\"><div class=\"hapiHeaderText\">EncDxNotPlacentaPrevia<b>DENEXFAIL</b></div><table class=\"hapiPropertyTable\"><tbody><tr><td>Identifier</td><td>26ae2095ae359d33c45002ef417f38a5e4f6a61da3ea75d0332f68a4cb93137e</td></tr><tr><td>Date of birth</td><td><span>14 February 1985</span></td></tr></tbody></table></div>"},"extension":[{"url":"http://hl7.org/fhir/us/core/StructureDefinition/us-core-race","extension":[{"url":"ombCategory","valueCoding":{"system":"urn:oid:2.16.840.1.113883.6.238","code":"1002-5","display":"American Indian or Alaska Native","userSelected":true}},{"url":"text","valueString":"American Indian or Alaska Native"}]},{"url":"http://hl7.org/fhir/us/core/StructureDefinition/us-core-ethnicity","extension":[{"url":"ombCategory","valueCoding":{"system":"urn:oid:2.16.840.1.113883.6.238","code":"2135-2","display":"Hispanic or Latino","userSelected":true}},{"url":"text","valueString":"Hispanic or Latino"}]}],"identifier":[{"type":{"coding":[{"system":"http://terminology.hl7.org/CodeSystem/v2-0203","code":"MR"}]},"system":"https://bonnie-fhir.healthit.gov/","value":"63487c300968f801225401bf"}],"active":true,"name":[{"use":"usual","family":"DENEXFail","given":["EncDxNotPlacentaPrevia"]}],"gender":"female","birthDate":"1998-02-14"},"request":{"method":"PUT","url":"Patient/0acdfbb5-024b-4ae7-bede-f3a627996733"}},{"fullUrl":"https://madie.cms.gov/Observation/2856b0b9-51d1-416c-9355-834b16b624c8","resource":{"resourceType":"Observation","id":"2856b0b9-51d1-416c-9355-834b16b624c8","meta":{"profile":["http://hl7.org/fhir/us/qicore/StructureDefinition/qicore-simple-observation"]},"status":"final","category":[{"coding":[{"system":"http://terminology.hl7.org/CodeSystem/observation-category","code":"exam","display":"exam","userSelected":true}]}],"code":{"coding":[{"system":"http://loinc.org","code":"11996-6"}]},"subject":{"reference":"Patient/0acdfbb5-024b-4ae7-bede-f3a627996733"},"effectiveDateTime":"2026-06-08T08:00:00.000+00:00","performer":[{"reference":"Organization/example1","display":"Hendricks Country Hospital"}],"valueInteger":1},"request":{"method":"PUT","url":"Observation/2856b0b9-51d1-416c-9355-834b16b624c8"}},{"fullUrl":"https://madie.cms.gov/Observation/bbb001e8-3712-4c24-9158-03fb1bef307a","resource":{"resourceType":"Observation","id":"bbb001e8-3712-4c24-9158-03fb1bef307a","meta":{"profile":["http://hl7.org/fhir/us/qicore/StructureDefinition/qicore-simple-observation"]},"status":"final","category":[{"coding":[{"system":"http://terminology.hl7.org/CodeSystem/observation-category","code":"exam","display":"exam","userSelected":true}]}],"code":{"coding":[{"system":"http://loinc.org","code":"11884-4"}]},"subject":{"reference":"Patient/0acdfbb5-024b-4ae7-bede-f3a627996733"},"effectiveDateTime":"2026-06-08T08:00:00.000+00:00","performer":[{"reference":"Organization/example1","display":"Hendricks Country Hospital"}],"valueQuantity":{"value":43,"system":"http://unitsofmeasure.org","code":"wk"}},"request":{"method":"PUT","url":"Observation/bbb001e8-3712-4c24-9158-03fb1bef307a"}},{"fullUrl":"https://madie.cms.gov/Observation/a7d44186-3761-4ee8-80bb-68bd958f7c10","resource":{"resourceType":"Observation","id":"a7d44186-3761-4ee8-80bb-68bd958f7c10","meta":{"profile":["http://hl7.org/fhir/us/qicore/StructureDefinition/qicore-simple-observation"]},"status":"final","category":[{"coding":[{"system":"http://terminology.hl7.org/CodeSystem/observation-category","code":"exam","display":"exam","userSelected":true}]}],"code":{"coding":[{"system":"http://loinc.org","code":"93857-1"}]},"subject":{"reference":"Patient/0acdfbb5-024b-4ae7-bede-f3a627996733"},"effectiveDateTime":"2026-06-08T20:00:00.000+00:00","performer":[{"reference":"Organization/example1","display":"Hendricks Country Hospital"}],"valueDateTime":"2026-06-08T20:00:00.000+00:00"},"request":{"method":"PUT","url":"Observation/a7d44186-3761-4ee8-80bb-68bd958f7c10"}},{"fullUrl":"https://madie.cms.gov/Encounter/390f1b96-ac32-4fa1-8fe7-4430c1bc8081","resource":{"resourceType":"Encounter","id":"390f1b96-ac32-4fa1-8fe7-4430c1bc8081","meta":{"profile":["http://hl7.org/fhir/us/qicore/StructureDefinition/qicore-encounter"]},"status":"finished","class":{"system":"http://terminology.hl7.org/CodeSystem/v3-ActCode","code":"IMP","display":"inpatient encounter"},"type":[{"coding":[{"system":"http://snomed.info/sct","code":"8715000"}]}],"subject":{"reference":"Patient/0acdfbb5-024b-4ae7-bede-f3a627996733"},"period":{"start":"2026-06-08T08:00:00.000+00:00","end":"2026-06-10T08:15:00.000+00:00"},"reasonCode":[{"coding":[{"system":"http://snomed.info/sct","code":"169826009","display":"Single live birth from singleton pregnancy (finding)"}]}]},"request":{"method":"PUT","url":"Encounter/390f1b96-ac32-4fa1-8fe7-4430c1bc8081"}},{"fullUrl":"https://madie.cms.gov/Procedure/4a5cbbb8-68f4-41eb-bc40-0ca3064fb782","resource":{"resourceType":"Procedure","id":"4a5cbbb8-68f4-41eb-bc40-0ca3064fb782","meta":{"profile":["http://hl7.org/fhir/us/qicore/StructureDefinition/qicore-procedure"]},"extension":[{"url":"http://hl7.org/fhir/us/qicore/StructureDefinition/qicore-recorded","valueDateTime":"2014-04-05T13:35:00.000+00:00"}],"status":"completed","code":{"coding":[{"system":"http://snomed.info/sct","code":"11466000","userSelected":true}]},"subject":{"reference":"Patient/0acdfbb5-024b-4ae7-bede-f3a627996733"},"performedDateTime":"2026-06-08T20:00:00.000+00:00"},"request":{"method":"PUT","url":"Procedure/4a5cbbb8-68f4-41eb-bc40-0ca3064fb782"}},{"fullUrl":"https://madie.cms.gov/Condition/c45c3de9-4c7f-43dc-be42-9d2254841aa3","resource":{"resourceType":"Condition","id":"c45c3de9-4c7f-43dc-be42-9d2254841aa3","meta":{"profile":["http://hl7.org/fhir/us/qicore/StructureDefinition/qicore-condition-encounter-diagnosis"]},"category":[{"coding":[{"system":"http://terminology.hl7.org/CodeSystem/condition-category","code":"encounter-diagnosis","display":"Encounter Diagnosis"}]}],"code":{"coding":[{"system":"http://snomed.info/sct","version":"2022-09","code":"169826009","display":"Single live birth (finding)","userSelected":true}]},"subject":{"reference":"Patient/0acdfbb5-024b-4ae7-bede-f3a627996733"},"encounter":{"reference":"Encounter/390f1b96-ac32-4fa1-8fe7-4430c1bc8081"},"recordedDate":"2026-10-17T08:00:00.000+00:00"},"request":{"method":"PUT","url":"Condition/c45c3de9-4c7f-43dc-be42-9d2254841aa3"}},{"fullUrl":"https://madie.cms.gov/Coverage/7ffaf7a7-2fb6-40b7-82bf-8868ce340fa9","resource":{"resourceType":"Coverage","id":"7ffaf7a7-2fb6-40b7-82bf-8868ce340fa9","meta":{"profile":["http://hl7.org/fhir/us/qicore/StructureDefinition/qicore-coverage"]},"status":"active","subscriberId":"523435","beneficiary":{"reference":"Patient/0acdfbb5-024b-4ae7-bede-f3a627996733"},"relationship":{"coding":[{"system":"http://terminology.hl7.org/CodeSystem/subscriber-relationship","code":"self"}]},"payor":[{"reference":"Organization/43b89d25-a6cf-4795-bcfd-b6c4592e8078"}]},"request":{"method":"PUT","url":"Coverage/7ffaf7a7-2fb6-40b7-82bf-8868ce340fa9"}},{"fullUrl":"https://madie.cms.gov/Organization/43b89d25-a6cf-4795-bcfd-b6c4592e8078","resource":{"resourceType":"Organization","id":"43b89d25-a6cf-4795-bcfd-b6c4592e8078","meta":{"profile":["http://hl7.org/fhir/us/qicore/StructureDefinition/qicore-organization"]},"identifier":[{"use":"temp","system":"urn:oid:2.16.840.1.113883.4.4","value":"21-3259825"}],"active":true,"type":[{"coding":[{"system":"http://terminology.hl7.org/CodeSystem/organization-type","code":"pay","display":"Payer"}]}],"name":"Blue Cross Blue Shield of Texas","telecom":[{"system":"phone","value":"(+1) 972-766-6900"}],"address":[{"use":"billing","type":"postal","line":["P.O. Box 660044"],"city":"Dallas","state":"TX","postalCode":"75266-0044","country":"USA"}]},"request":{"method":"PUT","url":"Organization/43b89d25-a6cf-4795-bcfd-b6c4592e8078"}},{"fullUrl":"https://madie.cms.gov/Practitioner/b1131987-20e2-4331-975f-cd35714203fe","resource":{"resourceType":"Practitioner","id":"b1131987-20e2-4331-975f-cd35714203fe","meta":{"profile":["http://hl7.org/fhir/us/qicore/StructureDefinition/qicore-practitioner"]},"identifier":[{"system":"http://hl7.org/fhir/sid/us-npi","value":"1234567890"}],"name":[{"family":"Evil","prefix":["Dr"]}]},"request":{"method":"PUT","url":"Practitioner/b1131987-20e2-4331-975f-cd35714203fe"}},{"fullUrl":"https://madie.cms.gov/MeasureReport/aa8ab3fc-d13e-4177-8927-17ae4015f6c2","resource":{"resourceType":"MeasureReport","id":"aa8ab3fc-d13e-4177-8927-17ae4015f6c2","meta":{"profile":["http://hl7.org/fhir/us/cqfmeasures/StructureDefinition/test-case-cqfm"]},"contained":[{"resourceType":"Parameters","id":"2f92bb2d-dc80-4e12-b7ad-e4a2bc3968bf-parameters","parameter":[{"name":"subject","valueString":"0acdfbb5-024b-4ae7-bede-f3a627996733"}]}],"extension":[{"url":"http://hl7.org/fhir/StructureDefinition/cqf-inputParameters","valueReference":{"reference":"#2f92bb2d-dc80-4e12-b7ad-e4a2bc3968bf-parameters"}},{"url":"http://hl7.org/fhir/us/cqfmeasures/StructureDefinition/cqfm-testCaseDescription","valueMarkdown":"EGA 43 weeks; Placenta previa not on encounter, gravida 1, \n"}],"modifierExtension":[{"url":"http://hl7.org/fhir/us/cqfmeasures/StructureDefinition/cqfm-isTestCase","valueBoolean":true}],"status":"complete","type":"individual","measure":"https://madie.cms.gov/Measure/CMS0334FHIRPCCesareanBirth","period":{"start":"2026-01-01","end":"2026-12-31"},"group":[{"id":"Group_1","population":[{"id":"InitialPopulation_1","code":{"coding":[{"system":"http://terminology.hl7.org/CodeSystem/measure-population","code":"initial-population","display":"Initial Population"}]},"count":1},{"id":"Denominator_1","code":{"coding":[{"system":"http://terminology.hl7.org/CodeSystem/measure-population","code":"denominator","display":"Denominator"}]},"count":1},{"id":"DenominatorExclusion_1","code":{"coding":[{"system":"http://terminology.hl7.org/CodeSystem/measure-population","code":"denominator-exclusion","display":"Denominator Exclusion"}]},"count":0},{"id":"Numerator_1","code":{"coding":[{"system":"http://terminology.hl7.org/CodeSystem/measure-population","code":"numerator","display":"Numerator"}]},"count":1}],"measureScore":{"value":0.0}}],"evaluatedResource":[{"reference":"Patient/0acdfbb5-024b-4ae7-bede-f3a627996733"},{"reference":"Observation/2856b0b9-51d1-416c-9355-834b16b624c8"},{"reference":"Observation/bbb001e8-3712-4c24-9158-03fb1bef307a"},{"reference":"Observation/a7d44186-3761-4ee8-80bb-68bd958f7c10"},{"reference":"Encounter/390f1b96-ac32-4fa1-8fe7-4430c1bc8081"},{"reference":"Procedure/4a5cbbb8-68f4-41eb-bc40-0ca3064fb782"},{"reference":"Condition/c45c3de9-4c7f-43dc-be42-9d2254841aa3"},{"reference":"Coverage/7ffaf7a7-2fb6-40b7-82bf-8868ce340fa9"},{"reference":"Organization/43b89d25-a6cf-4795-bcfd-b6c4592e8078"},{"reference":"Practitioner/b1131987-20e2-4331-975f-cd35714203fe"}]},"request":{"method":"PUT","url":"MeasureReport/aa8ab3fc-d13e-4177-8927-17ae4015f6c2"}}]},"request":{"method":"PUT","url":"Bundle/63487c300968f801225401bf"}}]}