{"resourceType":"Bundle","id":"tests-c3028ba0-bc40-4c4a-92da-8ac76bab737b-bundle","type":"transaction","entry":[{"fullUrl":"MeasureReport/7c304035-ce49-4d7f-a0cb-b164696d6605","resource":{"resourceType":"MeasureReport","id":"7c304035-ce49-4d7f-a0cb-b164696d6605","meta":{"profile":["http://hl7.org/fhir/us/cqfmeasures/StructureDefinition/test-case-cqfm"]},"contained":[{"resourceType":"Parameters","id":"98bfb8ac-30bf-4fca-8754-d3a00e62bbac-parameters","parameter":[{"name":"subject","valueString":"c3028ba0-bc40-4c4a-92da-8ac76bab737b"}]}],"extension":[{"url":"http://hl7.org/fhir/StructureDefinition/cqf-inputParameters","valueReference":{"reference":"#98bfb8ac-30bf-4fca-8754-d3a00e62bbac-parameters"}},{"url":"http://hl7.org/fhir/us/cqfmeasures/StructureDefinition/cqfm-testCaseDescription","valueMarkdown":"Passes IP. DeliveryProcedures.relevantPeriod starts during QualifyingEncounters.relevantPeriod.  (Delivery procedure start Equal To end of inpt enc.)\n"}],"modifierExtension":[{"url":"http://hl7.org/fhir/us/cqfmeasures/StructureDefinition/cqfm-isTestCase","valueBoolean":true}],"status":"complete","type":"individual","measure":"https://madie.cms.gov/Measure/CMS0334FHIRPCCesareanBirth","period":{"start":"2026-01-01","end":"2026-12-31"},"group":[{"id":"Group_1","population":[{"id":"InitialPopulation_1","code":{"coding":[{"system":"http://terminology.hl7.org/CodeSystem/measure-population","code":"initial-population","display":"Initial Population"}]},"count":1},{"id":"Denominator_1","code":{"coding":[{"system":"http://terminology.hl7.org/CodeSystem/measure-population","code":"denominator","display":"Denominator"}]},"count":0},{"id":"DenominatorExclusion_1","code":{"coding":[{"system":"http://terminology.hl7.org/CodeSystem/measure-population","code":"denominator-exclusion","display":"Denominator Exclusion"}]},"count":0},{"id":"Numerator_1","code":{"coding":[{"system":"http://terminology.hl7.org/CodeSystem/measure-population","code":"numerator","display":"Numerator"}]},"count":0}],"measureScore":{"value":0.0}}],"evaluatedResource":[{"reference":"Patient/c3028ba0-bc40-4c4a-92da-8ac76bab737b"},{"reference":"Encounter/56628242-3871-4ae8-8321-630f09cd3f82"},{"reference":"Procedure/ca7a4599-cbd6-4bfb-851d-8ae60d84011c"},{"reference":"Coverage/fe2ce769-21e5-4273-945c-df1ed10c99a7"},{"reference":"Organization/387be158-d0ce-4afe-b6e5-2baf1b3d9172"},{"reference":"Practitioner/61dc2537-3395-4151-a59a-2b7dfddc5e6f"}]},"request":{"method":"PUT","url":"MeasureReport/7c304035-ce49-4d7f-a0cb-b164696d6605"}},{"fullUrl":"Patient/c3028ba0-bc40-4c4a-92da-8ac76bab737b","resource":{"resourceType":"Patient","id":"c3028ba0-bc40-4c4a-92da-8ac76bab737b","meta":{"profile":["http://hl7.org/fhir/us/qicore/StructureDefinition/qicore-patient"]},"text":{"status":"generated","div":"<div xmlns=\"http://www.w3.org/1999/xhtml\"><div class=\"hapiHeaderText\">ProcDelivStartAtEncInpEnd<b>IPOPPass</b></div><table class=\"hapiPropertyTable\"><tbody><tr><td>Identifier</td><td>e52bebbea37da9e58220169c934712d3775011ee8980693450fdc663698cbf06</td></tr><tr><td>Date of birth</td><td><span>14 February 1984</span></td></tr></tbody></table></div>"},"extension":[{"url":"http://hl7.org/fhir/us/core/StructureDefinition/us-core-race","extension":[{"url":"ombCategory","valueCoding":{"system":"urn:oid:2.16.840.1.113883.6.238","code":"1002-5","display":"American Indian or Alaska Native","userSelected":true}},{"url":"text","valueString":"American Indian or Alaska Native"}]},{"url":"http://hl7.org/fhir/us/core/StructureDefinition/us-core-ethnicity","extension":[{"url":"ombCategory","valueCoding":{"system":"urn:oid:2.16.840.1.113883.6.238","code":"2135-2","display":"Hispanic or Latino","userSelected":true}},{"url":"text","valueString":"Hispanic or Latino"}]}],"identifier":[{"type":{"coding":[{"system":"http://terminology.hl7.org/CodeSystem/v2-0203","code":"MR"}]},"system":"https://bonnie-fhir.healthit.gov/","value":"63487c2f0968f8012254018e"}],"active":true,"name":[{"use":"usual","family":"IPOPPass","given":["ProcDelivStartAtEncInpEnd"]}],"gender":"female","birthDate":"1997-02-14"},"request":{"method":"PUT","url":"Patient/c3028ba0-bc40-4c4a-92da-8ac76bab737b"}},{"fullUrl":"Bundle/63487c2f0968f8012254018e","resource":{"resourceType":"Bundle","id":"63487c2f0968f8012254018e","type":"transaction","entry":[{"fullUrl":"https://madie.cms.gov/Patient/c3028ba0-bc40-4c4a-92da-8ac76bab737b","resource":{"resourceType":"Patient","id":"c3028ba0-bc40-4c4a-92da-8ac76bab737b","meta":{"profile":["http://hl7.org/fhir/us/qicore/StructureDefinition/qicore-patient"]},"text":{"status":"generated","div":"<div xmlns=\"http://www.w3.org/1999/xhtml\"><div class=\"hapiHeaderText\">ProcDelivStartAtEncInpEnd<b>IPOPPass</b></div><table class=\"hapiPropertyTable\"><tbody><tr><td>Identifier</td><td>e52bebbea37da9e58220169c934712d3775011ee8980693450fdc663698cbf06</td></tr><tr><td>Date of birth</td><td><span>14 February 1984</span></td></tr></tbody></table></div>"},"extension":[{"url":"http://hl7.org/fhir/us/core/StructureDefinition/us-core-race","extension":[{"url":"ombCategory","valueCoding":{"system":"urn:oid:2.16.840.1.113883.6.238","code":"1002-5","display":"American Indian or Alaska Native","userSelected":true}},{"url":"text","valueString":"American Indian or Alaska Native"}]},{"url":"http://hl7.org/fhir/us/core/StructureDefinition/us-core-ethnicity","extension":[{"url":"ombCategory","valueCoding":{"system":"urn:oid:2.16.840.1.113883.6.238","code":"2135-2","display":"Hispanic or Latino","userSelected":true}},{"url":"text","valueString":"Hispanic or Latino"}]}],"identifier":[{"type":{"coding":[{"system":"http://terminology.hl7.org/CodeSystem/v2-0203","code":"MR"}]},"system":"https://bonnie-fhir.healthit.gov/","value":"63487c2f0968f8012254018e"}],"active":true,"name":[{"use":"usual","family":"IPOPPass","given":["ProcDelivStartAtEncInpEnd"]}],"gender":"female","birthDate":"1997-02-14"},"request":{"method":"PUT","url":"Patient/c3028ba0-bc40-4c4a-92da-8ac76bab737b"}},{"fullUrl":"https://madie.cms.gov/Encounter/56628242-3871-4ae8-8321-630f09cd3f82","resource":{"resourceType":"Encounter","id":"56628242-3871-4ae8-8321-630f09cd3f82","meta":{"profile":["http://hl7.org/fhir/us/qicore/StructureDefinition/qicore-encounter"]},"status":"finished","class":{"system":"http://terminology.hl7.org/CodeSystem/v3-ActCode","code":"IMP","display":"inpatient encounter"},"type":[{"coding":[{"system":"http://snomed.info/sct","code":"8715000"}]}],"subject":{"reference":"Patient/c3028ba0-bc40-4c4a-92da-8ac76bab737b"},"period":{"start":"2026-11-28T08:00:00.000+00:00","end":"2026-11-30T08:15:00.000+00:00"},"diagnosis":[{"condition":{"reference":"Condition/Condition-2"},"use":{"coding":[{"system":"http://snomed.info/sct","code":"169826009","display":"Single live birth from singleton pregnancy (finding)"}]}}]},"request":{"method":"PUT","url":"Encounter/56628242-3871-4ae8-8321-630f09cd3f82"}},{"fullUrl":"https://madie.cms.gov/Procedure/ca7a4599-cbd6-4bfb-851d-8ae60d84011c","resource":{"resourceType":"Procedure","id":"ca7a4599-cbd6-4bfb-851d-8ae60d84011c","meta":{"profile":["http://hl7.org/fhir/us/qicore/StructureDefinition/qicore-procedure"]},"extension":[{"url":"http://hl7.org/fhir/us/qicore/StructureDefinition/qicore-recorded","valueDateTime":"2014-04-05T13:35:00.000+00:00"}],"status":"completed","code":{"coding":[{"system":"http://snomed.info/sct","version":"2022-09","code":"10745001","display":"Delivery of transverse presentation (procedure)","userSelected":true}]},"subject":{"reference":"Patient/c3028ba0-bc40-4c4a-92da-8ac76bab737b"},"performedPeriod":{"start":"2026-11-30T08:15:00.000+00:00","end":"2026-11-30T09:00:00.000+00:00"}},"request":{"method":"PUT","url":"Procedure/ca7a4599-cbd6-4bfb-851d-8ae60d84011c"}},{"fullUrl":"https://madie.cms.gov/Coverage/fe2ce769-21e5-4273-945c-df1ed10c99a7","resource":{"resourceType":"Coverage","id":"fe2ce769-21e5-4273-945c-df1ed10c99a7","meta":{"profile":["http://hl7.org/fhir/us/qicore/StructureDefinition/qicore-coverage"]},"status":"active","subscriberId":"523435","beneficiary":{"reference":"Patient/c3028ba0-bc40-4c4a-92da-8ac76bab737b"},"relationship":{"coding":[{"system":"http://terminology.hl7.org/CodeSystem/subscriber-relationship","code":"self"}]},"payor":[{"reference":"Organization/387be158-d0ce-4afe-b6e5-2baf1b3d9172"}]},"request":{"method":"PUT","url":"Coverage/fe2ce769-21e5-4273-945c-df1ed10c99a7"}},{"fullUrl":"https://madie.cms.gov/Organization/387be158-d0ce-4afe-b6e5-2baf1b3d9172","resource":{"resourceType":"Organization","id":"387be158-d0ce-4afe-b6e5-2baf1b3d9172","meta":{"profile":["http://hl7.org/fhir/us/qicore/StructureDefinition/qicore-organization"]},"identifier":[{"use":"temp","system":"urn:oid:2.16.840.1.113883.4.4","value":"21-3259825"}],"active":true,"type":[{"coding":[{"system":"http://terminology.hl7.org/CodeSystem/organization-type","code":"pay","display":"Payer"}]}],"name":"Blue Cross Blue Shield of Texas","telecom":[{"system":"phone","value":"(+1) 972-766-6900"}],"address":[{"use":"billing","type":"postal","line":["P.O. Box 660044"],"city":"Dallas","state":"TX","postalCode":"75266-0044","country":"USA"}]},"request":{"method":"PUT","url":"Organization/387be158-d0ce-4afe-b6e5-2baf1b3d9172"}},{"fullUrl":"https://madie.cms.gov/Practitioner/61dc2537-3395-4151-a59a-2b7dfddc5e6f","resource":{"resourceType":"Practitioner","id":"61dc2537-3395-4151-a59a-2b7dfddc5e6f","meta":{"profile":["http://hl7.org/fhir/us/qicore/StructureDefinition/qicore-practitioner"]},"identifier":[{"system":"http://hl7.org/fhir/sid/us-npi","value":"1234567890"}],"name":[{"family":"Evil","prefix":["Dr"]}]},"request":{"method":"PUT","url":"Practitioner/61dc2537-3395-4151-a59a-2b7dfddc5e6f"}},{"fullUrl":"https://madie.cms.gov/MeasureReport/7c304035-ce49-4d7f-a0cb-b164696d6605","resource":{"resourceType":"MeasureReport","id":"7c304035-ce49-4d7f-a0cb-b164696d6605","meta":{"profile":["http://hl7.org/fhir/us/cqfmeasures/StructureDefinition/test-case-cqfm"]},"contained":[{"resourceType":"Parameters","id":"98bfb8ac-30bf-4fca-8754-d3a00e62bbac-parameters","parameter":[{"name":"subject","valueString":"c3028ba0-bc40-4c4a-92da-8ac76bab737b"}]}],"extension":[{"url":"http://hl7.org/fhir/StructureDefinition/cqf-inputParameters","valueReference":{"reference":"#98bfb8ac-30bf-4fca-8754-d3a00e62bbac-parameters"}},{"url":"http://hl7.org/fhir/us/cqfmeasures/StructureDefinition/cqfm-testCaseDescription","valueMarkdown":"Passes IP. DeliveryProcedures.relevantPeriod starts during QualifyingEncounters.relevantPeriod.  (Delivery procedure start Equal To end of inpt enc.)\n"}],"modifierExtension":[{"url":"http://hl7.org/fhir/us/cqfmeasures/StructureDefinition/cqfm-isTestCase","valueBoolean":true}],"status":"complete","type":"individual","measure":"https://madie.cms.gov/Measure/CMS0334FHIRPCCesareanBirth","period":{"start":"2026-01-01","end":"2026-12-31"},"group":[{"id":"Group_1","population":[{"id":"InitialPopulation_1","code":{"coding":[{"system":"http://terminology.hl7.org/CodeSystem/measure-population","code":"initial-population","display":"Initial Population"}]},"count":1},{"id":"Denominator_1","code":{"coding":[{"system":"http://terminology.hl7.org/CodeSystem/measure-population","code":"denominator","display":"Denominator"}]},"count":0},{"id":"DenominatorExclusion_1","code":{"coding":[{"system":"http://terminology.hl7.org/CodeSystem/measure-population","code":"denominator-exclusion","display":"Denominator Exclusion"}]},"count":0},{"id":"Numerator_1","code":{"coding":[{"system":"http://terminology.hl7.org/CodeSystem/measure-population","code":"numerator","display":"Numerator"}]},"count":0}],"measureScore":{"value":0.0}}],"evaluatedResource":[{"reference":"Patient/c3028ba0-bc40-4c4a-92da-8ac76bab737b"},{"reference":"Encounter/56628242-3871-4ae8-8321-630f09cd3f82"},{"reference":"Procedure/ca7a4599-cbd6-4bfb-851d-8ae60d84011c"},{"reference":"Coverage/fe2ce769-21e5-4273-945c-df1ed10c99a7"},{"reference":"Organization/387be158-d0ce-4afe-b6e5-2baf1b3d9172"},{"reference":"Practitioner/61dc2537-3395-4151-a59a-2b7dfddc5e6f"}]},"request":{"method":"PUT","url":"MeasureReport/7c304035-ce49-4d7f-a0cb-b164696d6605"}}]},"request":{"method":"PUT","url":"Bundle/63487c2f0968f8012254018e"}},{"fullUrl":"Coverage/fe2ce769-21e5-4273-945c-df1ed10c99a7","resource":{"resourceType":"Coverage","id":"fe2ce769-21e5-4273-945c-df1ed10c99a7","meta":{"profile":["http://hl7.org/fhir/us/qicore/StructureDefinition/qicore-coverage"]},"status":"active","subscriberId":"523435","beneficiary":{"reference":"Patient/c3028ba0-bc40-4c4a-92da-8ac76bab737b"},"relationship":{"coding":[{"system":"http://terminology.hl7.org/CodeSystem/subscriber-relationship","code":"self"}]},"payor":[{"reference":"Organization/387be158-d0ce-4afe-b6e5-2baf1b3d9172"}]},"request":{"method":"PUT","url":"Coverage/fe2ce769-21e5-4273-945c-df1ed10c99a7"}},{"fullUrl":"Encounter/56628242-3871-4ae8-8321-630f09cd3f82","resource":{"resourceType":"Encounter","id":"56628242-3871-4ae8-8321-630f09cd3f82","meta":{"profile":["http://hl7.org/fhir/us/qicore/StructureDefinition/qicore-encounter"]},"status":"finished","class":{"system":"http://terminology.hl7.org/CodeSystem/v3-ActCode","code":"IMP","display":"inpatient encounter"},"type":[{"coding":[{"system":"http://snomed.info/sct","code":"8715000"}]}],"subject":{"reference":"Patient/c3028ba0-bc40-4c4a-92da-8ac76bab737b"},"period":{"start":"2026-11-28T08:00:00.000+00:00","end":"2026-11-30T08:15:00.000+00:00"},"diagnosis":[{"condition":{"reference":"Condition/Condition-2"},"use":{"coding":[{"system":"http://snomed.info/sct","code":"169826009","display":"Single live birth from singleton pregnancy (finding)"}]}}]},"request":{"method":"PUT","url":"Encounter/56628242-3871-4ae8-8321-630f09cd3f82"}},{"fullUrl":"Organization/387be158-d0ce-4afe-b6e5-2baf1b3d9172","resource":{"resourceType":"Organization","id":"387be158-d0ce-4afe-b6e5-2baf1b3d9172","meta":{"profile":["http://hl7.org/fhir/us/qicore/StructureDefinition/qicore-organization"]},"identifier":[{"use":"temp","system":"urn:oid:2.16.840.1.113883.4.4","value":"21-3259825"}],"active":true,"type":[{"coding":[{"system":"http://terminology.hl7.org/CodeSystem/organization-type","code":"pay","display":"Payer"}]}],"name":"Blue Cross Blue Shield of Texas","telecom":[{"system":"phone","value":"(+1) 972-766-6900"}],"address":[{"use":"billing","type":"postal","line":["P.O. Box 660044"],"city":"Dallas","state":"TX","postalCode":"75266-0044","country":"USA"}]},"request":{"method":"PUT","url":"Organization/387be158-d0ce-4afe-b6e5-2baf1b3d9172"}},{"fullUrl":"Practitioner/61dc2537-3395-4151-a59a-2b7dfddc5e6f","resource":{"resourceType":"Practitioner","id":"61dc2537-3395-4151-a59a-2b7dfddc5e6f","meta":{"profile":["http://hl7.org/fhir/us/qicore/StructureDefinition/qicore-practitioner"]},"identifier":[{"system":"http://hl7.org/fhir/sid/us-npi","value":"1234567890"}],"name":[{"family":"Evil","prefix":["Dr"]}]},"request":{"method":"PUT","url":"Practitioner/61dc2537-3395-4151-a59a-2b7dfddc5e6f"}},{"fullUrl":"Procedure/ca7a4599-cbd6-4bfb-851d-8ae60d84011c","resource":{"resourceType":"Procedure","id":"ca7a4599-cbd6-4bfb-851d-8ae60d84011c","meta":{"profile":["http://hl7.org/fhir/us/qicore/StructureDefinition/qicore-procedure"]},"extension":[{"url":"http://hl7.org/fhir/us/qicore/StructureDefinition/qicore-recorded","valueDateTime":"2014-04-05T13:35:00.000+00:00"}],"status":"completed","code":{"coding":[{"system":"http://snomed.info/sct","version":"2022-09","code":"10745001","display":"Delivery of transverse presentation (procedure)","userSelected":true}]},"subject":{"reference":"Patient/c3028ba0-bc40-4c4a-92da-8ac76bab737b"},"performedPeriod":{"start":"2026-11-30T08:15:00.000+00:00","end":"2026-11-30T09:00:00.000+00:00"}},"request":{"method":"PUT","url":"Procedure/ca7a4599-cbd6-4bfb-851d-8ae60d84011c"}}]}