{"resourceType":"Bundle","id":"tests-97d0a68f-69d6-41cb-b369-dacef5afef50-bundle","type":"transaction","entry":[{"fullUrl":"Observation/0ab56150-c77e-4639-99d8-825fea235b22","resource":{"resourceType":"Observation","id":"0ab56150-c77e-4639-99d8-825fea235b22","meta":{"profile":["http://hl7.org/fhir/us/qicore/StructureDefinition/qicore-simple-observation"]},"status":"final","category":[{"coding":[{"system":"http://terminology.hl7.org/CodeSystem/observation-category","code":"exam","display":"exam","userSelected":true}]}],"code":{"coding":[{"system":"http://loinc.org","code":"11637-6"}]},"subject":{"reference":"Patient/97d0a68f-69d6-41cb-b369-dacef5afef50"},"effectiveDateTime":"2026-06-08T20:00:00.000+00:00","valueInteger":0},"request":{"method":"PUT","url":"Observation/0ab56150-c77e-4639-99d8-825fea235b22"}},{"fullUrl":"Encounter/13ef6e4a-4db2-4a75-9a95-4b5351f2cf95","resource":{"resourceType":"Encounter","id":"13ef6e4a-4db2-4a75-9a95-4b5351f2cf95","meta":{"profile":["http://hl7.org/fhir/us/qicore/StructureDefinition/qicore-encounter"]},"status":"finished","class":{"system":"http://terminology.hl7.org/CodeSystem/v3-ActCode","code":"IMP","display":"inpatient encounter"},"type":[{"coding":[{"system":"http://snomed.info/sct","code":"8715000"}]}],"subject":{"reference":"Patient/97d0a68f-69d6-41cb-b369-dacef5afef50"},"period":{"start":"2026-06-08T08:00:00.000+00:00","end":"2026-06-10T08:15:00.000+00:00"},"length":{"value":2,"unit":"days"},"reasonReference":[{"reference":"Condition/36972727-6984-46f0-80b2-957fd43b0738"}]},"request":{"method":"PUT","url":"Encounter/13ef6e4a-4db2-4a75-9a95-4b5351f2cf95"}},{"fullUrl":"Organization/47d99413-2acc-47d4-adba-9c158516264a","resource":{"resourceType":"Organization","id":"47d99413-2acc-47d4-adba-9c158516264a","meta":{"profile":["http://hl7.org/fhir/us/qicore/StructureDefinition/qicore-organization"]},"identifier":[{"use":"temp","system":"urn:oid:2.16.840.1.113883.4.4","value":"21-3259825"}],"active":true,"type":[{"coding":[{"system":"http://terminology.hl7.org/CodeSystem/organization-type","code":"pay","display":"Payer"}]}],"name":"Blue Cross Blue Shield of Texas","telecom":[{"system":"phone","value":"(+1) 972-766-6900"}],"address":[{"use":"billing","type":"postal","line":["P.O. Box 660044"],"city":"Dallas","state":"TX","postalCode":"75266-0044","country":"USA"}]},"request":{"method":"PUT","url":"Organization/47d99413-2acc-47d4-adba-9c158516264a"}},{"fullUrl":"Coverage/c9f17f41-d3f9-490c-a6d1-285bbe0f95b4","resource":{"resourceType":"Coverage","id":"c9f17f41-d3f9-490c-a6d1-285bbe0f95b4","meta":{"profile":["http://hl7.org/fhir/us/qicore/StructureDefinition/qicore-coverage"]},"status":"active","subscriberId":"523435","beneficiary":{"reference":"Patient/97d0a68f-69d6-41cb-b369-dacef5afef50"},"relationship":{"coding":[{"system":"http://terminology.hl7.org/CodeSystem/subscriber-relationship","code":"self"}]},"payor":[{"reference":"Organization/47d99413-2acc-47d4-adba-9c158516264a"}]},"request":{"method":"PUT","url":"Coverage/c9f17f41-d3f9-490c-a6d1-285bbe0f95b4"}},{"fullUrl":"Observation/38c5b6f3-3ac5-430c-80f0-a6287298e935","resource":{"resourceType":"Observation","id":"38c5b6f3-3ac5-430c-80f0-a6287298e935","meta":{"profile":["http://hl7.org/fhir/us/qicore/StructureDefinition/qicore-simple-observation"]},"status":"final","category":[{"coding":[{"system":"http://terminology.hl7.org/CodeSystem/observation-category","code":"exam","display":"exam","userSelected":true}]}],"code":{"coding":[{"system":"http://loinc.org","code":"93857-1"}]},"subject":{"reference":"Patient/97d0a68f-69d6-41cb-b369-dacef5afef50"},"effectiveDateTime":"2026-06-08T20:00:00.000+00:00","valueDateTime":"2026-06-08T20:00:00.000+00:00"},"request":{"method":"PUT","url":"Observation/38c5b6f3-3ac5-430c-80f0-a6287298e935"}},{"fullUrl":"Patient/97d0a68f-69d6-41cb-b369-dacef5afef50","resource":{"resourceType":"Patient","id":"97d0a68f-69d6-41cb-b369-dacef5afef50","meta":{"profile":["http://hl7.org/fhir/us/qicore/StructureDefinition/qicore-patient"]},"text":{"status":"generated","div":"<div xmlns=\"http://www.w3.org/1999/xhtml\"><div class=\"hapiHeaderText\">AssessPreTerm0RelDtTimeEQTimeOfDeliv <b>DENOMFail</b></div><table class=\"hapiPropertyTable\"><tbody><tr><td>Identifier</td><td>21cab5939e6bb47c04798dd477e91be28cac4144bde9f0e7b54700273d8719cc</td></tr><tr><td>Date of birth</td><td><span>14 February 1985</span></td></tr></tbody></table></div>"},"extension":[{"url":"http://hl7.org/fhir/us/core/StructureDefinition/us-core-race","extension":[{"url":"ombCategory","valueCoding":{"system":"urn:oid:2.16.840.1.113883.6.238","code":"1002-5","display":"American Indian or Alaska Native","userSelected":true}},{"url":"text","valueString":"American Indian or Alaska Native"}]},{"url":"http://hl7.org/fhir/us/core/StructureDefinition/us-core-ethnicity","extension":[{"url":"ombCategory","valueCoding":{"system":"urn:oid:2.16.840.1.113883.6.238","code":"2135-2","display":"Hispanic or Latino","userSelected":true}},{"url":"text","valueString":"Hispanic or Latino"}]}],"identifier":[{"type":{"coding":[{"system":"http://terminology.hl7.org/CodeSystem/v2-0203","code":"MR"}]},"system":"https://bonnie-fhir.healthit.gov/","value":"63487c2d0968f80122540150"}],"active":true,"name":[{"use":"usual","family":"DENOMFail","given":["AssessPreTerm0RelDtTimeEQTimeOfDeliv"]}],"gender":"female","birthDate":"1998-02-14"},"request":{"method":"PUT","url":"Patient/97d0a68f-69d6-41cb-b369-dacef5afef50"}},{"fullUrl":"Observation/98ca3eb8-f283-4508-8359-ec9110f4efff","resource":{"resourceType":"Observation","id":"98ca3eb8-f283-4508-8359-ec9110f4efff","meta":{"profile":["http://hl7.org/fhir/us/qicore/StructureDefinition/qicore-simple-observation"]},"status":"final","category":[{"coding":[{"system":"http://terminology.hl7.org/CodeSystem/observation-category","code":"exam","display":"exam","userSelected":true}]}],"code":{"coding":[{"system":"http://loinc.org","code":"11639-2"}]},"subject":{"reference":"Patient/97d0a68f-69d6-41cb-b369-dacef5afef50"},"effectiveDateTime":"2025-09-19T09:00:00.000+00:00","valueInteger":0},"request":{"method":"PUT","url":"Observation/98ca3eb8-f283-4508-8359-ec9110f4efff"}},{"fullUrl":"MeasureReport/016b16e9-7411-4413-8067-2d78a7326324","resource":{"resourceType":"MeasureReport","id":"016b16e9-7411-4413-8067-2d78a7326324","meta":{"profile":["http://hl7.org/fhir/us/cqfmeasures/StructureDefinition/test-case-cqfm"]},"contained":[{"resourceType":"Parameters","id":"c8013132-6527-49fa-bfa7-fd07147de3bb-parameters","parameter":[{"name":"subject","valueString":"97d0a68f-69d6-41cb-b369-dacef5afef50"}]}],"extension":[{"url":"http://hl7.org/fhir/StructureDefinition/cqf-inputParameters","valueReference":{"reference":"#c8013132-6527-49fa-bfa7-fd07147de3bb-parameters"}},{"url":"http://hl7.org/fhir/us/cqfmeasures/StructureDefinition/cqfm-testCaseDescription","valueMarkdown":"\"Term Newborn=0,  <42wks B4 Asse delivery.\nPreterm=0, rel date/time same date and time as Asse delivery Datetime.  Fails"}],"modifierExtension":[{"url":"http://hl7.org/fhir/us/cqfmeasures/StructureDefinition/cqfm-isTestCase","valueBoolean":true}],"status":"complete","type":"individual","measure":"https://madie.cms.gov/Measure/CMS0334FHIRPCCesareanBirth","period":{"start":"2026-01-01","end":"2026-12-31"},"group":[{"id":"Group_1","population":[{"id":"InitialPopulation_1","code":{"coding":[{"system":"http://terminology.hl7.org/CodeSystem/measure-population","code":"initial-population","display":"Initial Population"}]},"count":1},{"id":"Denominator_1","code":{"coding":[{"system":"http://terminology.hl7.org/CodeSystem/measure-population","code":"denominator","display":"Denominator"}]},"count":0},{"id":"DenominatorExclusion_1","code":{"coding":[{"system":"http://terminology.hl7.org/CodeSystem/measure-population","code":"denominator-exclusion","display":"Denominator Exclusion"}]},"count":0},{"id":"Numerator_1","code":{"coding":[{"system":"http://terminology.hl7.org/CodeSystem/measure-population","code":"numerator","display":"Numerator"}]},"count":0}],"measureScore":{"value":0.0}}],"evaluatedResource":[{"reference":"Patient/97d0a68f-69d6-41cb-b369-dacef5afef50"},{"reference":"Observation/98ca3eb8-f283-4508-8359-ec9110f4efff"},{"reference":"Observation/0ab56150-c77e-4639-99d8-825fea235b22"},{"reference":"Observation/c5ca8d7c-4953-45f3-b1fd-2ebaed62308e"},{"reference":"Observation/38c5b6f3-3ac5-430c-80f0-a6287298e935"},{"reference":"Encounter/13ef6e4a-4db2-4a75-9a95-4b5351f2cf95"},{"reference":"Procedure/7119faf1-038c-481f-9e9b-1f38933bfaf3"},{"reference":"Condition/36972727-6984-46f0-80b2-957fd43b0738"},{"reference":"Coverage/c9f17f41-d3f9-490c-a6d1-285bbe0f95b4"},{"reference":"Organization/47d99413-2acc-47d4-adba-9c158516264a"},{"reference":"Practitioner/0f98731b-59f6-4c99-a165-25fac3aede7c"}]},"request":{"method":"PUT","url":"MeasureReport/016b16e9-7411-4413-8067-2d78a7326324"}},{"fullUrl":"Procedure/7119faf1-038c-481f-9e9b-1f38933bfaf3","resource":{"resourceType":"Procedure","id":"7119faf1-038c-481f-9e9b-1f38933bfaf3","meta":{"profile":["http://hl7.org/fhir/us/qicore/StructureDefinition/qicore-procedure"]},"extension":[{"url":"http://hl7.org/fhir/us/qicore/StructureDefinition/qicore-recorded","valueDateTime":"2014-04-05T13:35:00.000+00:00"}],"status":"completed","code":{"coding":[{"system":"http://www.cms.gov/Medicare/Coding/ICD10","code":"10D00Z0"},{"system":"http://snomed.info/sct","code":"4504004"},{"system":"http://www.icd10data.com/icd10pcs","code":"10D00Z0","userSelected":true}]},"subject":{"reference":"Patient/97d0a68f-69d6-41cb-b369-dacef5afef50"},"performedPeriod":{"start":"2026-06-08T20:00:00.000+00:00","end":"2026-06-08T20:15:00.000+00:00"}},"request":{"method":"PUT","url":"Procedure/7119faf1-038c-481f-9e9b-1f38933bfaf3"}},{"fullUrl":"Observation/c5ca8d7c-4953-45f3-b1fd-2ebaed62308e","resource":{"resourceType":"Observation","id":"c5ca8d7c-4953-45f3-b1fd-2ebaed62308e","meta":{"profile":["http://hl7.org/fhir/us/qicore/StructureDefinition/qicore-simple-observation"]},"status":"final","category":[{"coding":[{"system":"http://terminology.hl7.org/CodeSystem/observation-category","code":"exam","display":"exam","userSelected":true}]}],"code":{"coding":[{"system":"http://loinc.org","code":"11884-4"}]},"subject":{"reference":"Patient/97d0a68f-69d6-41cb-b369-dacef5afef50"},"effectiveDateTime":"2026-06-08T20:00:00.000+00:00","valueQuantity":{"value":37,"system":"http://unitsofmeasure.org","code":"wk"}},"request":{"method":"PUT","url":"Observation/c5ca8d7c-4953-45f3-b1fd-2ebaed62308e"}},{"fullUrl":"Practitioner/0f98731b-59f6-4c99-a165-25fac3aede7c","resource":{"resourceType":"Practitioner","id":"0f98731b-59f6-4c99-a165-25fac3aede7c","meta":{"profile":["http://hl7.org/fhir/us/qicore/StructureDefinition/qicore-practitioner"]},"identifier":[{"system":"http://hl7.org/fhir/sid/us-npi","value":"1234567890"}],"name":[{"family":"Evil","prefix":["Dr"]}]},"request":{"method":"PUT","url":"Practitioner/0f98731b-59f6-4c99-a165-25fac3aede7c"}},{"fullUrl":"Condition/36972727-6984-46f0-80b2-957fd43b0738","resource":{"resourceType":"Condition","id":"36972727-6984-46f0-80b2-957fd43b0738","meta":{"profile":["http://hl7.org/fhir/us/qicore/StructureDefinition/qicore-condition-encounter-diagnosis"]},"category":[{"coding":[{"system":"http://terminology.hl7.org/CodeSystem/condition-category","code":"encounter-diagnosis","display":"Encounter Diagnosis"}]}],"code":{"coding":[{"system":"http://snomed.info/sct","version":"2022-09","code":"169826009","display":"Single live birth from singleton pregnancy (finding)","userSelected":true}]},"subject":{"reference":"Patient/97d0a68f-69d6-41cb-b369-dacef5afef50"},"encounter":{"reference":"Encounter/13ef6e4a-4db2-4a75-9a95-4b5351f2cf95"},"recordedDate":"2026-10-21T08:00:00.000+00:00"},"request":{"method":"PUT","url":"Condition/36972727-6984-46f0-80b2-957fd43b0738"}},{"fullUrl":"Bundle/63487c2d0968f80122540150","resource":{"resourceType":"Bundle","id":"63487c2d0968f80122540150","type":"transaction","entry":[{"fullUrl":"https://madie.cms.gov/Patient/97d0a68f-69d6-41cb-b369-dacef5afef50","resource":{"resourceType":"Patient","id":"97d0a68f-69d6-41cb-b369-dacef5afef50","meta":{"profile":["http://hl7.org/fhir/us/qicore/StructureDefinition/qicore-patient"]},"text":{"status":"generated","div":"<div xmlns=\"http://www.w3.org/1999/xhtml\"><div class=\"hapiHeaderText\">AssessPreTerm0RelDtTimeEQTimeOfDeliv <b>DENOMFail</b></div><table class=\"hapiPropertyTable\"><tbody><tr><td>Identifier</td><td>21cab5939e6bb47c04798dd477e91be28cac4144bde9f0e7b54700273d8719cc</td></tr><tr><td>Date of birth</td><td><span>14 February 1985</span></td></tr></tbody></table></div>"},"extension":[{"url":"http://hl7.org/fhir/us/core/StructureDefinition/us-core-race","extension":[{"url":"ombCategory","valueCoding":{"system":"urn:oid:2.16.840.1.113883.6.238","code":"1002-5","display":"American Indian or Alaska Native","userSelected":true}},{"url":"text","valueString":"American Indian or Alaska Native"}]},{"url":"http://hl7.org/fhir/us/core/StructureDefinition/us-core-ethnicity","extension":[{"url":"ombCategory","valueCoding":{"system":"urn:oid:2.16.840.1.113883.6.238","code":"2135-2","display":"Hispanic or Latino","userSelected":true}},{"url":"text","valueString":"Hispanic or Latino"}]}],"identifier":[{"type":{"coding":[{"system":"http://terminology.hl7.org/CodeSystem/v2-0203","code":"MR"}]},"system":"https://bonnie-fhir.healthit.gov/","value":"63487c2d0968f80122540150"}],"active":true,"name":[{"use":"usual","family":"DENOMFail","given":["AssessPreTerm0RelDtTimeEQTimeOfDeliv"]}],"gender":"female","birthDate":"1998-02-14"},"request":{"method":"PUT","url":"Patient/97d0a68f-69d6-41cb-b369-dacef5afef50"}},{"fullUrl":"https://madie.cms.gov/Observation/98ca3eb8-f283-4508-8359-ec9110f4efff","resource":{"resourceType":"Observation","id":"98ca3eb8-f283-4508-8359-ec9110f4efff","meta":{"profile":["http://hl7.org/fhir/us/qicore/StructureDefinition/qicore-simple-observation"]},"status":"final","category":[{"coding":[{"system":"http://terminology.hl7.org/CodeSystem/observation-category","code":"exam","display":"exam","userSelected":true}]}],"code":{"coding":[{"system":"http://loinc.org","code":"11639-2"}]},"subject":{"reference":"Patient/97d0a68f-69d6-41cb-b369-dacef5afef50"},"effectiveDateTime":"2025-09-19T09:00:00.000+00:00","valueInteger":0},"request":{"method":"PUT","url":"Observation/98ca3eb8-f283-4508-8359-ec9110f4efff"}},{"fullUrl":"https://madie.cms.gov/Observation/0ab56150-c77e-4639-99d8-825fea235b22","resource":{"resourceType":"Observation","id":"0ab56150-c77e-4639-99d8-825fea235b22","meta":{"profile":["http://hl7.org/fhir/us/qicore/StructureDefinition/qicore-simple-observation"]},"status":"final","category":[{"coding":[{"system":"http://terminology.hl7.org/CodeSystem/observation-category","code":"exam","display":"exam","userSelected":true}]}],"code":{"coding":[{"system":"http://loinc.org","code":"11637-6"}]},"subject":{"reference":"Patient/97d0a68f-69d6-41cb-b369-dacef5afef50"},"effectiveDateTime":"2026-06-08T20:00:00.000+00:00","valueInteger":0},"request":{"method":"PUT","url":"Observation/0ab56150-c77e-4639-99d8-825fea235b22"}},{"fullUrl":"https://madie.cms.gov/Observation/c5ca8d7c-4953-45f3-b1fd-2ebaed62308e","resource":{"resourceType":"Observation","id":"c5ca8d7c-4953-45f3-b1fd-2ebaed62308e","meta":{"profile":["http://hl7.org/fhir/us/qicore/StructureDefinition/qicore-simple-observation"]},"status":"final","category":[{"coding":[{"system":"http://terminology.hl7.org/CodeSystem/observation-category","code":"exam","display":"exam","userSelected":true}]}],"code":{"coding":[{"system":"http://loinc.org","code":"11884-4"}]},"subject":{"reference":"Patient/97d0a68f-69d6-41cb-b369-dacef5afef50"},"effectiveDateTime":"2026-06-08T20:00:00.000+00:00","valueQuantity":{"value":37,"system":"http://unitsofmeasure.org","code":"wk"}},"request":{"method":"PUT","url":"Observation/c5ca8d7c-4953-45f3-b1fd-2ebaed62308e"}},{"fullUrl":"https://madie.cms.gov/Observation/38c5b6f3-3ac5-430c-80f0-a6287298e935","resource":{"resourceType":"Observation","id":"38c5b6f3-3ac5-430c-80f0-a6287298e935","meta":{"profile":["http://hl7.org/fhir/us/qicore/StructureDefinition/qicore-simple-observation"]},"status":"final","category":[{"coding":[{"system":"http://terminology.hl7.org/CodeSystem/observation-category","code":"exam","display":"exam","userSelected":true}]}],"code":{"coding":[{"system":"http://loinc.org","code":"93857-1"}]},"subject":{"reference":"Patient/97d0a68f-69d6-41cb-b369-dacef5afef50"},"effectiveDateTime":"2026-06-08T20:00:00.000+00:00","valueDateTime":"2026-06-08T20:00:00.000+00:00"},"request":{"method":"PUT","url":"Observation/38c5b6f3-3ac5-430c-80f0-a6287298e935"}},{"fullUrl":"https://madie.cms.gov/Encounter/13ef6e4a-4db2-4a75-9a95-4b5351f2cf95","resource":{"resourceType":"Encounter","id":"13ef6e4a-4db2-4a75-9a95-4b5351f2cf95","meta":{"profile":["http://hl7.org/fhir/us/qicore/StructureDefinition/qicore-encounter"]},"status":"finished","class":{"system":"http://terminology.hl7.org/CodeSystem/v3-ActCode","code":"IMP","display":"inpatient encounter"},"type":[{"coding":[{"system":"http://snomed.info/sct","code":"8715000"}]}],"subject":{"reference":"Patient/97d0a68f-69d6-41cb-b369-dacef5afef50"},"period":{"start":"2026-06-08T08:00:00.000+00:00","end":"2026-06-10T08:15:00.000+00:00"},"length":{"value":2,"unit":"days"},"reasonReference":[{"reference":"Condition/36972727-6984-46f0-80b2-957fd43b0738"}]},"request":{"method":"PUT","url":"Encounter/13ef6e4a-4db2-4a75-9a95-4b5351f2cf95"}},{"fullUrl":"https://madie.cms.gov/Procedure/7119faf1-038c-481f-9e9b-1f38933bfaf3","resource":{"resourceType":"Procedure","id":"7119faf1-038c-481f-9e9b-1f38933bfaf3","meta":{"profile":["http://hl7.org/fhir/us/qicore/StructureDefinition/qicore-procedure"]},"extension":[{"url":"http://hl7.org/fhir/us/qicore/StructureDefinition/qicore-recorded","valueDateTime":"2014-04-05T13:35:00.000+00:00"}],"status":"completed","code":{"coding":[{"system":"http://www.cms.gov/Medicare/Coding/ICD10","code":"10D00Z0"},{"system":"http://snomed.info/sct","code":"4504004"},{"system":"http://www.icd10data.com/icd10pcs","code":"10D00Z0","userSelected":true}]},"subject":{"reference":"Patient/97d0a68f-69d6-41cb-b369-dacef5afef50"},"performedPeriod":{"start":"2026-06-08T20:00:00.000+00:00","end":"2026-06-08T20:15:00.000+00:00"}},"request":{"method":"PUT","url":"Procedure/7119faf1-038c-481f-9e9b-1f38933bfaf3"}},{"fullUrl":"https://madie.cms.gov/Condition/36972727-6984-46f0-80b2-957fd43b0738","resource":{"resourceType":"Condition","id":"36972727-6984-46f0-80b2-957fd43b0738","meta":{"profile":["http://hl7.org/fhir/us/qicore/StructureDefinition/qicore-condition-encounter-diagnosis"]},"category":[{"coding":[{"system":"http://terminology.hl7.org/CodeSystem/condition-category","code":"encounter-diagnosis","display":"Encounter Diagnosis"}]}],"code":{"coding":[{"system":"http://snomed.info/sct","version":"2022-09","code":"169826009","display":"Single live birth from singleton pregnancy (finding)","userSelected":true}]},"subject":{"reference":"Patient/97d0a68f-69d6-41cb-b369-dacef5afef50"},"encounter":{"reference":"Encounter/13ef6e4a-4db2-4a75-9a95-4b5351f2cf95"},"recordedDate":"2026-10-21T08:00:00.000+00:00"},"request":{"method":"PUT","url":"Condition/36972727-6984-46f0-80b2-957fd43b0738"}},{"fullUrl":"https://madie.cms.gov/Coverage/c9f17f41-d3f9-490c-a6d1-285bbe0f95b4","resource":{"resourceType":"Coverage","id":"c9f17f41-d3f9-490c-a6d1-285bbe0f95b4","meta":{"profile":["http://hl7.org/fhir/us/qicore/StructureDefinition/qicore-coverage"]},"status":"active","subscriberId":"523435","beneficiary":{"reference":"Patient/97d0a68f-69d6-41cb-b369-dacef5afef50"},"relationship":{"coding":[{"system":"http://terminology.hl7.org/CodeSystem/subscriber-relationship","code":"self"}]},"payor":[{"reference":"Organization/47d99413-2acc-47d4-adba-9c158516264a"}]},"request":{"method":"PUT","url":"Coverage/c9f17f41-d3f9-490c-a6d1-285bbe0f95b4"}},{"fullUrl":"https://madie.cms.gov/Organization/47d99413-2acc-47d4-adba-9c158516264a","resource":{"resourceType":"Organization","id":"47d99413-2acc-47d4-adba-9c158516264a","meta":{"profile":["http://hl7.org/fhir/us/qicore/StructureDefinition/qicore-organization"]},"identifier":[{"use":"temp","system":"urn:oid:2.16.840.1.113883.4.4","value":"21-3259825"}],"active":true,"type":[{"coding":[{"system":"http://terminology.hl7.org/CodeSystem/organization-type","code":"pay","display":"Payer"}]}],"name":"Blue Cross Blue Shield of Texas","telecom":[{"system":"phone","value":"(+1) 972-766-6900"}],"address":[{"use":"billing","type":"postal","line":["P.O. Box 660044"],"city":"Dallas","state":"TX","postalCode":"75266-0044","country":"USA"}]},"request":{"method":"PUT","url":"Organization/47d99413-2acc-47d4-adba-9c158516264a"}},{"fullUrl":"https://madie.cms.gov/Practitioner/0f98731b-59f6-4c99-a165-25fac3aede7c","resource":{"resourceType":"Practitioner","id":"0f98731b-59f6-4c99-a165-25fac3aede7c","meta":{"profile":["http://hl7.org/fhir/us/qicore/StructureDefinition/qicore-practitioner"]},"identifier":[{"system":"http://hl7.org/fhir/sid/us-npi","value":"1234567890"}],"name":[{"family":"Evil","prefix":["Dr"]}]},"request":{"method":"PUT","url":"Practitioner/0f98731b-59f6-4c99-a165-25fac3aede7c"}},{"fullUrl":"https://madie.cms.gov/MeasureReport/016b16e9-7411-4413-8067-2d78a7326324","resource":{"resourceType":"MeasureReport","id":"016b16e9-7411-4413-8067-2d78a7326324","meta":{"profile":["http://hl7.org/fhir/us/cqfmeasures/StructureDefinition/test-case-cqfm"]},"contained":[{"resourceType":"Parameters","id":"c8013132-6527-49fa-bfa7-fd07147de3bb-parameters","parameter":[{"name":"subject","valueString":"97d0a68f-69d6-41cb-b369-dacef5afef50"}]}],"extension":[{"url":"http://hl7.org/fhir/StructureDefinition/cqf-inputParameters","valueReference":{"reference":"#c8013132-6527-49fa-bfa7-fd07147de3bb-parameters"}},{"url":"http://hl7.org/fhir/us/cqfmeasures/StructureDefinition/cqfm-testCaseDescription","valueMarkdown":"\"Term Newborn=0,  <42wks B4 Asse delivery.\nPreterm=0, rel date/time same date and time as Asse delivery Datetime.  Fails"}],"modifierExtension":[{"url":"http://hl7.org/fhir/us/cqfmeasures/StructureDefinition/cqfm-isTestCase","valueBoolean":true}],"status":"complete","type":"individual","measure":"https://madie.cms.gov/Measure/CMS0334FHIRPCCesareanBirth","period":{"start":"2026-01-01","end":"2026-12-31"},"group":[{"id":"Group_1","population":[{"id":"InitialPopulation_1","code":{"coding":[{"system":"http://terminology.hl7.org/CodeSystem/measure-population","code":"initial-population","display":"Initial Population"}]},"count":1},{"id":"Denominator_1","code":{"coding":[{"system":"http://terminology.hl7.org/CodeSystem/measure-population","code":"denominator","display":"Denominator"}]},"count":0},{"id":"DenominatorExclusion_1","code":{"coding":[{"system":"http://terminology.hl7.org/CodeSystem/measure-population","code":"denominator-exclusion","display":"Denominator Exclusion"}]},"count":0},{"id":"Numerator_1","code":{"coding":[{"system":"http://terminology.hl7.org/CodeSystem/measure-population","code":"numerator","display":"Numerator"}]},"count":0}],"measureScore":{"value":0.0}}],"evaluatedResource":[{"reference":"Patient/97d0a68f-69d6-41cb-b369-dacef5afef50"},{"reference":"Observation/98ca3eb8-f283-4508-8359-ec9110f4efff"},{"reference":"Observation/0ab56150-c77e-4639-99d8-825fea235b22"},{"reference":"Observation/c5ca8d7c-4953-45f3-b1fd-2ebaed62308e"},{"reference":"Observation/38c5b6f3-3ac5-430c-80f0-a6287298e935"},{"reference":"Encounter/13ef6e4a-4db2-4a75-9a95-4b5351f2cf95"},{"reference":"Procedure/7119faf1-038c-481f-9e9b-1f38933bfaf3"},{"reference":"Condition/36972727-6984-46f0-80b2-957fd43b0738"},{"reference":"Coverage/c9f17f41-d3f9-490c-a6d1-285bbe0f95b4"},{"reference":"Organization/47d99413-2acc-47d4-adba-9c158516264a"},{"reference":"Practitioner/0f98731b-59f6-4c99-a165-25fac3aede7c"}]},"request":{"method":"PUT","url":"MeasureReport/016b16e9-7411-4413-8067-2d78a7326324"}}]},"request":{"method":"PUT","url":"Bundle/63487c2d0968f80122540150"}}]}