{"resourceType":"Bundle","id":"tests-9b765bad-038a-4d8f-8df0-4f0c9cfd118a-bundle","type":"transaction","entry":[{"fullUrl":"Patient/9b765bad-038a-4d8f-8df0-4f0c9cfd118a","resource":{"resourceType":"Patient","id":"9b765bad-038a-4d8f-8df0-4f0c9cfd118a","meta":{"profile":["http://hl7.org/fhir/us/qicore/StructureDefinition/qicore-patient"]},"text":{"status":"generated","div":"<div xmlns=\"http://www.w3.org/1999/xhtml\"><div class=\"hapiHeaderText\">CalcEGA42Weeks_EDDBFEnc <b>DENPASS </b></div><table class=\"hapiPropertyTable\"><tbody><tr><td>Identifier</td><td>c6b51506d3a7092894a3f06af44f7ab397fd257a35f97f16644057feff48ec70</td></tr><tr><td>Date of birth</td><td><span>14 February 1985</span></td></tr></tbody></table></div>"},"extension":[{"url":"http://hl7.org/fhir/us/core/StructureDefinition/us-core-race","extension":[{"url":"ombCategory","valueCoding":{"system":"urn:oid:2.16.840.1.113883.6.238","code":"1002-5","display":"American Indian or Alaska Native","userSelected":true}},{"url":"text","valueString":"American Indian or Alaska Native"}]},{"url":"http://hl7.org/fhir/us/core/StructureDefinition/us-core-ethnicity","extension":[{"url":"ombCategory","valueCoding":{"system":"urn:oid:2.16.840.1.113883.6.238","code":"2135-2","display":"Hispanic or Latino","userSelected":true}},{"url":"text","valueString":"Hispanic or Latino"}]}],"identifier":[{"type":{"coding":[{"system":"http://terminology.hl7.org/CodeSystem/v2-0203","code":"MR"}]},"system":"https://bonnie-fhir.healthit.gov/","value":"63487c2f0968f801225401a0"}],"active":true,"name":[{"use":"usual","family":"DENPass","given":["CalcEGA42Weeks_EDDBFEnc"]}],"gender":"female","birthDate":"1998-02-14"},"request":{"method":"PUT","url":"Patient/9b765bad-038a-4d8f-8df0-4f0c9cfd118a"}},{"fullUrl":"Observation/e78ada8e-c4ee-4095-9ac1-13d2444efd63","resource":{"resourceType":"Observation","id":"e78ada8e-c4ee-4095-9ac1-13d2444efd63","meta":{"profile":["http://hl7.org/fhir/us/qicore/StructureDefinition/qicore-simple-observation"]},"status":"final","category":[{"coding":[{"system":"http://terminology.hl7.org/CodeSystem/observation-category","code":"exam","display":"exam","userSelected":true}]}],"code":{"coding":[{"system":"http://loinc.org","code":"11996-6"}]},"subject":{"reference":"Patient/9b765bad-038a-4d8f-8df0-4f0c9cfd118a"},"effectiveDateTime":"2025-08-19T19:00:00.000+00:00","valueInteger":1},"request":{"method":"PUT","url":"Observation/e78ada8e-c4ee-4095-9ac1-13d2444efd63"}},{"fullUrl":"Procedure/e78c7744-d4a9-4d3a-880f-be616f95e038","resource":{"resourceType":"Procedure","id":"e78c7744-d4a9-4d3a-880f-be616f95e038","meta":{"profile":["http://hl7.org/fhir/us/qicore/StructureDefinition/qicore-procedure"]},"extension":[{"url":"http://hl7.org/fhir/us/qicore/StructureDefinition/qicore-recorded","valueDateTime":"2014-04-05T13:35:00.000+00:00"}],"status":"completed","code":{"coding":[{"system":"http://www.cms.gov/Medicare/Coding/ICD10","code":"10D07Z3"}]},"subject":{"reference":"Patient/9b765bad-038a-4d8f-8df0-4f0c9cfd118a"},"performedPeriod":{"start":"2026-01-15T08:10:00.000+00:00","end":"2026-01-15T09:14:00.000+00:00"}},"request":{"method":"PUT","url":"Procedure/e78c7744-d4a9-4d3a-880f-be616f95e038"}},{"fullUrl":"Condition/1198dbc4-6acb-489a-9be2-051716081646","resource":{"resourceType":"Condition","id":"1198dbc4-6acb-489a-9be2-051716081646","meta":{"profile":["http://hl7.org/fhir/us/qicore/StructureDefinition/qicore-condition-encounter-diagnosis"]},"category":[{"coding":[{"system":"http://terminology.hl7.org/CodeSystem/condition-category","code":"encounter-diagnosis","display":"Encounter Diagnosis"}]}],"code":{"coding":[{"system":"http://snomed.info/sct","version":"2022-09","code":"169826009","display":"Single live birth from singleton pregnancy (finding)","userSelected":true}]},"subject":{"reference":"Patient/9b765bad-038a-4d8f-8df0-4f0c9cfd118a"},"encounter":{"reference":"Encounter/ea3f8bea-7c4a-4f1b-9de8-532ba7e16fc3"},"recordedDate":"2026-10-20T08:00:00.000+00:00"},"request":{"method":"PUT","url":"Condition/1198dbc4-6acb-489a-9be2-051716081646"}},{"fullUrl":"Coverage/5f5f9e501c76ba674bb03382","resource":{"resourceType":"Coverage","id":"5f5f9e501c76ba674bb03382","meta":{"profile":["http://hl7.org/fhir/us/qicore/StructureDefinition/qicore-coverage"]},"status":"active","subscriberId":"523435","beneficiary":{"reference":"Patient/9b765bad-038a-4d8f-8df0-4f0c9cfd118a"},"relationship":{"coding":[{"system":"http://terminology.hl7.org/CodeSystem/subscriber-relationship","code":"self"}]},"period":{"start":"1986-02-14T08:00:00.000+00:00"},"payor":[{"reference":"Organization/6d2528cb-1c55-4195-9411-f85f97b4021d"}]},"request":{"method":"PUT","url":"Coverage/5f5f9e501c76ba674bb03382"}},{"fullUrl":"Bundle/63487c2f0968f801225401a0","resource":{"resourceType":"Bundle","id":"63487c2f0968f801225401a0","type":"transaction","entry":[{"fullUrl":"https://madie.cms.gov/Patient/9b765bad-038a-4d8f-8df0-4f0c9cfd118a","resource":{"resourceType":"Patient","id":"9b765bad-038a-4d8f-8df0-4f0c9cfd118a","meta":{"profile":["http://hl7.org/fhir/us/qicore/StructureDefinition/qicore-patient"]},"text":{"status":"generated","div":"<div xmlns=\"http://www.w3.org/1999/xhtml\"><div class=\"hapiHeaderText\">CalcEGA42Weeks_EDDBFEnc <b>DENPASS </b></div><table class=\"hapiPropertyTable\"><tbody><tr><td>Identifier</td><td>c6b51506d3a7092894a3f06af44f7ab397fd257a35f97f16644057feff48ec70</td></tr><tr><td>Date of birth</td><td><span>14 February 1985</span></td></tr></tbody></table></div>"},"extension":[{"url":"http://hl7.org/fhir/us/core/StructureDefinition/us-core-race","extension":[{"url":"ombCategory","valueCoding":{"system":"urn:oid:2.16.840.1.113883.6.238","code":"1002-5","display":"American Indian or Alaska Native","userSelected":true}},{"url":"text","valueString":"American Indian or Alaska Native"}]},{"url":"http://hl7.org/fhir/us/core/StructureDefinition/us-core-ethnicity","extension":[{"url":"ombCategory","valueCoding":{"system":"urn:oid:2.16.840.1.113883.6.238","code":"2135-2","display":"Hispanic or Latino","userSelected":true}},{"url":"text","valueString":"Hispanic or Latino"}]}],"identifier":[{"type":{"coding":[{"system":"http://terminology.hl7.org/CodeSystem/v2-0203","code":"MR"}]},"system":"https://bonnie-fhir.healthit.gov/","value":"63487c2f0968f801225401a0"}],"active":true,"name":[{"use":"usual","family":"DENPass","given":["CalcEGA42Weeks_EDDBFEnc"]}],"gender":"female","birthDate":"1998-02-14"},"request":{"method":"PUT","url":"Patient/9b765bad-038a-4d8f-8df0-4f0c9cfd118a"}},{"fullUrl":"https://madie.cms.gov/Observation/e78ada8e-c4ee-4095-9ac1-13d2444efd63","resource":{"resourceType":"Observation","id":"e78ada8e-c4ee-4095-9ac1-13d2444efd63","meta":{"profile":["http://hl7.org/fhir/us/qicore/StructureDefinition/qicore-simple-observation"]},"status":"final","category":[{"coding":[{"system":"http://terminology.hl7.org/CodeSystem/observation-category","code":"exam","display":"exam","userSelected":true}]}],"code":{"coding":[{"system":"http://loinc.org","code":"11996-6"}]},"subject":{"reference":"Patient/9b765bad-038a-4d8f-8df0-4f0c9cfd118a"},"effectiveDateTime":"2025-08-19T19:00:00.000+00:00","valueInteger":1},"request":{"method":"PUT","url":"Observation/e78ada8e-c4ee-4095-9ac1-13d2444efd63"}},{"fullUrl":"https://madie.cms.gov/Observation/dc098277-6059-4943-b58c-2eb198287ecd","resource":{"resourceType":"Observation","id":"dc098277-6059-4943-b58c-2eb198287ecd","meta":{"profile":["http://hl7.org/fhir/us/qicore/StructureDefinition/qicore-simple-observation"]},"status":"final","category":[{"coding":[{"system":"http://terminology.hl7.org/CodeSystem/observation-category","code":"exam","display":"exam","userSelected":true}]}],"code":{"coding":[{"system":"http://loinc.org","code":"93857-1"}]},"subject":{"reference":"Patient/9b765bad-038a-4d8f-8df0-4f0c9cfd118a"},"effectiveDateTime":"2026-01-15T19:00:00.000+00:00","valueDateTime":"2026-01-15T19:00:00.000+00:00"},"request":{"method":"PUT","url":"Observation/dc098277-6059-4943-b58c-2eb198287ecd"}},{"fullUrl":"https://madie.cms.gov/Observation/8b811ee3-4a9d-461b-a1c5-aa0ea8340339","resource":{"resourceType":"Observation","id":"8b811ee3-4a9d-461b-a1c5-aa0ea8340339","meta":{"profile":["http://hl7.org/fhir/us/qicore/StructureDefinition/qicore-simple-observation"]},"status":"final","category":[{"coding":[{"system":"http://terminology.hl7.org/CodeSystem/observation-category","code":"exam","display":"exam","userSelected":true}]}],"code":{"coding":[{"system":"http://loinc.org","code":"11778-8"}]},"subject":{"reference":"Patient/9b765bad-038a-4d8f-8df0-4f0c9cfd118a"},"effectiveDateTime":"2026-01-15T07:00:00.000+00:00","valueDateTime":"2026-01-01T08:00:00.000+00:00"},"request":{"method":"PUT","url":"Observation/8b811ee3-4a9d-461b-a1c5-aa0ea8340339"}},{"fullUrl":"https://madie.cms.gov/Encounter/ea3f8bea-7c4a-4f1b-9de8-532ba7e16fc3","resource":{"resourceType":"Encounter","id":"ea3f8bea-7c4a-4f1b-9de8-532ba7e16fc3","meta":{"profile":["http://hl7.org/fhir/us/qicore/StructureDefinition/qicore-encounter"]},"status":"finished","class":{"system":"http://terminology.hl7.org/CodeSystem/v3-ActCode","code":"IMP","display":"inpatient encounter"},"type":[{"coding":[{"system":"http://snomed.info/sct","code":"183452005"}]}],"subject":{"reference":"Patient/9b765bad-038a-4d8f-8df0-4f0c9cfd118a"},"period":{"start":"2026-01-15T08:00:00.000+00:00","end":"2026-01-20T08:15:00.000+00:00"},"length":{"value":2,"unit":"days"},"reasonReference":[{"reference":"Condition/1198dbc4-6acb-489a-9be2-051716081646"}]},"request":{"method":"PUT","url":"Encounter/ea3f8bea-7c4a-4f1b-9de8-532ba7e16fc3"}},{"fullUrl":"https://madie.cms.gov/Coverage/5f5f9e501c76ba674bb03382","resource":{"resourceType":"Coverage","id":"5f5f9e501c76ba674bb03382","meta":{"profile":["http://hl7.org/fhir/us/qicore/StructureDefinition/qicore-coverage"]},"status":"active","subscriberId":"523435","beneficiary":{"reference":"Patient/9b765bad-038a-4d8f-8df0-4f0c9cfd118a"},"relationship":{"coding":[{"system":"http://terminology.hl7.org/CodeSystem/subscriber-relationship","code":"self"}]},"period":{"start":"1986-02-14T08:00:00.000+00:00"},"payor":[{"reference":"Organization/6d2528cb-1c55-4195-9411-f85f97b4021d"}]},"request":{"method":"PUT","url":"Coverage/5f5f9e501c76ba674bb03382"}},{"fullUrl":"https://madie.cms.gov/Procedure/e78c7744-d4a9-4d3a-880f-be616f95e038","resource":{"resourceType":"Procedure","id":"e78c7744-d4a9-4d3a-880f-be616f95e038","meta":{"profile":["http://hl7.org/fhir/us/qicore/StructureDefinition/qicore-procedure"]},"extension":[{"url":"http://hl7.org/fhir/us/qicore/StructureDefinition/qicore-recorded","valueDateTime":"2014-04-05T13:35:00.000+00:00"}],"status":"completed","code":{"coding":[{"system":"http://www.cms.gov/Medicare/Coding/ICD10","code":"10D07Z3"}]},"subject":{"reference":"Patient/9b765bad-038a-4d8f-8df0-4f0c9cfd118a"},"performedPeriod":{"start":"2026-01-15T08:10:00.000+00:00","end":"2026-01-15T09:14:00.000+00:00"}},"request":{"method":"PUT","url":"Procedure/e78c7744-d4a9-4d3a-880f-be616f95e038"}},{"fullUrl":"https://madie.cms.gov/Condition/1198dbc4-6acb-489a-9be2-051716081646","resource":{"resourceType":"Condition","id":"1198dbc4-6acb-489a-9be2-051716081646","meta":{"profile":["http://hl7.org/fhir/us/qicore/StructureDefinition/qicore-condition-encounter-diagnosis"]},"category":[{"coding":[{"system":"http://terminology.hl7.org/CodeSystem/condition-category","code":"encounter-diagnosis","display":"Encounter Diagnosis"}]}],"code":{"coding":[{"system":"http://snomed.info/sct","version":"2022-09","code":"169826009","display":"Single live birth from singleton pregnancy (finding)","userSelected":true}]},"subject":{"reference":"Patient/9b765bad-038a-4d8f-8df0-4f0c9cfd118a"},"encounter":{"reference":"Encounter/ea3f8bea-7c4a-4f1b-9de8-532ba7e16fc3"},"recordedDate":"2026-10-20T08:00:00.000+00:00"},"request":{"method":"PUT","url":"Condition/1198dbc4-6acb-489a-9be2-051716081646"}},{"fullUrl":"https://madie.cms.gov/Organization/6d2528cb-1c55-4195-9411-f85f97b4021d","resource":{"resourceType":"Organization","id":"6d2528cb-1c55-4195-9411-f85f97b4021d","meta":{"profile":["http://hl7.org/fhir/us/qicore/StructureDefinition/qicore-organization"]},"identifier":[{"use":"temp","system":"urn:oid:2.16.840.1.113883.4.4","value":"21-3259825"}],"active":true,"type":[{"coding":[{"system":"http://terminology.hl7.org/CodeSystem/organization-type","code":"pay","display":"Payer"}]}],"name":"Blue Cross Blue Shield of Texas","telecom":[{"system":"phone","value":"(+1) 972-766-6900"}],"address":[{"use":"billing","type":"postal","line":["P.O. Box 660044"],"city":"Dallas","state":"TX","postalCode":"75266-0044","country":"USA"}]},"request":{"method":"PUT","url":"Organization/6d2528cb-1c55-4195-9411-f85f97b4021d"}},{"fullUrl":"https://madie.cms.gov/Practitioner/884609b6-2461-4e23-b966-e427813fa5ae","resource":{"resourceType":"Practitioner","id":"884609b6-2461-4e23-b966-e427813fa5ae","meta":{"profile":["http://hl7.org/fhir/us/qicore/StructureDefinition/qicore-practitioner"]},"identifier":[{"system":"http://hl7.org/fhir/sid/us-npi","value":"1234567890"}],"name":[{"family":"Evil","prefix":["Dr"]}]},"request":{"method":"PUT","url":"Practitioner/884609b6-2461-4e23-b966-e427813fa5ae"}},{"fullUrl":"https://madie.cms.gov/MeasureReport/a97d1ca9-5af6-433f-b253-227a277e6ce5","resource":{"resourceType":"MeasureReport","id":"a97d1ca9-5af6-433f-b253-227a277e6ce5","meta":{"profile":["http://hl7.org/fhir/us/cqfmeasures/StructureDefinition/test-case-cqfm"]},"contained":[{"resourceType":"Parameters","id":"34dd80fe-ac87-45d7-bbfe-34ff7c4598d2-parameters","parameter":[{"name":"subject","valueString":"9b765bad-038a-4d8f-8df0-4f0c9cfd118a"}]}],"extension":[{"url":"http://hl7.org/fhir/StructureDefinition/cqf-inputParameters","valueReference":{"reference":"#34dd80fe-ac87-45d7-bbfe-34ff7c4598d2-parameters"}},{"url":"http://hl7.org/fhir/us/cqfmeasures/StructureDefinition/cqfm-testCaseDescription","valueMarkdown":"Calculated EGA is 42 weeks with EDD 1 hour before Encounter Adm datetime\n"}],"modifierExtension":[{"url":"http://hl7.org/fhir/us/cqfmeasures/StructureDefinition/cqfm-isTestCase","valueBoolean":true}],"status":"complete","type":"individual","measure":"https://madie.cms.gov/Measure/CMS0334FHIRPCCesareanBirth","period":{"start":"2026-01-01","end":"2026-12-31"},"group":[{"id":"Group_1","population":[{"id":"InitialPopulation_1","code":{"coding":[{"system":"http://terminology.hl7.org/CodeSystem/measure-population","code":"initial-population","display":"Initial Population"}]},"count":1},{"id":"Denominator_1","code":{"coding":[{"system":"http://terminology.hl7.org/CodeSystem/measure-population","code":"denominator","display":"Denominator"}]},"count":1},{"id":"DenominatorExclusion_1","code":{"coding":[{"system":"http://terminology.hl7.org/CodeSystem/measure-population","code":"denominator-exclusion","display":"Denominator Exclusion"}]},"count":0},{"id":"Numerator_1","code":{"coding":[{"system":"http://terminology.hl7.org/CodeSystem/measure-population","code":"numerator","display":"Numerator"}]},"count":0}],"measureScore":{"value":0.0}}],"evaluatedResource":[{"reference":"Patient/9b765bad-038a-4d8f-8df0-4f0c9cfd118a"},{"reference":"Observation/e78ada8e-c4ee-4095-9ac1-13d2444efd63"},{"reference":"Observation/dc098277-6059-4943-b58c-2eb198287ecd"},{"reference":"Observation/8b811ee3-4a9d-461b-a1c5-aa0ea8340339"},{"reference":"Encounter/ea3f8bea-7c4a-4f1b-9de8-532ba7e16fc3"},{"reference":"Coverage/5f5f9e501c76ba674bb03382"},{"reference":"Procedure/e78c7744-d4a9-4d3a-880f-be616f95e038"},{"reference":"Condition/1198dbc4-6acb-489a-9be2-051716081646"},{"reference":"Organization/6d2528cb-1c55-4195-9411-f85f97b4021d"},{"reference":"Practitioner/884609b6-2461-4e23-b966-e427813fa5ae"}]},"request":{"method":"PUT","url":"MeasureReport/a97d1ca9-5af6-433f-b253-227a277e6ce5"}}]},"request":{"method":"PUT","url":"Bundle/63487c2f0968f801225401a0"}},{"fullUrl":"MeasureReport/a97d1ca9-5af6-433f-b253-227a277e6ce5","resource":{"resourceType":"MeasureReport","id":"a97d1ca9-5af6-433f-b253-227a277e6ce5","meta":{"profile":["http://hl7.org/fhir/us/cqfmeasures/StructureDefinition/test-case-cqfm"]},"contained":[{"resourceType":"Parameters","id":"34dd80fe-ac87-45d7-bbfe-34ff7c4598d2-parameters","parameter":[{"name":"subject","valueString":"9b765bad-038a-4d8f-8df0-4f0c9cfd118a"}]}],"extension":[{"url":"http://hl7.org/fhir/StructureDefinition/cqf-inputParameters","valueReference":{"reference":"#34dd80fe-ac87-45d7-bbfe-34ff7c4598d2-parameters"}},{"url":"http://hl7.org/fhir/us/cqfmeasures/StructureDefinition/cqfm-testCaseDescription","valueMarkdown":"Calculated EGA is 42 weeks with EDD 1 hour before Encounter Adm datetime\n"}],"modifierExtension":[{"url":"http://hl7.org/fhir/us/cqfmeasures/StructureDefinition/cqfm-isTestCase","valueBoolean":true}],"status":"complete","type":"individual","measure":"https://madie.cms.gov/Measure/CMS0334FHIRPCCesareanBirth","period":{"start":"2026-01-01","end":"2026-12-31"},"group":[{"id":"Group_1","population":[{"id":"InitialPopulation_1","code":{"coding":[{"system":"http://terminology.hl7.org/CodeSystem/measure-population","code":"initial-population","display":"Initial Population"}]},"count":1},{"id":"Denominator_1","code":{"coding":[{"system":"http://terminology.hl7.org/CodeSystem/measure-population","code":"denominator","display":"Denominator"}]},"count":1},{"id":"DenominatorExclusion_1","code":{"coding":[{"system":"http://terminology.hl7.org/CodeSystem/measure-population","code":"denominator-exclusion","display":"Denominator Exclusion"}]},"count":0},{"id":"Numerator_1","code":{"coding":[{"system":"http://terminology.hl7.org/CodeSystem/measure-population","code":"numerator","display":"Numerator"}]},"count":0}],"measureScore":{"value":0.0}}],"evaluatedResource":[{"reference":"Patient/9b765bad-038a-4d8f-8df0-4f0c9cfd118a"},{"reference":"Observation/e78ada8e-c4ee-4095-9ac1-13d2444efd63"},{"reference":"Observation/dc098277-6059-4943-b58c-2eb198287ecd"},{"reference":"Observation/8b811ee3-4a9d-461b-a1c5-aa0ea8340339"},{"reference":"Encounter/ea3f8bea-7c4a-4f1b-9de8-532ba7e16fc3"},{"reference":"Coverage/5f5f9e501c76ba674bb03382"},{"reference":"Procedure/e78c7744-d4a9-4d3a-880f-be616f95e038"},{"reference":"Condition/1198dbc4-6acb-489a-9be2-051716081646"},{"reference":"Organization/6d2528cb-1c55-4195-9411-f85f97b4021d"},{"reference":"Practitioner/884609b6-2461-4e23-b966-e427813fa5ae"}]},"request":{"method":"PUT","url":"MeasureReport/a97d1ca9-5af6-433f-b253-227a277e6ce5"}},{"fullUrl":"Encounter/ea3f8bea-7c4a-4f1b-9de8-532ba7e16fc3","resource":{"resourceType":"Encounter","id":"ea3f8bea-7c4a-4f1b-9de8-532ba7e16fc3","meta":{"profile":["http://hl7.org/fhir/us/qicore/StructureDefinition/qicore-encounter"]},"status":"finished","class":{"system":"http://terminology.hl7.org/CodeSystem/v3-ActCode","code":"IMP","display":"inpatient encounter"},"type":[{"coding":[{"system":"http://snomed.info/sct","code":"183452005"}]}],"subject":{"reference":"Patient/9b765bad-038a-4d8f-8df0-4f0c9cfd118a"},"period":{"start":"2026-01-15T08:00:00.000+00:00","end":"2026-01-20T08:15:00.000+00:00"},"length":{"value":2,"unit":"days"},"reasonReference":[{"reference":"Condition/1198dbc4-6acb-489a-9be2-051716081646"}]},"request":{"method":"PUT","url":"Encounter/ea3f8bea-7c4a-4f1b-9de8-532ba7e16fc3"}},{"fullUrl":"Observation/8b811ee3-4a9d-461b-a1c5-aa0ea8340339","resource":{"resourceType":"Observation","id":"8b811ee3-4a9d-461b-a1c5-aa0ea8340339","meta":{"profile":["http://hl7.org/fhir/us/qicore/StructureDefinition/qicore-simple-observation"]},"status":"final","category":[{"coding":[{"system":"http://terminology.hl7.org/CodeSystem/observation-category","code":"exam","display":"exam","userSelected":true}]}],"code":{"coding":[{"system":"http://loinc.org","code":"11778-8"}]},"subject":{"reference":"Patient/9b765bad-038a-4d8f-8df0-4f0c9cfd118a"},"effectiveDateTime":"2026-01-15T07:00:00.000+00:00","valueDateTime":"2026-01-01T08:00:00.000+00:00"},"request":{"method":"PUT","url":"Observation/8b811ee3-4a9d-461b-a1c5-aa0ea8340339"}},{"fullUrl":"Practitioner/884609b6-2461-4e23-b966-e427813fa5ae","resource":{"resourceType":"Practitioner","id":"884609b6-2461-4e23-b966-e427813fa5ae","meta":{"profile":["http://hl7.org/fhir/us/qicore/StructureDefinition/qicore-practitioner"]},"identifier":[{"system":"http://hl7.org/fhir/sid/us-npi","value":"1234567890"}],"name":[{"family":"Evil","prefix":["Dr"]}]},"request":{"method":"PUT","url":"Practitioner/884609b6-2461-4e23-b966-e427813fa5ae"}},{"fullUrl":"Organization/6d2528cb-1c55-4195-9411-f85f97b4021d","resource":{"resourceType":"Organization","id":"6d2528cb-1c55-4195-9411-f85f97b4021d","meta":{"profile":["http://hl7.org/fhir/us/qicore/StructureDefinition/qicore-organization"]},"identifier":[{"use":"temp","system":"urn:oid:2.16.840.1.113883.4.4","value":"21-3259825"}],"active":true,"type":[{"coding":[{"system":"http://terminology.hl7.org/CodeSystem/organization-type","code":"pay","display":"Payer"}]}],"name":"Blue Cross Blue Shield of Texas","telecom":[{"system":"phone","value":"(+1) 972-766-6900"}],"address":[{"use":"billing","type":"postal","line":["P.O. Box 660044"],"city":"Dallas","state":"TX","postalCode":"75266-0044","country":"USA"}]},"request":{"method":"PUT","url":"Organization/6d2528cb-1c55-4195-9411-f85f97b4021d"}},{"fullUrl":"Observation/dc098277-6059-4943-b58c-2eb198287ecd","resource":{"resourceType":"Observation","id":"dc098277-6059-4943-b58c-2eb198287ecd","meta":{"profile":["http://hl7.org/fhir/us/qicore/StructureDefinition/qicore-simple-observation"]},"status":"final","category":[{"coding":[{"system":"http://terminology.hl7.org/CodeSystem/observation-category","code":"exam","display":"exam","userSelected":true}]}],"code":{"coding":[{"system":"http://loinc.org","code":"93857-1"}]},"subject":{"reference":"Patient/9b765bad-038a-4d8f-8df0-4f0c9cfd118a"},"effectiveDateTime":"2026-01-15T19:00:00.000+00:00","valueDateTime":"2026-01-15T19:00:00.000+00:00"},"request":{"method":"PUT","url":"Observation/dc098277-6059-4943-b58c-2eb198287ecd"}}]}