{"resourceType":"Bundle","id":"tests-1ec8fccf-d982-4dcd-a0df-94b9c1150fd6-bundle","type":"transaction","entry":[{"fullUrl":"Bundle/63487c2f0968f80122540195","resource":{"resourceType":"Bundle","id":"63487c2f0968f80122540195","type":"transaction","entry":[{"fullUrl":"https://madie.cms.gov/Patient/1ec8fccf-d982-4dcd-a0df-94b9c1150fd6","resource":{"resourceType":"Patient","id":"1ec8fccf-d982-4dcd-a0df-94b9c1150fd6","meta":{"profile":["http://hl7.org/fhir/us/qicore/StructureDefinition/qicore-patient"]},"text":{"status":"generated","div":"<div xmlns=\"http://www.w3.org/1999/xhtml\"><div class=\"hapiHeaderText\">AssessPerfAbnPresRelDtTimeEQTimeOfDeliv<b>DENEXPASS</b></div><table class=\"hapiPropertyTable\"><tbody><tr><td>Identifier</td><td>026ef11ad83a8a7cf2dd9a5df623df3fb5fe5e8210cfb6bc83e410fca26c8633</td></tr><tr><td>Date of birth</td><td><span>14 February 1985</span></td></tr></tbody></table></div>"},"extension":[{"url":"http://hl7.org/fhir/us/core/StructureDefinition/us-core-race","extension":[{"url":"ombCategory","valueCoding":{"system":"urn:oid:2.16.840.1.113883.6.238","code":"1002-5","display":"American Indian or Alaska Native","userSelected":true}},{"url":"text","valueString":"American Indian or Alaska Native"}]},{"url":"http://hl7.org/fhir/us/core/StructureDefinition/us-core-ethnicity","extension":[{"url":"ombCategory","valueCoding":{"system":"urn:oid:2.16.840.1.113883.6.238","code":"2135-2","display":"Hispanic or Latino","userSelected":true}},{"url":"text","valueString":"Hispanic or Latino"}]}],"identifier":[{"type":{"coding":[{"system":"http://terminology.hl7.org/CodeSystem/v2-0203","code":"MR"}]},"system":"https://bonnie-fhir.healthit.gov/","value":"63487c2f0968f80122540195"}],"active":true,"name":[{"use":"usual","family":"DENEXPass","given":["AssessPerfAbnPresRelDtTimeEQTimeOfDeliv"]}],"gender":"female","birthDate":"1998-02-14"},"request":{"method":"PUT","url":"Patient/1ec8fccf-d982-4dcd-a0df-94b9c1150fd6"}},{"fullUrl":"https://madie.cms.gov/Observation/a0132ba3-0435-464d-8944-e27e0932cde7","resource":{"resourceType":"Observation","id":"a0132ba3-0435-464d-8944-e27e0932cde7","meta":{"profile":["http://hl7.org/fhir/us/qicore/StructureDefinition/qicore-simple-observation"]},"status":"final","category":[{"coding":[{"system":"http://terminology.hl7.org/CodeSystem/observation-category","code":"exam","display":"exam","userSelected":true}]}],"code":{"coding":[{"system":"http://loinc.org","code":"11996-6"}]},"subject":{"reference":"Patient/1ec8fccf-d982-4dcd-a0df-94b9c1150fd6"},"effectiveDateTime":"2026-06-08T08:00:00.000+00:00","performer":[{"reference":"Organization/example1","display":"Hendricks Country Hospital"}],"valueInteger":1},"request":{"method":"PUT","url":"Observation/a0132ba3-0435-464d-8944-e27e0932cde7"}},{"fullUrl":"https://madie.cms.gov/Observation/fe40e646-f406-4a00-8983-e8600bd48b9b","resource":{"resourceType":"Observation","id":"fe40e646-f406-4a00-8983-e8600bd48b9b","meta":{"profile":["http://hl7.org/fhir/us/qicore/StructureDefinition/qicore-simple-observation"]},"status":"final","category":[{"coding":[{"system":"http://terminology.hl7.org/CodeSystem/observation-category","code":"exam","display":"exam","userSelected":true}]}],"code":{"coding":[{"system":"http://loinc.org","code":"11884-4"}]},"subject":{"reference":"Patient/1ec8fccf-d982-4dcd-a0df-94b9c1150fd6"},"effectiveDateTime":"2026-06-08T08:00:00.000+00:00","performer":[{"reference":"Organization/example1","display":"Hendricks Country Hospital"}],"valueQuantity":{"value":43,"system":"http://unitsofmeasure.org","code":"wk"}},"request":{"method":"PUT","url":"Observation/fe40e646-f406-4a00-8983-e8600bd48b9b"}},{"fullUrl":"https://madie.cms.gov/Observation/a296e2c9-4138-4956-82bb-ee69449c429e","resource":{"resourceType":"Observation","id":"a296e2c9-4138-4956-82bb-ee69449c429e","meta":{"profile":["http://hl7.org/fhir/us/qicore/StructureDefinition/qicore-simple-observation"]},"status":"final","category":[{"coding":[{"system":"http://terminology.hl7.org/CodeSystem/observation-category","code":"exam","display":"exam","userSelected":true}]}],"code":{"coding":[{"system":"http://loinc.org","code":"93857-1"}]},"subject":{"reference":"Patient/1ec8fccf-d982-4dcd-a0df-94b9c1150fd6"},"effectiveDateTime":"2026-06-08T20:00:00.000+00:00","performer":[{"reference":"Organization/example1","display":"Hendricks Country Hospital"}],"valueDateTime":"2026-06-08T20:00:00.000+00:00"},"request":{"method":"PUT","url":"Observation/a296e2c9-4138-4956-82bb-ee69449c429e"}},{"fullUrl":"https://madie.cms.gov/Observation/82a3e100-3f79-4f21-9ca0-2bc544a7b879","resource":{"resourceType":"Observation","id":"82a3e100-3f79-4f21-9ca0-2bc544a7b879","meta":{"profile":["http://hl7.org/fhir/us/qicore/StructureDefinition/qicore-simple-observation"]},"status":"final","category":[{"coding":[{"system":"http://terminology.hl7.org/CodeSystem/observation-category","code":"exam","display":"exam","userSelected":true}]}],"code":{"coding":[{"system":"http://snomed.info/sct","code":"18559007"}]},"subject":{"reference":"Patient/1ec8fccf-d982-4dcd-a0df-94b9c1150fd6"},"effectiveDateTime":"2026-06-08T20:00:00.000+00:00","performer":[{"reference":"Organization/example1","display":"Hendricks Country Hospital"}]},"request":{"method":"PUT","url":"Observation/82a3e100-3f79-4f21-9ca0-2bc544a7b879"}},{"fullUrl":"https://madie.cms.gov/Encounter/240e201e-76de-4a01-a626-3f8c4393b0a7","resource":{"resourceType":"Encounter","id":"240e201e-76de-4a01-a626-3f8c4393b0a7","meta":{"profile":["http://hl7.org/fhir/us/qicore/StructureDefinition/qicore-encounter"]},"status":"finished","class":{"system":"http://terminology.hl7.org/CodeSystem/v3-ActCode","code":"IMP","display":"inpatient encounter"},"type":[{"coding":[{"system":"http://snomed.info/sct","code":"8715000"}]}],"subject":{"reference":"Patient/1ec8fccf-d982-4dcd-a0df-94b9c1150fd6"},"period":{"start":"2026-06-08T08:00:00.000+00:00","end":"2026-06-10T08:15:00.000+00:00"},"reasonCode":[{"coding":[{"system":"http://snomed.info/sct","code":"169826009","display":"Single live birth from singleton pregnancy (finding)"}]}],"reasonReference":[{"reference":"Condition/ea07e9fc-ade7-4618-956e-4b7bbe543a65"}]},"request":{"method":"PUT","url":"Encounter/240e201e-76de-4a01-a626-3f8c4393b0a7"}},{"fullUrl":"https://madie.cms.gov/Procedure/ec7412be-43f0-46f4-af99-a84b3844aabb","resource":{"resourceType":"Procedure","id":"ec7412be-43f0-46f4-af99-a84b3844aabb","meta":{"profile":["http://hl7.org/fhir/us/qicore/StructureDefinition/qicore-procedure"]},"extension":[{"url":"http://hl7.org/fhir/us/qicore/StructureDefinition/qicore-recorded","valueDateTime":"2014-04-05T13:35:00.000+00:00"}],"status":"completed","code":{"coding":[{"system":"http://www.cms.gov/Medicare/Coding/ICD10","code":"10D00Z0"}]},"subject":{"reference":"Patient/1ec8fccf-d982-4dcd-a0df-94b9c1150fd6"},"performedDateTime":"2026-06-08T08:00:00.000+00:00"},"request":{"method":"PUT","url":"Procedure/ec7412be-43f0-46f4-af99-a84b3844aabb"}},{"fullUrl":"https://madie.cms.gov/Condition/ea07e9fc-ade7-4618-956e-4b7bbe543a65","resource":{"resourceType":"Condition","id":"ea07e9fc-ade7-4618-956e-4b7bbe543a65","meta":{"profile":["http://hl7.org/fhir/us/qicore/StructureDefinition/qicore-condition-encounter-diagnosis"]},"category":[{"coding":[{"system":"http://terminology.hl7.org/CodeSystem/condition-category","code":"encounter-diagnosis","display":"Encounter Diagnosis"}]}],"code":{"coding":[{"system":"http://snomed.info/sct","code":"18559007","display":"Frank breech presentation (finding)","userSelected":true}]},"subject":{"reference":"Patient/1ec8fccf-d982-4dcd-a0df-94b9c1150fd6"},"encounter":{"reference":"Encounter/240e201e-76de-4a01-a626-3f8c4393b0a7"},"recordedDate":"2026-10-17T08:00:00.000+00:00"},"request":{"method":"PUT","url":"Condition/ea07e9fc-ade7-4618-956e-4b7bbe543a65"}},{"fullUrl":"https://madie.cms.gov/Coverage/d85c545a-c63e-4cea-8795-c0af84496a62","resource":{"resourceType":"Coverage","id":"d85c545a-c63e-4cea-8795-c0af84496a62","meta":{"profile":["http://hl7.org/fhir/us/qicore/StructureDefinition/qicore-coverage"]},"status":"active","subscriberId":"523435","beneficiary":{"reference":"Patient/1ec8fccf-d982-4dcd-a0df-94b9c1150fd6"},"relationship":{"coding":[{"system":"http://terminology.hl7.org/CodeSystem/subscriber-relationship","code":"self"}]},"payor":[{"reference":"Organization/7be1befb-3544-49a1-98bb-bdb4520bb7f7"}]},"request":{"method":"PUT","url":"Coverage/d85c545a-c63e-4cea-8795-c0af84496a62"}},{"fullUrl":"https://madie.cms.gov/Organization/7be1befb-3544-49a1-98bb-bdb4520bb7f7","resource":{"resourceType":"Organization","id":"7be1befb-3544-49a1-98bb-bdb4520bb7f7","meta":{"profile":["http://hl7.org/fhir/us/qicore/StructureDefinition/qicore-organization"]},"identifier":[{"use":"temp","system":"urn:oid:2.16.840.1.113883.4.4","value":"21-3259825"}],"active":true,"type":[{"coding":[{"system":"http://terminology.hl7.org/CodeSystem/organization-type","code":"pay","display":"Payer"}]}],"name":"Blue Cross Blue Shield of Texas","telecom":[{"system":"phone","value":"(+1) 972-766-6900"}],"address":[{"use":"billing","type":"postal","line":["P.O. Box 660044"],"city":"Dallas","state":"TX","postalCode":"75266-0044","country":"USA"}]},"request":{"method":"PUT","url":"Organization/7be1befb-3544-49a1-98bb-bdb4520bb7f7"}},{"fullUrl":"https://madie.cms.gov/Practitioner/5c89f6f5-b9a3-4385-90d2-6ba7357906d3","resource":{"resourceType":"Practitioner","id":"5c89f6f5-b9a3-4385-90d2-6ba7357906d3","meta":{"profile":["http://hl7.org/fhir/us/qicore/StructureDefinition/qicore-practitioner"]},"identifier":[{"system":"http://hl7.org/fhir/sid/us-npi","value":"1234567890"}],"name":[{"family":"Evil","prefix":["Dr"]}]},"request":{"method":"PUT","url":"Practitioner/5c89f6f5-b9a3-4385-90d2-6ba7357906d3"}},{"fullUrl":"https://madie.cms.gov/MeasureReport/446bbc0a-396d-4f09-8672-43c751da7662","resource":{"resourceType":"MeasureReport","id":"446bbc0a-396d-4f09-8672-43c751da7662","meta":{"profile":["http://hl7.org/fhir/us/cqfmeasures/StructureDefinition/test-case-cqfm"]},"contained":[{"resourceType":"Parameters","id":"5fc32b7f-849e-4a0b-927f-3a78eea1a32d-parameters","parameter":[{"name":"subject","valueString":"1ec8fccf-d982-4dcd-a0df-94b9c1150fd6"}]}],"extension":[{"url":"http://hl7.org/fhir/StructureDefinition/cqf-inputParameters","valueReference":{"reference":"#5fc32b7f-849e-4a0b-927f-3a78eea1a32d-parameters"}},{"url":"http://hl7.org/fhir/us/cqfmeasures/StructureDefinition/cqfm-testCaseDescription","valueMarkdown":"EGA 43 weeks; Assessment performed Abnormal presentation Relevant Dt/time equal the Date time of obstetric delivery , gravida 1, \n"}],"modifierExtension":[{"url":"http://hl7.org/fhir/us/cqfmeasures/StructureDefinition/cqfm-isTestCase","valueBoolean":true}],"status":"complete","type":"individual","measure":"https://madie.cms.gov/Measure/CMS0334FHIRPCCesareanBirth","period":{"start":"2026-01-01","end":"2026-12-31"},"group":[{"id":"Group_1","population":[{"id":"InitialPopulation_1","code":{"coding":[{"system":"http://terminology.hl7.org/CodeSystem/measure-population","code":"initial-population","display":"Initial Population"}]},"count":1},{"id":"Denominator_1","code":{"coding":[{"system":"http://terminology.hl7.org/CodeSystem/measure-population","code":"denominator","display":"Denominator"}]},"count":1},{"id":"DenominatorExclusion_1","code":{"coding":[{"system":"http://terminology.hl7.org/CodeSystem/measure-population","code":"denominator-exclusion","display":"Denominator Exclusion"}]},"count":1},{"id":"Numerator_1","code":{"coding":[{"system":"http://terminology.hl7.org/CodeSystem/measure-population","code":"numerator","display":"Numerator"}]},"count":0}],"measureScore":{"value":0.0}}],"evaluatedResource":[{"reference":"Patient/1ec8fccf-d982-4dcd-a0df-94b9c1150fd6"},{"reference":"Observation/a0132ba3-0435-464d-8944-e27e0932cde7"},{"reference":"Observation/fe40e646-f406-4a00-8983-e8600bd48b9b"},{"reference":"Observation/a296e2c9-4138-4956-82bb-ee69449c429e"},{"reference":"Observation/82a3e100-3f79-4f21-9ca0-2bc544a7b879"},{"reference":"Encounter/240e201e-76de-4a01-a626-3f8c4393b0a7"},{"reference":"Procedure/ec7412be-43f0-46f4-af99-a84b3844aabb"},{"reference":"Condition/ea07e9fc-ade7-4618-956e-4b7bbe543a65"},{"reference":"Coverage/d85c545a-c63e-4cea-8795-c0af84496a62"},{"reference":"Organization/7be1befb-3544-49a1-98bb-bdb4520bb7f7"},{"reference":"Practitioner/5c89f6f5-b9a3-4385-90d2-6ba7357906d3"}]},"request":{"method":"PUT","url":"MeasureReport/446bbc0a-396d-4f09-8672-43c751da7662"}}]},"request":{"method":"PUT","url":"Bundle/63487c2f0968f80122540195"}},{"fullUrl":"Observation/fe40e646-f406-4a00-8983-e8600bd48b9b","resource":{"resourceType":"Observation","id":"fe40e646-f406-4a00-8983-e8600bd48b9b","meta":{"profile":["http://hl7.org/fhir/us/qicore/StructureDefinition/qicore-simple-observation"]},"status":"final","category":[{"coding":[{"system":"http://terminology.hl7.org/CodeSystem/observation-category","code":"exam","display":"exam","userSelected":true}]}],"code":{"coding":[{"system":"http://loinc.org","code":"11884-4"}]},"subject":{"reference":"Patient/1ec8fccf-d982-4dcd-a0df-94b9c1150fd6"},"effectiveDateTime":"2026-06-08T08:00:00.000+00:00","performer":[{"reference":"Organization/example1","display":"Hendricks Country Hospital"}],"valueQuantity":{"value":43,"system":"http://unitsofmeasure.org","code":"wk"}},"request":{"method":"PUT","url":"Observation/fe40e646-f406-4a00-8983-e8600bd48b9b"}},{"fullUrl":"Observation/a296e2c9-4138-4956-82bb-ee69449c429e","resource":{"resourceType":"Observation","id":"a296e2c9-4138-4956-82bb-ee69449c429e","meta":{"profile":["http://hl7.org/fhir/us/qicore/StructureDefinition/qicore-simple-observation"]},"status":"final","category":[{"coding":[{"system":"http://terminology.hl7.org/CodeSystem/observation-category","code":"exam","display":"exam","userSelected":true}]}],"code":{"coding":[{"system":"http://loinc.org","code":"93857-1"}]},"subject":{"reference":"Patient/1ec8fccf-d982-4dcd-a0df-94b9c1150fd6"},"effectiveDateTime":"2026-06-08T20:00:00.000+00:00","performer":[{"reference":"Organization/example1","display":"Hendricks Country Hospital"}],"valueDateTime":"2026-06-08T20:00:00.000+00:00"},"request":{"method":"PUT","url":"Observation/a296e2c9-4138-4956-82bb-ee69449c429e"}},{"fullUrl":"Patient/1ec8fccf-d982-4dcd-a0df-94b9c1150fd6","resource":{"resourceType":"Patient","id":"1ec8fccf-d982-4dcd-a0df-94b9c1150fd6","meta":{"profile":["http://hl7.org/fhir/us/qicore/StructureDefinition/qicore-patient"]},"text":{"status":"generated","div":"<div xmlns=\"http://www.w3.org/1999/xhtml\"><div class=\"hapiHeaderText\">AssessPerfAbnPresRelDtTimeEQTimeOfDeliv<b>DENEXPASS</b></div><table class=\"hapiPropertyTable\"><tbody><tr><td>Identifier</td><td>026ef11ad83a8a7cf2dd9a5df623df3fb5fe5e8210cfb6bc83e410fca26c8633</td></tr><tr><td>Date of birth</td><td><span>14 February 1985</span></td></tr></tbody></table></div>"},"extension":[{"url":"http://hl7.org/fhir/us/core/StructureDefinition/us-core-race","extension":[{"url":"ombCategory","valueCoding":{"system":"urn:oid:2.16.840.1.113883.6.238","code":"1002-5","display":"American Indian or Alaska Native","userSelected":true}},{"url":"text","valueString":"American Indian or Alaska Native"}]},{"url":"http://hl7.org/fhir/us/core/StructureDefinition/us-core-ethnicity","extension":[{"url":"ombCategory","valueCoding":{"system":"urn:oid:2.16.840.1.113883.6.238","code":"2135-2","display":"Hispanic or Latino","userSelected":true}},{"url":"text","valueString":"Hispanic or Latino"}]}],"identifier":[{"type":{"coding":[{"system":"http://terminology.hl7.org/CodeSystem/v2-0203","code":"MR"}]},"system":"https://bonnie-fhir.healthit.gov/","value":"63487c2f0968f80122540195"}],"active":true,"name":[{"use":"usual","family":"DENEXPass","given":["AssessPerfAbnPresRelDtTimeEQTimeOfDeliv"]}],"gender":"female","birthDate":"1998-02-14"},"request":{"method":"PUT","url":"Patient/1ec8fccf-d982-4dcd-a0df-94b9c1150fd6"}},{"fullUrl":"Encounter/240e201e-76de-4a01-a626-3f8c4393b0a7","resource":{"resourceType":"Encounter","id":"240e201e-76de-4a01-a626-3f8c4393b0a7","meta":{"profile":["http://hl7.org/fhir/us/qicore/StructureDefinition/qicore-encounter"]},"status":"finished","class":{"system":"http://terminology.hl7.org/CodeSystem/v3-ActCode","code":"IMP","display":"inpatient encounter"},"type":[{"coding":[{"system":"http://snomed.info/sct","code":"8715000"}]}],"subject":{"reference":"Patient/1ec8fccf-d982-4dcd-a0df-94b9c1150fd6"},"period":{"start":"2026-06-08T08:00:00.000+00:00","end":"2026-06-10T08:15:00.000+00:00"},"reasonCode":[{"coding":[{"system":"http://snomed.info/sct","code":"169826009","display":"Single live birth from singleton pregnancy (finding)"}]}],"reasonReference":[{"reference":"Condition/ea07e9fc-ade7-4618-956e-4b7bbe543a65"}]},"request":{"method":"PUT","url":"Encounter/240e201e-76de-4a01-a626-3f8c4393b0a7"}},{"fullUrl":"MeasureReport/446bbc0a-396d-4f09-8672-43c751da7662","resource":{"resourceType":"MeasureReport","id":"446bbc0a-396d-4f09-8672-43c751da7662","meta":{"profile":["http://hl7.org/fhir/us/cqfmeasures/StructureDefinition/test-case-cqfm"]},"contained":[{"resourceType":"Parameters","id":"5fc32b7f-849e-4a0b-927f-3a78eea1a32d-parameters","parameter":[{"name":"subject","valueString":"1ec8fccf-d982-4dcd-a0df-94b9c1150fd6"}]}],"extension":[{"url":"http://hl7.org/fhir/StructureDefinition/cqf-inputParameters","valueReference":{"reference":"#5fc32b7f-849e-4a0b-927f-3a78eea1a32d-parameters"}},{"url":"http://hl7.org/fhir/us/cqfmeasures/StructureDefinition/cqfm-testCaseDescription","valueMarkdown":"EGA 43 weeks; Assessment performed Abnormal presentation Relevant Dt/time equal the Date time of obstetric delivery , gravida 1, \n"}],"modifierExtension":[{"url":"http://hl7.org/fhir/us/cqfmeasures/StructureDefinition/cqfm-isTestCase","valueBoolean":true}],"status":"complete","type":"individual","measure":"https://madie.cms.gov/Measure/CMS0334FHIRPCCesareanBirth","period":{"start":"2026-01-01","end":"2026-12-31"},"group":[{"id":"Group_1","population":[{"id":"InitialPopulation_1","code":{"coding":[{"system":"http://terminology.hl7.org/CodeSystem/measure-population","code":"initial-population","display":"Initial Population"}]},"count":1},{"id":"Denominator_1","code":{"coding":[{"system":"http://terminology.hl7.org/CodeSystem/measure-population","code":"denominator","display":"Denominator"}]},"count":1},{"id":"DenominatorExclusion_1","code":{"coding":[{"system":"http://terminology.hl7.org/CodeSystem/measure-population","code":"denominator-exclusion","display":"Denominator Exclusion"}]},"count":1},{"id":"Numerator_1","code":{"coding":[{"system":"http://terminology.hl7.org/CodeSystem/measure-population","code":"numerator","display":"Numerator"}]},"count":0}],"measureScore":{"value":0.0}}],"evaluatedResource":[{"reference":"Patient/1ec8fccf-d982-4dcd-a0df-94b9c1150fd6"},{"reference":"Observation/a0132ba3-0435-464d-8944-e27e0932cde7"},{"reference":"Observation/fe40e646-f406-4a00-8983-e8600bd48b9b"},{"reference":"Observation/a296e2c9-4138-4956-82bb-ee69449c429e"},{"reference":"Observation/82a3e100-3f79-4f21-9ca0-2bc544a7b879"},{"reference":"Encounter/240e201e-76de-4a01-a626-3f8c4393b0a7"},{"reference":"Procedure/ec7412be-43f0-46f4-af99-a84b3844aabb"},{"reference":"Condition/ea07e9fc-ade7-4618-956e-4b7bbe543a65"},{"reference":"Coverage/d85c545a-c63e-4cea-8795-c0af84496a62"},{"reference":"Organization/7be1befb-3544-49a1-98bb-bdb4520bb7f7"},{"reference":"Practitioner/5c89f6f5-b9a3-4385-90d2-6ba7357906d3"}]},"request":{"method":"PUT","url":"MeasureReport/446bbc0a-396d-4f09-8672-43c751da7662"}},{"fullUrl":"Condition/ea07e9fc-ade7-4618-956e-4b7bbe543a65","resource":{"resourceType":"Condition","id":"ea07e9fc-ade7-4618-956e-4b7bbe543a65","meta":{"profile":["http://hl7.org/fhir/us/qicore/StructureDefinition/qicore-condition-encounter-diagnosis"]},"category":[{"coding":[{"system":"http://terminology.hl7.org/CodeSystem/condition-category","code":"encounter-diagnosis","display":"Encounter Diagnosis"}]}],"code":{"coding":[{"system":"http://snomed.info/sct","code":"18559007","display":"Frank breech presentation (finding)","userSelected":true}]},"subject":{"reference":"Patient/1ec8fccf-d982-4dcd-a0df-94b9c1150fd6"},"encounter":{"reference":"Encounter/240e201e-76de-4a01-a626-3f8c4393b0a7"},"recordedDate":"2026-10-17T08:00:00.000+00:00"},"request":{"method":"PUT","url":"Condition/ea07e9fc-ade7-4618-956e-4b7bbe543a65"}},{"fullUrl":"Organization/7be1befb-3544-49a1-98bb-bdb4520bb7f7","resource":{"resourceType":"Organization","id":"7be1befb-3544-49a1-98bb-bdb4520bb7f7","meta":{"profile":["http://hl7.org/fhir/us/qicore/StructureDefinition/qicore-organization"]},"identifier":[{"use":"temp","system":"urn:oid:2.16.840.1.113883.4.4","value":"21-3259825"}],"active":true,"type":[{"coding":[{"system":"http://terminology.hl7.org/CodeSystem/organization-type","code":"pay","display":"Payer"}]}],"name":"Blue Cross Blue Shield of Texas","telecom":[{"system":"phone","value":"(+1) 972-766-6900"}],"address":[{"use":"billing","type":"postal","line":["P.O. Box 660044"],"city":"Dallas","state":"TX","postalCode":"75266-0044","country":"USA"}]},"request":{"method":"PUT","url":"Organization/7be1befb-3544-49a1-98bb-bdb4520bb7f7"}},{"fullUrl":"Observation/a0132ba3-0435-464d-8944-e27e0932cde7","resource":{"resourceType":"Observation","id":"a0132ba3-0435-464d-8944-e27e0932cde7","meta":{"profile":["http://hl7.org/fhir/us/qicore/StructureDefinition/qicore-simple-observation"]},"status":"final","category":[{"coding":[{"system":"http://terminology.hl7.org/CodeSystem/observation-category","code":"exam","display":"exam","userSelected":true}]}],"code":{"coding":[{"system":"http://loinc.org","code":"11996-6"}]},"subject":{"reference":"Patient/1ec8fccf-d982-4dcd-a0df-94b9c1150fd6"},"effectiveDateTime":"2026-06-08T08:00:00.000+00:00","performer":[{"reference":"Organization/example1","display":"Hendricks Country Hospital"}],"valueInteger":1},"request":{"method":"PUT","url":"Observation/a0132ba3-0435-464d-8944-e27e0932cde7"}},{"fullUrl":"Coverage/d85c545a-c63e-4cea-8795-c0af84496a62","resource":{"resourceType":"Coverage","id":"d85c545a-c63e-4cea-8795-c0af84496a62","meta":{"profile":["http://hl7.org/fhir/us/qicore/StructureDefinition/qicore-coverage"]},"status":"active","subscriberId":"523435","beneficiary":{"reference":"Patient/1ec8fccf-d982-4dcd-a0df-94b9c1150fd6"},"relationship":{"coding":[{"system":"http://terminology.hl7.org/CodeSystem/subscriber-relationship","code":"self"}]},"payor":[{"reference":"Organization/7be1befb-3544-49a1-98bb-bdb4520bb7f7"}]},"request":{"method":"PUT","url":"Coverage/d85c545a-c63e-4cea-8795-c0af84496a62"}},{"fullUrl":"Practitioner/5c89f6f5-b9a3-4385-90d2-6ba7357906d3","resource":{"resourceType":"Practitioner","id":"5c89f6f5-b9a3-4385-90d2-6ba7357906d3","meta":{"profile":["http://hl7.org/fhir/us/qicore/StructureDefinition/qicore-practitioner"]},"identifier":[{"system":"http://hl7.org/fhir/sid/us-npi","value":"1234567890"}],"name":[{"family":"Evil","prefix":["Dr"]}]},"request":{"method":"PUT","url":"Practitioner/5c89f6f5-b9a3-4385-90d2-6ba7357906d3"}},{"fullUrl":"Procedure/ec7412be-43f0-46f4-af99-a84b3844aabb","resource":{"resourceType":"Procedure","id":"ec7412be-43f0-46f4-af99-a84b3844aabb","meta":{"profile":["http://hl7.org/fhir/us/qicore/StructureDefinition/qicore-procedure"]},"extension":[{"url":"http://hl7.org/fhir/us/qicore/StructureDefinition/qicore-recorded","valueDateTime":"2014-04-05T13:35:00.000+00:00"}],"status":"completed","code":{"coding":[{"system":"http://www.cms.gov/Medicare/Coding/ICD10","code":"10D00Z0"}]},"subject":{"reference":"Patient/1ec8fccf-d982-4dcd-a0df-94b9c1150fd6"},"performedDateTime":"2026-06-08T08:00:00.000+00:00"},"request":{"method":"PUT","url":"Procedure/ec7412be-43f0-46f4-af99-a84b3844aabb"}},{"fullUrl":"Observation/82a3e100-3f79-4f21-9ca0-2bc544a7b879","resource":{"resourceType":"Observation","id":"82a3e100-3f79-4f21-9ca0-2bc544a7b879","meta":{"profile":["http://hl7.org/fhir/us/qicore/StructureDefinition/qicore-simple-observation"]},"status":"final","category":[{"coding":[{"system":"http://terminology.hl7.org/CodeSystem/observation-category","code":"exam","display":"exam","userSelected":true}]}],"code":{"coding":[{"system":"http://snomed.info/sct","code":"18559007"}]},"subject":{"reference":"Patient/1ec8fccf-d982-4dcd-a0df-94b9c1150fd6"},"effectiveDateTime":"2026-06-08T20:00:00.000+00:00","performer":[{"reference":"Organization/example1","display":"Hendricks Country Hospital"}]},"request":{"method":"PUT","url":"Observation/82a3e100-3f79-4f21-9ca0-2bc544a7b879"}}]}