{"resourceType":"Bundle","id":"tests-a1e91653-1ffc-418b-b711-3d941af24c77-bundle","type":"transaction","entry":[{"resource":{"resourceType":"Practitioner","id":"5d63f6e6-d4a8-4af8-add1-ac4f62a8a081","meta":{"profile":["http://hl7.org/fhir/us/qicore/StructureDefinition/qicore-practitioner"]},"identifier":[{"system":"http://hl7.org/fhir/sid/us-npi","value":"1234567890"}],"name":[{"family":"Evil","prefix":["Dr"]}]},"request":{"method":"PUT","url":"Practitioner/5d63f6e6-d4a8-4af8-add1-ac4f62a8a081"}},{"resource":{"resourceType":"Observation","id":"165f80e8-a4e4-499e-ba0c-b6c0afca7b38","meta":{"profile":["http://hl7.org/fhir/us/qicore/StructureDefinition/qicore-simple-observation"]},"status":"final","category":[{"coding":[{"system":"http://terminology.hl7.org/CodeSystem/observation-category","code":"exam","display":"exam","userSelected":true}]}],"code":{"coding":[{"system":"http://loinc.org","code":"11996-6"}]},"subject":{"reference":"Patient/a1e91653-1ffc-418b-b711-3d941af24c77"},"effectiveDateTime":"2025-08-19T19:00:00.000+00:00","performer":[{"reference":"Organization/example1","display":"Hendricks Country Hospital"}],"valueInteger":1},"request":{"method":"PUT","url":"Observation/165f80e8-a4e4-499e-ba0c-b6c0afca7b38"}},{"resource":{"resourceType":"Coverage","id":"fcb6dbfc-4747-46e9-ae83-bea0d578f95f","meta":{"profile":["http://hl7.org/fhir/us/qicore/StructureDefinition/qicore-coverage"]},"status":"active","subscriberId":"523435","beneficiary":{"reference":"Patient/a1e91653-1ffc-418b-b711-3d941af24c77"},"relationship":{"coding":[{"system":"http://terminology.hl7.org/CodeSystem/subscriber-relationship","code":"self"}]},"payor":[{"reference":"Organization/ddc639ed-9613-457b-bac6-892c9e70adfe"}]},"request":{"method":"PUT","url":"Coverage/fcb6dbfc-4747-46e9-ae83-bea0d578f95f"}},{"resource":{"resourceType":"Observation","id":"db104ae7-1d4b-41a0-aa58-5d92f3758e78","meta":{"profile":["http://hl7.org/fhir/us/qicore/StructureDefinition/qicore-simple-observation"]},"status":"final","category":[{"coding":[{"system":"http://terminology.hl7.org/CodeSystem/observation-category","code":"exam","display":"exam","userSelected":true}]}],"code":{"coding":[{"system":"http://loinc.org","code":"11884-4"}]},"subject":{"reference":"Patient/a1e91653-1ffc-418b-b711-3d941af24c77"},"effectiveDateTime":"2026-06-08T09:15:00.000+00:00","performer":[{"reference":"Organization/example1","display":"Hendricks Country Hospital"}],"valueQuantity":{"value":37,"system":"http://unitsofmeasure.org","code":"wk"}},"request":{"method":"PUT","url":"Observation/db104ae7-1d4b-41a0-aa58-5d92f3758e78"}},{"resource":{"resourceType":"Procedure","id":"f7ab06ce-0606-45eb-be79-89bdb90090d1","meta":{"profile":["http://hl7.org/fhir/us/qicore/StructureDefinition/qicore-procedure"]},"extension":[{"url":"http://hl7.org/fhir/us/qicore/StructureDefinition/qicore-recorded","valueDateTime":"2014-04-05T13:35:00.000+00:00"}],"status":"completed","code":{"coding":[{"system":"http://www.cms.gov/Medicare/Coding/ICD10","code":"10D07Z3"}]},"subject":{"reference":"Patient/a1e91653-1ffc-418b-b711-3d941af24c77"},"performedPeriod":{"start":"2026-06-08T08:10:00.000+00:00","end":"2026-06-08T09:14:00.000+00:00"}},"request":{"method":"PUT","url":"Procedure/f7ab06ce-0606-45eb-be79-89bdb90090d1"}},{"resource":{"resourceType":"Patient","id":"a1e91653-1ffc-418b-b711-3d941af24c77","meta":{"profile":["http://hl7.org/fhir/us/qicore/StructureDefinition/qicore-patient"]},"text":{"status":"generated","div":"<div xmlns=\"http://www.w3.org/1999/xhtml\"><div class=\"hapiHeaderText\">AssessG1RelDateTime42wksB4TimeOfDelivRelTime<b>DENPASS</b></div><table class=\"hapiPropertyTable\"><tbody><tr><td>Identifier</td><td>c6b51506d3a7092894a3f06af44f7ab397fd257a35f97f16644057feff48ec70</td></tr><tr><td>Date of birth</td><td><span>14 February 1985</span></td></tr></tbody></table></div>"},"extension":[{"url":"http://hl7.org/fhir/us/core/StructureDefinition/us-core-race","extension":[{"url":"ombCategory","valueCoding":{"system":"urn:oid:2.16.840.1.113883.6.238","code":"1002-5","display":"American Indian or Alaska Native","userSelected":true}},{"url":"text","valueString":"American Indian or Alaska Native"}]},{"url":"http://hl7.org/fhir/us/core/StructureDefinition/us-core-ethnicity","extension":[{"url":"ombCategory","valueCoding":{"system":"urn:oid:2.16.840.1.113883.6.238","code":"2135-2","display":"Hispanic or Latino","userSelected":true}},{"url":"text","valueString":"Hispanic or Latino"}]}],"identifier":[{"type":{"coding":[{"system":"http://terminology.hl7.org/CodeSystem/v2-0203","code":"MR"}]},"system":"https://bonnie-fhir.healthit.gov/","value":"63487c2f0968f80122540190"}],"active":true,"name":[{"use":"usual","family":"DENPass","given":["AssessG1RelDateTime42wksB4TimeOfDelivRelTime"]}],"gender":"female","birthDate":"1998-02-14"},"request":{"method":"PUT","url":"Patient/a1e91653-1ffc-418b-b711-3d941af24c77"}},{"resource":{"resourceType":"Condition","id":"85760985-6ff3-4d05-ac4f-d469076b8384","meta":{"profile":["http://hl7.org/fhir/us/qicore/StructureDefinition/qicore-condition"]},"category":[{"coding":[{"system":"http://terminology.hl7.org/CodeSystem/condition-category","code":"encounter-diagnosis","display":"Encounter Diagnosis"}]}],"code":{"coding":[{"system":"http://snomed.info/sct","version":"2022-09","code":"169826009","display":"Single live birth (finding)","userSelected":true}]},"subject":{"reference":"Patient/a1e91653-1ffc-418b-b711-3d941af24c77"},"recordedDate":"2026-10-18T08:00:00.000+00:00"},"request":{"method":"PUT","url":"Condition/85760985-6ff3-4d05-ac4f-d469076b8384"}},{"resource":{"resourceType":"Encounter","id":"c4d65f76-3861-4beb-a992-67c592c1e491","meta":{"profile":["http://hl7.org/fhir/us/qicore/StructureDefinition/qicore-encounter"]},"status":"finished","class":{"system":"http://terminology.hl7.org/CodeSystem/v3-ActCode","code":"IMP","display":"inpatient encounter"},"type":[{"coding":[{"system":"http://snomed.info/sct","code":"183452005"}]}],"subject":{"reference":"Patient/a1e91653-1ffc-418b-b711-3d941af24c77"},"period":{"start":"2026-06-08T08:00:00.000+00:00","end":"2026-06-10T08:15:00.000+00:00"},"length":{"value":2,"unit":"days"},"reasonCode":[{"coding":[{"system":"http://snomed.info/sct","code":"169826009","display":"Single live birth from singleton pregnancy (finding)"}]}]},"request":{"method":"PUT","url":"Encounter/c4d65f76-3861-4beb-a992-67c592c1e491"}},{"resource":{"resourceType":"Organization","id":"ddc639ed-9613-457b-bac6-892c9e70adfe","meta":{"profile":["http://hl7.org/fhir/us/qicore/StructureDefinition/qicore-organization"]},"identifier":[{"use":"temp","system":"urn:oid:2.16.840.1.113883.4.4","value":"21-3259825"}],"active":true,"type":[{"coding":[{"system":"http://terminology.hl7.org/CodeSystem/organization-type","code":"pay","display":"Payer"}]}],"name":"Blue Cross Blue Shield of Texas","telecom":[{"system":"phone","value":"(+1) 972-766-6900"}],"address":[{"use":"billing","type":"postal","line":["P.O. Box 660044"],"city":"Dallas","state":"TX","postalCode":"75266-0044","country":"USA"}]},"request":{"method":"PUT","url":"Organization/ddc639ed-9613-457b-bac6-892c9e70adfe"}},{"resource":{"resourceType":"Bundle","id":"63487c2f0968f80122540190","type":"transaction","entry":[{"fullUrl":"https://madie.cms.gov/Patient/a1e91653-1ffc-418b-b711-3d941af24c77","resource":{"resourceType":"Patient","id":"a1e91653-1ffc-418b-b711-3d941af24c77","meta":{"profile":["http://hl7.org/fhir/us/qicore/StructureDefinition/qicore-patient"]},"text":{"status":"generated","div":"<div xmlns=\"http://www.w3.org/1999/xhtml\"><div class=\"hapiHeaderText\">AssessG1RelDateTime42wksB4TimeOfDelivRelTime<b>DENPASS</b></div><table class=\"hapiPropertyTable\"><tbody><tr><td>Identifier</td><td>c6b51506d3a7092894a3f06af44f7ab397fd257a35f97f16644057feff48ec70</td></tr><tr><td>Date of birth</td><td><span>14 February 1985</span></td></tr></tbody></table></div>"},"extension":[{"url":"http://hl7.org/fhir/us/core/StructureDefinition/us-core-race","extension":[{"url":"ombCategory","valueCoding":{"system":"urn:oid:2.16.840.1.113883.6.238","code":"1002-5","display":"American Indian or Alaska Native","userSelected":true}},{"url":"text","valueString":"American Indian or Alaska Native"}]},{"url":"http://hl7.org/fhir/us/core/StructureDefinition/us-core-ethnicity","extension":[{"url":"ombCategory","valueCoding":{"system":"urn:oid:2.16.840.1.113883.6.238","code":"2135-2","display":"Hispanic or Latino","userSelected":true}},{"url":"text","valueString":"Hispanic or Latino"}]}],"identifier":[{"type":{"coding":[{"system":"http://terminology.hl7.org/CodeSystem/v2-0203","code":"MR"}]},"system":"https://bonnie-fhir.healthit.gov/","value":"63487c2f0968f80122540190"}],"active":true,"name":[{"use":"usual","family":"DENPass","given":["AssessG1RelDateTime42wksB4TimeOfDelivRelTime"]}],"gender":"female","birthDate":"1998-02-14"},"request":{"method":"PUT","url":"Patient/a1e91653-1ffc-418b-b711-3d941af24c77"}},{"fullUrl":"https://madie.cms.gov/Observation/165f80e8-a4e4-499e-ba0c-b6c0afca7b38","resource":{"resourceType":"Observation","id":"165f80e8-a4e4-499e-ba0c-b6c0afca7b38","meta":{"profile":["http://hl7.org/fhir/us/qicore/StructureDefinition/qicore-simple-observation"]},"status":"final","category":[{"coding":[{"system":"http://terminology.hl7.org/CodeSystem/observation-category","code":"exam","display":"exam","userSelected":true}]}],"code":{"coding":[{"system":"http://loinc.org","code":"11996-6"}]},"subject":{"reference":"Patient/a1e91653-1ffc-418b-b711-3d941af24c77"},"effectiveDateTime":"2025-08-19T19:00:00.000+00:00","performer":[{"reference":"Organization/example1","display":"Hendricks Country Hospital"}],"valueInteger":1},"request":{"method":"PUT","url":"Observation/165f80e8-a4e4-499e-ba0c-b6c0afca7b38"}},{"fullUrl":"https://madie.cms.gov/Observation/db104ae7-1d4b-41a0-aa58-5d92f3758e78","resource":{"resourceType":"Observation","id":"db104ae7-1d4b-41a0-aa58-5d92f3758e78","meta":{"profile":["http://hl7.org/fhir/us/qicore/StructureDefinition/qicore-simple-observation"]},"status":"final","category":[{"coding":[{"system":"http://terminology.hl7.org/CodeSystem/observation-category","code":"exam","display":"exam","userSelected":true}]}],"code":{"coding":[{"system":"http://loinc.org","code":"11884-4"}]},"subject":{"reference":"Patient/a1e91653-1ffc-418b-b711-3d941af24c77"},"effectiveDateTime":"2026-06-08T09:15:00.000+00:00","performer":[{"reference":"Organization/example1","display":"Hendricks Country Hospital"}],"valueQuantity":{"value":37,"system":"http://unitsofmeasure.org","code":"wk"}},"request":{"method":"PUT","url":"Observation/db104ae7-1d4b-41a0-aa58-5d92f3758e78"}},{"fullUrl":"https://madie.cms.gov/Observation/c2f04002-416e-432d-899d-6baf9c9d4fca","resource":{"resourceType":"Observation","id":"c2f04002-416e-432d-899d-6baf9c9d4fca","meta":{"profile":["http://hl7.org/fhir/us/qicore/StructureDefinition/qicore-simple-observation"]},"status":"final","category":[{"coding":[{"system":"http://terminology.hl7.org/CodeSystem/observation-category","code":"exam","display":"exam","userSelected":true}]}],"code":{"coding":[{"system":"http://loinc.org","code":"93857-1"}]},"subject":{"reference":"Patient/a1e91653-1ffc-418b-b711-3d941af24c77"},"effectiveDateTime":"2026-06-08T19:00:00.000+00:00","performer":[{"reference":"Organization/example1","display":"Hendricks Country Hospital"}],"valueDateTime":"2026-06-08T19:00:00.000+00:00"},"request":{"method":"PUT","url":"Observation/c2f04002-416e-432d-899d-6baf9c9d4fca"}},{"fullUrl":"https://madie.cms.gov/Encounter/c4d65f76-3861-4beb-a992-67c592c1e491","resource":{"resourceType":"Encounter","id":"c4d65f76-3861-4beb-a992-67c592c1e491","meta":{"profile":["http://hl7.org/fhir/us/qicore/StructureDefinition/qicore-encounter"]},"status":"finished","class":{"system":"http://terminology.hl7.org/CodeSystem/v3-ActCode","code":"IMP","display":"inpatient encounter"},"type":[{"coding":[{"system":"http://snomed.info/sct","code":"183452005"}]}],"subject":{"reference":"Patient/a1e91653-1ffc-418b-b711-3d941af24c77"},"period":{"start":"2026-06-08T08:00:00.000+00:00","end":"2026-06-10T08:15:00.000+00:00"},"length":{"value":2,"unit":"days"},"reasonCode":[{"coding":[{"system":"http://snomed.info/sct","code":"169826009","display":"Single live birth from singleton pregnancy (finding)"}]}]},"request":{"method":"PUT","url":"Encounter/c4d65f76-3861-4beb-a992-67c592c1e491"}},{"fullUrl":"https://madie.cms.gov/Procedure/f7ab06ce-0606-45eb-be79-89bdb90090d1","resource":{"resourceType":"Procedure","id":"f7ab06ce-0606-45eb-be79-89bdb90090d1","meta":{"profile":["http://hl7.org/fhir/us/qicore/StructureDefinition/qicore-procedure"]},"extension":[{"url":"http://hl7.org/fhir/us/qicore/StructureDefinition/qicore-recorded","valueDateTime":"2014-04-05T13:35:00.000+00:00"}],"status":"completed","code":{"coding":[{"system":"http://www.cms.gov/Medicare/Coding/ICD10","code":"10D07Z3"}]},"subject":{"reference":"Patient/a1e91653-1ffc-418b-b711-3d941af24c77"},"performedPeriod":{"start":"2026-06-08T08:10:00.000+00:00","end":"2026-06-08T09:14:00.000+00:00"}},"request":{"method":"PUT","url":"Procedure/f7ab06ce-0606-45eb-be79-89bdb90090d1"}},{"fullUrl":"https://madie.cms.gov/Condition/85760985-6ff3-4d05-ac4f-d469076b8384","resource":{"resourceType":"Condition","id":"85760985-6ff3-4d05-ac4f-d469076b8384","meta":{"profile":["http://hl7.org/fhir/us/qicore/StructureDefinition/qicore-condition"]},"category":[{"coding":[{"system":"http://terminology.hl7.org/CodeSystem/condition-category","code":"encounter-diagnosis","display":"Encounter Diagnosis"}]}],"code":{"coding":[{"system":"http://snomed.info/sct","version":"2022-09","code":"169826009","display":"Single live birth (finding)","userSelected":true}]},"subject":{"reference":"Patient/a1e91653-1ffc-418b-b711-3d941af24c77"},"recordedDate":"2026-10-18T08:00:00.000+00:00"},"request":{"method":"PUT","url":"Condition/85760985-6ff3-4d05-ac4f-d469076b8384"}},{"fullUrl":"https://madie.cms.gov/Coverage/fcb6dbfc-4747-46e9-ae83-bea0d578f95f","resource":{"resourceType":"Coverage","id":"fcb6dbfc-4747-46e9-ae83-bea0d578f95f","meta":{"profile":["http://hl7.org/fhir/us/qicore/StructureDefinition/qicore-coverage"]},"status":"active","subscriberId":"523435","beneficiary":{"reference":"Patient/a1e91653-1ffc-418b-b711-3d941af24c77"},"relationship":{"coding":[{"system":"http://terminology.hl7.org/CodeSystem/subscriber-relationship","code":"self"}]},"payor":[{"reference":"Organization/ddc639ed-9613-457b-bac6-892c9e70adfe"}]},"request":{"method":"PUT","url":"Coverage/fcb6dbfc-4747-46e9-ae83-bea0d578f95f"}},{"fullUrl":"https://madie.cms.gov/Organization/ddc639ed-9613-457b-bac6-892c9e70adfe","resource":{"resourceType":"Organization","id":"ddc639ed-9613-457b-bac6-892c9e70adfe","meta":{"profile":["http://hl7.org/fhir/us/qicore/StructureDefinition/qicore-organization"]},"identifier":[{"use":"temp","system":"urn:oid:2.16.840.1.113883.4.4","value":"21-3259825"}],"active":true,"type":[{"coding":[{"system":"http://terminology.hl7.org/CodeSystem/organization-type","code":"pay","display":"Payer"}]}],"name":"Blue Cross Blue Shield of Texas","telecom":[{"system":"phone","value":"(+1) 972-766-6900"}],"address":[{"use":"billing","type":"postal","line":["P.O. Box 660044"],"city":"Dallas","state":"TX","postalCode":"75266-0044","country":"USA"}]},"request":{"method":"PUT","url":"Organization/ddc639ed-9613-457b-bac6-892c9e70adfe"}},{"fullUrl":"https://madie.cms.gov/Practitioner/5d63f6e6-d4a8-4af8-add1-ac4f62a8a081","resource":{"resourceType":"Practitioner","id":"5d63f6e6-d4a8-4af8-add1-ac4f62a8a081","meta":{"profile":["http://hl7.org/fhir/us/qicore/StructureDefinition/qicore-practitioner"]},"identifier":[{"system":"http://hl7.org/fhir/sid/us-npi","value":"1234567890"}],"name":[{"family":"Evil","prefix":["Dr"]}]},"request":{"method":"PUT","url":"Practitioner/5d63f6e6-d4a8-4af8-add1-ac4f62a8a081"}},{"fullUrl":"https://madie.cms.gov/MeasureReport/35641682-4573-44e6-b9d1-36ca73e53a46","resource":{"resourceType":"MeasureReport","id":"35641682-4573-44e6-b9d1-36ca73e53a46","meta":{"profile":["http://hl7.org/fhir/us/cqfmeasures/StructureDefinition/test-case-cqfm"]},"contained":[{"resourceType":"Parameters","id":"f84c6534-d2f7-43d1-903d-9a0c1ee4b0a6-parameters","parameter":[{"name":"subject","valueString":"a1e91653-1ffc-418b-b711-3d941af24c77"}]}],"extension":[{"url":"http://hl7.org/fhir/StructureDefinition/cqf-inputParameters","valueReference":{"reference":"#f84c6534-d2f7-43d1-903d-9a0c1ee4b0a6-parameters"}},{"url":"http://hl7.org/fhir/us/cqfmeasures/StructureDefinition/cqfm-testCaseDescription","valueMarkdown":"Tests that Assess Gravida Rel Date is no more than 42 weeks before the Time of Delivery Rel Date.  This case is exactly 42 weeks before.\n"}],"modifierExtension":[{"url":"http://hl7.org/fhir/us/cqfmeasures/StructureDefinition/cqfm-isTestCase","valueBoolean":true}],"status":"complete","type":"individual","measure":"https://madie.cms.gov/Measure/CMS0334FHIRPCCesareanBirth","period":{"start":"2026-01-01","end":"2026-12-31"},"group":[{"id":"Group_1","population":[{"id":"InitialPopulation_1","code":{"coding":[{"system":"http://terminology.hl7.org/CodeSystem/measure-population","code":"initial-population","display":"Initial Population"}]},"count":1},{"id":"Denominator_1","code":{"coding":[{"system":"http://terminology.hl7.org/CodeSystem/measure-population","code":"denominator","display":"Denominator"}]},"count":1},{"id":"DenominatorExclusion_1","code":{"coding":[{"system":"http://terminology.hl7.org/CodeSystem/measure-population","code":"denominator-exclusion","display":"Denominator Exclusion"}]},"count":0},{"id":"Numerator_1","code":{"coding":[{"system":"http://terminology.hl7.org/CodeSystem/measure-population","code":"numerator","display":"Numerator"}]},"count":0}],"measureScore":{"value":0.0}}],"evaluatedResource":[{"reference":"Patient/a1e91653-1ffc-418b-b711-3d941af24c77"},{"reference":"Observation/165f80e8-a4e4-499e-ba0c-b6c0afca7b38"},{"reference":"Observation/db104ae7-1d4b-41a0-aa58-5d92f3758e78"},{"reference":"Observation/c2f04002-416e-432d-899d-6baf9c9d4fca"},{"reference":"Encounter/c4d65f76-3861-4beb-a992-67c592c1e491"},{"reference":"Procedure/f7ab06ce-0606-45eb-be79-89bdb90090d1"},{"reference":"Condition/85760985-6ff3-4d05-ac4f-d469076b8384"},{"reference":"Coverage/fcb6dbfc-4747-46e9-ae83-bea0d578f95f"},{"reference":"Organization/ddc639ed-9613-457b-bac6-892c9e70adfe"},{"reference":"Practitioner/5d63f6e6-d4a8-4af8-add1-ac4f62a8a081"}]},"request":{"method":"PUT","url":"MeasureReport/35641682-4573-44e6-b9d1-36ca73e53a46"}}]},"request":{"method":"PUT","url":"Bundle/63487c2f0968f80122540190"}},{"resource":{"resourceType":"MeasureReport","id":"35641682-4573-44e6-b9d1-36ca73e53a46","meta":{"profile":["http://hl7.org/fhir/us/cqfmeasures/StructureDefinition/test-case-cqfm"]},"contained":[{"resourceType":"Parameters","id":"f84c6534-d2f7-43d1-903d-9a0c1ee4b0a6-parameters","parameter":[{"name":"subject","valueString":"a1e91653-1ffc-418b-b711-3d941af24c77"}]}],"extension":[{"url":"http://hl7.org/fhir/StructureDefinition/cqf-inputParameters","valueReference":{"reference":"#f84c6534-d2f7-43d1-903d-9a0c1ee4b0a6-parameters"}},{"url":"http://hl7.org/fhir/us/cqfmeasures/StructureDefinition/cqfm-testCaseDescription","valueMarkdown":"Tests that Assess Gravida Rel Date is no more than 42 weeks before the Time of Delivery Rel Date.  This case is exactly 42 weeks before.\n"}],"modifierExtension":[{"url":"http://hl7.org/fhir/us/cqfmeasures/StructureDefinition/cqfm-isTestCase","valueBoolean":true}],"status":"complete","type":"individual","measure":"https://madie.cms.gov/Measure/CMS0334FHIRPCCesareanBirth","period":{"start":"2026-01-01","end":"2026-12-31"},"group":[{"id":"Group_1","population":[{"id":"InitialPopulation_1","code":{"coding":[{"system":"http://terminology.hl7.org/CodeSystem/measure-population","code":"initial-population","display":"Initial Population"}]},"count":1},{"id":"Denominator_1","code":{"coding":[{"system":"http://terminology.hl7.org/CodeSystem/measure-population","code":"denominator","display":"Denominator"}]},"count":1},{"id":"DenominatorExclusion_1","code":{"coding":[{"system":"http://terminology.hl7.org/CodeSystem/measure-population","code":"denominator-exclusion","display":"Denominator Exclusion"}]},"count":0},{"id":"Numerator_1","code":{"coding":[{"system":"http://terminology.hl7.org/CodeSystem/measure-population","code":"numerator","display":"Numerator"}]},"count":0}],"measureScore":{"value":0.0}}],"evaluatedResource":[{"reference":"Patient/a1e91653-1ffc-418b-b711-3d941af24c77"},{"reference":"Observation/165f80e8-a4e4-499e-ba0c-b6c0afca7b38"},{"reference":"Observation/db104ae7-1d4b-41a0-aa58-5d92f3758e78"},{"reference":"Observation/c2f04002-416e-432d-899d-6baf9c9d4fca"},{"reference":"Encounter/c4d65f76-3861-4beb-a992-67c592c1e491"},{"reference":"Procedure/f7ab06ce-0606-45eb-be79-89bdb90090d1"},{"reference":"Condition/85760985-6ff3-4d05-ac4f-d469076b8384"},{"reference":"Coverage/fcb6dbfc-4747-46e9-ae83-bea0d578f95f"},{"reference":"Organization/ddc639ed-9613-457b-bac6-892c9e70adfe"},{"reference":"Practitioner/5d63f6e6-d4a8-4af8-add1-ac4f62a8a081"}]},"request":{"method":"PUT","url":"MeasureReport/35641682-4573-44e6-b9d1-36ca73e53a46"}},{"resource":{"resourceType":"Observation","id":"c2f04002-416e-432d-899d-6baf9c9d4fca","meta":{"profile":["http://hl7.org/fhir/us/qicore/StructureDefinition/qicore-simple-observation"]},"status":"final","category":[{"coding":[{"system":"http://terminology.hl7.org/CodeSystem/observation-category","code":"exam","display":"exam","userSelected":true}]}],"code":{"coding":[{"system":"http://loinc.org","code":"93857-1"}]},"subject":{"reference":"Patient/a1e91653-1ffc-418b-b711-3d941af24c77"},"effectiveDateTime":"2026-06-08T19:00:00.000+00:00","performer":[{"reference":"Organization/example1","display":"Hendricks Country Hospital"}],"valueDateTime":"2026-06-08T19:00:00.000+00:00"},"request":{"method":"PUT","url":"Observation/c2f04002-416e-432d-899d-6baf9c9d4fca"}}]}