{"resourceType":"Bundle","id":"tests-20bb7712-ab47-4505-bfbf-5bebe074afa2-bundle","type":"transaction","entry":[{"fullUrl":"Practitioner/08833fcb-b66c-465f-8256-d9c8796b4bdd","resource":{"resourceType":"Practitioner","id":"08833fcb-b66c-465f-8256-d9c8796b4bdd","meta":{"profile":["http://hl7.org/fhir/us/qicore/StructureDefinition/qicore-practitioner"]},"identifier":[{"system":"http://hl7.org/fhir/sid/us-npi","value":"1234567890"}],"name":[{"family":"Evil","prefix":["Dr"]}]},"request":{"method":"PUT","url":"Practitioner/08833fcb-b66c-465f-8256-d9c8796b4bdd"}},{"fullUrl":"Observation/54740f6c-cd95-4fb9-9d64-1b6dfc35e816","resource":{"resourceType":"Observation","id":"54740f6c-cd95-4fb9-9d64-1b6dfc35e816","meta":{"profile":["http://hl7.org/fhir/us/qicore/StructureDefinition/qicore-simple-observation"]},"status":"final","category":[{"coding":[{"system":"http://terminology.hl7.org/CodeSystem/observation-category","code":"exam","display":"exam","userSelected":true}]}],"code":{"coding":[{"system":"http://loinc.org","code":"11884-4"}]},"subject":{"reference":"Patient/20bb7712-ab47-4505-bfbf-5bebe074afa2"},"effectiveDateTime":"2026-06-08T21:00:00.000+00:00","valueQuantity":{"value":38,"system":"http://unitsofmeasure.org","code":"wk"}},"request":{"method":"PUT","url":"Observation/54740f6c-cd95-4fb9-9d64-1b6dfc35e816"}},{"fullUrl":"Observation/e7e984cf-a82b-40a8-b68f-02dfc8f5b53b","resource":{"resourceType":"Observation","id":"e7e984cf-a82b-40a8-b68f-02dfc8f5b53b","meta":{"profile":["http://hl7.org/fhir/us/qicore/StructureDefinition/qicore-simple-observation"]},"status":"final","category":[{"coding":[{"system":"http://terminology.hl7.org/CodeSystem/observation-category","code":"exam","display":"exam","userSelected":true}]}],"code":{"coding":[{"system":"http://loinc.org","code":"93857-1"}]},"subject":{"reference":"Patient/20bb7712-ab47-4505-bfbf-5bebe074afa2"},"effectiveDateTime":"2026-06-08T21:00:00.000+00:00","valueDateTime":"2026-06-08T21:00:00.000+00:00"},"request":{"method":"PUT","url":"Observation/e7e984cf-a82b-40a8-b68f-02dfc8f5b53b"}},{"fullUrl":"Organization/d48d63b5-1106-484c-9f99-6b4c1038af79","resource":{"resourceType":"Organization","id":"d48d63b5-1106-484c-9f99-6b4c1038af79","meta":{"profile":["http://hl7.org/fhir/us/qicore/StructureDefinition/qicore-organization"]},"identifier":[{"use":"temp","system":"urn:oid:2.16.840.1.113883.4.4","value":"21-3259825"}],"active":true,"type":[{"coding":[{"system":"http://terminology.hl7.org/CodeSystem/organization-type","code":"pay","display":"Payer"}]}],"name":"Blue Cross Blue Shield of Texas","telecom":[{"system":"phone","value":"(+1) 972-766-6900"}],"address":[{"use":"billing","type":"postal","line":["P.O. Box 660044"],"city":"Dallas","state":"TX","postalCode":"75266-0044","country":"USA"}]},"request":{"method":"PUT","url":"Organization/d48d63b5-1106-484c-9f99-6b4c1038af79"}},{"fullUrl":"Patient/20bb7712-ab47-4505-bfbf-5bebe074afa2","resource":{"resourceType":"Patient","id":"20bb7712-ab47-4505-bfbf-5bebe074afa2","meta":{"profile":["http://hl7.org/fhir/us/qicore/StructureDefinition/qicore-patient"]},"text":{"status":"generated","div":"<div xmlns=\"http://www.w3.org/1999/xhtml\"><div class=\"hapiHeaderText\">AssessParity1Gravida2 <b>DENOMFail</b></div><table class=\"hapiPropertyTable\"><tbody><tr><td>Identifier</td><td>e960a66b595990cb41cd1209fad2cf00</td></tr><tr><td>Date of birth</td><td><span>14 February 1985</span></td></tr></tbody></table></div>"},"extension":[{"url":"http://hl7.org/fhir/us/core/StructureDefinition/us-core-race","extension":[{"url":"ombCategory","valueCoding":{"system":"urn:oid:2.16.840.1.113883.6.238","code":"1002-5","display":"American Indian or Alaska Native","userSelected":true}},{"url":"text","valueString":"American Indian or Alaska Native"}]},{"url":"http://hl7.org/fhir/us/core/StructureDefinition/us-core-ethnicity","extension":[{"url":"ombCategory","valueCoding":{"system":"urn:oid:2.16.840.1.113883.6.238","code":"2135-2","display":"Hispanic or Latino","userSelected":true}},{"url":"text","valueString":"Hispanic or Latino"}]}],"identifier":[{"type":{"coding":[{"system":"http://terminology.hl7.org/CodeSystem/v2-0203","code":"MR"}]},"system":"https://bonnie-fhir.healthit.gov/","value":"63487c2d0968f80122540144"}],"active":true,"name":[{"use":"usual","family":"DENOMFail","given":["AssessParity1Gravida2"]}],"gender":"female","birthDate":"1998-02-14"},"request":{"method":"PUT","url":"Patient/20bb7712-ab47-4505-bfbf-5bebe074afa2"}},{"fullUrl":"Observation/f4db85e3-c931-464f-b777-a03fafbc2177","resource":{"resourceType":"Observation","id":"f4db85e3-c931-464f-b777-a03fafbc2177","meta":{"profile":["http://hl7.org/fhir/us/qicore/StructureDefinition/qicore-simple-observation"]},"status":"final","category":[{"coding":[{"system":"http://terminology.hl7.org/CodeSystem/observation-category","code":"exam","display":"exam","userSelected":true}]}],"code":{"coding":[{"system":"http://loinc.org","code":"11977-6"}]},"subject":{"reference":"Patient/20bb7712-ab47-4505-bfbf-5bebe074afa2"},"effectiveDateTime":"2026-03-08T09:00:00.000+00:00","valueInteger":1},"request":{"method":"PUT","url":"Observation/f4db85e3-c931-464f-b777-a03fafbc2177"}},{"fullUrl":"Coverage/57deb6ff-3a3e-42ec-8e1f-4b00af99cef8","resource":{"resourceType":"Coverage","id":"57deb6ff-3a3e-42ec-8e1f-4b00af99cef8","meta":{"profile":["http://hl7.org/fhir/us/qicore/StructureDefinition/qicore-coverage"]},"status":"active","subscriberId":"523435","beneficiary":{"reference":"Patient/20bb7712-ab47-4505-bfbf-5bebe074afa2"},"relationship":{"coding":[{"system":"http://terminology.hl7.org/CodeSystem/subscriber-relationship","code":"self"}]},"payor":[{"reference":"Organization/d48d63b5-1106-484c-9f99-6b4c1038af79"}]},"request":{"method":"PUT","url":"Coverage/57deb6ff-3a3e-42ec-8e1f-4b00af99cef8"}},{"fullUrl":"Encounter/3303e1e3-c193-4e98-b0a8-4f0b5a07ad99","resource":{"resourceType":"Encounter","id":"3303e1e3-c193-4e98-b0a8-4f0b5a07ad99","meta":{"profile":["http://hl7.org/fhir/us/qicore/StructureDefinition/qicore-encounter"]},"status":"finished","class":{"system":"http://terminology.hl7.org/CodeSystem/v3-ActCode","code":"IMP","display":"inpatient encounter"},"type":[{"coding":[{"system":"http://snomed.info/sct","code":"8715000"}]}],"subject":{"reference":"Patient/20bb7712-ab47-4505-bfbf-5bebe074afa2"},"period":{"start":"2026-06-08T08:00:00.000+00:00","end":"2026-06-10T08:15:00.000+00:00"},"length":{"value":2,"unit":"days"},"reasonReference":[{"reference":"Condition/2a4cabea-81e1-46e3-8c4e-1f30536436f8"}]},"request":{"method":"PUT","url":"Encounter/3303e1e3-c193-4e98-b0a8-4f0b5a07ad99"}},{"fullUrl":"MeasureReport/fae85baa-adc5-4d91-b496-813f4d5ae6f5","resource":{"resourceType":"MeasureReport","id":"fae85baa-adc5-4d91-b496-813f4d5ae6f5","meta":{"profile":["http://hl7.org/fhir/us/cqfmeasures/StructureDefinition/test-case-cqfm"]},"contained":[{"resourceType":"Parameters","id":"43113c3a-946b-4b8e-bc7b-5f655f71b0b0-parameters","parameter":[{"name":"subject","valueString":"20bb7712-ab47-4505-bfbf-5bebe074afa2"}]}],"extension":[{"url":"http://hl7.org/fhir/StructureDefinition/cqf-inputParameters","valueReference":{"reference":"#43113c3a-946b-4b8e-bc7b-5f655f71b0b0-parameters"}},{"url":"http://hl7.org/fhir/us/cqfmeasures/StructureDefinition/cqfm-testCaseDescription","valueMarkdown":"Pass IP,  Parity 1 (not nulliparous), gravida 2.  This test case shows a potential problem with the concepts present in the Delivery Procedures value set. I believe this value set would be used when the delivery procedure was not a cesarean section.\n"}],"modifierExtension":[{"url":"http://hl7.org/fhir/us/cqfmeasures/StructureDefinition/cqfm-isTestCase","valueBoolean":true}],"status":"complete","type":"individual","measure":"https://madie.cms.gov/Measure/CMS0334FHIRPCCesareanBirth","period":{"start":"2026-01-01","end":"2026-12-31"},"group":[{"id":"Group_1","population":[{"id":"InitialPopulation_1","code":{"coding":[{"system":"http://terminology.hl7.org/CodeSystem/measure-population","code":"initial-population","display":"Initial Population"}]},"count":1},{"id":"Denominator_1","code":{"coding":[{"system":"http://terminology.hl7.org/CodeSystem/measure-population","code":"denominator","display":"Denominator"}]},"count":0},{"id":"DenominatorExclusion_1","code":{"coding":[{"system":"http://terminology.hl7.org/CodeSystem/measure-population","code":"denominator-exclusion","display":"Denominator Exclusion"}]},"count":0},{"id":"Numerator_1","code":{"coding":[{"system":"http://terminology.hl7.org/CodeSystem/measure-population","code":"numerator","display":"Numerator"}]},"count":0}],"measureScore":{"value":0.0}}],"evaluatedResource":[{"reference":"Patient/20bb7712-ab47-4505-bfbf-5bebe074afa2"},{"reference":"Observation/f4db85e3-c931-464f-b777-a03fafbc2177"},{"reference":"Observation/4f7e41fd-cecf-4bed-b727-36a8da23397c"},{"reference":"Observation/54740f6c-cd95-4fb9-9d64-1b6dfc35e816"},{"reference":"Observation/e7e984cf-a82b-40a8-b68f-02dfc8f5b53b"},{"reference":"Encounter/3303e1e3-c193-4e98-b0a8-4f0b5a07ad99"},{"reference":"Procedure/a3aef2aa-2418-4266-8bae-971a0acb71b9"},{"reference":"Condition/2a4cabea-81e1-46e3-8c4e-1f30536436f8"},{"reference":"Coverage/57deb6ff-3a3e-42ec-8e1f-4b00af99cef8"},{"reference":"Organization/d48d63b5-1106-484c-9f99-6b4c1038af79"},{"reference":"Practitioner/08833fcb-b66c-465f-8256-d9c8796b4bdd"}]},"request":{"method":"PUT","url":"MeasureReport/fae85baa-adc5-4d91-b496-813f4d5ae6f5"}},{"fullUrl":"Bundle/63487c2d0968f80122540144","resource":{"resourceType":"Bundle","id":"63487c2d0968f80122540144","type":"transaction","entry":[{"fullUrl":"https://madie.cms.gov/Patient/20bb7712-ab47-4505-bfbf-5bebe074afa2","resource":{"resourceType":"Patient","id":"20bb7712-ab47-4505-bfbf-5bebe074afa2","meta":{"profile":["http://hl7.org/fhir/us/qicore/StructureDefinition/qicore-patient"]},"text":{"status":"generated","div":"<div xmlns=\"http://www.w3.org/1999/xhtml\"><div class=\"hapiHeaderText\">AssessParity1Gravida2 <b>DENOMFail</b></div><table class=\"hapiPropertyTable\"><tbody><tr><td>Identifier</td><td>e960a66b595990cb41cd1209fad2cf00</td></tr><tr><td>Date of birth</td><td><span>14 February 1985</span></td></tr></tbody></table></div>"},"extension":[{"url":"http://hl7.org/fhir/us/core/StructureDefinition/us-core-race","extension":[{"url":"ombCategory","valueCoding":{"system":"urn:oid:2.16.840.1.113883.6.238","code":"1002-5","display":"American Indian or Alaska Native","userSelected":true}},{"url":"text","valueString":"American Indian or Alaska Native"}]},{"url":"http://hl7.org/fhir/us/core/StructureDefinition/us-core-ethnicity","extension":[{"url":"ombCategory","valueCoding":{"system":"urn:oid:2.16.840.1.113883.6.238","code":"2135-2","display":"Hispanic or Latino","userSelected":true}},{"url":"text","valueString":"Hispanic or Latino"}]}],"identifier":[{"type":{"coding":[{"system":"http://terminology.hl7.org/CodeSystem/v2-0203","code":"MR"}]},"system":"https://bonnie-fhir.healthit.gov/","value":"63487c2d0968f80122540144"}],"active":true,"name":[{"use":"usual","family":"DENOMFail","given":["AssessParity1Gravida2"]}],"gender":"female","birthDate":"1998-02-14"},"request":{"method":"PUT","url":"Patient/20bb7712-ab47-4505-bfbf-5bebe074afa2"}},{"fullUrl":"https://madie.cms.gov/Observation/f4db85e3-c931-464f-b777-a03fafbc2177","resource":{"resourceType":"Observation","id":"f4db85e3-c931-464f-b777-a03fafbc2177","meta":{"profile":["http://hl7.org/fhir/us/qicore/StructureDefinition/qicore-simple-observation"]},"status":"final","category":[{"coding":[{"system":"http://terminology.hl7.org/CodeSystem/observation-category","code":"exam","display":"exam","userSelected":true}]}],"code":{"coding":[{"system":"http://loinc.org","code":"11977-6"}]},"subject":{"reference":"Patient/20bb7712-ab47-4505-bfbf-5bebe074afa2"},"effectiveDateTime":"2026-03-08T09:00:00.000+00:00","valueInteger":1},"request":{"method":"PUT","url":"Observation/f4db85e3-c931-464f-b777-a03fafbc2177"}},{"fullUrl":"https://madie.cms.gov/Observation/4f7e41fd-cecf-4bed-b727-36a8da23397c","resource":{"resourceType":"Observation","id":"4f7e41fd-cecf-4bed-b727-36a8da23397c","meta":{"profile":["http://hl7.org/fhir/us/qicore/StructureDefinition/qicore-simple-observation"]},"status":"final","category":[{"coding":[{"system":"http://terminology.hl7.org/CodeSystem/observation-category","code":"exam","display":"exam","userSelected":true}]}],"code":{"coding":[{"system":"http://loinc.org","code":"11996-6"}]},"subject":{"reference":"Patient/20bb7712-ab47-4505-bfbf-5bebe074afa2"},"effectiveDateTime":"2026-03-09T08:00:00.000+00:00","valueInteger":0},"request":{"method":"PUT","url":"Observation/4f7e41fd-cecf-4bed-b727-36a8da23397c"}},{"fullUrl":"https://madie.cms.gov/Observation/54740f6c-cd95-4fb9-9d64-1b6dfc35e816","resource":{"resourceType":"Observation","id":"54740f6c-cd95-4fb9-9d64-1b6dfc35e816","meta":{"profile":["http://hl7.org/fhir/us/qicore/StructureDefinition/qicore-simple-observation"]},"status":"final","category":[{"coding":[{"system":"http://terminology.hl7.org/CodeSystem/observation-category","code":"exam","display":"exam","userSelected":true}]}],"code":{"coding":[{"system":"http://loinc.org","code":"11884-4"}]},"subject":{"reference":"Patient/20bb7712-ab47-4505-bfbf-5bebe074afa2"},"effectiveDateTime":"2026-06-08T21:00:00.000+00:00","valueQuantity":{"value":38,"system":"http://unitsofmeasure.org","code":"wk"}},"request":{"method":"PUT","url":"Observation/54740f6c-cd95-4fb9-9d64-1b6dfc35e816"}},{"fullUrl":"https://madie.cms.gov/Observation/e7e984cf-a82b-40a8-b68f-02dfc8f5b53b","resource":{"resourceType":"Observation","id":"e7e984cf-a82b-40a8-b68f-02dfc8f5b53b","meta":{"profile":["http://hl7.org/fhir/us/qicore/StructureDefinition/qicore-simple-observation"]},"status":"final","category":[{"coding":[{"system":"http://terminology.hl7.org/CodeSystem/observation-category","code":"exam","display":"exam","userSelected":true}]}],"code":{"coding":[{"system":"http://loinc.org","code":"93857-1"}]},"subject":{"reference":"Patient/20bb7712-ab47-4505-bfbf-5bebe074afa2"},"effectiveDateTime":"2026-06-08T21:00:00.000+00:00","valueDateTime":"2026-06-08T21:00:00.000+00:00"},"request":{"method":"PUT","url":"Observation/e7e984cf-a82b-40a8-b68f-02dfc8f5b53b"}},{"fullUrl":"https://madie.cms.gov/Encounter/3303e1e3-c193-4e98-b0a8-4f0b5a07ad99","resource":{"resourceType":"Encounter","id":"3303e1e3-c193-4e98-b0a8-4f0b5a07ad99","meta":{"profile":["http://hl7.org/fhir/us/qicore/StructureDefinition/qicore-encounter"]},"status":"finished","class":{"system":"http://terminology.hl7.org/CodeSystem/v3-ActCode","code":"IMP","display":"inpatient encounter"},"type":[{"coding":[{"system":"http://snomed.info/sct","code":"8715000"}]}],"subject":{"reference":"Patient/20bb7712-ab47-4505-bfbf-5bebe074afa2"},"period":{"start":"2026-06-08T08:00:00.000+00:00","end":"2026-06-10T08:15:00.000+00:00"},"length":{"value":2,"unit":"days"},"reasonReference":[{"reference":"Condition/2a4cabea-81e1-46e3-8c4e-1f30536436f8"}]},"request":{"method":"PUT","url":"Encounter/3303e1e3-c193-4e98-b0a8-4f0b5a07ad99"}},{"fullUrl":"https://madie.cms.gov/Procedure/a3aef2aa-2418-4266-8bae-971a0acb71b9","resource":{"resourceType":"Procedure","id":"a3aef2aa-2418-4266-8bae-971a0acb71b9","meta":{"profile":["http://hl7.org/fhir/us/qicore/StructureDefinition/qicore-procedure"]},"extension":[{"url":"http://hl7.org/fhir/us/qicore/StructureDefinition/qicore-recorded","valueDateTime":"2014-04-05T13:35:00.000+00:00"}],"status":"completed","code":{"coding":[{"system":"http://snomed.info/sct","code":"4504004"}]},"subject":{"reference":"Patient/20bb7712-ab47-4505-bfbf-5bebe074afa2"},"performedPeriod":{"start":"2026-06-08T20:00:00.000+00:00","end":"2026-06-08T21:15:00.000+00:00"}},"request":{"method":"PUT","url":"Procedure/a3aef2aa-2418-4266-8bae-971a0acb71b9"}},{"fullUrl":"https://madie.cms.gov/Condition/2a4cabea-81e1-46e3-8c4e-1f30536436f8","resource":{"resourceType":"Condition","id":"2a4cabea-81e1-46e3-8c4e-1f30536436f8","meta":{"profile":["http://hl7.org/fhir/us/qicore/StructureDefinition/qicore-condition-encounter-diagnosis"]},"category":[{"coding":[{"system":"http://terminology.hl7.org/CodeSystem/condition-category","code":"encounter-diagnosis","display":"Encounter Diagnosis"}]}],"code":{"coding":[{"system":"http://snomed.info/sct","version":"2022-09","code":"169826009","display":"Single live birth from singleton pregnancy (finding)","userSelected":true}]},"subject":{"reference":"Patient/20bb7712-ab47-4505-bfbf-5bebe074afa2"},"encounter":{"reference":"Encounter/3303e1e3-c193-4e98-b0a8-4f0b5a07ad99"},"recordedDate":"2026-10-21T08:00:00.000+00:00"},"request":{"method":"PUT","url":"Condition/2a4cabea-81e1-46e3-8c4e-1f30536436f8"}},{"fullUrl":"https://madie.cms.gov/Coverage/57deb6ff-3a3e-42ec-8e1f-4b00af99cef8","resource":{"resourceType":"Coverage","id":"57deb6ff-3a3e-42ec-8e1f-4b00af99cef8","meta":{"profile":["http://hl7.org/fhir/us/qicore/StructureDefinition/qicore-coverage"]},"status":"active","subscriberId":"523435","beneficiary":{"reference":"Patient/20bb7712-ab47-4505-bfbf-5bebe074afa2"},"relationship":{"coding":[{"system":"http://terminology.hl7.org/CodeSystem/subscriber-relationship","code":"self"}]},"payor":[{"reference":"Organization/d48d63b5-1106-484c-9f99-6b4c1038af79"}]},"request":{"method":"PUT","url":"Coverage/57deb6ff-3a3e-42ec-8e1f-4b00af99cef8"}},{"fullUrl":"https://madie.cms.gov/Organization/d48d63b5-1106-484c-9f99-6b4c1038af79","resource":{"resourceType":"Organization","id":"d48d63b5-1106-484c-9f99-6b4c1038af79","meta":{"profile":["http://hl7.org/fhir/us/qicore/StructureDefinition/qicore-organization"]},"identifier":[{"use":"temp","system":"urn:oid:2.16.840.1.113883.4.4","value":"21-3259825"}],"active":true,"type":[{"coding":[{"system":"http://terminology.hl7.org/CodeSystem/organization-type","code":"pay","display":"Payer"}]}],"name":"Blue Cross Blue Shield of Texas","telecom":[{"system":"phone","value":"(+1) 972-766-6900"}],"address":[{"use":"billing","type":"postal","line":["P.O. Box 660044"],"city":"Dallas","state":"TX","postalCode":"75266-0044","country":"USA"}]},"request":{"method":"PUT","url":"Organization/d48d63b5-1106-484c-9f99-6b4c1038af79"}},{"fullUrl":"https://madie.cms.gov/Practitioner/08833fcb-b66c-465f-8256-d9c8796b4bdd","resource":{"resourceType":"Practitioner","id":"08833fcb-b66c-465f-8256-d9c8796b4bdd","meta":{"profile":["http://hl7.org/fhir/us/qicore/StructureDefinition/qicore-practitioner"]},"identifier":[{"system":"http://hl7.org/fhir/sid/us-npi","value":"1234567890"}],"name":[{"family":"Evil","prefix":["Dr"]}]},"request":{"method":"PUT","url":"Practitioner/08833fcb-b66c-465f-8256-d9c8796b4bdd"}},{"fullUrl":"https://madie.cms.gov/MeasureReport/fae85baa-adc5-4d91-b496-813f4d5ae6f5","resource":{"resourceType":"MeasureReport","id":"fae85baa-adc5-4d91-b496-813f4d5ae6f5","meta":{"profile":["http://hl7.org/fhir/us/cqfmeasures/StructureDefinition/test-case-cqfm"]},"contained":[{"resourceType":"Parameters","id":"43113c3a-946b-4b8e-bc7b-5f655f71b0b0-parameters","parameter":[{"name":"subject","valueString":"20bb7712-ab47-4505-bfbf-5bebe074afa2"}]}],"extension":[{"url":"http://hl7.org/fhir/StructureDefinition/cqf-inputParameters","valueReference":{"reference":"#43113c3a-946b-4b8e-bc7b-5f655f71b0b0-parameters"}},{"url":"http://hl7.org/fhir/us/cqfmeasures/StructureDefinition/cqfm-testCaseDescription","valueMarkdown":"Pass IP,  Parity 1 (not nulliparous), gravida 2.  This test case shows a potential problem with the concepts present in the Delivery Procedures value set. I believe this value set would be used when the delivery procedure was not a cesarean section.\n"}],"modifierExtension":[{"url":"http://hl7.org/fhir/us/cqfmeasures/StructureDefinition/cqfm-isTestCase","valueBoolean":true}],"status":"complete","type":"individual","measure":"https://madie.cms.gov/Measure/CMS0334FHIRPCCesareanBirth","period":{"start":"2026-01-01","end":"2026-12-31"},"group":[{"id":"Group_1","population":[{"id":"InitialPopulation_1","code":{"coding":[{"system":"http://terminology.hl7.org/CodeSystem/measure-population","code":"initial-population","display":"Initial Population"}]},"count":1},{"id":"Denominator_1","code":{"coding":[{"system":"http://terminology.hl7.org/CodeSystem/measure-population","code":"denominator","display":"Denominator"}]},"count":0},{"id":"DenominatorExclusion_1","code":{"coding":[{"system":"http://terminology.hl7.org/CodeSystem/measure-population","code":"denominator-exclusion","display":"Denominator Exclusion"}]},"count":0},{"id":"Numerator_1","code":{"coding":[{"system":"http://terminology.hl7.org/CodeSystem/measure-population","code":"numerator","display":"Numerator"}]},"count":0}],"measureScore":{"value":0.0}}],"evaluatedResource":[{"reference":"Patient/20bb7712-ab47-4505-bfbf-5bebe074afa2"},{"reference":"Observation/f4db85e3-c931-464f-b777-a03fafbc2177"},{"reference":"Observation/4f7e41fd-cecf-4bed-b727-36a8da23397c"},{"reference":"Observation/54740f6c-cd95-4fb9-9d64-1b6dfc35e816"},{"reference":"Observation/e7e984cf-a82b-40a8-b68f-02dfc8f5b53b"},{"reference":"Encounter/3303e1e3-c193-4e98-b0a8-4f0b5a07ad99"},{"reference":"Procedure/a3aef2aa-2418-4266-8bae-971a0acb71b9"},{"reference":"Condition/2a4cabea-81e1-46e3-8c4e-1f30536436f8"},{"reference":"Coverage/57deb6ff-3a3e-42ec-8e1f-4b00af99cef8"},{"reference":"Organization/d48d63b5-1106-484c-9f99-6b4c1038af79"},{"reference":"Practitioner/08833fcb-b66c-465f-8256-d9c8796b4bdd"}]},"request":{"method":"PUT","url":"MeasureReport/fae85baa-adc5-4d91-b496-813f4d5ae6f5"}}]},"request":{"method":"PUT","url":"Bundle/63487c2d0968f80122540144"}},{"fullUrl":"Procedure/a3aef2aa-2418-4266-8bae-971a0acb71b9","resource":{"resourceType":"Procedure","id":"a3aef2aa-2418-4266-8bae-971a0acb71b9","meta":{"profile":["http://hl7.org/fhir/us/qicore/StructureDefinition/qicore-procedure"]},"extension":[{"url":"http://hl7.org/fhir/us/qicore/StructureDefinition/qicore-recorded","valueDateTime":"2014-04-05T13:35:00.000+00:00"}],"status":"completed","code":{"coding":[{"system":"http://snomed.info/sct","code":"4504004"}]},"subject":{"reference":"Patient/20bb7712-ab47-4505-bfbf-5bebe074afa2"},"performedPeriod":{"start":"2026-06-08T20:00:00.000+00:00","end":"2026-06-08T21:15:00.000+00:00"}},"request":{"method":"PUT","url":"Procedure/a3aef2aa-2418-4266-8bae-971a0acb71b9"}},{"fullUrl":"Condition/2a4cabea-81e1-46e3-8c4e-1f30536436f8","resource":{"resourceType":"Condition","id":"2a4cabea-81e1-46e3-8c4e-1f30536436f8","meta":{"profile":["http://hl7.org/fhir/us/qicore/StructureDefinition/qicore-condition-encounter-diagnosis"]},"category":[{"coding":[{"system":"http://terminology.hl7.org/CodeSystem/condition-category","code":"encounter-diagnosis","display":"Encounter Diagnosis"}]}],"code":{"coding":[{"system":"http://snomed.info/sct","version":"2022-09","code":"169826009","display":"Single live birth from singleton pregnancy (finding)","userSelected":true}]},"subject":{"reference":"Patient/20bb7712-ab47-4505-bfbf-5bebe074afa2"},"encounter":{"reference":"Encounter/3303e1e3-c193-4e98-b0a8-4f0b5a07ad99"},"recordedDate":"2026-10-21T08:00:00.000+00:00"},"request":{"method":"PUT","url":"Condition/2a4cabea-81e1-46e3-8c4e-1f30536436f8"}},{"fullUrl":"Observation/4f7e41fd-cecf-4bed-b727-36a8da23397c","resource":{"resourceType":"Observation","id":"4f7e41fd-cecf-4bed-b727-36a8da23397c","meta":{"profile":["http://hl7.org/fhir/us/qicore/StructureDefinition/qicore-simple-observation"]},"status":"final","category":[{"coding":[{"system":"http://terminology.hl7.org/CodeSystem/observation-category","code":"exam","display":"exam","userSelected":true}]}],"code":{"coding":[{"system":"http://loinc.org","code":"11996-6"}]},"subject":{"reference":"Patient/20bb7712-ab47-4505-bfbf-5bebe074afa2"},"effectiveDateTime":"2026-03-09T08:00:00.000+00:00","valueInteger":0},"request":{"method":"PUT","url":"Observation/4f7e41fd-cecf-4bed-b727-36a8da23397c"}}]}