{"resourceType":"Bundle","id":"tests-ea482ebf-f11a-4984-9289-0257711ed160-bundle","type":"transaction","entry":[{"fullUrl":"Practitioner/788ef8d1-679a-4563-96b6-83a3e0e521c3","resource":{"resourceType":"Practitioner","id":"788ef8d1-679a-4563-96b6-83a3e0e521c3","meta":{"profile":["http://hl7.org/fhir/us/qicore/StructureDefinition/qicore-practitioner"]},"identifier":[{"system":"http://hl7.org/fhir/sid/us-npi","value":"1234567890"}],"name":[{"family":"Evil","prefix":["Dr"]}]},"request":{"method":"PUT","url":"Practitioner/788ef8d1-679a-4563-96b6-83a3e0e521c3"}},{"fullUrl":"Condition/4c22d92c-0344-483c-9858-813f075db91a","resource":{"resourceType":"Condition","id":"4c22d92c-0344-483c-9858-813f075db91a","meta":{"profile":["http://hl7.org/fhir/us/qicore/StructureDefinition/qicore-condition-encounter-diagnosis"]},"category":[{"coding":[{"system":"http://terminology.hl7.org/CodeSystem/condition-category","code":"encounter-diagnosis","display":"Encounter Diagnosis"}]}],"code":{"coding":[{"system":"http://snomed.info/sct","version":"2022-09","code":"169826009","display":"Single live birth from singleton pregnancy (finding)","userSelected":true}]},"subject":{"reference":"Patient/ea482ebf-f11a-4984-9289-0257711ed160"},"recordedDate":"2026-10-17T08:00:00.000+00:00"},"request":{"method":"PUT","url":"Condition/4c22d92c-0344-483c-9858-813f075db91a"}},{"fullUrl":"Procedure/e2a9d3eb-f274-4fb8-ba66-b3a158600b05","resource":{"resourceType":"Procedure","id":"e2a9d3eb-f274-4fb8-ba66-b3a158600b05","meta":{"profile":["http://hl7.org/fhir/us/qicore/StructureDefinition/qicore-procedure"]},"extension":[{"url":"http://hl7.org/fhir/us/qicore/StructureDefinition/qicore-recorded","valueDateTime":"2014-04-05T13:35:00.000+00:00"}],"status":"completed","code":{"coding":[{"system":"http://www.cms.gov/Medicare/Coding/ICD10","code":"10D00Z0"}]},"subject":{"reference":"Patient/ea482ebf-f11a-4984-9289-0257711ed160"},"performedPeriod":{"start":"2026-11-28T08:00:00.000+00:00","end":"2026-11-28T09:00:00.000+00:00"}},"request":{"method":"PUT","url":"Procedure/e2a9d3eb-f274-4fb8-ba66-b3a158600b05"}},{"fullUrl":"Observation/da2439cd-88de-4760-a5e9-07ce1d02dcba","resource":{"resourceType":"Observation","id":"da2439cd-88de-4760-a5e9-07ce1d02dcba","meta":{"profile":["http://hl7.org/fhir/us/qicore/StructureDefinition/qicore-simple-observation"]},"status":"final","category":[{"coding":[{"system":"http://terminology.hl7.org/CodeSystem/observation-category","code":"exam","display":"exam","userSelected":true}]}],"code":{"coding":[{"system":"http://loinc.org","code":"11996-6"}]},"subject":{"reference":"Patient/ea482ebf-f11a-4984-9289-0257711ed160"},"effectiveDateTime":"2026-02-09T08:00:00.000+00:00","performer":[{"reference":"Organization/example1","display":"Hendricks Country Hospital"}],"valueInteger":1},"request":{"method":"PUT","url":"Observation/da2439cd-88de-4760-a5e9-07ce1d02dcba"}},{"fullUrl":"Coverage/4a9c637a-4d45-40ab-85e6-d66bf4f47736","resource":{"resourceType":"Coverage","id":"4a9c637a-4d45-40ab-85e6-d66bf4f47736","meta":{"profile":["http://hl7.org/fhir/us/qicore/StructureDefinition/qicore-coverage"]},"status":"active","subscriberId":"523435","beneficiary":{"reference":"Patient/ea482ebf-f11a-4984-9289-0257711ed160"},"relationship":{"coding":[{"system":"http://terminology.hl7.org/CodeSystem/subscriber-relationship","code":"self"}]},"payor":[{"reference":"Organization/ce7a1ca3-1bdb-4ecf-b406-32470419b81f"}]},"request":{"method":"PUT","url":"Coverage/4a9c637a-4d45-40ab-85e6-d66bf4f47736"}},{"fullUrl":"Observation/34e2905c-20d5-4fb3-bd9c-562f107a8477","resource":{"resourceType":"Observation","id":"34e2905c-20d5-4fb3-bd9c-562f107a8477","meta":{"profile":["http://hl7.org/fhir/us/qicore/StructureDefinition/qicore-simple-observation"]},"status":"final","category":[{"coding":[{"system":"http://terminology.hl7.org/CodeSystem/observation-category","code":"exam","display":"exam","userSelected":true}]}],"code":{"coding":[{"system":"http://loinc.org","code":"93857-1"}]},"subject":{"reference":"Patient/ea482ebf-f11a-4984-9289-0257711ed160"},"effectiveDateTime":"2026-11-28T21:15:00.000+00:00","performer":[{"reference":"Organization/example1","display":"Hendricks Country Hospital"}],"valueDateTime":"2026-11-28T21:15:00.000+00:00"},"request":{"method":"PUT","url":"Observation/34e2905c-20d5-4fb3-bd9c-562f107a8477"}},{"fullUrl":"Bundle/63487c2d0968f80122540155","resource":{"resourceType":"Bundle","id":"63487c2d0968f80122540155","type":"transaction","entry":[{"fullUrl":"https://madie.cms.gov/Patient/ea482ebf-f11a-4984-9289-0257711ed160","resource":{"resourceType":"Patient","id":"ea482ebf-f11a-4984-9289-0257711ed160","meta":{"profile":["http://hl7.org/fhir/us/qicore/StructureDefinition/qicore-patient"]},"text":{"status":"generated","div":"<div xmlns=\"http://www.w3.org/1999/xhtml\"><div class=\"hapiHeaderText\">ProcCsectStartEQDelivEncStart<b>NUMPASS</b></div><table class=\"hapiPropertyTable\"><tbody><tr><td>Identifier</td><td>ba4fd3b10ac3c0774130502644ec993f7ad4c4fe84bc3b79df4100b77375baef</td></tr><tr><td>Date of birth</td><td><span>14 February 1985</span></td></tr></tbody></table></div>"},"extension":[{"url":"http://hl7.org/fhir/us/core/StructureDefinition/us-core-race","extension":[{"url":"ombCategory","valueCoding":{"system":"urn:oid:2.16.840.1.113883.6.238","code":"1002-5","display":"American Indian or Alaska Native","userSelected":true}},{"url":"text","valueString":"American Indian or Alaska Native"}]},{"url":"http://hl7.org/fhir/us/core/StructureDefinition/us-core-ethnicity","extension":[{"url":"ombCategory","valueCoding":{"system":"urn:oid:2.16.840.1.113883.6.238","code":"2135-2","display":"Hispanic or Latino","userSelected":true}},{"url":"text","valueString":"Hispanic or Latino"}]},{"url":"http://hl7.org/fhir/us/core/StructureDefinition/us-core-sex","valueCode":"248152002"}],"identifier":[{"type":{"coding":[{"system":"http://terminology.hl7.org/CodeSystem/v2-0203","code":"MR"}]},"system":"https://bonnie-fhir.healthit.gov/","value":"63487c2d0968f80122540155"}],"active":true,"name":[{"use":"usual","family":"NUMPass","given":["ProcCsectStartEQDelivEncStart"]}],"gender":"female","birthDate":"1998-02-14"},"request":{"method":"PUT","url":"Patient/ea482ebf-f11a-4984-9289-0257711ed160"}},{"fullUrl":"https://madie.cms.gov/Observation/da2439cd-88de-4760-a5e9-07ce1d02dcba","resource":{"resourceType":"Observation","id":"da2439cd-88de-4760-a5e9-07ce1d02dcba","meta":{"profile":["http://hl7.org/fhir/us/qicore/StructureDefinition/qicore-simple-observation"]},"status":"final","category":[{"coding":[{"system":"http://terminology.hl7.org/CodeSystem/observation-category","code":"exam","display":"exam","userSelected":true}]}],"code":{"coding":[{"system":"http://loinc.org","code":"11996-6"}]},"subject":{"reference":"Patient/ea482ebf-f11a-4984-9289-0257711ed160"},"effectiveDateTime":"2026-02-09T08:00:00.000+00:00","performer":[{"reference":"Organization/example1","display":"Hendricks Country Hospital"}],"valueInteger":1},"request":{"method":"PUT","url":"Observation/da2439cd-88de-4760-a5e9-07ce1d02dcba"}},{"fullUrl":"https://madie.cms.gov/Observation/e9c4585e-7e1f-4e97-9bf5-174b14f074e1","resource":{"resourceType":"Observation","id":"e9c4585e-7e1f-4e97-9bf5-174b14f074e1","meta":{"profile":["http://hl7.org/fhir/us/qicore/StructureDefinition/qicore-simple-observation"]},"status":"final","category":[{"coding":[{"system":"http://terminology.hl7.org/CodeSystem/observation-category","code":"exam","display":"exam","userSelected":true}]}],"code":{"coding":[{"system":"http://loinc.org","code":"11884-4"}]},"subject":{"reference":"Patient/ea482ebf-f11a-4984-9289-0257711ed160"},"effectiveDateTime":"2026-11-28T21:15:00.000+00:00","performer":[{"reference":"Organization/example1","display":"Hendricks Country Hospital"}],"valueQuantity":{"value":40,"system":"http://unitsofmeasure.org","code":"wk"}},"request":{"method":"PUT","url":"Observation/e9c4585e-7e1f-4e97-9bf5-174b14f074e1"}},{"fullUrl":"https://madie.cms.gov/Observation/34e2905c-20d5-4fb3-bd9c-562f107a8477","resource":{"resourceType":"Observation","id":"34e2905c-20d5-4fb3-bd9c-562f107a8477","meta":{"profile":["http://hl7.org/fhir/us/qicore/StructureDefinition/qicore-simple-observation"]},"status":"final","category":[{"coding":[{"system":"http://terminology.hl7.org/CodeSystem/observation-category","code":"exam","display":"exam","userSelected":true}]}],"code":{"coding":[{"system":"http://loinc.org","code":"93857-1"}]},"subject":{"reference":"Patient/ea482ebf-f11a-4984-9289-0257711ed160"},"effectiveDateTime":"2026-11-28T21:15:00.000+00:00","performer":[{"reference":"Organization/example1","display":"Hendricks Country Hospital"}],"valueDateTime":"2026-11-28T21:15:00.000+00:00"},"request":{"method":"PUT","url":"Observation/34e2905c-20d5-4fb3-bd9c-562f107a8477"}},{"fullUrl":"https://madie.cms.gov/Encounter/8fa8e66c-a8b1-48dd-bb77-a761c477fbcd","resource":{"resourceType":"Encounter","id":"8fa8e66c-a8b1-48dd-bb77-a761c477fbcd","meta":{"profile":["http://hl7.org/fhir/us/qicore/StructureDefinition/qicore-encounter"]},"status":"finished","class":{"system":"http://terminology.hl7.org/CodeSystem/v3-ActCode","code":"IMP","display":"inpatient encounter"},"type":[{"coding":[{"system":"http://snomed.info/sct","code":"8715000"}]}],"subject":{"reference":"Patient/ea482ebf-f11a-4984-9289-0257711ed160"},"period":{"start":"2026-11-28T08:00:00.000+00:00","end":"2026-11-30T08:15:00.000+00:00"},"reasonCode":[{"coding":[{"system":"http://snomed.info/sct","code":"169826009","display":"Single live birth from singleton pregnancy (finding)"}]}]},"request":{"method":"PUT","url":"Encounter/8fa8e66c-a8b1-48dd-bb77-a761c477fbcd"}},{"fullUrl":"https://madie.cms.gov/Procedure/e2a9d3eb-f274-4fb8-ba66-b3a158600b05","resource":{"resourceType":"Procedure","id":"e2a9d3eb-f274-4fb8-ba66-b3a158600b05","meta":{"profile":["http://hl7.org/fhir/us/qicore/StructureDefinition/qicore-procedure"]},"extension":[{"url":"http://hl7.org/fhir/us/qicore/StructureDefinition/qicore-recorded","valueDateTime":"2014-04-05T13:35:00.000+00:00"}],"status":"completed","code":{"coding":[{"system":"http://www.cms.gov/Medicare/Coding/ICD10","code":"10D00Z0"}]},"subject":{"reference":"Patient/ea482ebf-f11a-4984-9289-0257711ed160"},"performedPeriod":{"start":"2026-11-28T08:00:00.000+00:00","end":"2026-11-28T09:00:00.000+00:00"}},"request":{"method":"PUT","url":"Procedure/e2a9d3eb-f274-4fb8-ba66-b3a158600b05"}},{"fullUrl":"https://madie.cms.gov/Condition/4c22d92c-0344-483c-9858-813f075db91a","resource":{"resourceType":"Condition","id":"4c22d92c-0344-483c-9858-813f075db91a","meta":{"profile":["http://hl7.org/fhir/us/qicore/StructureDefinition/qicore-condition-encounter-diagnosis"]},"category":[{"coding":[{"system":"http://terminology.hl7.org/CodeSystem/condition-category","code":"encounter-diagnosis","display":"Encounter Diagnosis"}]}],"code":{"coding":[{"system":"http://snomed.info/sct","version":"2022-09","code":"169826009","display":"Single live birth from singleton pregnancy (finding)","userSelected":true}]},"subject":{"reference":"Patient/ea482ebf-f11a-4984-9289-0257711ed160"},"recordedDate":"2026-10-17T08:00:00.000+00:00"},"request":{"method":"PUT","url":"Condition/4c22d92c-0344-483c-9858-813f075db91a"}},{"fullUrl":"https://madie.cms.gov/Coverage/4a9c637a-4d45-40ab-85e6-d66bf4f47736","resource":{"resourceType":"Coverage","id":"4a9c637a-4d45-40ab-85e6-d66bf4f47736","meta":{"profile":["http://hl7.org/fhir/us/qicore/StructureDefinition/qicore-coverage"]},"status":"active","subscriberId":"523435","beneficiary":{"reference":"Patient/ea482ebf-f11a-4984-9289-0257711ed160"},"relationship":{"coding":[{"system":"http://terminology.hl7.org/CodeSystem/subscriber-relationship","code":"self"}]},"payor":[{"reference":"Organization/ce7a1ca3-1bdb-4ecf-b406-32470419b81f"}]},"request":{"method":"PUT","url":"Coverage/4a9c637a-4d45-40ab-85e6-d66bf4f47736"}},{"fullUrl":"https://madie.cms.gov/Organization/ce7a1ca3-1bdb-4ecf-b406-32470419b81f","resource":{"resourceType":"Organization","id":"ce7a1ca3-1bdb-4ecf-b406-32470419b81f","meta":{"profile":["http://hl7.org/fhir/us/qicore/StructureDefinition/qicore-organization"]},"identifier":[{"use":"temp","system":"urn:oid:2.16.840.1.113883.4.4","value":"21-3259825"}],"active":true,"type":[{"coding":[{"system":"http://terminology.hl7.org/CodeSystem/organization-type","code":"pay","display":"Payer"}]}],"name":"Blue Cross Blue Shield of Texas","telecom":[{"system":"phone","value":"(+1) 972-766-6900"}],"address":[{"use":"billing","type":"postal","line":["P.O. Box 660044"],"city":"Dallas","state":"TX","postalCode":"75266-0044","country":"USA"}]},"request":{"method":"PUT","url":"Organization/ce7a1ca3-1bdb-4ecf-b406-32470419b81f"}},{"fullUrl":"https://madie.cms.gov/Practitioner/788ef8d1-679a-4563-96b6-83a3e0e521c3","resource":{"resourceType":"Practitioner","id":"788ef8d1-679a-4563-96b6-83a3e0e521c3","meta":{"profile":["http://hl7.org/fhir/us/qicore/StructureDefinition/qicore-practitioner"]},"identifier":[{"system":"http://hl7.org/fhir/sid/us-npi","value":"1234567890"}],"name":[{"family":"Evil","prefix":["Dr"]}]},"request":{"method":"PUT","url":"Practitioner/788ef8d1-679a-4563-96b6-83a3e0e521c3"}},{"fullUrl":"https://madie.cms.gov/MeasureReport/c1ed2aed-b55f-4bab-8e1a-5368fa9c21c4","resource":{"resourceType":"MeasureReport","id":"c1ed2aed-b55f-4bab-8e1a-5368fa9c21c4","meta":{"profile":["http://hl7.org/fhir/us/cqfmeasures/StructureDefinition/test-case-cqfm"]},"contained":[{"resourceType":"Parameters","id":"c2af0056-31e1-487c-8cfc-4a5f15426d9e-parameters","parameter":[{"name":"subject","valueString":"ea482ebf-f11a-4984-9289-0257711ed160"}]}],"extension":[{"url":"http://hl7.org/fhir/StructureDefinition/cqf-inputParameters","valueReference":{"reference":"#c2af0056-31e1-487c-8cfc-4a5f15426d9e-parameters"}},{"url":"http://hl7.org/fhir/us/cqfmeasures/StructureDefinition/cqfm-testCaseDescription","valueMarkdown":"Passes IP, DEN, NUM; Gravida 1(effective date 42 weeks)  and EGA 40 weeks;  Start of Proc Csect equals start of Delivery Encounter."}],"modifierExtension":[{"url":"http://hl7.org/fhir/us/cqfmeasures/StructureDefinition/cqfm-isTestCase","valueBoolean":true}],"status":"complete","type":"individual","measure":"https://madie.cms.gov/Measure/CMS0334FHIRPCCesareanBirth","period":{"start":"2026-01-01","end":"2026-12-31"},"group":[{"id":"Group_1","population":[{"id":"InitialPopulation_1","code":{"coding":[{"system":"http://terminology.hl7.org/CodeSystem/measure-population","code":"initial-population","display":"Initial Population"}]},"count":1},{"id":"Denominator_1","code":{"coding":[{"system":"http://terminology.hl7.org/CodeSystem/measure-population","code":"denominator","display":"Denominator"}]},"count":1},{"id":"DenominatorExclusion_1","code":{"coding":[{"system":"http://terminology.hl7.org/CodeSystem/measure-population","code":"denominator-exclusion","display":"Denominator Exclusion"}]},"count":0},{"id":"Numerator_1","code":{"coding":[{"system":"http://terminology.hl7.org/CodeSystem/measure-population","code":"numerator","display":"Numerator"}]},"count":1}],"measureScore":{"value":0.0}}],"evaluatedResource":[{"reference":"Patient/ea482ebf-f11a-4984-9289-0257711ed160"},{"reference":"Observation/da2439cd-88de-4760-a5e9-07ce1d02dcba"},{"reference":"Observation/e9c4585e-7e1f-4e97-9bf5-174b14f074e1"},{"reference":"Observation/34e2905c-20d5-4fb3-bd9c-562f107a8477"},{"reference":"Encounter/8fa8e66c-a8b1-48dd-bb77-a761c477fbcd"},{"reference":"Procedure/e2a9d3eb-f274-4fb8-ba66-b3a158600b05"},{"reference":"Condition/4c22d92c-0344-483c-9858-813f075db91a"},{"reference":"Coverage/4a9c637a-4d45-40ab-85e6-d66bf4f47736"},{"reference":"Organization/ce7a1ca3-1bdb-4ecf-b406-32470419b81f"},{"reference":"Practitioner/788ef8d1-679a-4563-96b6-83a3e0e521c3"}]},"request":{"method":"PUT","url":"MeasureReport/c1ed2aed-b55f-4bab-8e1a-5368fa9c21c4"}}]},"request":{"method":"PUT","url":"Bundle/63487c2d0968f80122540155"}},{"fullUrl":"MeasureReport/c1ed2aed-b55f-4bab-8e1a-5368fa9c21c4","resource":{"resourceType":"MeasureReport","id":"c1ed2aed-b55f-4bab-8e1a-5368fa9c21c4","meta":{"profile":["http://hl7.org/fhir/us/cqfmeasures/StructureDefinition/test-case-cqfm"]},"contained":[{"resourceType":"Parameters","id":"c2af0056-31e1-487c-8cfc-4a5f15426d9e-parameters","parameter":[{"name":"subject","valueString":"ea482ebf-f11a-4984-9289-0257711ed160"}]}],"extension":[{"url":"http://hl7.org/fhir/StructureDefinition/cqf-inputParameters","valueReference":{"reference":"#c2af0056-31e1-487c-8cfc-4a5f15426d9e-parameters"}},{"url":"http://hl7.org/fhir/us/cqfmeasures/StructureDefinition/cqfm-testCaseDescription","valueMarkdown":"Passes IP, DEN, NUM; Gravida 1(effective date 42 weeks)  and EGA 40 weeks;  Start of Proc Csect equals start of Delivery Encounter."}],"modifierExtension":[{"url":"http://hl7.org/fhir/us/cqfmeasures/StructureDefinition/cqfm-isTestCase","valueBoolean":true}],"status":"complete","type":"individual","measure":"https://madie.cms.gov/Measure/CMS0334FHIRPCCesareanBirth","period":{"start":"2026-01-01","end":"2026-12-31"},"group":[{"id":"Group_1","population":[{"id":"InitialPopulation_1","code":{"coding":[{"system":"http://terminology.hl7.org/CodeSystem/measure-population","code":"initial-population","display":"Initial Population"}]},"count":1},{"id":"Denominator_1","code":{"coding":[{"system":"http://terminology.hl7.org/CodeSystem/measure-population","code":"denominator","display":"Denominator"}]},"count":1},{"id":"DenominatorExclusion_1","code":{"coding":[{"system":"http://terminology.hl7.org/CodeSystem/measure-population","code":"denominator-exclusion","display":"Denominator Exclusion"}]},"count":0},{"id":"Numerator_1","code":{"coding":[{"system":"http://terminology.hl7.org/CodeSystem/measure-population","code":"numerator","display":"Numerator"}]},"count":1}],"measureScore":{"value":0.0}}],"evaluatedResource":[{"reference":"Patient/ea482ebf-f11a-4984-9289-0257711ed160"},{"reference":"Observation/da2439cd-88de-4760-a5e9-07ce1d02dcba"},{"reference":"Observation/e9c4585e-7e1f-4e97-9bf5-174b14f074e1"},{"reference":"Observation/34e2905c-20d5-4fb3-bd9c-562f107a8477"},{"reference":"Encounter/8fa8e66c-a8b1-48dd-bb77-a761c477fbcd"},{"reference":"Procedure/e2a9d3eb-f274-4fb8-ba66-b3a158600b05"},{"reference":"Condition/4c22d92c-0344-483c-9858-813f075db91a"},{"reference":"Coverage/4a9c637a-4d45-40ab-85e6-d66bf4f47736"},{"reference":"Organization/ce7a1ca3-1bdb-4ecf-b406-32470419b81f"},{"reference":"Practitioner/788ef8d1-679a-4563-96b6-83a3e0e521c3"}]},"request":{"method":"PUT","url":"MeasureReport/c1ed2aed-b55f-4bab-8e1a-5368fa9c21c4"}},{"fullUrl":"Observation/e9c4585e-7e1f-4e97-9bf5-174b14f074e1","resource":{"resourceType":"Observation","id":"e9c4585e-7e1f-4e97-9bf5-174b14f074e1","meta":{"profile":["http://hl7.org/fhir/us/qicore/StructureDefinition/qicore-simple-observation"]},"status":"final","category":[{"coding":[{"system":"http://terminology.hl7.org/CodeSystem/observation-category","code":"exam","display":"exam","userSelected":true}]}],"code":{"coding":[{"system":"http://loinc.org","code":"11884-4"}]},"subject":{"reference":"Patient/ea482ebf-f11a-4984-9289-0257711ed160"},"effectiveDateTime":"2026-11-28T21:15:00.000+00:00","performer":[{"reference":"Organization/example1","display":"Hendricks Country Hospital"}],"valueQuantity":{"value":40,"system":"http://unitsofmeasure.org","code":"wk"}},"request":{"method":"PUT","url":"Observation/e9c4585e-7e1f-4e97-9bf5-174b14f074e1"}},{"fullUrl":"Organization/ce7a1ca3-1bdb-4ecf-b406-32470419b81f","resource":{"resourceType":"Organization","id":"ce7a1ca3-1bdb-4ecf-b406-32470419b81f","meta":{"profile":["http://hl7.org/fhir/us/qicore/StructureDefinition/qicore-organization"]},"identifier":[{"use":"temp","system":"urn:oid:2.16.840.1.113883.4.4","value":"21-3259825"}],"active":true,"type":[{"coding":[{"system":"http://terminology.hl7.org/CodeSystem/organization-type","code":"pay","display":"Payer"}]}],"name":"Blue Cross Blue Shield of Texas","telecom":[{"system":"phone","value":"(+1) 972-766-6900"}],"address":[{"use":"billing","type":"postal","line":["P.O. Box 660044"],"city":"Dallas","state":"TX","postalCode":"75266-0044","country":"USA"}]},"request":{"method":"PUT","url":"Organization/ce7a1ca3-1bdb-4ecf-b406-32470419b81f"}},{"fullUrl":"Encounter/8fa8e66c-a8b1-48dd-bb77-a761c477fbcd","resource":{"resourceType":"Encounter","id":"8fa8e66c-a8b1-48dd-bb77-a761c477fbcd","meta":{"profile":["http://hl7.org/fhir/us/qicore/StructureDefinition/qicore-encounter"]},"status":"finished","class":{"system":"http://terminology.hl7.org/CodeSystem/v3-ActCode","code":"IMP","display":"inpatient encounter"},"type":[{"coding":[{"system":"http://snomed.info/sct","code":"8715000"}]}],"subject":{"reference":"Patient/ea482ebf-f11a-4984-9289-0257711ed160"},"period":{"start":"2026-11-28T08:00:00.000+00:00","end":"2026-11-30T08:15:00.000+00:00"},"reasonCode":[{"coding":[{"system":"http://snomed.info/sct","code":"169826009","display":"Single live birth from singleton pregnancy (finding)"}]}]},"request":{"method":"PUT","url":"Encounter/8fa8e66c-a8b1-48dd-bb77-a761c477fbcd"}},{"fullUrl":"Patient/ea482ebf-f11a-4984-9289-0257711ed160","resource":{"resourceType":"Patient","id":"ea482ebf-f11a-4984-9289-0257711ed160","meta":{"profile":["http://hl7.org/fhir/us/qicore/StructureDefinition/qicore-patient"]},"text":{"status":"generated","div":"<div xmlns=\"http://www.w3.org/1999/xhtml\"><div class=\"hapiHeaderText\">ProcCsectStartEQDelivEncStart<b>NUMPASS</b></div><table class=\"hapiPropertyTable\"><tbody><tr><td>Identifier</td><td>ba4fd3b10ac3c0774130502644ec993f7ad4c4fe84bc3b79df4100b77375baef</td></tr><tr><td>Date of birth</td><td><span>14 February 1985</span></td></tr></tbody></table></div>"},"extension":[{"url":"http://hl7.org/fhir/us/core/StructureDefinition/us-core-race","extension":[{"url":"ombCategory","valueCoding":{"system":"urn:oid:2.16.840.1.113883.6.238","code":"1002-5","display":"American Indian or Alaska Native","userSelected":true}},{"url":"text","valueString":"American Indian or Alaska Native"}]},{"url":"http://hl7.org/fhir/us/core/StructureDefinition/us-core-ethnicity","extension":[{"url":"ombCategory","valueCoding":{"system":"urn:oid:2.16.840.1.113883.6.238","code":"2135-2","display":"Hispanic or Latino","userSelected":true}},{"url":"text","valueString":"Hispanic or Latino"}]},{"url":"http://hl7.org/fhir/us/core/StructureDefinition/us-core-sex","valueCode":"248152002"}],"identifier":[{"type":{"coding":[{"system":"http://terminology.hl7.org/CodeSystem/v2-0203","code":"MR"}]},"system":"https://bonnie-fhir.healthit.gov/","value":"63487c2d0968f80122540155"}],"active":true,"name":[{"use":"usual","family":"NUMPass","given":["ProcCsectStartEQDelivEncStart"]}],"gender":"female","birthDate":"1998-02-14"},"request":{"method":"PUT","url":"Patient/ea482ebf-f11a-4984-9289-0257711ed160"}}]}