{"resourceType":"Bundle","id":"tests-6bbb349d-5c6b-486d-96f3-6a80b923e17e-bundle","type":"transaction","entry":[{"fullUrl":"Encounter/c360b042-1a5b-48bc-ab9b-da77e53519fa","resource":{"resourceType":"Encounter","id":"c360b042-1a5b-48bc-ab9b-da77e53519fa","meta":{"profile":["http://hl7.org/fhir/us/qicore/StructureDefinition/qicore-encounter"]},"status":"finished","class":{"system":"http://terminology.hl7.org/CodeSystem/v3-ActCode","code":"IMP","display":"inpatient encounter"},"type":[{"coding":[{"system":"http://snomed.info/sct","code":"183452005"}]}],"subject":{"reference":"Patient/6bbb349d-5c6b-486d-96f3-6a80b923e17e"},"period":{"start":"2026-06-08T08:00:00.000+00:00","end":"2026-06-10T08:15:00.000+00:00"},"length":{"value":2,"unit":"days"},"reasonReference":[{"reference":"Condition/c23afa3c-5203-495f-bdae-7e52493dad77"}]},"request":{"method":"PUT","url":"Encounter/c360b042-1a5b-48bc-ab9b-da77e53519fa"}},{"fullUrl":"Observation/4d6aa2ab-daea-4e41-8616-ecc38daa0cf0","resource":{"resourceType":"Observation","id":"4d6aa2ab-daea-4e41-8616-ecc38daa0cf0","meta":{"profile":["http://hl7.org/fhir/us/qicore/StructureDefinition/qicore-simple-observation"]},"status":"final","category":[{"coding":[{"system":"http://terminology.hl7.org/CodeSystem/observation-category","code":"exam","display":"exam","userSelected":true}]}],"code":{"coding":[{"system":"http://loinc.org","code":"93857-1"}]},"subject":{"reference":"Patient/6bbb349d-5c6b-486d-96f3-6a80b923e17e"},"effectiveDateTime":"2026-06-08T20:00:00.000+00:00","valueDateTime":"2026-06-08T20:00:00.000+00:00"},"request":{"method":"PUT","url":"Observation/4d6aa2ab-daea-4e41-8616-ecc38daa0cf0"}},{"fullUrl":"Observation/d663b4d9-904e-4b02-ae8a-cc1a5cf0058d","resource":{"resourceType":"Observation","id":"d663b4d9-904e-4b02-ae8a-cc1a5cf0058d","meta":{"profile":["http://hl7.org/fhir/us/qicore/StructureDefinition/qicore-simple-observation"]},"status":"final","category":[{"coding":[{"system":"http://terminology.hl7.org/CodeSystem/observation-category","code":"exam","display":"exam","userSelected":true}]}],"code":{"coding":[{"system":"http://loinc.org","code":"11996-6"}]},"subject":{"reference":"Patient/6bbb349d-5c6b-486d-96f3-6a80b923e17e"},"effectiveDateTime":"2026-06-08T20:00:00.000+00:00","valueInteger":1},"request":{"method":"PUT","url":"Observation/d663b4d9-904e-4b02-ae8a-cc1a5cf0058d"}},{"fullUrl":"Organization/0e5f656f-f246-48ac-b9e1-5c960c3aabe2","resource":{"resourceType":"Organization","id":"0e5f656f-f246-48ac-b9e1-5c960c3aabe2","meta":{"profile":["http://hl7.org/fhir/us/qicore/StructureDefinition/qicore-organization"]},"identifier":[{"use":"temp","system":"urn:oid:2.16.840.1.113883.4.4","value":"21-3259825"}],"active":true,"type":[{"coding":[{"system":"http://terminology.hl7.org/CodeSystem/organization-type","code":"pay","display":"Payer"}]}],"name":"Blue Cross Blue Shield of Texas","telecom":[{"system":"phone","value":"(+1) 972-766-6900"}],"address":[{"use":"billing","type":"postal","line":["P.O. Box 660044"],"city":"Dallas","state":"TX","postalCode":"75266-0044","country":"USA"}]},"request":{"method":"PUT","url":"Organization/0e5f656f-f246-48ac-b9e1-5c960c3aabe2"}},{"fullUrl":"Coverage/2c97ae66-9666-43c4-a4c0-1b9e9e44783a","resource":{"resourceType":"Coverage","id":"2c97ae66-9666-43c4-a4c0-1b9e9e44783a","meta":{"profile":["http://hl7.org/fhir/us/qicore/StructureDefinition/qicore-coverage"]},"status":"active","subscriberId":"523435","beneficiary":{"reference":"Patient/6bbb349d-5c6b-486d-96f3-6a80b923e17e"},"relationship":{"coding":[{"system":"http://terminology.hl7.org/CodeSystem/subscriber-relationship","code":"self"}]},"payor":[{"reference":"Organization/0e5f656f-f246-48ac-b9e1-5c960c3aabe2"}]},"request":{"method":"PUT","url":"Coverage/2c97ae66-9666-43c4-a4c0-1b9e9e44783a"}},{"fullUrl":"MeasureReport/a1c02843-8642-40b5-945d-d0a2a296c6ab","resource":{"resourceType":"MeasureReport","id":"a1c02843-8642-40b5-945d-d0a2a296c6ab","meta":{"profile":["http://hl7.org/fhir/us/cqfmeasures/StructureDefinition/test-case-cqfm"]},"contained":[{"resourceType":"Parameters","id":"2dba7a2c-5ae1-41e2-a2eb-f3c5bb92c7e9-parameters","parameter":[{"name":"subject","valueString":"6bbb349d-5c6b-486d-96f3-6a80b923e17e"}]}],"extension":[{"url":"http://hl7.org/fhir/StructureDefinition/cqf-inputParameters","valueReference":{"reference":"#2dba7a2c-5ae1-41e2-a2eb-f3c5bb92c7e9-parameters"}},{"url":"http://hl7.org/fhir/us/cqfmeasures/StructureDefinition/cqfm-testCaseDescription","valueMarkdown":" Pt is 27 years of age,  encounter dx delivery of singleton, gravida rel date/time exactly equal to time of delivery.  This fails as logic states gravida rel date/time is 42 weeks OR LESS before time of delivery\n"}],"modifierExtension":[{"url":"http://hl7.org/fhir/us/cqfmeasures/StructureDefinition/cqfm-isTestCase","valueBoolean":true}],"status":"complete","type":"individual","measure":"https://madie.cms.gov/Measure/CMS0334FHIRPCCesareanBirth","period":{"start":"2026-01-01","end":"2026-12-31"},"group":[{"id":"Group_1","population":[{"id":"InitialPopulation_1","code":{"coding":[{"system":"http://terminology.hl7.org/CodeSystem/measure-population","code":"initial-population","display":"Initial Population"}]},"count":1},{"id":"Denominator_1","code":{"coding":[{"system":"http://terminology.hl7.org/CodeSystem/measure-population","code":"denominator","display":"Denominator"}]},"count":0},{"id":"DenominatorExclusion_1","code":{"coding":[{"system":"http://terminology.hl7.org/CodeSystem/measure-population","code":"denominator-exclusion","display":"Denominator Exclusion"}]},"count":0},{"id":"Numerator_1","code":{"coding":[{"system":"http://terminology.hl7.org/CodeSystem/measure-population","code":"numerator","display":"Numerator"}]},"count":0}],"measureScore":{"value":0.0}}],"evaluatedResource":[{"reference":"Patient/6bbb349d-5c6b-486d-96f3-6a80b923e17e"},{"reference":"Observation/0b46b0fd-9f05-4621-b29a-19a9dd693cc8"},{"reference":"Observation/d663b4d9-904e-4b02-ae8a-cc1a5cf0058d"},{"reference":"Observation/4d6aa2ab-daea-4e41-8616-ecc38daa0cf0"},{"reference":"Encounter/c360b042-1a5b-48bc-ab9b-da77e53519fa"},{"reference":"Procedure/bc46b526-78c6-490e-9633-0216530d6070"},{"reference":"Coverage/2c97ae66-9666-43c4-a4c0-1b9e9e44783a"},{"reference":"Organization/0e5f656f-f246-48ac-b9e1-5c960c3aabe2"},{"reference":"Condition/c23afa3c-5203-495f-bdae-7e52493dad77"},{"reference":"Practitioner/72d6c343-ce64-490b-81a4-39cf288074f7"}]},"request":{"method":"PUT","url":"MeasureReport/a1c02843-8642-40b5-945d-d0a2a296c6ab"}},{"fullUrl":"Patient/6bbb349d-5c6b-486d-96f3-6a80b923e17e","resource":{"resourceType":"Patient","id":"6bbb349d-5c6b-486d-96f3-6a80b923e17e","meta":{"profile":["http://hl7.org/fhir/us/qicore/StructureDefinition/qicore-patient"]},"text":{"status":"generated","div":"<div xmlns=\"http://www.w3.org/1999/xhtml\"><div class=\"hapiHeaderText\">AssessG1RelDtTimeEQTimeOfDelivTime <b>DENFAIL </b></div><table class=\"hapiPropertyTable\"><tbody><tr><td>Identifier</td><td>1708e167118eb3c6ba503e3f4dd6b33e8139c84285201cfc9988c13f48ee7f27</td></tr><tr><td>Date of birth</td><td><span>14 February 1985</span></td></tr></tbody></table></div>"},"extension":[{"url":"http://hl7.org/fhir/us/core/StructureDefinition/us-core-race","extension":[{"url":"ombCategory","valueCoding":{"system":"urn:oid:2.16.840.1.113883.6.238","code":"1002-5","display":"American Indian or Alaska Native","userSelected":true}},{"url":"text","valueString":"American Indian or Alaska Native"}]},{"url":"http://hl7.org/fhir/us/core/StructureDefinition/us-core-ethnicity","extension":[{"url":"ombCategory","valueCoding":{"system":"urn:oid:2.16.840.1.113883.6.238","code":"2135-2","display":"Hispanic or Latino","userSelected":true}},{"url":"text","valueString":"Hispanic or Latino"}]}],"identifier":[{"type":{"coding":[{"system":"http://terminology.hl7.org/CodeSystem/v2-0203","code":"MR"}]},"system":"https://bonnie-fhir.healthit.gov/","value":"63487c2e0968f8012254016e"}],"active":true,"name":[{"use":"usual","family":"DENFail","given":["AssessG1RelDtTimeEQTimeOfDelivTime"]}],"gender":"female","birthDate":"1998-02-14"},"request":{"method":"PUT","url":"Patient/6bbb349d-5c6b-486d-96f3-6a80b923e17e"}},{"fullUrl":"Observation/0b46b0fd-9f05-4621-b29a-19a9dd693cc8","resource":{"resourceType":"Observation","id":"0b46b0fd-9f05-4621-b29a-19a9dd693cc8","meta":{"profile":["http://hl7.org/fhir/us/qicore/StructureDefinition/qicore-simple-observation"]},"status":"final","category":[{"coding":[{"system":"http://terminology.hl7.org/CodeSystem/observation-category","code":"exam","display":"exam","userSelected":true}]}],"code":{"coding":[{"system":"http://loinc.org","code":"11884-4"}]},"subject":{"reference":"Patient/6bbb349d-5c6b-486d-96f3-6a80b923e17e"},"effectiveDateTime":"2026-06-08T09:15:00.000+00:00","valueQuantity":{"value":38,"system":"http://unitsofmeasure.org","code":"wk"}},"request":{"method":"PUT","url":"Observation/0b46b0fd-9f05-4621-b29a-19a9dd693cc8"}},{"fullUrl":"Condition/c23afa3c-5203-495f-bdae-7e52493dad77","resource":{"resourceType":"Condition","id":"c23afa3c-5203-495f-bdae-7e52493dad77","meta":{"profile":["http://hl7.org/fhir/us/qicore/StructureDefinition/qicore-condition-encounter-diagnosis"]},"category":[{"coding":[{"system":"http://terminology.hl7.org/CodeSystem/condition-category","code":"encounter-diagnosis","display":"Encounter Diagnosis"}]}],"code":{"coding":[{"system":"http://snomed.info/sct","code":"169826009","display":"Single live birth from singleton pregnancy (finding)"}]},"subject":{"reference":"Patient/6bbb349d-5c6b-486d-96f3-6a80b923e17e"},"encounter":{"reference":"Encounter/c360b042-1a5b-48bc-ab9b-da77e53519fa"}},"request":{"method":"PUT","url":"Condition/c23afa3c-5203-495f-bdae-7e52493dad77"}},{"fullUrl":"Bundle/63487c2e0968f8012254016e","resource":{"resourceType":"Bundle","id":"63487c2e0968f8012254016e","type":"transaction","entry":[{"fullUrl":"https://madie.cms.gov/Patient/6bbb349d-5c6b-486d-96f3-6a80b923e17e","resource":{"resourceType":"Patient","id":"6bbb349d-5c6b-486d-96f3-6a80b923e17e","meta":{"profile":["http://hl7.org/fhir/us/qicore/StructureDefinition/qicore-patient"]},"text":{"status":"generated","div":"<div xmlns=\"http://www.w3.org/1999/xhtml\"><div class=\"hapiHeaderText\">AssessG1RelDtTimeEQTimeOfDelivTime <b>DENFAIL </b></div><table class=\"hapiPropertyTable\"><tbody><tr><td>Identifier</td><td>1708e167118eb3c6ba503e3f4dd6b33e8139c84285201cfc9988c13f48ee7f27</td></tr><tr><td>Date of birth</td><td><span>14 February 1985</span></td></tr></tbody></table></div>"},"extension":[{"url":"http://hl7.org/fhir/us/core/StructureDefinition/us-core-race","extension":[{"url":"ombCategory","valueCoding":{"system":"urn:oid:2.16.840.1.113883.6.238","code":"1002-5","display":"American Indian or Alaska Native","userSelected":true}},{"url":"text","valueString":"American Indian or Alaska Native"}]},{"url":"http://hl7.org/fhir/us/core/StructureDefinition/us-core-ethnicity","extension":[{"url":"ombCategory","valueCoding":{"system":"urn:oid:2.16.840.1.113883.6.238","code":"2135-2","display":"Hispanic or Latino","userSelected":true}},{"url":"text","valueString":"Hispanic or Latino"}]}],"identifier":[{"type":{"coding":[{"system":"http://terminology.hl7.org/CodeSystem/v2-0203","code":"MR"}]},"system":"https://bonnie-fhir.healthit.gov/","value":"63487c2e0968f8012254016e"}],"active":true,"name":[{"use":"usual","family":"DENFail","given":["AssessG1RelDtTimeEQTimeOfDelivTime"]}],"gender":"female","birthDate":"1998-02-14"},"request":{"method":"PUT","url":"Patient/6bbb349d-5c6b-486d-96f3-6a80b923e17e"}},{"fullUrl":"https://madie.cms.gov/Observation/0b46b0fd-9f05-4621-b29a-19a9dd693cc8","resource":{"resourceType":"Observation","id":"0b46b0fd-9f05-4621-b29a-19a9dd693cc8","meta":{"profile":["http://hl7.org/fhir/us/qicore/StructureDefinition/qicore-simple-observation"]},"status":"final","category":[{"coding":[{"system":"http://terminology.hl7.org/CodeSystem/observation-category","code":"exam","display":"exam","userSelected":true}]}],"code":{"coding":[{"system":"http://loinc.org","code":"11884-4"}]},"subject":{"reference":"Patient/6bbb349d-5c6b-486d-96f3-6a80b923e17e"},"effectiveDateTime":"2026-06-08T09:15:00.000+00:00","valueQuantity":{"value":38,"system":"http://unitsofmeasure.org","code":"wk"}},"request":{"method":"PUT","url":"Observation/0b46b0fd-9f05-4621-b29a-19a9dd693cc8"}},{"fullUrl":"https://madie.cms.gov/Observation/d663b4d9-904e-4b02-ae8a-cc1a5cf0058d","resource":{"resourceType":"Observation","id":"d663b4d9-904e-4b02-ae8a-cc1a5cf0058d","meta":{"profile":["http://hl7.org/fhir/us/qicore/StructureDefinition/qicore-simple-observation"]},"status":"final","category":[{"coding":[{"system":"http://terminology.hl7.org/CodeSystem/observation-category","code":"exam","display":"exam","userSelected":true}]}],"code":{"coding":[{"system":"http://loinc.org","code":"11996-6"}]},"subject":{"reference":"Patient/6bbb349d-5c6b-486d-96f3-6a80b923e17e"},"effectiveDateTime":"2026-06-08T20:00:00.000+00:00","valueInteger":1},"request":{"method":"PUT","url":"Observation/d663b4d9-904e-4b02-ae8a-cc1a5cf0058d"}},{"fullUrl":"https://madie.cms.gov/Observation/4d6aa2ab-daea-4e41-8616-ecc38daa0cf0","resource":{"resourceType":"Observation","id":"4d6aa2ab-daea-4e41-8616-ecc38daa0cf0","meta":{"profile":["http://hl7.org/fhir/us/qicore/StructureDefinition/qicore-simple-observation"]},"status":"final","category":[{"coding":[{"system":"http://terminology.hl7.org/CodeSystem/observation-category","code":"exam","display":"exam","userSelected":true}]}],"code":{"coding":[{"system":"http://loinc.org","code":"93857-1"}]},"subject":{"reference":"Patient/6bbb349d-5c6b-486d-96f3-6a80b923e17e"},"effectiveDateTime":"2026-06-08T20:00:00.000+00:00","valueDateTime":"2026-06-08T20:00:00.000+00:00"},"request":{"method":"PUT","url":"Observation/4d6aa2ab-daea-4e41-8616-ecc38daa0cf0"}},{"fullUrl":"https://madie.cms.gov/Encounter/c360b042-1a5b-48bc-ab9b-da77e53519fa","resource":{"resourceType":"Encounter","id":"c360b042-1a5b-48bc-ab9b-da77e53519fa","meta":{"profile":["http://hl7.org/fhir/us/qicore/StructureDefinition/qicore-encounter"]},"status":"finished","class":{"system":"http://terminology.hl7.org/CodeSystem/v3-ActCode","code":"IMP","display":"inpatient encounter"},"type":[{"coding":[{"system":"http://snomed.info/sct","code":"183452005"}]}],"subject":{"reference":"Patient/6bbb349d-5c6b-486d-96f3-6a80b923e17e"},"period":{"start":"2026-06-08T08:00:00.000+00:00","end":"2026-06-10T08:15:00.000+00:00"},"length":{"value":2,"unit":"days"},"reasonReference":[{"reference":"Condition/c23afa3c-5203-495f-bdae-7e52493dad77"}]},"request":{"method":"PUT","url":"Encounter/c360b042-1a5b-48bc-ab9b-da77e53519fa"}},{"fullUrl":"https://madie.cms.gov/Procedure/bc46b526-78c6-490e-9633-0216530d6070","resource":{"resourceType":"Procedure","id":"bc46b526-78c6-490e-9633-0216530d6070","meta":{"profile":["http://hl7.org/fhir/us/qicore/StructureDefinition/qicore-procedure"]},"extension":[{"url":"http://hl7.org/fhir/us/qicore/StructureDefinition/qicore-recorded","valueDateTime":"2014-04-05T13:35:00.000+00:00"}],"status":"completed","code":{"coding":[{"system":"http://www.cms.gov/Medicare/Coding/ICD10","code":"10D07Z3"}]},"subject":{"reference":"Patient/6bbb349d-5c6b-486d-96f3-6a80b923e17e"},"performedPeriod":{"start":"2026-06-08T08:10:00.000+00:00","end":"2026-06-08T09:14:00.000+00:00"}},"request":{"method":"PUT","url":"Procedure/bc46b526-78c6-490e-9633-0216530d6070"}},{"fullUrl":"https://madie.cms.gov/Coverage/2c97ae66-9666-43c4-a4c0-1b9e9e44783a","resource":{"resourceType":"Coverage","id":"2c97ae66-9666-43c4-a4c0-1b9e9e44783a","meta":{"profile":["http://hl7.org/fhir/us/qicore/StructureDefinition/qicore-coverage"]},"status":"active","subscriberId":"523435","beneficiary":{"reference":"Patient/6bbb349d-5c6b-486d-96f3-6a80b923e17e"},"relationship":{"coding":[{"system":"http://terminology.hl7.org/CodeSystem/subscriber-relationship","code":"self"}]},"payor":[{"reference":"Organization/0e5f656f-f246-48ac-b9e1-5c960c3aabe2"}]},"request":{"method":"PUT","url":"Coverage/2c97ae66-9666-43c4-a4c0-1b9e9e44783a"}},{"fullUrl":"https://madie.cms.gov/Organization/0e5f656f-f246-48ac-b9e1-5c960c3aabe2","resource":{"resourceType":"Organization","id":"0e5f656f-f246-48ac-b9e1-5c960c3aabe2","meta":{"profile":["http://hl7.org/fhir/us/qicore/StructureDefinition/qicore-organization"]},"identifier":[{"use":"temp","system":"urn:oid:2.16.840.1.113883.4.4","value":"21-3259825"}],"active":true,"type":[{"coding":[{"system":"http://terminology.hl7.org/CodeSystem/organization-type","code":"pay","display":"Payer"}]}],"name":"Blue Cross Blue Shield of Texas","telecom":[{"system":"phone","value":"(+1) 972-766-6900"}],"address":[{"use":"billing","type":"postal","line":["P.O. Box 660044"],"city":"Dallas","state":"TX","postalCode":"75266-0044","country":"USA"}]},"request":{"method":"PUT","url":"Organization/0e5f656f-f246-48ac-b9e1-5c960c3aabe2"}},{"fullUrl":"https://madie.cms.gov/Condition/c23afa3c-5203-495f-bdae-7e52493dad77","resource":{"resourceType":"Condition","id":"c23afa3c-5203-495f-bdae-7e52493dad77","meta":{"profile":["http://hl7.org/fhir/us/qicore/StructureDefinition/qicore-condition-encounter-diagnosis"]},"category":[{"coding":[{"system":"http://terminology.hl7.org/CodeSystem/condition-category","code":"encounter-diagnosis","display":"Encounter Diagnosis"}]}],"code":{"coding":[{"system":"http://snomed.info/sct","code":"169826009","display":"Single live birth from singleton pregnancy (finding)"}]},"subject":{"reference":"Patient/6bbb349d-5c6b-486d-96f3-6a80b923e17e"},"encounter":{"reference":"Encounter/c360b042-1a5b-48bc-ab9b-da77e53519fa"}},"request":{"method":"PUT","url":"Condition/c23afa3c-5203-495f-bdae-7e52493dad77"}},{"fullUrl":"https://madie.cms.gov/Practitioner/72d6c343-ce64-490b-81a4-39cf288074f7","resource":{"resourceType":"Practitioner","id":"72d6c343-ce64-490b-81a4-39cf288074f7","meta":{"profile":["http://hl7.org/fhir/us/qicore/StructureDefinition/qicore-practitioner"]},"identifier":[{"system":"http://hl7.org/fhir/sid/us-npi","value":"1234567890"}],"name":[{"family":"Evil","prefix":["Dr"]}]},"request":{"method":"PUT","url":"Practitioner/72d6c343-ce64-490b-81a4-39cf288074f7"}},{"fullUrl":"https://madie.cms.gov/MeasureReport/a1c02843-8642-40b5-945d-d0a2a296c6ab","resource":{"resourceType":"MeasureReport","id":"a1c02843-8642-40b5-945d-d0a2a296c6ab","meta":{"profile":["http://hl7.org/fhir/us/cqfmeasures/StructureDefinition/test-case-cqfm"]},"contained":[{"resourceType":"Parameters","id":"2dba7a2c-5ae1-41e2-a2eb-f3c5bb92c7e9-parameters","parameter":[{"name":"subject","valueString":"6bbb349d-5c6b-486d-96f3-6a80b923e17e"}]}],"extension":[{"url":"http://hl7.org/fhir/StructureDefinition/cqf-inputParameters","valueReference":{"reference":"#2dba7a2c-5ae1-41e2-a2eb-f3c5bb92c7e9-parameters"}},{"url":"http://hl7.org/fhir/us/cqfmeasures/StructureDefinition/cqfm-testCaseDescription","valueMarkdown":" Pt is 27 years of age,  encounter dx delivery of singleton, gravida rel date/time exactly equal to time of delivery.  This fails as logic states gravida rel date/time is 42 weeks OR LESS before time of delivery\n"}],"modifierExtension":[{"url":"http://hl7.org/fhir/us/cqfmeasures/StructureDefinition/cqfm-isTestCase","valueBoolean":true}],"status":"complete","type":"individual","measure":"https://madie.cms.gov/Measure/CMS0334FHIRPCCesareanBirth","period":{"start":"2026-01-01","end":"2026-12-31"},"group":[{"id":"Group_1","population":[{"id":"InitialPopulation_1","code":{"coding":[{"system":"http://terminology.hl7.org/CodeSystem/measure-population","code":"initial-population","display":"Initial Population"}]},"count":1},{"id":"Denominator_1","code":{"coding":[{"system":"http://terminology.hl7.org/CodeSystem/measure-population","code":"denominator","display":"Denominator"}]},"count":0},{"id":"DenominatorExclusion_1","code":{"coding":[{"system":"http://terminology.hl7.org/CodeSystem/measure-population","code":"denominator-exclusion","display":"Denominator Exclusion"}]},"count":0},{"id":"Numerator_1","code":{"coding":[{"system":"http://terminology.hl7.org/CodeSystem/measure-population","code":"numerator","display":"Numerator"}]},"count":0}],"measureScore":{"value":0.0}}],"evaluatedResource":[{"reference":"Patient/6bbb349d-5c6b-486d-96f3-6a80b923e17e"},{"reference":"Observation/0b46b0fd-9f05-4621-b29a-19a9dd693cc8"},{"reference":"Observation/d663b4d9-904e-4b02-ae8a-cc1a5cf0058d"},{"reference":"Observation/4d6aa2ab-daea-4e41-8616-ecc38daa0cf0"},{"reference":"Encounter/c360b042-1a5b-48bc-ab9b-da77e53519fa"},{"reference":"Procedure/bc46b526-78c6-490e-9633-0216530d6070"},{"reference":"Coverage/2c97ae66-9666-43c4-a4c0-1b9e9e44783a"},{"reference":"Organization/0e5f656f-f246-48ac-b9e1-5c960c3aabe2"},{"reference":"Condition/c23afa3c-5203-495f-bdae-7e52493dad77"},{"reference":"Practitioner/72d6c343-ce64-490b-81a4-39cf288074f7"}]},"request":{"method":"PUT","url":"MeasureReport/a1c02843-8642-40b5-945d-d0a2a296c6ab"}}]},"request":{"method":"PUT","url":"Bundle/63487c2e0968f8012254016e"}},{"fullUrl":"Practitioner/72d6c343-ce64-490b-81a4-39cf288074f7","resource":{"resourceType":"Practitioner","id":"72d6c343-ce64-490b-81a4-39cf288074f7","meta":{"profile":["http://hl7.org/fhir/us/qicore/StructureDefinition/qicore-practitioner"]},"identifier":[{"system":"http://hl7.org/fhir/sid/us-npi","value":"1234567890"}],"name":[{"family":"Evil","prefix":["Dr"]}]},"request":{"method":"PUT","url":"Practitioner/72d6c343-ce64-490b-81a4-39cf288074f7"}},{"fullUrl":"Procedure/bc46b526-78c6-490e-9633-0216530d6070","resource":{"resourceType":"Procedure","id":"bc46b526-78c6-490e-9633-0216530d6070","meta":{"profile":["http://hl7.org/fhir/us/qicore/StructureDefinition/qicore-procedure"]},"extension":[{"url":"http://hl7.org/fhir/us/qicore/StructureDefinition/qicore-recorded","valueDateTime":"2014-04-05T13:35:00.000+00:00"}],"status":"completed","code":{"coding":[{"system":"http://www.cms.gov/Medicare/Coding/ICD10","code":"10D07Z3"}]},"subject":{"reference":"Patient/6bbb349d-5c6b-486d-96f3-6a80b923e17e"},"performedPeriod":{"start":"2026-06-08T08:10:00.000+00:00","end":"2026-06-08T09:14:00.000+00:00"}},"request":{"method":"PUT","url":"Procedure/bc46b526-78c6-490e-9633-0216530d6070"}}]}