{"resourceType":"Bundle","id":"tests-f073dc3e-d38e-4986-a343-0e3146ba46c0-bundle","type":"transaction","entry":[{"fullUrl":"Observation/13075e6e-2453-4af6-abbb-a24b69df89c3","resource":{"resourceType":"Observation","id":"13075e6e-2453-4af6-abbb-a24b69df89c3","meta":{"profile":["http://hl7.org/fhir/us/qicore/StructureDefinition/qicore-simple-observation"]},"status":"final","category":[{"coding":[{"system":"http://terminology.hl7.org/CodeSystem/observation-category","code":"exam","display":"exam","userSelected":true}]}],"code":{"coding":[{"system":"http://loinc.org","code":"11637-6"}]},"subject":{"reference":"Patient/f073dc3e-d38e-4986-a343-0e3146ba46c0"},"effectiveDateTime":"2026-06-08T09:00:00.000+00:00"},"request":{"method":"PUT","url":"Observation/13075e6e-2453-4af6-abbb-a24b69df89c3"}},{"fullUrl":"Observation/23865f51-1143-4481-8dbb-8edc8e60cd53","resource":{"resourceType":"Observation","id":"23865f51-1143-4481-8dbb-8edc8e60cd53","meta":{"profile":["http://hl7.org/fhir/us/qicore/StructureDefinition/qicore-simple-observation"]},"status":"final","category":[{"coding":[{"system":"http://terminology.hl7.org/CodeSystem/observation-category","code":"exam","display":"exam","userSelected":true}]}],"code":{"coding":[{"system":"http://loinc.org","code":"11639-2"}]},"subject":{"reference":"Patient/f073dc3e-d38e-4986-a343-0e3146ba46c0"},"effectiveDateTime":"2025-09-19T09:00:00.000+00:00","valueInteger":0},"request":{"method":"PUT","url":"Observation/23865f51-1143-4481-8dbb-8edc8e60cd53"}},{"fullUrl":"Procedure/ef99d204-fcfd-475b-9513-fe965ce682e5","resource":{"resourceType":"Procedure","id":"ef99d204-fcfd-475b-9513-fe965ce682e5","meta":{"profile":["http://hl7.org/fhir/us/qicore/StructureDefinition/qicore-procedure"]},"extension":[{"url":"http://hl7.org/fhir/us/qicore/StructureDefinition/qicore-recorded","valueDateTime":"2014-04-05T13:35:00.000+00:00"}],"status":"completed","code":{"coding":[{"system":"http://www.cms.gov/Medicare/Coding/ICD10","code":"10D00Z0"},{"system":"http://snomed.info/sct","code":"4504004"}]},"subject":{"reference":"Patient/f073dc3e-d38e-4986-a343-0e3146ba46c0"},"performedPeriod":{"start":"2026-06-08T20:00:00.000+00:00","end":"2026-06-08T20:15:00.000+00:00"}},"request":{"method":"PUT","url":"Procedure/ef99d204-fcfd-475b-9513-fe965ce682e5"}},{"fullUrl":"Patient/f073dc3e-d38e-4986-a343-0e3146ba46c0","resource":{"resourceType":"Patient","id":"f073dc3e-d38e-4986-a343-0e3146ba46c0","meta":{"profile":["http://hl7.org/fhir/us/qicore/StructureDefinition/qicore-patient"]},"text":{"status":"generated","div":"<div xmlns=\"http://www.w3.org/1999/xhtml\"><div class=\"hapiHeaderText\">AssessPreTermResultIsNull <b>DENOMFail</b></div><table class=\"hapiPropertyTable\"><tbody><tr><td>Identifier</td><td>68ae6e24f0fface97c058e998841dc5fd1e621f11f5d5bc2aeef1a3a248ebc14</td></tr><tr><td>Date of birth</td><td><span>14 February 1985</span></td></tr></tbody></table></div>"},"extension":[{"url":"http://hl7.org/fhir/us/core/StructureDefinition/us-core-race","extension":[{"url":"ombCategory","valueCoding":{"system":"urn:oid:2.16.840.1.113883.6.238","code":"1002-5","display":"American Indian or Alaska Native","userSelected":true}},{"url":"text","valueString":"American Indian or Alaska Native"}]},{"url":"http://hl7.org/fhir/us/core/StructureDefinition/us-core-ethnicity","extension":[{"url":"ombCategory","valueCoding":{"system":"urn:oid:2.16.840.1.113883.6.238","code":"2135-2","display":"Hispanic or Latino","userSelected":true}},{"url":"text","valueString":"Hispanic or Latino"}]}],"identifier":[{"type":{"coding":[{"system":"http://terminology.hl7.org/CodeSystem/v2-0203","code":"MR"}]},"system":"https://bonnie-fhir.healthit.gov/","value":"63487c300968f801225401c7"}],"active":true,"name":[{"use":"usual","family":"DENOMFail","given":["AssessPreTermResultIsNull"]}],"gender":"female","birthDate":"1998-02-14"},"request":{"method":"PUT","url":"Patient/f073dc3e-d38e-4986-a343-0e3146ba46c0"}},{"fullUrl":"Coverage/9f5ebf98-28cd-4096-9e79-cc5f4e0f0807","resource":{"resourceType":"Coverage","id":"9f5ebf98-28cd-4096-9e79-cc5f4e0f0807","meta":{"profile":["http://hl7.org/fhir/us/qicore/StructureDefinition/qicore-coverage"]},"status":"active","beneficiary":{"reference":"Patient/f073dc3e-d38e-4986-a343-0e3146ba46c0"},"payor":[{"reference":"Organization/7b1b3da3-9fa2-4a80-b2eb-52c45e315052"}]},"request":{"method":"PUT","url":"Coverage/9f5ebf98-28cd-4096-9e79-cc5f4e0f0807"}},{"fullUrl":"Bundle/63487c300968f801225401c7","resource":{"resourceType":"Bundle","id":"63487c300968f801225401c7","type":"transaction","entry":[{"fullUrl":"https://madie.cms.gov/Patient/f073dc3e-d38e-4986-a343-0e3146ba46c0","resource":{"resourceType":"Patient","id":"f073dc3e-d38e-4986-a343-0e3146ba46c0","meta":{"profile":["http://hl7.org/fhir/us/qicore/StructureDefinition/qicore-patient"]},"text":{"status":"generated","div":"<div xmlns=\"http://www.w3.org/1999/xhtml\"><div class=\"hapiHeaderText\">AssessPreTermResultIsNull <b>DENOMFail</b></div><table class=\"hapiPropertyTable\"><tbody><tr><td>Identifier</td><td>68ae6e24f0fface97c058e998841dc5fd1e621f11f5d5bc2aeef1a3a248ebc14</td></tr><tr><td>Date of birth</td><td><span>14 February 1985</span></td></tr></tbody></table></div>"},"extension":[{"url":"http://hl7.org/fhir/us/core/StructureDefinition/us-core-race","extension":[{"url":"ombCategory","valueCoding":{"system":"urn:oid:2.16.840.1.113883.6.238","code":"1002-5","display":"American Indian or Alaska Native","userSelected":true}},{"url":"text","valueString":"American Indian or Alaska Native"}]},{"url":"http://hl7.org/fhir/us/core/StructureDefinition/us-core-ethnicity","extension":[{"url":"ombCategory","valueCoding":{"system":"urn:oid:2.16.840.1.113883.6.238","code":"2135-2","display":"Hispanic or Latino","userSelected":true}},{"url":"text","valueString":"Hispanic or Latino"}]}],"identifier":[{"type":{"coding":[{"system":"http://terminology.hl7.org/CodeSystem/v2-0203","code":"MR"}]},"system":"https://bonnie-fhir.healthit.gov/","value":"63487c300968f801225401c7"}],"active":true,"name":[{"use":"usual","family":"DENOMFail","given":["AssessPreTermResultIsNull"]}],"gender":"female","birthDate":"1998-02-14"},"request":{"method":"PUT","url":"Patient/f073dc3e-d38e-4986-a343-0e3146ba46c0"}},{"fullUrl":"https://madie.cms.gov/Observation/23865f51-1143-4481-8dbb-8edc8e60cd53","resource":{"resourceType":"Observation","id":"23865f51-1143-4481-8dbb-8edc8e60cd53","meta":{"profile":["http://hl7.org/fhir/us/qicore/StructureDefinition/qicore-simple-observation"]},"status":"final","category":[{"coding":[{"system":"http://terminology.hl7.org/CodeSystem/observation-category","code":"exam","display":"exam","userSelected":true}]}],"code":{"coding":[{"system":"http://loinc.org","code":"11639-2"}]},"subject":{"reference":"Patient/f073dc3e-d38e-4986-a343-0e3146ba46c0"},"effectiveDateTime":"2025-09-19T09:00:00.000+00:00","valueInteger":0},"request":{"method":"PUT","url":"Observation/23865f51-1143-4481-8dbb-8edc8e60cd53"}},{"fullUrl":"https://madie.cms.gov/Observation/13075e6e-2453-4af6-abbb-a24b69df89c3","resource":{"resourceType":"Observation","id":"13075e6e-2453-4af6-abbb-a24b69df89c3","meta":{"profile":["http://hl7.org/fhir/us/qicore/StructureDefinition/qicore-simple-observation"]},"status":"final","category":[{"coding":[{"system":"http://terminology.hl7.org/CodeSystem/observation-category","code":"exam","display":"exam","userSelected":true}]}],"code":{"coding":[{"system":"http://loinc.org","code":"11637-6"}]},"subject":{"reference":"Patient/f073dc3e-d38e-4986-a343-0e3146ba46c0"},"effectiveDateTime":"2026-06-08T09:00:00.000+00:00"},"request":{"method":"PUT","url":"Observation/13075e6e-2453-4af6-abbb-a24b69df89c3"}},{"fullUrl":"https://madie.cms.gov/Observation/76d8a6ac-a9ce-4411-9f95-122a580f2257","resource":{"resourceType":"Observation","id":"76d8a6ac-a9ce-4411-9f95-122a580f2257","meta":{"profile":["http://hl7.org/fhir/us/qicore/StructureDefinition/qicore-simple-observation"]},"status":"final","category":[{"coding":[{"system":"http://terminology.hl7.org/CodeSystem/observation-category","code":"exam","display":"exam","userSelected":true}]}],"code":{"coding":[{"system":"http://loinc.org","code":"11884-4"}]},"subject":{"reference":"Patient/f073dc3e-d38e-4986-a343-0e3146ba46c0"},"effectiveDateTime":"2026-06-08T20:00:00.000+00:00","valueQuantity":{"value":37,"system":"http://unitsofmeasure.org","code":"wk"}},"request":{"method":"PUT","url":"Observation/76d8a6ac-a9ce-4411-9f95-122a580f2257"}},{"fullUrl":"https://madie.cms.gov/Observation/00e38c7a-cc50-4d90-b84c-e67eaefaff5e","resource":{"resourceType":"Observation","id":"00e38c7a-cc50-4d90-b84c-e67eaefaff5e","meta":{"profile":["http://hl7.org/fhir/us/qicore/StructureDefinition/qicore-simple-observation"]},"status":"final","category":[{"coding":[{"system":"http://terminology.hl7.org/CodeSystem/observation-category","code":"exam","display":"exam","userSelected":true}]}],"code":{"coding":[{"system":"http://loinc.org","code":"93857-1"}]},"subject":{"reference":"Patient/f073dc3e-d38e-4986-a343-0e3146ba46c0"},"effectiveDateTime":"2026-06-08T20:00:00.000+00:00","valueDateTime":"2026-06-08T20:00:00.000+00:00"},"request":{"method":"PUT","url":"Observation/00e38c7a-cc50-4d90-b84c-e67eaefaff5e"}},{"fullUrl":"https://madie.cms.gov/Encounter/a32991d6-15ab-48fb-ae81-8d3def37bcf1","resource":{"resourceType":"Encounter","id":"a32991d6-15ab-48fb-ae81-8d3def37bcf1","meta":{"profile":["http://hl7.org/fhir/us/qicore/StructureDefinition/qicore-encounter"]},"status":"finished","class":{"system":"http://terminology.hl7.org/CodeSystem/v3-ActCode","code":"IMP","display":"inpatient encounter"},"type":[{"coding":[{"system":"http://snomed.info/sct","code":"8715000"}]}],"subject":{"reference":"Patient/f073dc3e-d38e-4986-a343-0e3146ba46c0"},"period":{"start":"2026-06-08T08:00:00.000+00:00","end":"2026-06-10T08:15:00.000+00:00"},"length":{"value":2,"unit":"days"},"reasonReference":[{"reference":"Condition/a0d08cd7-fbe8-4001-924e-52acc48e4889"}]},"request":{"method":"PUT","url":"Encounter/a32991d6-15ab-48fb-ae81-8d3def37bcf1"}},{"fullUrl":"https://madie.cms.gov/Procedure/ef99d204-fcfd-475b-9513-fe965ce682e5","resource":{"resourceType":"Procedure","id":"ef99d204-fcfd-475b-9513-fe965ce682e5","meta":{"profile":["http://hl7.org/fhir/us/qicore/StructureDefinition/qicore-procedure"]},"extension":[{"url":"http://hl7.org/fhir/us/qicore/StructureDefinition/qicore-recorded","valueDateTime":"2014-04-05T13:35:00.000+00:00"}],"status":"completed","code":{"coding":[{"system":"http://www.cms.gov/Medicare/Coding/ICD10","code":"10D00Z0"},{"system":"http://snomed.info/sct","code":"4504004"}]},"subject":{"reference":"Patient/f073dc3e-d38e-4986-a343-0e3146ba46c0"},"performedPeriod":{"start":"2026-06-08T20:00:00.000+00:00","end":"2026-06-08T20:15:00.000+00:00"}},"request":{"method":"PUT","url":"Procedure/ef99d204-fcfd-475b-9513-fe965ce682e5"}},{"fullUrl":"https://madie.cms.gov/Condition/a0d08cd7-fbe8-4001-924e-52acc48e4889","resource":{"resourceType":"Condition","id":"a0d08cd7-fbe8-4001-924e-52acc48e4889","meta":{"profile":["http://hl7.org/fhir/us/qicore/StructureDefinition/qicore-condition-encounter-diagnosis"]},"category":[{"coding":[{"system":"http://terminology.hl7.org/CodeSystem/condition-category","code":"encounter-diagnosis","display":"Encounter Diagnosis"}]}],"code":{"coding":[{"system":"http://snomed.info/sct","version":"2022-09","code":"169826009","display":"Single live birth from singleton pregnancy (finding)","userSelected":true}]},"subject":{"reference":"Patient/f073dc3e-d38e-4986-a343-0e3146ba46c0"},"encounter":{"reference":"Encounter/a32991d6-15ab-48fb-ae81-8d3def37bcf1"},"recordedDate":"2026-10-21T08:00:00.000+00:00"},"request":{"method":"PUT","url":"Condition/a0d08cd7-fbe8-4001-924e-52acc48e4889"}},{"fullUrl":"https://madie.cms.gov/Coverage/9f5ebf98-28cd-4096-9e79-cc5f4e0f0807","resource":{"resourceType":"Coverage","id":"9f5ebf98-28cd-4096-9e79-cc5f4e0f0807","meta":{"profile":["http://hl7.org/fhir/us/qicore/StructureDefinition/qicore-coverage"]},"status":"active","beneficiary":{"reference":"Patient/f073dc3e-d38e-4986-a343-0e3146ba46c0"},"payor":[{"reference":"Organization/7b1b3da3-9fa2-4a80-b2eb-52c45e315052"}]},"request":{"method":"PUT","url":"Coverage/9f5ebf98-28cd-4096-9e79-cc5f4e0f0807"}},{"fullUrl":"https://madie.cms.gov/Organization/7b1b3da3-9fa2-4a80-b2eb-52c45e315052","resource":{"resourceType":"Organization","id":"7b1b3da3-9fa2-4a80-b2eb-52c45e315052","meta":{"profile":["http://hl7.org/fhir/us/qicore/StructureDefinition/qicore-organization"]},"identifier":[{"use":"temp","system":"urn:oid:2.16.840.1.113883.4.4","value":"21-3259825"}],"active":true,"type":[{"coding":[{"system":"http://terminology.hl7.org/CodeSystem/organization-type","code":"pay","display":"Payer"}]}],"name":"Blue Cross Blue Shield of Texas","telecom":[{"system":"phone","value":"(+1) 972-766-6900"}],"address":[{"use":"billing","type":"postal","line":["P.O. Box 660044"],"city":"Dallas","state":"TX","postalCode":"75266-0044","country":"USA"}]},"request":{"method":"PUT","url":"Organization/7b1b3da3-9fa2-4a80-b2eb-52c45e315052"}},{"fullUrl":"https://madie.cms.gov/Practitioner/e178015f-8e2a-4d5b-a17c-f33f583ed50e","resource":{"resourceType":"Practitioner","id":"e178015f-8e2a-4d5b-a17c-f33f583ed50e","meta":{"profile":["http://hl7.org/fhir/us/qicore/StructureDefinition/qicore-practitioner"]},"identifier":[{"system":"http://hl7.org/fhir/sid/us-npi","value":"1234567890"}],"name":[{"family":"Evil","prefix":["Dr"]}]},"request":{"method":"PUT","url":"Practitioner/e178015f-8e2a-4d5b-a17c-f33f583ed50e"}},{"fullUrl":"https://madie.cms.gov/MeasureReport/b9be0ef8-cd0c-4b70-88e9-89d4d727dec4","resource":{"resourceType":"MeasureReport","id":"b9be0ef8-cd0c-4b70-88e9-89d4d727dec4","meta":{"profile":["http://hl7.org/fhir/us/cqfmeasures/StructureDefinition/test-case-cqfm"]},"contained":[{"resourceType":"Parameters","id":"c857b27b-3cf0-47ac-a537-a3b0dfd77c0c-parameters","parameter":[{"name":"subject","valueString":"f073dc3e-d38e-4986-a343-0e3146ba46c0"}]}],"extension":[{"url":"http://hl7.org/fhir/StructureDefinition/cqf-inputParameters","valueReference":{"reference":"#c857b27b-3cf0-47ac-a537-a3b0dfd77c0c-parameters"}},{"url":"http://hl7.org/fhir/us/cqfmeasures/StructureDefinition/cqfm-testCaseDescription","valueMarkdown":"\"Preterm Births is null, relevant date/time before Asse delivery datetime\nTerm Newborn=0, authored < 42weeks prior to Asse delivery\"\n"}],"modifierExtension":[{"url":"http://hl7.org/fhir/us/cqfmeasures/StructureDefinition/cqfm-isTestCase","valueBoolean":true}],"status":"complete","type":"individual","measure":"https://madie.cms.gov/Measure/CMS0334FHIRPCCesareanBirth","period":{"start":"2026-01-01","end":"2026-12-31"},"group":[{"id":"Group_1","population":[{"id":"InitialPopulation_1","code":{"coding":[{"system":"http://terminology.hl7.org/CodeSystem/measure-population","code":"initial-population","display":"Initial Population"}]},"count":1},{"id":"Denominator_1","code":{"coding":[{"system":"http://terminology.hl7.org/CodeSystem/measure-population","code":"denominator","display":"Denominator"}]},"count":0},{"id":"DenominatorExclusion_1","code":{"coding":[{"system":"http://terminology.hl7.org/CodeSystem/measure-population","code":"denominator-exclusion","display":"Denominator Exclusion"}]},"count":0},{"id":"Numerator_1","code":{"coding":[{"system":"http://terminology.hl7.org/CodeSystem/measure-population","code":"numerator","display":"Numerator"}]},"count":0}],"measureScore":{"value":0.0}}],"evaluatedResource":[{"reference":"Patient/f073dc3e-d38e-4986-a343-0e3146ba46c0"},{"reference":"Observation/23865f51-1143-4481-8dbb-8edc8e60cd53"},{"reference":"Observation/13075e6e-2453-4af6-abbb-a24b69df89c3"},{"reference":"Observation/76d8a6ac-a9ce-4411-9f95-122a580f2257"},{"reference":"Observation/00e38c7a-cc50-4d90-b84c-e67eaefaff5e"},{"reference":"Encounter/a32991d6-15ab-48fb-ae81-8d3def37bcf1"},{"reference":"Procedure/ef99d204-fcfd-475b-9513-fe965ce682e5"},{"reference":"Condition/a0d08cd7-fbe8-4001-924e-52acc48e4889"},{"reference":"Coverage/9f5ebf98-28cd-4096-9e79-cc5f4e0f0807"},{"reference":"Organization/7b1b3da3-9fa2-4a80-b2eb-52c45e315052"},{"reference":"Practitioner/e178015f-8e2a-4d5b-a17c-f33f583ed50e"}]},"request":{"method":"PUT","url":"MeasureReport/b9be0ef8-cd0c-4b70-88e9-89d4d727dec4"}}]},"request":{"method":"PUT","url":"Bundle/63487c300968f801225401c7"}},{"fullUrl":"Practitioner/e178015f-8e2a-4d5b-a17c-f33f583ed50e","resource":{"resourceType":"Practitioner","id":"e178015f-8e2a-4d5b-a17c-f33f583ed50e","meta":{"profile":["http://hl7.org/fhir/us/qicore/StructureDefinition/qicore-practitioner"]},"identifier":[{"system":"http://hl7.org/fhir/sid/us-npi","value":"1234567890"}],"name":[{"family":"Evil","prefix":["Dr"]}]},"request":{"method":"PUT","url":"Practitioner/e178015f-8e2a-4d5b-a17c-f33f583ed50e"}},{"fullUrl":"Organization/7b1b3da3-9fa2-4a80-b2eb-52c45e315052","resource":{"resourceType":"Organization","id":"7b1b3da3-9fa2-4a80-b2eb-52c45e315052","meta":{"profile":["http://hl7.org/fhir/us/qicore/StructureDefinition/qicore-organization"]},"identifier":[{"use":"temp","system":"urn:oid:2.16.840.1.113883.4.4","value":"21-3259825"}],"active":true,"type":[{"coding":[{"system":"http://terminology.hl7.org/CodeSystem/organization-type","code":"pay","display":"Payer"}]}],"name":"Blue Cross Blue Shield of Texas","telecom":[{"system":"phone","value":"(+1) 972-766-6900"}],"address":[{"use":"billing","type":"postal","line":["P.O. Box 660044"],"city":"Dallas","state":"TX","postalCode":"75266-0044","country":"USA"}]},"request":{"method":"PUT","url":"Organization/7b1b3da3-9fa2-4a80-b2eb-52c45e315052"}},{"fullUrl":"Observation/76d8a6ac-a9ce-4411-9f95-122a580f2257","resource":{"resourceType":"Observation","id":"76d8a6ac-a9ce-4411-9f95-122a580f2257","meta":{"profile":["http://hl7.org/fhir/us/qicore/StructureDefinition/qicore-simple-observation"]},"status":"final","category":[{"coding":[{"system":"http://terminology.hl7.org/CodeSystem/observation-category","code":"exam","display":"exam","userSelected":true}]}],"code":{"coding":[{"system":"http://loinc.org","code":"11884-4"}]},"subject":{"reference":"Patient/f073dc3e-d38e-4986-a343-0e3146ba46c0"},"effectiveDateTime":"2026-06-08T20:00:00.000+00:00","valueQuantity":{"value":37,"system":"http://unitsofmeasure.org","code":"wk"}},"request":{"method":"PUT","url":"Observation/76d8a6ac-a9ce-4411-9f95-122a580f2257"}},{"fullUrl":"Observation/00e38c7a-cc50-4d90-b84c-e67eaefaff5e","resource":{"resourceType":"Observation","id":"00e38c7a-cc50-4d90-b84c-e67eaefaff5e","meta":{"profile":["http://hl7.org/fhir/us/qicore/StructureDefinition/qicore-simple-observation"]},"status":"final","category":[{"coding":[{"system":"http://terminology.hl7.org/CodeSystem/observation-category","code":"exam","display":"exam","userSelected":true}]}],"code":{"coding":[{"system":"http://loinc.org","code":"93857-1"}]},"subject":{"reference":"Patient/f073dc3e-d38e-4986-a343-0e3146ba46c0"},"effectiveDateTime":"2026-06-08T20:00:00.000+00:00","valueDateTime":"2026-06-08T20:00:00.000+00:00"},"request":{"method":"PUT","url":"Observation/00e38c7a-cc50-4d90-b84c-e67eaefaff5e"}},{"fullUrl":"Condition/a0d08cd7-fbe8-4001-924e-52acc48e4889","resource":{"resourceType":"Condition","id":"a0d08cd7-fbe8-4001-924e-52acc48e4889","meta":{"profile":["http://hl7.org/fhir/us/qicore/StructureDefinition/qicore-condition-encounter-diagnosis"]},"category":[{"coding":[{"system":"http://terminology.hl7.org/CodeSystem/condition-category","code":"encounter-diagnosis","display":"Encounter Diagnosis"}]}],"code":{"coding":[{"system":"http://snomed.info/sct","version":"2022-09","code":"169826009","display":"Single live birth from singleton pregnancy (finding)","userSelected":true}]},"subject":{"reference":"Patient/f073dc3e-d38e-4986-a343-0e3146ba46c0"},"encounter":{"reference":"Encounter/a32991d6-15ab-48fb-ae81-8d3def37bcf1"},"recordedDate":"2026-10-21T08:00:00.000+00:00"},"request":{"method":"PUT","url":"Condition/a0d08cd7-fbe8-4001-924e-52acc48e4889"}},{"fullUrl":"MeasureReport/b9be0ef8-cd0c-4b70-88e9-89d4d727dec4","resource":{"resourceType":"MeasureReport","id":"b9be0ef8-cd0c-4b70-88e9-89d4d727dec4","meta":{"profile":["http://hl7.org/fhir/us/cqfmeasures/StructureDefinition/test-case-cqfm"]},"contained":[{"resourceType":"Parameters","id":"c857b27b-3cf0-47ac-a537-a3b0dfd77c0c-parameters","parameter":[{"name":"subject","valueString":"f073dc3e-d38e-4986-a343-0e3146ba46c0"}]}],"extension":[{"url":"http://hl7.org/fhir/StructureDefinition/cqf-inputParameters","valueReference":{"reference":"#c857b27b-3cf0-47ac-a537-a3b0dfd77c0c-parameters"}},{"url":"http://hl7.org/fhir/us/cqfmeasures/StructureDefinition/cqfm-testCaseDescription","valueMarkdown":"\"Preterm Births is null, relevant date/time before Asse delivery datetime\nTerm Newborn=0, authored < 42weeks prior to Asse delivery\"\n"}],"modifierExtension":[{"url":"http://hl7.org/fhir/us/cqfmeasures/StructureDefinition/cqfm-isTestCase","valueBoolean":true}],"status":"complete","type":"individual","measure":"https://madie.cms.gov/Measure/CMS0334FHIRPCCesareanBirth","period":{"start":"2026-01-01","end":"2026-12-31"},"group":[{"id":"Group_1","population":[{"id":"InitialPopulation_1","code":{"coding":[{"system":"http://terminology.hl7.org/CodeSystem/measure-population","code":"initial-population","display":"Initial Population"}]},"count":1},{"id":"Denominator_1","code":{"coding":[{"system":"http://terminology.hl7.org/CodeSystem/measure-population","code":"denominator","display":"Denominator"}]},"count":0},{"id":"DenominatorExclusion_1","code":{"coding":[{"system":"http://terminology.hl7.org/CodeSystem/measure-population","code":"denominator-exclusion","display":"Denominator Exclusion"}]},"count":0},{"id":"Numerator_1","code":{"coding":[{"system":"http://terminology.hl7.org/CodeSystem/measure-population","code":"numerator","display":"Numerator"}]},"count":0}],"measureScore":{"value":0.0}}],"evaluatedResource":[{"reference":"Patient/f073dc3e-d38e-4986-a343-0e3146ba46c0"},{"reference":"Observation/23865f51-1143-4481-8dbb-8edc8e60cd53"},{"reference":"Observation/13075e6e-2453-4af6-abbb-a24b69df89c3"},{"reference":"Observation/76d8a6ac-a9ce-4411-9f95-122a580f2257"},{"reference":"Observation/00e38c7a-cc50-4d90-b84c-e67eaefaff5e"},{"reference":"Encounter/a32991d6-15ab-48fb-ae81-8d3def37bcf1"},{"reference":"Procedure/ef99d204-fcfd-475b-9513-fe965ce682e5"},{"reference":"Condition/a0d08cd7-fbe8-4001-924e-52acc48e4889"},{"reference":"Coverage/9f5ebf98-28cd-4096-9e79-cc5f4e0f0807"},{"reference":"Organization/7b1b3da3-9fa2-4a80-b2eb-52c45e315052"},{"reference":"Practitioner/e178015f-8e2a-4d5b-a17c-f33f583ed50e"}]},"request":{"method":"PUT","url":"MeasureReport/b9be0ef8-cd0c-4b70-88e9-89d4d727dec4"}},{"fullUrl":"Encounter/a32991d6-15ab-48fb-ae81-8d3def37bcf1","resource":{"resourceType":"Encounter","id":"a32991d6-15ab-48fb-ae81-8d3def37bcf1","meta":{"profile":["http://hl7.org/fhir/us/qicore/StructureDefinition/qicore-encounter"]},"status":"finished","class":{"system":"http://terminology.hl7.org/CodeSystem/v3-ActCode","code":"IMP","display":"inpatient encounter"},"type":[{"coding":[{"system":"http://snomed.info/sct","code":"8715000"}]}],"subject":{"reference":"Patient/f073dc3e-d38e-4986-a343-0e3146ba46c0"},"period":{"start":"2026-06-08T08:00:00.000+00:00","end":"2026-06-10T08:15:00.000+00:00"},"length":{"value":2,"unit":"days"},"reasonReference":[{"reference":"Condition/a0d08cd7-fbe8-4001-924e-52acc48e4889"}]},"request":{"method":"PUT","url":"Encounter/a32991d6-15ab-48fb-ae81-8d3def37bcf1"}}]}