{"resourceType":"Bundle","id":"tests-e45bf79e-2de3-47c1-b3f7-d5c06e9bc8ec-bundle","type":"transaction","entry":[{"resource":{"resourceType":"Observation","id":"a66038c2-a059-4673-ad8b-9338f0c3f70e","meta":{"profile":["http://hl7.org/fhir/us/qicore/StructureDefinition/qicore-simple-observation"]},"status":"final","category":[{"coding":[{"system":"http://terminology.hl7.org/CodeSystem/observation-category","code":"exam","display":"exam","userSelected":true}]}],"code":{"coding":[{"system":"http://loinc.org","code":"11996-6"}]},"subject":{"reference":"Patient/e45bf79e-2de3-47c1-b3f7-d5c06e9bc8ec"},"effectiveDateTime":"2026-06-08T08:00:00.000+00:00","valueInteger":1},"request":{"method":"PUT","url":"Observation/a66038c2-a059-4673-ad8b-9338f0c3f70e"}},{"resource":{"resourceType":"Condition","id":"01fa613c-a3ea-416e-9f2d-5507ce5035a9","meta":{"profile":["http://hl7.org/fhir/us/qicore/StructureDefinition/qicore-condition-encounter-diagnosis"]},"category":[{"coding":[{"system":"http://terminology.hl7.org/CodeSystem/condition-category","code":"encounter-diagnosis","display":"Encounter Diagnosis"}]}],"code":{"coding":[{"system":"http://snomed.info/sct","version":"2022-09","code":"169826009","display":"Single live birth from singleton pregnancy (finding)","userSelected":true}]},"subject":{"reference":"Patient/e45bf79e-2de3-47c1-b3f7-d5c06e9bc8ec"},"encounter":{"reference":"Encounter/46b08c03-b91b-47aa-858f-c02ee57e828a"},"recordedDate":"2026-10-21T08:00:00.000+00:00"},"request":{"method":"PUT","url":"Condition/01fa613c-a3ea-416e-9f2d-5507ce5035a9"}},{"resource":{"resourceType":"Practitioner","id":"9d3d2445-953d-4256-853e-20543f58737b","meta":{"profile":["http://hl7.org/fhir/us/qicore/StructureDefinition/qicore-practitioner"]},"identifier":[{"system":"http://hl7.org/fhir/sid/us-npi","value":"1234567890"}],"name":[{"family":"Evil","prefix":["Dr"]}]},"request":{"method":"PUT","url":"Practitioner/9d3d2445-953d-4256-853e-20543f58737b"}},{"resource":{"resourceType":"Patient","id":"e45bf79e-2de3-47c1-b3f7-d5c06e9bc8ec","meta":{"profile":["http://hl7.org/fhir/us/qicore/StructureDefinition/qicore-patient"]},"text":{"status":"generated","div":"<div xmlns=\"http://www.w3.org/1999/xhtml\"><div class=\"hapiHeaderText\">AssessGARelDtTime24Hours1minB4TimeOfDeliv <b>DENOMFail</b></div><table class=\"hapiPropertyTable\"><tbody><tr><td>Identifier</td><td>a645956ac82be668a9abacd6af25539c9cb78de06f5eccbbf48e18ab21ca3396</td></tr><tr><td>Date of birth</td><td><span>14 February 1985</span></td></tr></tbody></table></div>"},"extension":[{"url":"http://hl7.org/fhir/us/core/StructureDefinition/us-core-race","extension":[{"url":"ombCategory","valueCoding":{"system":"urn:oid:2.16.840.1.113883.6.238","code":"1002-5","display":"American Indian or Alaska Native","userSelected":true}},{"url":"text","valueString":"American Indian or Alaska Native"}]},{"url":"http://hl7.org/fhir/us/core/StructureDefinition/us-core-ethnicity","extension":[{"url":"ombCategory","valueCoding":{"system":"urn:oid:2.16.840.1.113883.6.238","code":"2135-2","display":"Hispanic or Latino","userSelected":true}},{"url":"text","valueString":"Hispanic or Latino"}]}],"identifier":[{"type":{"coding":[{"system":"http://terminology.hl7.org/CodeSystem/v2-0203","code":"MR"}]},"system":"https://bonnie-fhir.healthit.gov/","value":"63487c2e0968f80122540183"}],"active":true,"name":[{"use":"usual","family":"DENOMFail","given":["AssessGARelDtTime24Hours1minB4TimeOfDeliv"]}],"gender":"female","birthDate":"1998-02-14"},"request":{"method":"PUT","url":"Patient/e45bf79e-2de3-47c1-b3f7-d5c06e9bc8ec"}},{"resource":{"resourceType":"Observation","id":"f064fa0a-ae40-4b70-9247-35dacf75f81e","meta":{"profile":["http://hl7.org/fhir/us/qicore/StructureDefinition/qicore-simple-observation"]},"status":"final","category":[{"coding":[{"system":"http://terminology.hl7.org/CodeSystem/observation-category","code":"exam","display":"exam","userSelected":true}]}],"code":{"coding":[{"system":"http://loinc.org","code":"11884-4"}]},"subject":{"reference":"Patient/e45bf79e-2de3-47c1-b3f7-d5c06e9bc8ec"},"effectiveDateTime":"2026-06-07T12:59:00.000+00:00","valueQuantity":{"value":37,"system":"http://unitsofmeasure.org","code":"wk"}},"request":{"method":"PUT","url":"Observation/f064fa0a-ae40-4b70-9247-35dacf75f81e"}},{"resource":{"resourceType":"Observation","id":"2e3fe64c-fce7-4deb-ab18-d034aea8fdc8","meta":{"profile":["http://hl7.org/fhir/us/qicore/StructureDefinition/qicore-simple-observation"]},"status":"final","category":[{"coding":[{"system":"http://terminology.hl7.org/CodeSystem/observation-category","code":"exam","display":"exam","userSelected":true}]}],"code":{"coding":[{"system":"http://loinc.org","code":"93857-1"}]},"subject":{"reference":"Patient/e45bf79e-2de3-47c1-b3f7-d5c06e9bc8ec"},"effectiveDateTime":"2026-06-08T13:00:00.000+00:00","valueDateTime":"2026-06-08T13:00:00.000+00:00"},"request":{"method":"PUT","url":"Observation/2e3fe64c-fce7-4deb-ab18-d034aea8fdc8"}},{"resource":{"resourceType":"Coverage","id":"abae17e7-bdc5-4e10-8e47-844cb13f74fe","meta":{"profile":["http://hl7.org/fhir/us/qicore/StructureDefinition/qicore-coverage"]},"status":"active","subscriberId":"523435","beneficiary":{"reference":"Patient/e45bf79e-2de3-47c1-b3f7-d5c06e9bc8ec"},"relationship":{"coding":[{"system":"http://terminology.hl7.org/CodeSystem/subscriber-relationship","code":"self"}]},"payor":[{"reference":"Organization/a134af70-0a80-4f54-88ea-b37862fd6f04"}]},"request":{"method":"PUT","url":"Coverage/abae17e7-bdc5-4e10-8e47-844cb13f74fe"}},{"resource":{"resourceType":"Bundle","id":"63487c2e0968f80122540183","type":"transaction","entry":[{"fullUrl":"https://madie.cms.gov/Patient/e45bf79e-2de3-47c1-b3f7-d5c06e9bc8ec","resource":{"resourceType":"Patient","id":"e45bf79e-2de3-47c1-b3f7-d5c06e9bc8ec","meta":{"profile":["http://hl7.org/fhir/us/qicore/StructureDefinition/qicore-patient"]},"text":{"status":"generated","div":"<div xmlns=\"http://www.w3.org/1999/xhtml\"><div class=\"hapiHeaderText\">AssessGARelDtTime24Hours1minB4TimeOfDeliv <b>DENOMFail</b></div><table class=\"hapiPropertyTable\"><tbody><tr><td>Identifier</td><td>a645956ac82be668a9abacd6af25539c9cb78de06f5eccbbf48e18ab21ca3396</td></tr><tr><td>Date of birth</td><td><span>14 February 1985</span></td></tr></tbody></table></div>"},"extension":[{"url":"http://hl7.org/fhir/us/core/StructureDefinition/us-core-race","extension":[{"url":"ombCategory","valueCoding":{"system":"urn:oid:2.16.840.1.113883.6.238","code":"1002-5","display":"American Indian or Alaska Native","userSelected":true}},{"url":"text","valueString":"American Indian or Alaska Native"}]},{"url":"http://hl7.org/fhir/us/core/StructureDefinition/us-core-ethnicity","extension":[{"url":"ombCategory","valueCoding":{"system":"urn:oid:2.16.840.1.113883.6.238","code":"2135-2","display":"Hispanic or Latino","userSelected":true}},{"url":"text","valueString":"Hispanic or Latino"}]}],"identifier":[{"type":{"coding":[{"system":"http://terminology.hl7.org/CodeSystem/v2-0203","code":"MR"}]},"system":"https://bonnie-fhir.healthit.gov/","value":"63487c2e0968f80122540183"}],"active":true,"name":[{"use":"usual","family":"DENOMFail","given":["AssessGARelDtTime24Hours1minB4TimeOfDeliv"]}],"gender":"female","birthDate":"1998-02-14"},"request":{"method":"PUT","url":"Patient/e45bf79e-2de3-47c1-b3f7-d5c06e9bc8ec"}},{"fullUrl":"https://madie.cms.gov/Observation/f064fa0a-ae40-4b70-9247-35dacf75f81e","resource":{"resourceType":"Observation","id":"f064fa0a-ae40-4b70-9247-35dacf75f81e","meta":{"profile":["http://hl7.org/fhir/us/qicore/StructureDefinition/qicore-simple-observation"]},"status":"final","category":[{"coding":[{"system":"http://terminology.hl7.org/CodeSystem/observation-category","code":"exam","display":"exam","userSelected":true}]}],"code":{"coding":[{"system":"http://loinc.org","code":"11884-4"}]},"subject":{"reference":"Patient/e45bf79e-2de3-47c1-b3f7-d5c06e9bc8ec"},"effectiveDateTime":"2026-06-07T12:59:00.000+00:00","valueQuantity":{"value":37,"system":"http://unitsofmeasure.org","code":"wk"}},"request":{"method":"PUT","url":"Observation/f064fa0a-ae40-4b70-9247-35dacf75f81e"}},{"fullUrl":"https://madie.cms.gov/Observation/a66038c2-a059-4673-ad8b-9338f0c3f70e","resource":{"resourceType":"Observation","id":"a66038c2-a059-4673-ad8b-9338f0c3f70e","meta":{"profile":["http://hl7.org/fhir/us/qicore/StructureDefinition/qicore-simple-observation"]},"status":"final","category":[{"coding":[{"system":"http://terminology.hl7.org/CodeSystem/observation-category","code":"exam","display":"exam","userSelected":true}]}],"code":{"coding":[{"system":"http://loinc.org","code":"11996-6"}]},"subject":{"reference":"Patient/e45bf79e-2de3-47c1-b3f7-d5c06e9bc8ec"},"effectiveDateTime":"2026-06-08T08:00:00.000+00:00","valueInteger":1},"request":{"method":"PUT","url":"Observation/a66038c2-a059-4673-ad8b-9338f0c3f70e"}},{"fullUrl":"https://madie.cms.gov/Observation/2e3fe64c-fce7-4deb-ab18-d034aea8fdc8","resource":{"resourceType":"Observation","id":"2e3fe64c-fce7-4deb-ab18-d034aea8fdc8","meta":{"profile":["http://hl7.org/fhir/us/qicore/StructureDefinition/qicore-simple-observation"]},"status":"final","category":[{"coding":[{"system":"http://terminology.hl7.org/CodeSystem/observation-category","code":"exam","display":"exam","userSelected":true}]}],"code":{"coding":[{"system":"http://loinc.org","code":"93857-1"}]},"subject":{"reference":"Patient/e45bf79e-2de3-47c1-b3f7-d5c06e9bc8ec"},"effectiveDateTime":"2026-06-08T13:00:00.000+00:00","valueDateTime":"2026-06-08T13:00:00.000+00:00"},"request":{"method":"PUT","url":"Observation/2e3fe64c-fce7-4deb-ab18-d034aea8fdc8"}},{"fullUrl":"https://madie.cms.gov/Encounter/46b08c03-b91b-47aa-858f-c02ee57e828a","resource":{"resourceType":"Encounter","id":"46b08c03-b91b-47aa-858f-c02ee57e828a","meta":{"profile":["http://hl7.org/fhir/us/qicore/StructureDefinition/qicore-encounter"]},"status":"finished","class":{"system":"http://terminology.hl7.org/CodeSystem/v3-ActCode","code":"IMP","display":"inpatient encounter"},"type":[{"coding":[{"system":"http://snomed.info/sct","code":"183452005"}]}],"subject":{"reference":"Patient/e45bf79e-2de3-47c1-b3f7-d5c06e9bc8ec"},"period":{"start":"2026-06-08T08:00:00.000+00:00","end":"2026-06-10T08:15:00.000+00:00"},"length":{"value":2,"unit":"days"},"reasonReference":[{"reference":"Condition/01fa613c-a3ea-416e-9f2d-5507ce5035a9"}]},"request":{"method":"PUT","url":"Encounter/46b08c03-b91b-47aa-858f-c02ee57e828a"}},{"fullUrl":"https://madie.cms.gov/Procedure/dbf5beb9-0688-47f8-a24f-409bc34588ce","resource":{"resourceType":"Procedure","id":"dbf5beb9-0688-47f8-a24f-409bc34588ce","meta":{"profile":["http://hl7.org/fhir/us/qicore/StructureDefinition/qicore-procedure"]},"extension":[{"url":"http://hl7.org/fhir/us/qicore/StructureDefinition/qicore-recorded","valueDateTime":"2014-04-05T13:35:00.000+00:00"}],"status":"completed","code":{"coding":[{"system":"http://www.cms.gov/Medicare/Coding/ICD10","code":"10D00Z0"}]},"subject":{"reference":"Patient/e45bf79e-2de3-47c1-b3f7-d5c06e9bc8ec"},"performedPeriod":{"start":"2026-06-08T08:00:00.000+00:00","end":"2026-06-08T09:15:00.000+00:00"}},"request":{"method":"PUT","url":"Procedure/dbf5beb9-0688-47f8-a24f-409bc34588ce"}},{"fullUrl":"https://madie.cms.gov/Condition/01fa613c-a3ea-416e-9f2d-5507ce5035a9","resource":{"resourceType":"Condition","id":"01fa613c-a3ea-416e-9f2d-5507ce5035a9","meta":{"profile":["http://hl7.org/fhir/us/qicore/StructureDefinition/qicore-condition-encounter-diagnosis"]},"category":[{"coding":[{"system":"http://terminology.hl7.org/CodeSystem/condition-category","code":"encounter-diagnosis","display":"Encounter Diagnosis"}]}],"code":{"coding":[{"system":"http://snomed.info/sct","version":"2022-09","code":"169826009","display":"Single live birth from singleton pregnancy (finding)","userSelected":true}]},"subject":{"reference":"Patient/e45bf79e-2de3-47c1-b3f7-d5c06e9bc8ec"},"encounter":{"reference":"Encounter/46b08c03-b91b-47aa-858f-c02ee57e828a"},"recordedDate":"2026-10-21T08:00:00.000+00:00"},"request":{"method":"PUT","url":"Condition/01fa613c-a3ea-416e-9f2d-5507ce5035a9"}},{"fullUrl":"https://madie.cms.gov/Coverage/abae17e7-bdc5-4e10-8e47-844cb13f74fe","resource":{"resourceType":"Coverage","id":"abae17e7-bdc5-4e10-8e47-844cb13f74fe","meta":{"profile":["http://hl7.org/fhir/us/qicore/StructureDefinition/qicore-coverage"]},"status":"active","subscriberId":"523435","beneficiary":{"reference":"Patient/e45bf79e-2de3-47c1-b3f7-d5c06e9bc8ec"},"relationship":{"coding":[{"system":"http://terminology.hl7.org/CodeSystem/subscriber-relationship","code":"self"}]},"payor":[{"reference":"Organization/a134af70-0a80-4f54-88ea-b37862fd6f04"}]},"request":{"method":"PUT","url":"Coverage/abae17e7-bdc5-4e10-8e47-844cb13f74fe"}},{"fullUrl":"https://madie.cms.gov/Organization/a134af70-0a80-4f54-88ea-b37862fd6f04","resource":{"resourceType":"Organization","id":"a134af70-0a80-4f54-88ea-b37862fd6f04","meta":{"profile":["http://hl7.org/fhir/us/qicore/StructureDefinition/qicore-organization"]},"identifier":[{"use":"temp","system":"urn:oid:2.16.840.1.113883.4.4","value":"21-3259825"}],"active":true,"type":[{"coding":[{"system":"http://terminology.hl7.org/CodeSystem/organization-type","code":"pay","display":"Payer"}]}],"name":"Blue Cross Blue Shield of Texas","telecom":[{"system":"phone","value":"(+1) 972-766-6900"}],"address":[{"use":"billing","type":"postal","line":["P.O. Box 660044"],"city":"Dallas","state":"TX","postalCode":"75266-0044","country":"USA"}]},"request":{"method":"PUT","url":"Organization/a134af70-0a80-4f54-88ea-b37862fd6f04"}},{"fullUrl":"https://madie.cms.gov/Practitioner/9d3d2445-953d-4256-853e-20543f58737b","resource":{"resourceType":"Practitioner","id":"9d3d2445-953d-4256-853e-20543f58737b","meta":{"profile":["http://hl7.org/fhir/us/qicore/StructureDefinition/qicore-practitioner"]},"identifier":[{"system":"http://hl7.org/fhir/sid/us-npi","value":"1234567890"}],"name":[{"family":"Evil","prefix":["Dr"]}]},"request":{"method":"PUT","url":"Practitioner/9d3d2445-953d-4256-853e-20543f58737b"}},{"fullUrl":"https://madie.cms.gov/MeasureReport/ad99a8fc-1d6f-490e-9fab-91544196dd13","resource":{"resourceType":"MeasureReport","id":"ad99a8fc-1d6f-490e-9fab-91544196dd13","meta":{"profile":["http://hl7.org/fhir/us/cqfmeasures/StructureDefinition/test-case-cqfm"]},"contained":[{"resourceType":"Parameters","id":"b61c5849-6ddc-4676-b615-ca942f389801-parameters","parameter":[{"name":"subject","valueString":"e45bf79e-2de3-47c1-b3f7-d5c06e9bc8ec"}]}],"extension":[{"url":"http://hl7.org/fhir/StructureDefinition/cqf-inputParameters","valueReference":{"reference":"#b61c5849-6ddc-4676-b615-ca942f389801-parameters"}},{"url":"http://hl7.org/fhir/us/cqfmeasures/StructureDefinition/cqfm-testCaseDescription","valueMarkdown":"Passes: IP, Pt is 27 years of age,  encounter dx of delivery of singleton, gravida, AsseEGA37 (24 hours and 1 minute before  TmDelivery rel datetime.  Tests \"Gestation37PlusWeeks.RelevantDatetime 1 day or less on or before TimeOfDel\".\n"}],"modifierExtension":[{"url":"http://hl7.org/fhir/us/cqfmeasures/StructureDefinition/cqfm-isTestCase","valueBoolean":true}],"status":"complete","type":"individual","measure":"https://madie.cms.gov/Measure/CMS0334FHIRPCCesareanBirth","period":{"start":"2026-01-01","end":"2026-12-31"},"group":[{"id":"Group_1","population":[{"id":"InitialPopulation_1","code":{"coding":[{"system":"http://terminology.hl7.org/CodeSystem/measure-population","code":"initial-population","display":"Initial Population"}]},"count":1},{"id":"Denominator_1","code":{"coding":[{"system":"http://terminology.hl7.org/CodeSystem/measure-population","code":"denominator","display":"Denominator"}]},"count":0},{"id":"DenominatorExclusion_1","code":{"coding":[{"system":"http://terminology.hl7.org/CodeSystem/measure-population","code":"denominator-exclusion","display":"Denominator Exclusion"}]},"count":0},{"id":"Numerator_1","code":{"coding":[{"system":"http://terminology.hl7.org/CodeSystem/measure-population","code":"numerator","display":"Numerator"}]},"count":0}],"measureScore":{"value":0.0}}],"evaluatedResource":[{"reference":"Patient/e45bf79e-2de3-47c1-b3f7-d5c06e9bc8ec"},{"reference":"Observation/f064fa0a-ae40-4b70-9247-35dacf75f81e"},{"reference":"Observation/a66038c2-a059-4673-ad8b-9338f0c3f70e"},{"reference":"Observation/2e3fe64c-fce7-4deb-ab18-d034aea8fdc8"},{"reference":"Encounter/46b08c03-b91b-47aa-858f-c02ee57e828a"},{"reference":"Procedure/dbf5beb9-0688-47f8-a24f-409bc34588ce"},{"reference":"Condition/01fa613c-a3ea-416e-9f2d-5507ce5035a9"},{"reference":"Coverage/abae17e7-bdc5-4e10-8e47-844cb13f74fe"},{"reference":"Organization/a134af70-0a80-4f54-88ea-b37862fd6f04"},{"reference":"Practitioner/9d3d2445-953d-4256-853e-20543f58737b"}]},"request":{"method":"PUT","url":"MeasureReport/ad99a8fc-1d6f-490e-9fab-91544196dd13"}}]},"request":{"method":"PUT","url":"Bundle/63487c2e0968f80122540183"}},{"resource":{"resourceType":"Procedure","id":"dbf5beb9-0688-47f8-a24f-409bc34588ce","meta":{"profile":["http://hl7.org/fhir/us/qicore/StructureDefinition/qicore-procedure"]},"extension":[{"url":"http://hl7.org/fhir/us/qicore/StructureDefinition/qicore-recorded","valueDateTime":"2014-04-05T13:35:00.000+00:00"}],"status":"completed","code":{"coding":[{"system":"http://www.cms.gov/Medicare/Coding/ICD10","code":"10D00Z0"}]},"subject":{"reference":"Patient/e45bf79e-2de3-47c1-b3f7-d5c06e9bc8ec"},"performedPeriod":{"start":"2026-06-08T08:00:00.000+00:00","end":"2026-06-08T09:15:00.000+00:00"}},"request":{"method":"PUT","url":"Procedure/dbf5beb9-0688-47f8-a24f-409bc34588ce"}},{"resource":{"resourceType":"MeasureReport","id":"ad99a8fc-1d6f-490e-9fab-91544196dd13","meta":{"profile":["http://hl7.org/fhir/us/cqfmeasures/StructureDefinition/test-case-cqfm"]},"contained":[{"resourceType":"Parameters","id":"b61c5849-6ddc-4676-b615-ca942f389801-parameters","parameter":[{"name":"subject","valueString":"e45bf79e-2de3-47c1-b3f7-d5c06e9bc8ec"}]}],"extension":[{"url":"http://hl7.org/fhir/StructureDefinition/cqf-inputParameters","valueReference":{"reference":"#b61c5849-6ddc-4676-b615-ca942f389801-parameters"}},{"url":"http://hl7.org/fhir/us/cqfmeasures/StructureDefinition/cqfm-testCaseDescription","valueMarkdown":"Passes: IP, Pt is 27 years of age,  encounter dx of delivery of singleton, gravida, AsseEGA37 (24 hours and 1 minute before  TmDelivery rel datetime.  Tests \"Gestation37PlusWeeks.RelevantDatetime 1 day or less on or before TimeOfDel\".\n"}],"modifierExtension":[{"url":"http://hl7.org/fhir/us/cqfmeasures/StructureDefinition/cqfm-isTestCase","valueBoolean":true}],"status":"complete","type":"individual","measure":"https://madie.cms.gov/Measure/CMS0334FHIRPCCesareanBirth","period":{"start":"2026-01-01","end":"2026-12-31"},"group":[{"id":"Group_1","population":[{"id":"InitialPopulation_1","code":{"coding":[{"system":"http://terminology.hl7.org/CodeSystem/measure-population","code":"initial-population","display":"Initial Population"}]},"count":1},{"id":"Denominator_1","code":{"coding":[{"system":"http://terminology.hl7.org/CodeSystem/measure-population","code":"denominator","display":"Denominator"}]},"count":0},{"id":"DenominatorExclusion_1","code":{"coding":[{"system":"http://terminology.hl7.org/CodeSystem/measure-population","code":"denominator-exclusion","display":"Denominator Exclusion"}]},"count":0},{"id":"Numerator_1","code":{"coding":[{"system":"http://terminology.hl7.org/CodeSystem/measure-population","code":"numerator","display":"Numerator"}]},"count":0}],"measureScore":{"value":0.0}}],"evaluatedResource":[{"reference":"Patient/e45bf79e-2de3-47c1-b3f7-d5c06e9bc8ec"},{"reference":"Observation/f064fa0a-ae40-4b70-9247-35dacf75f81e"},{"reference":"Observation/a66038c2-a059-4673-ad8b-9338f0c3f70e"},{"reference":"Observation/2e3fe64c-fce7-4deb-ab18-d034aea8fdc8"},{"reference":"Encounter/46b08c03-b91b-47aa-858f-c02ee57e828a"},{"reference":"Procedure/dbf5beb9-0688-47f8-a24f-409bc34588ce"},{"reference":"Condition/01fa613c-a3ea-416e-9f2d-5507ce5035a9"},{"reference":"Coverage/abae17e7-bdc5-4e10-8e47-844cb13f74fe"},{"reference":"Organization/a134af70-0a80-4f54-88ea-b37862fd6f04"},{"reference":"Practitioner/9d3d2445-953d-4256-853e-20543f58737b"}]},"request":{"method":"PUT","url":"MeasureReport/ad99a8fc-1d6f-490e-9fab-91544196dd13"}},{"resource":{"resourceType":"Organization","id":"a134af70-0a80-4f54-88ea-b37862fd6f04","meta":{"profile":["http://hl7.org/fhir/us/qicore/StructureDefinition/qicore-organization"]},"identifier":[{"use":"temp","system":"urn:oid:2.16.840.1.113883.4.4","value":"21-3259825"}],"active":true,"type":[{"coding":[{"system":"http://terminology.hl7.org/CodeSystem/organization-type","code":"pay","display":"Payer"}]}],"name":"Blue Cross Blue Shield of Texas","telecom":[{"system":"phone","value":"(+1) 972-766-6900"}],"address":[{"use":"billing","type":"postal","line":["P.O. Box 660044"],"city":"Dallas","state":"TX","postalCode":"75266-0044","country":"USA"}]},"request":{"method":"PUT","url":"Organization/a134af70-0a80-4f54-88ea-b37862fd6f04"}},{"resource":{"resourceType":"Encounter","id":"46b08c03-b91b-47aa-858f-c02ee57e828a","meta":{"profile":["http://hl7.org/fhir/us/qicore/StructureDefinition/qicore-encounter"]},"status":"finished","class":{"system":"http://terminology.hl7.org/CodeSystem/v3-ActCode","code":"IMP","display":"inpatient encounter"},"type":[{"coding":[{"system":"http://snomed.info/sct","code":"183452005"}]}],"subject":{"reference":"Patient/e45bf79e-2de3-47c1-b3f7-d5c06e9bc8ec"},"period":{"start":"2026-06-08T08:00:00.000+00:00","end":"2026-06-10T08:15:00.000+00:00"},"length":{"value":2,"unit":"days"},"reasonReference":[{"reference":"Condition/01fa613c-a3ea-416e-9f2d-5507ce5035a9"}]},"request":{"method":"PUT","url":"Encounter/46b08c03-b91b-47aa-858f-c02ee57e828a"}}]}