{"resourceType":"Bundle","id":"tests-5df18a61-3644-4004-b66f-84530f643a74-bundle","type":"transaction","entry":[{"resource":{"resourceType":"MeasureReport","id":"93ef597b-5cc9-4884-9d06-447287ad8876","meta":{"profile":["http://hl7.org/fhir/us/cqfmeasures/StructureDefinition/test-case-cqfm"]},"contained":[{"resourceType":"Parameters","id":"2631d646-275e-4675-9f16-0845c302fe55-parameters","parameter":[{"name":"subject","valueString":"5df18a61-3644-4004-b66f-84530f643a74"}]}],"extension":[{"url":"http://hl7.org/fhir/StructureDefinition/cqf-inputParameters","valueReference":{"reference":"#2631d646-275e-4675-9f16-0845c302fe55-parameters"}},{"url":"http://hl7.org/fhir/us/cqfmeasures/StructureDefinition/cqfm-testCaseDescription","valueMarkdown":"Encounter  does not have a start date and should not pass Initial Population Criteria"}],"modifierExtension":[{"url":"http://hl7.org/fhir/us/cqfmeasures/StructureDefinition/cqfm-isTestCase","valueBoolean":true}],"status":"complete","type":"individual","measure":"https://madie.cms.gov/Measure/CMS142FHIRDRCommunicationWithPhysicianManagingDiabetes","period":{"start":"2026-01-01","end":"2026-12-31"},"group":[{"id":"Group_1","population":[{"id":"InitialPopulation_1","code":{"coding":[{"system":"http://terminology.hl7.org/CodeSystem/measure-population","code":"initial-population","display":"Initial Population"}]},"count":0},{"id":"Denominator_1","code":{"coding":[{"system":"http://terminology.hl7.org/CodeSystem/measure-population","code":"denominator","display":"Denominator"}]},"count":0},{"id":"Numerator_1","code":{"coding":[{"system":"http://terminology.hl7.org/CodeSystem/measure-population","code":"numerator","display":"Numerator"}]},"count":0},{"id":"DenominatorException_1","code":{"coding":[{"system":"http://terminology.hl7.org/CodeSystem/measure-population","code":"denominator-exception","display":"Denominator Exception"}]},"count":0}],"measureScore":{"value":1.0}}],"evaluatedResource":[{"reference":"Patient/5df18a61-3644-4004-b66f-84530f643a74"},{"reference":"Condition/e29879e0-1c57-4a21-b4ac-c6a52e1f38fd"},{"reference":"Encounter/3926803d-96c0-4e0b-a78c-52b5f1a25823"},{"reference":"Coverage/9f8edc90-dd9f-4393-bd96-256c5c03b017"},{"reference":"Organization/9af9c5a3-c4f3-48b2-8450-9f0349788c5b"}]},"request":{"method":"PUT","url":"MeasureReport/93ef597b-5cc9-4884-9d06-447287ad8876"}},{"resource":{"resourceType":"Bundle","id":"61168b8798086b77ef9c5ec1","type":"transaction","entry":[{"fullUrl":"https://madie.cms.gov/Patient/5df18a61-3644-4004-b66f-84530f643a74","resource":{"resourceType":"Patient","id":"5df18a61-3644-4004-b66f-84530f643a74","meta":{"profile":["http://hl7.org/fhir/us/qicore/StructureDefinition/qicore-patient"]},"extension":[{"url":"http://hl7.org/fhir/us/core/StructureDefinition/us-core-race","extension":[{"url":"ombCategory","valueCoding":{"system":"urn:oid:2.16.840.1.113883.6.238","code":"2106-3","display":"White","userSelected":true}},{"url":"text","valueString":"White"}]},{"url":"http://hl7.org/fhir/us/core/StructureDefinition/us-core-ethnicity","extension":[{"url":"ombCategory","valueCoding":{"system":"urn:oid:2.16.840.1.113883.6.238","code":"2135-2","display":"Hispanic or Latino","userSelected":true}},{"url":"text","valueString":"Hispanic or Latino"}]}],"identifier":[{"type":{"coding":[{"system":"http://terminology.hl7.org/CodeSystem/v2-0203","code":"MR"}]},"system":"https://bonnie-fhir.healthit.gov/","value":"61168b8798086b77ef9c5ec1"}],"active":true,"name":[{"use":"usual","family":"IPFail","given":["EncHasNoStartDt"]}],"gender":"female","birthDate":"1984-01-10"},"request":{"method":"PUT","url":"Patient/5df18a61-3644-4004-b66f-84530f643a74"}},{"fullUrl":"https://madie.cms.gov/Condition/e29879e0-1c57-4a21-b4ac-c6a52e1f38fd","resource":{"resourceType":"Condition","id":"e29879e0-1c57-4a21-b4ac-c6a52e1f38fd","meta":{"profile":["http://hl7.org/fhir/us/qicore/StructureDefinition/qicore-condition-problems-health-concerns"]},"clinicalStatus":{"coding":[{"system":"http://terminology.hl7.org/CodeSystem/condition-clinical","code":"active","display":"active","userSelected":true}]},"category":[{"coding":[{"system":"http://terminology.hl7.org/CodeSystem/condition-category","code":"problem-list-item","display":"Problem List Item"}]}],"code":{"coding":[{"system":"http://snomed.info/sct","version":"http://snomed.info/sct/731000124108/version/202303","code":"314014002"}]},"subject":{"reference":"Patient/5df18a61-3644-4004-b66f-84530f643a74"},"onsetDateTime":"2026-09-10T10:45:00.000+00:00"},"request":{"method":"PUT","url":"Condition/e29879e0-1c57-4a21-b4ac-c6a52e1f38fd"}},{"fullUrl":"https://madie.cms.gov/Encounter/3926803d-96c0-4e0b-a78c-52b5f1a25823","resource":{"resourceType":"Encounter","id":"3926803d-96c0-4e0b-a78c-52b5f1a25823","meta":{"profile":["http://hl7.org/fhir/us/qicore/StructureDefinition/qicore-encounter"]},"status":"finished","class":{"system":"http://terminology.hl7.org/CodeSystem/v3-ActCode","code":"AMB"},"type":[{"coding":[{"system":"http://www.ama-assn.org/go/cpt","version":"2023","code":"99205"}]}],"subject":{"reference":"Patient/5df18a61-3644-4004-b66f-84530f643a74"},"period":{"end":"2026-09-11T11:00:00.000+00:00"}},"request":{"method":"PUT","url":"Encounter/3926803d-96c0-4e0b-a78c-52b5f1a25823"}},{"fullUrl":"https://madie.cms.gov/Coverage/9f8edc90-dd9f-4393-bd96-256c5c03b017","resource":{"resourceType":"Coverage","id":"9f8edc90-dd9f-4393-bd96-256c5c03b017","meta":{"profile":["http://hl7.org/fhir/us/qicore/StructureDefinition/qicore-coverage"]},"status":"active","beneficiary":{"reference":"Patient/5df18a61-3644-4004-b66f-84530f643a74"},"payor":[{"reference":"Organization/9af9c5a3-c4f3-48b2-8450-9f0349788c5b"}]},"request":{"method":"PUT","url":"Coverage/9f8edc90-dd9f-4393-bd96-256c5c03b017"}},{"fullUrl":"https://madie.cms.gov/Organization/9af9c5a3-c4f3-48b2-8450-9f0349788c5b","resource":{"resourceType":"Organization","id":"9af9c5a3-c4f3-48b2-8450-9f0349788c5b","meta":{"profile":["http://hl7.org/fhir/us/qicore/StructureDefinition/qicore-organization"]},"identifier":[{"use":"temp","system":"urn:oid:2.16.840.1.113883.4.4","value":"21-3259825"}],"active":true,"type":[{"coding":[{"system":"http://terminology.hl7.org/CodeSystem/organization-type","code":"pay","display":"Payer"}]}],"name":"Blue Cross Blue Shield of Texas","telecom":[{"system":"phone","value":"(+1) 972-766-6900"}],"address":[{"use":"billing","type":"postal","line":["P.O. Box 660044"],"city":"Dallas","state":"TX","postalCode":"75266-0044","country":"USA"}]},"request":{"method":"PUT","url":"Organization/9af9c5a3-c4f3-48b2-8450-9f0349788c5b"}},{"fullUrl":"https://madie.cms.gov/MeasureReport/93ef597b-5cc9-4884-9d06-447287ad8876","resource":{"resourceType":"MeasureReport","id":"93ef597b-5cc9-4884-9d06-447287ad8876","meta":{"profile":["http://hl7.org/fhir/us/cqfmeasures/StructureDefinition/test-case-cqfm"]},"contained":[{"resourceType":"Parameters","id":"2631d646-275e-4675-9f16-0845c302fe55-parameters","parameter":[{"name":"subject","valueString":"5df18a61-3644-4004-b66f-84530f643a74"}]}],"extension":[{"url":"http://hl7.org/fhir/StructureDefinition/cqf-inputParameters","valueReference":{"reference":"#2631d646-275e-4675-9f16-0845c302fe55-parameters"}},{"url":"http://hl7.org/fhir/us/cqfmeasures/StructureDefinition/cqfm-testCaseDescription","valueMarkdown":"Encounter  does not have a start date and should not pass Initial Population Criteria"}],"modifierExtension":[{"url":"http://hl7.org/fhir/us/cqfmeasures/StructureDefinition/cqfm-isTestCase","valueBoolean":true}],"status":"complete","type":"individual","measure":"https://madie.cms.gov/Measure/CMS142FHIRDRCommunicationWithPhysicianManagingDiabetes","period":{"start":"2026-01-01","end":"2026-12-31"},"group":[{"id":"Group_1","population":[{"id":"InitialPopulation_1","code":{"coding":[{"system":"http://terminology.hl7.org/CodeSystem/measure-population","code":"initial-population","display":"Initial Population"}]},"count":0},{"id":"Denominator_1","code":{"coding":[{"system":"http://terminology.hl7.org/CodeSystem/measure-population","code":"denominator","display":"Denominator"}]},"count":0},{"id":"Numerator_1","code":{"coding":[{"system":"http://terminology.hl7.org/CodeSystem/measure-population","code":"numerator","display":"Numerator"}]},"count":0},{"id":"DenominatorException_1","code":{"coding":[{"system":"http://terminology.hl7.org/CodeSystem/measure-population","code":"denominator-exception","display":"Denominator Exception"}]},"count":0}],"measureScore":{"value":1.0}}],"evaluatedResource":[{"reference":"Patient/5df18a61-3644-4004-b66f-84530f643a74"},{"reference":"Condition/e29879e0-1c57-4a21-b4ac-c6a52e1f38fd"},{"reference":"Encounter/3926803d-96c0-4e0b-a78c-52b5f1a25823"},{"reference":"Coverage/9f8edc90-dd9f-4393-bd96-256c5c03b017"},{"reference":"Organization/9af9c5a3-c4f3-48b2-8450-9f0349788c5b"}]},"request":{"method":"PUT","url":"MeasureReport/93ef597b-5cc9-4884-9d06-447287ad8876"}}]},"request":{"method":"PUT","url":"Bundle/61168b8798086b77ef9c5ec1"}},{"resource":{"resourceType":"Encounter","id":"3926803d-96c0-4e0b-a78c-52b5f1a25823","meta":{"profile":["http://hl7.org/fhir/us/qicore/StructureDefinition/qicore-encounter"]},"status":"finished","class":{"system":"http://terminology.hl7.org/CodeSystem/v3-ActCode","code":"AMB"},"type":[{"coding":[{"system":"http://www.ama-assn.org/go/cpt","version":"2023","code":"99205"}]}],"subject":{"reference":"Patient/5df18a61-3644-4004-b66f-84530f643a74"},"period":{"end":"2026-09-11T11:00:00.000+00:00"}},"request":{"method":"PUT","url":"Encounter/3926803d-96c0-4e0b-a78c-52b5f1a25823"}},{"resource":{"resourceType":"Patient","id":"5df18a61-3644-4004-b66f-84530f643a74","meta":{"profile":["http://hl7.org/fhir/us/qicore/StructureDefinition/qicore-patient"]},"extension":[{"url":"http://hl7.org/fhir/us/core/StructureDefinition/us-core-race","extension":[{"url":"ombCategory","valueCoding":{"system":"urn:oid:2.16.840.1.113883.6.238","code":"2106-3","display":"White","userSelected":true}},{"url":"text","valueString":"White"}]},{"url":"http://hl7.org/fhir/us/core/StructureDefinition/us-core-ethnicity","extension":[{"url":"ombCategory","valueCoding":{"system":"urn:oid:2.16.840.1.113883.6.238","code":"2135-2","display":"Hispanic or Latino","userSelected":true}},{"url":"text","valueString":"Hispanic or Latino"}]}],"identifier":[{"type":{"coding":[{"system":"http://terminology.hl7.org/CodeSystem/v2-0203","code":"MR"}]},"system":"https://bonnie-fhir.healthit.gov/","value":"61168b8798086b77ef9c5ec1"}],"active":true,"name":[{"use":"usual","family":"IPFail","given":["EncHasNoStartDt"]}],"gender":"female","birthDate":"1984-01-10"},"request":{"method":"PUT","url":"Patient/5df18a61-3644-4004-b66f-84530f643a74"}},{"resource":{"resourceType":"Condition","id":"e29879e0-1c57-4a21-b4ac-c6a52e1f38fd","meta":{"profile":["http://hl7.org/fhir/us/qicore/StructureDefinition/qicore-condition-problems-health-concerns"]},"clinicalStatus":{"coding":[{"system":"http://terminology.hl7.org/CodeSystem/condition-clinical","code":"active","display":"active","userSelected":true}]},"category":[{"coding":[{"system":"http://terminology.hl7.org/CodeSystem/condition-category","code":"problem-list-item","display":"Problem List Item"}]}],"code":{"coding":[{"system":"http://snomed.info/sct","version":"http://snomed.info/sct/731000124108/version/202303","code":"314014002"}]},"subject":{"reference":"Patient/5df18a61-3644-4004-b66f-84530f643a74"},"onsetDateTime":"2026-09-10T10:45:00.000+00:00"},"request":{"method":"PUT","url":"Condition/e29879e0-1c57-4a21-b4ac-c6a52e1f38fd"}},{"resource":{"resourceType":"Coverage","id":"9f8edc90-dd9f-4393-bd96-256c5c03b017","meta":{"profile":["http://hl7.org/fhir/us/qicore/StructureDefinition/qicore-coverage"]},"status":"active","beneficiary":{"reference":"Patient/5df18a61-3644-4004-b66f-84530f643a74"},"payor":[{"reference":"Organization/9af9c5a3-c4f3-48b2-8450-9f0349788c5b"}]},"request":{"method":"PUT","url":"Coverage/9f8edc90-dd9f-4393-bd96-256c5c03b017"}},{"resource":{"resourceType":"Organization","id":"9af9c5a3-c4f3-48b2-8450-9f0349788c5b","meta":{"profile":["http://hl7.org/fhir/us/qicore/StructureDefinition/qicore-organization"]},"identifier":[{"use":"temp","system":"urn:oid:2.16.840.1.113883.4.4","value":"21-3259825"}],"active":true,"type":[{"coding":[{"system":"http://terminology.hl7.org/CodeSystem/organization-type","code":"pay","display":"Payer"}]}],"name":"Blue Cross Blue Shield of Texas","telecom":[{"system":"phone","value":"(+1) 972-766-6900"}],"address":[{"use":"billing","type":"postal","line":["P.O. Box 660044"],"city":"Dallas","state":"TX","postalCode":"75266-0044","country":"USA"}]},"request":{"method":"PUT","url":"Organization/9af9c5a3-c4f3-48b2-8450-9f0349788c5b"}}]}