{"resourceType":"Bundle","id":"tests-3df53f41-2dd3-4f7c-9745-0566541661c4-bundle","type":"transaction","entry":[{"resource":{"resourceType":"Encounter","id":"df783b3f-c061-4cef-bf9f-c19e0d0c6fb3","meta":{"profile":["http://hl7.org/fhir/us/qicore/StructureDefinition/qicore-encounter"]},"status":"finished","class":{"system":"http://terminology.hl7.org/CodeSystem/v3-ActCode","code":"AMB","display":"ambulatory","userSelected":true},"type":[{"coding":[{"system":"http://snomed.info/sct","version":"http://snomed.info/sct/731000124108/version/202303","code":"18170008","display":"Subsequent nursing facility visit (procedure)","userSelected":true}]}],"subject":{"reference":"Patient/3df53f41-2dd3-4f7c-9745-0566541661c4"},"period":{"start":"2026-03-09T08:00:00.000+00:00","end":"2026-03-09T08:15:00.000+00:00"}},"request":{"method":"PUT","url":"Encounter/df783b3f-c061-4cef-bf9f-c19e0d0c6fb3"}},{"resource":{"resourceType":"MeasureReport","id":"5432acbf-36d9-44f0-bd38-dc3a786db237","meta":{"profile":["http://hl7.org/fhir/us/cqfmeasures/StructureDefinition/test-case-cqfm"]},"contained":[{"resourceType":"Parameters","id":"e77f2177-830e-4635-8e29-50a3586bbc8a-parameters","parameter":[{"name":"subject","valueString":"3df53f41-2dd3-4f7c-9745-0566541661c4"}]}],"extension":[{"url":"http://hl7.org/fhir/StructureDefinition/cqf-inputParameters","valueReference":{"reference":"#e77f2177-830e-4635-8e29-50a3586bbc8a-parameters"}},{"url":"http://hl7.org/fhir/us/cqfmeasures/StructureDefinition/cqfm-testCaseDescription","valueMarkdown":"Fundus Exam is performed 1 minute before start of encounter and will not pass Denominator"}],"modifierExtension":[{"url":"http://hl7.org/fhir/us/cqfmeasures/StructureDefinition/cqfm-isTestCase","valueBoolean":true}],"status":"complete","type":"individual","measure":"https://madie.cms.gov/Measure/CMS142FHIRDRCommunicationWithPhysicianManagingDiabetes","period":{"start":"2026-01-01","end":"2026-12-31"},"group":[{"id":"Group_1","population":[{"id":"InitialPopulation_1","code":{"coding":[{"system":"http://terminology.hl7.org/CodeSystem/measure-population","code":"initial-population","display":"Initial Population"}]},"count":1},{"id":"Denominator_1","code":{"coding":[{"system":"http://terminology.hl7.org/CodeSystem/measure-population","code":"denominator","display":"Denominator"}]},"count":0},{"id":"Numerator_1","code":{"coding":[{"system":"http://terminology.hl7.org/CodeSystem/measure-population","code":"numerator","display":"Numerator"}]},"count":0},{"id":"DenominatorException_1","code":{"coding":[{"system":"http://terminology.hl7.org/CodeSystem/measure-population","code":"denominator-exception","display":"Denominator Exception"}]},"count":0}],"measureScore":{"value":1.0}}],"evaluatedResource":[{"reference":"Patient/3df53f41-2dd3-4f7c-9745-0566541661c4"},{"reference":"Encounter/df783b3f-c061-4cef-bf9f-c19e0d0c6fb3"},{"reference":"Condition/341a3aa2-dfe9-48af-b8dd-0a9c30ee769d"},{"reference":"Observation/b9271754-11d2-42f2-9186-e53ecca5f5b8"},{"reference":"Coverage/978a11d7-6bca-4d9b-a582-7aab294243e5"},{"reference":"Organization/1af2f4ff-e85b-4301-9afa-946ce161a631"},{"reference":"Practitioner/5b700402-8548-4e8d-a910-1ca115217f91"}]},"request":{"method":"PUT","url":"MeasureReport/5432acbf-36d9-44f0-bd38-dc3a786db237"}},{"resource":{"resourceType":"Practitioner","id":"5b700402-8548-4e8d-a910-1ca115217f91","meta":{"profile":["http://hl7.org/fhir/us/qicore/StructureDefinition/qicore-practitioner"]},"identifier":[{"system":"http://hl7.org/fhir/sid/us-npi","value":"123456"}],"name":[{"family":"Evil","prefix":["Dr"]}]},"request":{"method":"PUT","url":"Practitioner/5b700402-8548-4e8d-a910-1ca115217f91"}},{"resource":{"resourceType":"Patient","id":"3df53f41-2dd3-4f7c-9745-0566541661c4","meta":{"profile":["http://hl7.org/fhir/us/qicore/StructureDefinition/qicore-patient"]},"extension":[{"url":"http://hl7.org/fhir/us/core/StructureDefinition/us-core-race","extension":[{"url":"ombCategory","valueCoding":{"system":"urn:oid:2.16.840.1.113883.6.238","code":"2028-9","display":"Asian","userSelected":true}},{"url":"text","valueString":"Asian"}]},{"url":"http://hl7.org/fhir/us/core/StructureDefinition/us-core-ethnicity","extension":[{"url":"ombCategory","valueCoding":{"system":"urn:oid:2.16.840.1.113883.6.238","code":"2135-2","display":"Hispanic or Latino","userSelected":true}},{"url":"text","valueString":"Hispanic or Latino"}]}],"identifier":[{"type":{"coding":[{"system":"http://terminology.hl7.org/CodeSystem/v2-0203","code":"MR"}]},"system":"https://bonnie-fhir.healthit.gov/","value":"63f628d8d289cd498bb84238"}],"name":[{"family":"DENOMFail","given":["FundusExam1MinB4EncStart"]}],"gender":"female","birthDate":"1989-08-01"},"request":{"method":"PUT","url":"Patient/3df53f41-2dd3-4f7c-9745-0566541661c4"}},{"resource":{"resourceType":"Coverage","id":"978a11d7-6bca-4d9b-a582-7aab294243e5","meta":{"profile":["http://hl7.org/fhir/us/qicore/StructureDefinition/qicore-coverage"]},"status":"active","beneficiary":{"reference":"Patient/3df53f41-2dd3-4f7c-9745-0566541661c4"},"payor":[{"reference":"Organization/1af2f4ff-e85b-4301-9afa-946ce161a631"}]},"request":{"method":"PUT","url":"Coverage/978a11d7-6bca-4d9b-a582-7aab294243e5"}},{"resource":{"resourceType":"Condition","id":"341a3aa2-dfe9-48af-b8dd-0a9c30ee769d","meta":{"profile":["http://hl7.org/fhir/us/qicore/StructureDefinition/qicore-condition-problems-health-concerns"]},"clinicalStatus":{"coding":[{"system":"http://terminology.hl7.org/CodeSystem/condition-clinical","code":"active","display":"active","userSelected":true}]},"category":[{"coding":[{"system":"http://terminology.hl7.org/CodeSystem/condition-ver-status","code":"confirmed","display":"confirmed","userSelected":true}]}],"code":{"coding":[{"system":"http://snomed.info/sct","version":"http://snomed.info/sct/731000124108/version/202303","code":"193349004","display":"Preproliferative retinopathy due to diabetes mellitus (disorder)","userSelected":true}]},"subject":{"reference":"Patient/3df53f41-2dd3-4f7c-9745-0566541661c4"},"onsetDateTime":"2026-01-09T08:00:00.000+00:00"},"request":{"method":"PUT","url":"Condition/341a3aa2-dfe9-48af-b8dd-0a9c30ee769d"}},{"resource":{"resourceType":"Bundle","id":"63f628d8d289cd498bb84238","type":"transaction","entry":[{"fullUrl":"https://madie.cms.gov/Patient/3df53f41-2dd3-4f7c-9745-0566541661c4","resource":{"resourceType":"Patient","id":"3df53f41-2dd3-4f7c-9745-0566541661c4","meta":{"profile":["http://hl7.org/fhir/us/qicore/StructureDefinition/qicore-patient"]},"extension":[{"url":"http://hl7.org/fhir/us/core/StructureDefinition/us-core-race","extension":[{"url":"ombCategory","valueCoding":{"system":"urn:oid:2.16.840.1.113883.6.238","code":"2028-9","display":"Asian","userSelected":true}},{"url":"text","valueString":"Asian"}]},{"url":"http://hl7.org/fhir/us/core/StructureDefinition/us-core-ethnicity","extension":[{"url":"ombCategory","valueCoding":{"system":"urn:oid:2.16.840.1.113883.6.238","code":"2135-2","display":"Hispanic or Latino","userSelected":true}},{"url":"text","valueString":"Hispanic or Latino"}]}],"identifier":[{"type":{"coding":[{"system":"http://terminology.hl7.org/CodeSystem/v2-0203","code":"MR"}]},"system":"https://bonnie-fhir.healthit.gov/","value":"63f628d8d289cd498bb84238"}],"name":[{"family":"DENOMFail","given":["FundusExam1MinB4EncStart"]}],"gender":"female","birthDate":"1989-08-01"},"request":{"method":"PUT","url":"Patient/3df53f41-2dd3-4f7c-9745-0566541661c4"}},{"fullUrl":"https://madie.cms.gov/Encounter/df783b3f-c061-4cef-bf9f-c19e0d0c6fb3","resource":{"resourceType":"Encounter","id":"df783b3f-c061-4cef-bf9f-c19e0d0c6fb3","meta":{"profile":["http://hl7.org/fhir/us/qicore/StructureDefinition/qicore-encounter"]},"status":"finished","class":{"system":"http://terminology.hl7.org/CodeSystem/v3-ActCode","code":"AMB","display":"ambulatory","userSelected":true},"type":[{"coding":[{"system":"http://snomed.info/sct","version":"http://snomed.info/sct/731000124108/version/202303","code":"18170008","display":"Subsequent nursing facility visit (procedure)","userSelected":true}]}],"subject":{"reference":"Patient/3df53f41-2dd3-4f7c-9745-0566541661c4"},"period":{"start":"2026-03-09T08:00:00.000+00:00","end":"2026-03-09T08:15:00.000+00:00"}},"request":{"method":"PUT","url":"Encounter/df783b3f-c061-4cef-bf9f-c19e0d0c6fb3"}},{"fullUrl":"https://madie.cms.gov/Condition/341a3aa2-dfe9-48af-b8dd-0a9c30ee769d","resource":{"resourceType":"Condition","id":"341a3aa2-dfe9-48af-b8dd-0a9c30ee769d","meta":{"profile":["http://hl7.org/fhir/us/qicore/StructureDefinition/qicore-condition-problems-health-concerns"]},"clinicalStatus":{"coding":[{"system":"http://terminology.hl7.org/CodeSystem/condition-clinical","code":"active","display":"active","userSelected":true}]},"category":[{"coding":[{"system":"http://terminology.hl7.org/CodeSystem/condition-ver-status","code":"confirmed","display":"confirmed","userSelected":true}]}],"code":{"coding":[{"system":"http://snomed.info/sct","version":"http://snomed.info/sct/731000124108/version/202303","code":"193349004","display":"Preproliferative retinopathy due to diabetes mellitus (disorder)","userSelected":true}]},"subject":{"reference":"Patient/3df53f41-2dd3-4f7c-9745-0566541661c4"},"onsetDateTime":"2026-01-09T08:00:00.000+00:00"},"request":{"method":"PUT","url":"Condition/341a3aa2-dfe9-48af-b8dd-0a9c30ee769d"}},{"fullUrl":"https://madie.cms.gov/Observation/b9271754-11d2-42f2-9186-e53ecca5f5b8","resource":{"resourceType":"Observation","id":"b9271754-11d2-42f2-9186-e53ecca5f5b8","meta":{"profile":["http://hl7.org/fhir/us/qicore/StructureDefinition/qicore-observation-clinical-result"]},"status":"final","category":[{"coding":[{"system":"http://terminology.hl7.org/CodeSystem/condition-ver-status","code":"confirmed","display":"confirmed","userSelected":true}]}],"code":{"coding":[{"system":"http://loinc.org","version":"2.73","code":"32451-7","display":"Physical findings of Macula","userSelected":true}]},"subject":{"reference":"Patient/3df53f41-2dd3-4f7c-9745-0566541661c4"},"effectiveDateTime":"2026-03-09T07:59:00.000+00:00","issued":"2026-03-09T07:59:00.000+00:00","valueBoolean":true},"request":{"method":"PUT","url":"Observation/b9271754-11d2-42f2-9186-e53ecca5f5b8"}},{"fullUrl":"https://madie.cms.gov/Coverage/978a11d7-6bca-4d9b-a582-7aab294243e5","resource":{"resourceType":"Coverage","id":"978a11d7-6bca-4d9b-a582-7aab294243e5","meta":{"profile":["http://hl7.org/fhir/us/qicore/StructureDefinition/qicore-coverage"]},"status":"active","beneficiary":{"reference":"Patient/3df53f41-2dd3-4f7c-9745-0566541661c4"},"payor":[{"reference":"Organization/1af2f4ff-e85b-4301-9afa-946ce161a631"}]},"request":{"method":"PUT","url":"Coverage/978a11d7-6bca-4d9b-a582-7aab294243e5"}},{"fullUrl":"https://madie.cms.gov/Organization/1af2f4ff-e85b-4301-9afa-946ce161a631","resource":{"resourceType":"Organization","id":"1af2f4ff-e85b-4301-9afa-946ce161a631","meta":{"profile":["http://hl7.org/fhir/us/qicore/StructureDefinition/qicore-organization"]},"identifier":[{"use":"temp","system":"urn:oid:2.16.840.1.113883.4.4","value":"21-3259825"}],"active":true,"type":[{"coding":[{"system":"http://terminology.hl7.org/CodeSystem/organization-type","code":"pay","display":"Payer"}]}],"name":"Blue Cross Blue Shield of Texas","telecom":[{"system":"phone","value":"(+1) 972-766-6900"}],"address":[{"use":"billing","type":"postal","line":["P.O. Box 660044"],"city":"Dallas","state":"TX","postalCode":"75266-0044","country":"USA"}]},"request":{"method":"PUT","url":"Organization/1af2f4ff-e85b-4301-9afa-946ce161a631"}},{"fullUrl":"https://madie.cms.gov/Practitioner/5b700402-8548-4e8d-a910-1ca115217f91","resource":{"resourceType":"Practitioner","id":"5b700402-8548-4e8d-a910-1ca115217f91","meta":{"profile":["http://hl7.org/fhir/us/qicore/StructureDefinition/qicore-practitioner"]},"identifier":[{"system":"http://hl7.org/fhir/sid/us-npi","value":"123456"}],"name":[{"family":"Evil","prefix":["Dr"]}]},"request":{"method":"PUT","url":"Practitioner/5b700402-8548-4e8d-a910-1ca115217f91"}},{"fullUrl":"https://madie.cms.gov/MeasureReport/5432acbf-36d9-44f0-bd38-dc3a786db237","resource":{"resourceType":"MeasureReport","id":"5432acbf-36d9-44f0-bd38-dc3a786db237","meta":{"profile":["http://hl7.org/fhir/us/cqfmeasures/StructureDefinition/test-case-cqfm"]},"contained":[{"resourceType":"Parameters","id":"e77f2177-830e-4635-8e29-50a3586bbc8a-parameters","parameter":[{"name":"subject","valueString":"3df53f41-2dd3-4f7c-9745-0566541661c4"}]}],"extension":[{"url":"http://hl7.org/fhir/StructureDefinition/cqf-inputParameters","valueReference":{"reference":"#e77f2177-830e-4635-8e29-50a3586bbc8a-parameters"}},{"url":"http://hl7.org/fhir/us/cqfmeasures/StructureDefinition/cqfm-testCaseDescription","valueMarkdown":"Fundus Exam is performed 1 minute before start of encounter and will not pass Denominator"}],"modifierExtension":[{"url":"http://hl7.org/fhir/us/cqfmeasures/StructureDefinition/cqfm-isTestCase","valueBoolean":true}],"status":"complete","type":"individual","measure":"https://madie.cms.gov/Measure/CMS142FHIRDRCommunicationWithPhysicianManagingDiabetes","period":{"start":"2026-01-01","end":"2026-12-31"},"group":[{"id":"Group_1","population":[{"id":"InitialPopulation_1","code":{"coding":[{"system":"http://terminology.hl7.org/CodeSystem/measure-population","code":"initial-population","display":"Initial Population"}]},"count":1},{"id":"Denominator_1","code":{"coding":[{"system":"http://terminology.hl7.org/CodeSystem/measure-population","code":"denominator","display":"Denominator"}]},"count":0},{"id":"Numerator_1","code":{"coding":[{"system":"http://terminology.hl7.org/CodeSystem/measure-population","code":"numerator","display":"Numerator"}]},"count":0},{"id":"DenominatorException_1","code":{"coding":[{"system":"http://terminology.hl7.org/CodeSystem/measure-population","code":"denominator-exception","display":"Denominator Exception"}]},"count":0}],"measureScore":{"value":1.0}}],"evaluatedResource":[{"reference":"Patient/3df53f41-2dd3-4f7c-9745-0566541661c4"},{"reference":"Encounter/df783b3f-c061-4cef-bf9f-c19e0d0c6fb3"},{"reference":"Condition/341a3aa2-dfe9-48af-b8dd-0a9c30ee769d"},{"reference":"Observation/b9271754-11d2-42f2-9186-e53ecca5f5b8"},{"reference":"Coverage/978a11d7-6bca-4d9b-a582-7aab294243e5"},{"reference":"Organization/1af2f4ff-e85b-4301-9afa-946ce161a631"},{"reference":"Practitioner/5b700402-8548-4e8d-a910-1ca115217f91"}]},"request":{"method":"PUT","url":"MeasureReport/5432acbf-36d9-44f0-bd38-dc3a786db237"}}]},"request":{"method":"PUT","url":"Bundle/63f628d8d289cd498bb84238"}},{"resource":{"resourceType":"Organization","id":"1af2f4ff-e85b-4301-9afa-946ce161a631","meta":{"profile":["http://hl7.org/fhir/us/qicore/StructureDefinition/qicore-organization"]},"identifier":[{"use":"temp","system":"urn:oid:2.16.840.1.113883.4.4","value":"21-3259825"}],"active":true,"type":[{"coding":[{"system":"http://terminology.hl7.org/CodeSystem/organization-type","code":"pay","display":"Payer"}]}],"name":"Blue Cross Blue Shield of Texas","telecom":[{"system":"phone","value":"(+1) 972-766-6900"}],"address":[{"use":"billing","type":"postal","line":["P.O. Box 660044"],"city":"Dallas","state":"TX","postalCode":"75266-0044","country":"USA"}]},"request":{"method":"PUT","url":"Organization/1af2f4ff-e85b-4301-9afa-946ce161a631"}},{"resource":{"resourceType":"Observation","id":"b9271754-11d2-42f2-9186-e53ecca5f5b8","meta":{"profile":["http://hl7.org/fhir/us/qicore/StructureDefinition/qicore-observation-clinical-result"]},"status":"final","category":[{"coding":[{"system":"http://terminology.hl7.org/CodeSystem/condition-ver-status","code":"confirmed","display":"confirmed","userSelected":true}]}],"code":{"coding":[{"system":"http://loinc.org","version":"2.73","code":"32451-7","display":"Physical findings of Macula","userSelected":true}]},"subject":{"reference":"Patient/3df53f41-2dd3-4f7c-9745-0566541661c4"},"effectiveDateTime":"2026-03-09T07:59:00.000+00:00","issued":"2026-03-09T07:59:00.000+00:00","valueBoolean":true},"request":{"method":"PUT","url":"Observation/b9271754-11d2-42f2-9186-e53ecca5f5b8"}}]}