{"resourceType":"Bundle","id":"tests-3eba9b35-c636-42be-b34d-d4efacf3cbd2-bundle","type":"transaction","entry":[{"resource":{"resourceType":"MeasureReport","id":"5199b80f-f6e8-462d-b4a3-8a045876b1f7","meta":{"profile":["http://hl7.org/fhir/us/cqfmeasures/StructureDefinition/test-case-cqfm"]},"contained":[{"resourceType":"Parameters","id":"b3178604-8c07-487d-883d-c71766df8513-parameters","parameter":[{"name":"subject","valueString":"3eba9b35-c636-42be-b34d-d4efacf3cbd2"}]}],"extension":[{"url":"http://hl7.org/fhir/StructureDefinition/cqf-inputParameters","valueReference":{"reference":"#b3178604-8c07-487d-883d-c71766df8513-parameters"}},{"url":"http://hl7.org/fhir/us/cqfmeasures/StructureDefinition/cqfm-testCaseDescription","valueMarkdown":"Patient is 17 at start of MP despite having qualifying retinopathy encounter does not qualify for Initial Patient Population."}],"modifierExtension":[{"url":"http://hl7.org/fhir/us/cqfmeasures/StructureDefinition/cqfm-isTestCase","valueBoolean":true}],"status":"complete","type":"individual","measure":"https://madie.cms.gov/Measure/CMS142FHIRDRCommunicationWithPhysicianManagingDiabetes","period":{"start":"2026-01-01","end":"2026-12-31"},"group":[{"id":"Group_1","population":[{"id":"InitialPopulation_1","code":{"coding":[{"system":"http://terminology.hl7.org/CodeSystem/measure-population","code":"initial-population","display":"Initial Population"}]},"count":0},{"id":"Denominator_1","code":{"coding":[{"system":"http://terminology.hl7.org/CodeSystem/measure-population","code":"denominator","display":"Denominator"}]},"count":0},{"id":"Numerator_1","code":{"coding":[{"system":"http://terminology.hl7.org/CodeSystem/measure-population","code":"numerator","display":"Numerator"}]},"count":0},{"id":"DenominatorException_1","code":{"coding":[{"system":"http://terminology.hl7.org/CodeSystem/measure-population","code":"denominator-exception","display":"Denominator Exception"}]},"count":0}],"measureScore":{"value":1.0}}],"evaluatedResource":[{"reference":"Patient/3eba9b35-c636-42be-b34d-d4efacf3cbd2"},{"reference":"Condition/0f021cb1-fabc-4024-9676-b2ce41c972f9"},{"reference":"Encounter/147ba7b5-bce6-4772-8097-c9d49fd45a33"},{"reference":"Coverage/818b47cb-2909-4258-84bd-3f60ed9bbea8"},{"reference":"Organization/d1cd9af1-f4af-4a57-9609-35083619c65a"}]},"request":{"method":"PUT","url":"MeasureReport/5199b80f-f6e8-462d-b4a3-8a045876b1f7"}},{"resource":{"resourceType":"Condition","id":"0f021cb1-fabc-4024-9676-b2ce41c972f9","meta":{"profile":["http://hl7.org/fhir/us/qicore/StructureDefinition/qicore-condition-problems-health-concerns"]},"clinicalStatus":{"coding":[{"system":"http://terminology.hl7.org/CodeSystem/condition-clinical","code":"active","display":"active","userSelected":true}]},"category":[{"coding":[{"system":"http://terminology.hl7.org/CodeSystem/condition-category","code":"problem-list-item","display":"Problem List Item"}]}],"code":{"coding":[{"system":"http://snomed.info/sct","version":"http://snomed.info/sct/731000124108/version/202303","code":"314014002"}]},"subject":{"reference":"Patient/3eba9b35-c636-42be-b34d-d4efacf3cbd2"},"onsetDateTime":"2026-09-10T10:45:00.000+00:00"},"request":{"method":"PUT","url":"Condition/0f021cb1-fabc-4024-9676-b2ce41c972f9"}},{"resource":{"resourceType":"Encounter","id":"147ba7b5-bce6-4772-8097-c9d49fd45a33","meta":{"profile":["http://hl7.org/fhir/us/qicore/StructureDefinition/qicore-encounter"]},"status":"finished","class":{"system":"http://terminology.hl7.org/CodeSystem/v3-ActCode","code":"AMB"},"type":[{"coding":[{"system":"http://snomed.info/sct","version":"http://snomed.info/sct/731000124108/version/20230301","code":"77406008","display":"Confirmatory medical consultation (procedure)"}]}],"subject":{"reference":"Patient/3eba9b35-c636-42be-b34d-d4efacf3cbd2"},"period":{"start":"2026-09-11T10:00:00.000+00:00","end":"2026-09-11T11:00:00.000+00:00"}},"request":{"method":"PUT","url":"Encounter/147ba7b5-bce6-4772-8097-c9d49fd45a33"}},{"resource":{"resourceType":"Patient","id":"3eba9b35-c636-42be-b34d-d4efacf3cbd2","meta":{"profile":["http://hl7.org/fhir/us/qicore/StructureDefinition/qicore-patient"]},"extension":[{"url":"http://hl7.org/fhir/us/core/StructureDefinition/us-core-race","extension":[{"url":"ombCategory","valueCoding":{"system":"urn:oid:2.16.840.1.113883.6.238","code":"2106-3","display":"White","userSelected":true}},{"url":"text","valueString":"White"}]},{"url":"http://hl7.org/fhir/us/core/StructureDefinition/us-core-ethnicity","extension":[{"url":"ombCategory","valueCoding":{"system":"urn:oid:2.16.840.1.113883.6.238","code":"2135-2","display":"Hispanic or Latino","userSelected":true}},{"url":"text","valueString":"Hispanic or Latino"}]}],"identifier":[{"type":{"coding":[{"system":"http://terminology.hl7.org/CodeSystem/v2-0203","code":"MR"}]},"system":"https://bonnie-fhir.healthit.gov/","value":"61168b8798086b77ef9c5ec1"}],"active":true,"name":[{"use":"usual","family":"IPFail","given":["AgeLT18"]}],"gender":"male","birthDate":"2008-12-31"},"request":{"method":"PUT","url":"Patient/3eba9b35-c636-42be-b34d-d4efacf3cbd2"}},{"resource":{"resourceType":"Coverage","id":"818b47cb-2909-4258-84bd-3f60ed9bbea8","meta":{"profile":["http://hl7.org/fhir/us/qicore/StructureDefinition/qicore-coverage"]},"status":"active","beneficiary":{"reference":"Patient/3eba9b35-c636-42be-b34d-d4efacf3cbd2"},"payor":[{"reference":"Organization/d1cd9af1-f4af-4a57-9609-35083619c65a"}]},"request":{"method":"PUT","url":"Coverage/818b47cb-2909-4258-84bd-3f60ed9bbea8"}},{"resource":{"resourceType":"Bundle","id":"61168b8798086b77ef9c5ec1","type":"transaction","entry":[{"fullUrl":"https://madie.cms.gov/Patient/3eba9b35-c636-42be-b34d-d4efacf3cbd2","resource":{"resourceType":"Patient","id":"3eba9b35-c636-42be-b34d-d4efacf3cbd2","meta":{"profile":["http://hl7.org/fhir/us/qicore/StructureDefinition/qicore-patient"]},"extension":[{"url":"http://hl7.org/fhir/us/core/StructureDefinition/us-core-race","extension":[{"url":"ombCategory","valueCoding":{"system":"urn:oid:2.16.840.1.113883.6.238","code":"2106-3","display":"White","userSelected":true}},{"url":"text","valueString":"White"}]},{"url":"http://hl7.org/fhir/us/core/StructureDefinition/us-core-ethnicity","extension":[{"url":"ombCategory","valueCoding":{"system":"urn:oid:2.16.840.1.113883.6.238","code":"2135-2","display":"Hispanic or Latino","userSelected":true}},{"url":"text","valueString":"Hispanic or Latino"}]}],"identifier":[{"type":{"coding":[{"system":"http://terminology.hl7.org/CodeSystem/v2-0203","code":"MR"}]},"system":"https://bonnie-fhir.healthit.gov/","value":"61168b8798086b77ef9c5ec1"}],"active":true,"name":[{"use":"usual","family":"IPFail","given":["AgeLT18"]}],"gender":"male","birthDate":"2008-12-31"},"request":{"method":"PUT","url":"Patient/3eba9b35-c636-42be-b34d-d4efacf3cbd2"}},{"fullUrl":"https://madie.cms.gov/Condition/0f021cb1-fabc-4024-9676-b2ce41c972f9","resource":{"resourceType":"Condition","id":"0f021cb1-fabc-4024-9676-b2ce41c972f9","meta":{"profile":["http://hl7.org/fhir/us/qicore/StructureDefinition/qicore-condition-problems-health-concerns"]},"clinicalStatus":{"coding":[{"system":"http://terminology.hl7.org/CodeSystem/condition-clinical","code":"active","display":"active","userSelected":true}]},"category":[{"coding":[{"system":"http://terminology.hl7.org/CodeSystem/condition-category","code":"problem-list-item","display":"Problem List Item"}]}],"code":{"coding":[{"system":"http://snomed.info/sct","version":"http://snomed.info/sct/731000124108/version/202303","code":"314014002"}]},"subject":{"reference":"Patient/3eba9b35-c636-42be-b34d-d4efacf3cbd2"},"onsetDateTime":"2026-09-10T10:45:00.000+00:00"},"request":{"method":"PUT","url":"Condition/0f021cb1-fabc-4024-9676-b2ce41c972f9"}},{"fullUrl":"https://madie.cms.gov/Encounter/147ba7b5-bce6-4772-8097-c9d49fd45a33","resource":{"resourceType":"Encounter","id":"147ba7b5-bce6-4772-8097-c9d49fd45a33","meta":{"profile":["http://hl7.org/fhir/us/qicore/StructureDefinition/qicore-encounter"]},"status":"finished","class":{"system":"http://terminology.hl7.org/CodeSystem/v3-ActCode","code":"AMB"},"type":[{"coding":[{"system":"http://snomed.info/sct","version":"http://snomed.info/sct/731000124108/version/20230301","code":"77406008","display":"Confirmatory medical consultation (procedure)"}]}],"subject":{"reference":"Patient/3eba9b35-c636-42be-b34d-d4efacf3cbd2"},"period":{"start":"2026-09-11T10:00:00.000+00:00","end":"2026-09-11T11:00:00.000+00:00"}},"request":{"method":"PUT","url":"Encounter/147ba7b5-bce6-4772-8097-c9d49fd45a33"}},{"fullUrl":"https://madie.cms.gov/Coverage/818b47cb-2909-4258-84bd-3f60ed9bbea8","resource":{"resourceType":"Coverage","id":"818b47cb-2909-4258-84bd-3f60ed9bbea8","meta":{"profile":["http://hl7.org/fhir/us/qicore/StructureDefinition/qicore-coverage"]},"status":"active","beneficiary":{"reference":"Patient/3eba9b35-c636-42be-b34d-d4efacf3cbd2"},"payor":[{"reference":"Organization/d1cd9af1-f4af-4a57-9609-35083619c65a"}]},"request":{"method":"PUT","url":"Coverage/818b47cb-2909-4258-84bd-3f60ed9bbea8"}},{"fullUrl":"https://madie.cms.gov/Organization/d1cd9af1-f4af-4a57-9609-35083619c65a","resource":{"resourceType":"Organization","id":"d1cd9af1-f4af-4a57-9609-35083619c65a","meta":{"profile":["http://hl7.org/fhir/us/qicore/StructureDefinition/qicore-organization"]},"identifier":[{"use":"temp","system":"urn:oid:2.16.840.1.113883.4.4","value":"21-3259825"}],"active":true,"type":[{"coding":[{"system":"http://terminology.hl7.org/CodeSystem/organization-type","code":"pay","display":"Payer"}]}],"name":"Blue Cross Blue Shield of Texas","telecom":[{"system":"phone","value":"(+1) 972-766-6900"}],"address":[{"use":"billing","type":"postal","line":["P.O. Box 660044"],"city":"Dallas","state":"TX","postalCode":"75266-0044","country":"USA"}]},"request":{"method":"PUT","url":"Organization/d1cd9af1-f4af-4a57-9609-35083619c65a"}},{"fullUrl":"https://madie.cms.gov/MeasureReport/5199b80f-f6e8-462d-b4a3-8a045876b1f7","resource":{"resourceType":"MeasureReport","id":"5199b80f-f6e8-462d-b4a3-8a045876b1f7","meta":{"profile":["http://hl7.org/fhir/us/cqfmeasures/StructureDefinition/test-case-cqfm"]},"contained":[{"resourceType":"Parameters","id":"b3178604-8c07-487d-883d-c71766df8513-parameters","parameter":[{"name":"subject","valueString":"3eba9b35-c636-42be-b34d-d4efacf3cbd2"}]}],"extension":[{"url":"http://hl7.org/fhir/StructureDefinition/cqf-inputParameters","valueReference":{"reference":"#b3178604-8c07-487d-883d-c71766df8513-parameters"}},{"url":"http://hl7.org/fhir/us/cqfmeasures/StructureDefinition/cqfm-testCaseDescription","valueMarkdown":"Patient is 17 at start of MP despite having qualifying retinopathy encounter does not qualify for Initial Patient Population."}],"modifierExtension":[{"url":"http://hl7.org/fhir/us/cqfmeasures/StructureDefinition/cqfm-isTestCase","valueBoolean":true}],"status":"complete","type":"individual","measure":"https://madie.cms.gov/Measure/CMS142FHIRDRCommunicationWithPhysicianManagingDiabetes","period":{"start":"2026-01-01","end":"2026-12-31"},"group":[{"id":"Group_1","population":[{"id":"InitialPopulation_1","code":{"coding":[{"system":"http://terminology.hl7.org/CodeSystem/measure-population","code":"initial-population","display":"Initial Population"}]},"count":0},{"id":"Denominator_1","code":{"coding":[{"system":"http://terminology.hl7.org/CodeSystem/measure-population","code":"denominator","display":"Denominator"}]},"count":0},{"id":"Numerator_1","code":{"coding":[{"system":"http://terminology.hl7.org/CodeSystem/measure-population","code":"numerator","display":"Numerator"}]},"count":0},{"id":"DenominatorException_1","code":{"coding":[{"system":"http://terminology.hl7.org/CodeSystem/measure-population","code":"denominator-exception","display":"Denominator Exception"}]},"count":0}],"measureScore":{"value":1.0}}],"evaluatedResource":[{"reference":"Patient/3eba9b35-c636-42be-b34d-d4efacf3cbd2"},{"reference":"Condition/0f021cb1-fabc-4024-9676-b2ce41c972f9"},{"reference":"Encounter/147ba7b5-bce6-4772-8097-c9d49fd45a33"},{"reference":"Coverage/818b47cb-2909-4258-84bd-3f60ed9bbea8"},{"reference":"Organization/d1cd9af1-f4af-4a57-9609-35083619c65a"}]},"request":{"method":"PUT","url":"MeasureReport/5199b80f-f6e8-462d-b4a3-8a045876b1f7"}}]},"request":{"method":"PUT","url":"Bundle/61168b8798086b77ef9c5ec1"}},{"resource":{"resourceType":"Organization","id":"d1cd9af1-f4af-4a57-9609-35083619c65a","meta":{"profile":["http://hl7.org/fhir/us/qicore/StructureDefinition/qicore-organization"]},"identifier":[{"use":"temp","system":"urn:oid:2.16.840.1.113883.4.4","value":"21-3259825"}],"active":true,"type":[{"coding":[{"system":"http://terminology.hl7.org/CodeSystem/organization-type","code":"pay","display":"Payer"}]}],"name":"Blue Cross Blue Shield of Texas","telecom":[{"system":"phone","value":"(+1) 972-766-6900"}],"address":[{"use":"billing","type":"postal","line":["P.O. Box 660044"],"city":"Dallas","state":"TX","postalCode":"75266-0044","country":"USA"}]},"request":{"method":"PUT","url":"Organization/d1cd9af1-f4af-4a57-9609-35083619c65a"}}]}