{"resourceType":"Bundle","id":"tests-eb6c9df0-6dc7-4940-8785-0863f01b6e42-bundle","type":"transaction","entry":[{"resource":{"resourceType":"Organization","id":"13e549b6-9982-4af4-ba90-f059ddf8fe9a","meta":{"profile":["http://hl7.org/fhir/us/qicore/StructureDefinition/qicore-organization"]},"identifier":[{"use":"temp","system":"urn:oid:2.16.840.1.113883.4.4","value":"21-3259825"}],"active":true,"type":[{"coding":[{"system":"http://terminology.hl7.org/CodeSystem/organization-type","code":"pay","display":"Payer"}]}],"name":"Blue Cross Blue Shield of Texas","telecom":[{"system":"phone","value":"(+1) 972-766-6900"}],"address":[{"use":"billing","type":"postal","line":["P.O. Box 660044"],"city":"Dallas","state":"TX","postalCode":"75266-0044","country":"USA"}]},"request":{"method":"PUT","url":"Organization/13e549b6-9982-4af4-ba90-f059ddf8fe9a"}},{"resource":{"resourceType":"Bundle","id":"61168b8798086b77ef9c5ec1","type":"transaction","entry":[{"fullUrl":"https://madie.cms.gov/Patient/eb6c9df0-6dc7-4940-8785-0863f01b6e42","resource":{"resourceType":"Patient","id":"eb6c9df0-6dc7-4940-8785-0863f01b6e42","meta":{"profile":["http://hl7.org/fhir/us/qicore/StructureDefinition/qicore-patient"]},"extension":[{"url":"http://hl7.org/fhir/us/core/StructureDefinition/us-core-race","extension":[{"url":"ombCategory","valueCoding":{"system":"urn:oid:2.16.840.1.113883.6.238","code":"2054-5","display":"Black or African American","userSelected":true}},{"url":"text","valueString":"Black or African American"}]},{"url":"http://hl7.org/fhir/us/core/StructureDefinition/us-core-ethnicity","extension":[{"url":"ombCategory","valueCoding":{"system":"urn:oid:2.16.840.1.113883.6.238","code":"2186-5","display":"Non Hispanic or Latino","userSelected":true}},{"url":"text","valueString":"Non Hispanic or Latino"}]}],"identifier":[{"type":{"coding":[{"system":"http://terminology.hl7.org/CodeSystem/v2-0203","code":"MR"}]},"system":"https://GoodHealthCare.com/","value":"61168b8798086b77ef9c5ec1"}],"active":true,"name":[{"use":"usual","family":"IPPass","given":["Enc1MinAfterMPStart"]}],"gender":"female","birthDate":"1974-01-15"},"request":{"method":"PUT","url":"Patient/eb6c9df0-6dc7-4940-8785-0863f01b6e42"}},{"fullUrl":"https://madie.cms.gov/Condition/da02acfc-3f5a-4f16-a4d6-cdb736242577","resource":{"resourceType":"Condition","id":"da02acfc-3f5a-4f16-a4d6-cdb736242577","meta":{"profile":["http://hl7.org/fhir/us/qicore/StructureDefinition/qicore-condition-problems-health-concerns"]},"clinicalStatus":{"coding":[{"system":"http://terminology.hl7.org/CodeSystem/condition-clinical","code":"active","display":"active","userSelected":true}]},"category":[{"coding":[{"system":"http://terminology.hl7.org/CodeSystem/condition-category","code":"problem-list-item","display":"Problem List Item"}]}],"code":{"coding":[{"system":"http://snomed.info/sct","version":"http://snomed.info/sct/731000124108/version/20230301","code":"232021008","display":"Proliferative retinopathy with optic disc neovascularization due to diabetes mellitus (disorder)"}]},"subject":{"reference":"Patient/eb6c9df0-6dc7-4940-8785-0863f01b6e42"},"onsetDateTime":"2025-08-01T08:00:00.000+00:00"},"request":{"method":"PUT","url":"Condition/da02acfc-3f5a-4f16-a4d6-cdb736242577"}},{"fullUrl":"https://madie.cms.gov/Encounter/6ff6c193-8190-4975-bfcc-c28ee62a8793","resource":{"resourceType":"Encounter","id":"6ff6c193-8190-4975-bfcc-c28ee62a8793","meta":{"profile":["http://hl7.org/fhir/us/qicore/StructureDefinition/qicore-encounter"]},"status":"finished","class":{"system":"http://terminology.hl7.org/CodeSystem/v3-ActCode","code":"AMB"},"type":[{"coding":[{"system":"http://www.ama-assn.org/go/cpt","version":"2023","code":"99205"}]}],"subject":{"reference":"Patient/eb6c9df0-6dc7-4940-8785-0863f01b6e42"},"period":{"start":"2026-01-01T00:01:00.000+00:00","end":"2026-01-01T01:00:00.000+00:00"}},"request":{"method":"PUT","url":"Encounter/6ff6c193-8190-4975-bfcc-c28ee62a8793"}},{"fullUrl":"https://madie.cms.gov/Coverage/f57815e9-084d-429a-855b-81e5998c5ac5","resource":{"resourceType":"Coverage","id":"f57815e9-084d-429a-855b-81e5998c5ac5","meta":{"profile":["http://hl7.org/fhir/us/qicore/StructureDefinition/qicore-coverage"]},"status":"active","beneficiary":{"reference":"Patient/eb6c9df0-6dc7-4940-8785-0863f01b6e42"},"payor":[{"reference":"Organization/13e549b6-9982-4af4-ba90-f059ddf8fe9a"}]},"request":{"method":"PUT","url":"Coverage/f57815e9-084d-429a-855b-81e5998c5ac5"}},{"fullUrl":"https://madie.cms.gov/Organization/13e549b6-9982-4af4-ba90-f059ddf8fe9a","resource":{"resourceType":"Organization","id":"13e549b6-9982-4af4-ba90-f059ddf8fe9a","meta":{"profile":["http://hl7.org/fhir/us/qicore/StructureDefinition/qicore-organization"]},"identifier":[{"use":"temp","system":"urn:oid:2.16.840.1.113883.4.4","value":"21-3259825"}],"active":true,"type":[{"coding":[{"system":"http://terminology.hl7.org/CodeSystem/organization-type","code":"pay","display":"Payer"}]}],"name":"Blue Cross Blue Shield of Texas","telecom":[{"system":"phone","value":"(+1) 972-766-6900"}],"address":[{"use":"billing","type":"postal","line":["P.O. Box 660044"],"city":"Dallas","state":"TX","postalCode":"75266-0044","country":"USA"}]},"request":{"method":"PUT","url":"Organization/13e549b6-9982-4af4-ba90-f059ddf8fe9a"}},{"fullUrl":"https://madie.cms.gov/MeasureReport/4d7b4f79-0445-42d5-9df0-54d9e1111987","resource":{"resourceType":"MeasureReport","id":"4d7b4f79-0445-42d5-9df0-54d9e1111987","meta":{"profile":["http://hl7.org/fhir/us/cqfmeasures/StructureDefinition/test-case-cqfm"]},"contained":[{"resourceType":"Parameters","id":"d18836ab-a9d2-48d0-aa93-67ba5a8df4a0-parameters","parameter":[{"name":"subject","valueString":"eb6c9df0-6dc7-4940-8785-0863f01b6e42"}]}],"extension":[{"url":"http://hl7.org/fhir/StructureDefinition/cqf-inputParameters","valueReference":{"reference":"#d18836ab-a9d2-48d0-aa93-67ba5a8df4a0-parameters"}},{"url":"http://hl7.org/fhir/us/cqfmeasures/StructureDefinition/cqfm-testCaseDescription","valueMarkdown":"Qualifying Encounter Starts 1 minute into Measurement Period (edge)"}],"modifierExtension":[{"url":"http://hl7.org/fhir/us/cqfmeasures/StructureDefinition/cqfm-isTestCase","valueBoolean":true}],"status":"complete","type":"individual","measure":"https://madie.cms.gov/Measure/CMS142FHIRDRCommunicationWithPhysicianManagingDiabetes","period":{"start":"2026-01-01","end":"2026-12-31"},"group":[{"id":"Group_1","population":[{"id":"InitialPopulation_1","code":{"coding":[{"system":"http://terminology.hl7.org/CodeSystem/measure-population","code":"initial-population","display":"Initial Population"}]},"count":1},{"id":"Denominator_1","code":{"coding":[{"system":"http://terminology.hl7.org/CodeSystem/measure-population","code":"denominator","display":"Denominator"}]},"count":0},{"id":"Numerator_1","code":{"coding":[{"system":"http://terminology.hl7.org/CodeSystem/measure-population","code":"numerator","display":"Numerator"}]},"count":0},{"id":"DenominatorException_1","code":{"coding":[{"system":"http://terminology.hl7.org/CodeSystem/measure-population","code":"denominator-exception","display":"Denominator Exception"}]},"count":0}],"measureScore":{"value":1.0}}],"evaluatedResource":[{"reference":"Patient/eb6c9df0-6dc7-4940-8785-0863f01b6e42"},{"reference":"Condition/da02acfc-3f5a-4f16-a4d6-cdb736242577"},{"reference":"Encounter/6ff6c193-8190-4975-bfcc-c28ee62a8793"},{"reference":"Coverage/f57815e9-084d-429a-855b-81e5998c5ac5"},{"reference":"Organization/13e549b6-9982-4af4-ba90-f059ddf8fe9a"}]},"request":{"method":"PUT","url":"MeasureReport/4d7b4f79-0445-42d5-9df0-54d9e1111987"}}]},"request":{"method":"PUT","url":"Bundle/61168b8798086b77ef9c5ec1"}},{"resource":{"resourceType":"Coverage","id":"f57815e9-084d-429a-855b-81e5998c5ac5","meta":{"profile":["http://hl7.org/fhir/us/qicore/StructureDefinition/qicore-coverage"]},"status":"active","beneficiary":{"reference":"Patient/eb6c9df0-6dc7-4940-8785-0863f01b6e42"},"payor":[{"reference":"Organization/13e549b6-9982-4af4-ba90-f059ddf8fe9a"}]},"request":{"method":"PUT","url":"Coverage/f57815e9-084d-429a-855b-81e5998c5ac5"}},{"resource":{"resourceType":"Condition","id":"da02acfc-3f5a-4f16-a4d6-cdb736242577","meta":{"profile":["http://hl7.org/fhir/us/qicore/StructureDefinition/qicore-condition-problems-health-concerns"]},"clinicalStatus":{"coding":[{"system":"http://terminology.hl7.org/CodeSystem/condition-clinical","code":"active","display":"active","userSelected":true}]},"category":[{"coding":[{"system":"http://terminology.hl7.org/CodeSystem/condition-category","code":"problem-list-item","display":"Problem List Item"}]}],"code":{"coding":[{"system":"http://snomed.info/sct","version":"http://snomed.info/sct/731000124108/version/20230301","code":"232021008","display":"Proliferative retinopathy with optic disc neovascularization due to diabetes mellitus (disorder)"}]},"subject":{"reference":"Patient/eb6c9df0-6dc7-4940-8785-0863f01b6e42"},"onsetDateTime":"2025-08-01T08:00:00.000+00:00"},"request":{"method":"PUT","url":"Condition/da02acfc-3f5a-4f16-a4d6-cdb736242577"}},{"resource":{"resourceType":"Encounter","id":"6ff6c193-8190-4975-bfcc-c28ee62a8793","meta":{"profile":["http://hl7.org/fhir/us/qicore/StructureDefinition/qicore-encounter"]},"status":"finished","class":{"system":"http://terminology.hl7.org/CodeSystem/v3-ActCode","code":"AMB"},"type":[{"coding":[{"system":"http://www.ama-assn.org/go/cpt","version":"2023","code":"99205"}]}],"subject":{"reference":"Patient/eb6c9df0-6dc7-4940-8785-0863f01b6e42"},"period":{"start":"2026-01-01T00:01:00.000+00:00","end":"2026-01-01T01:00:00.000+00:00"}},"request":{"method":"PUT","url":"Encounter/6ff6c193-8190-4975-bfcc-c28ee62a8793"}},{"resource":{"resourceType":"Patient","id":"eb6c9df0-6dc7-4940-8785-0863f01b6e42","meta":{"profile":["http://hl7.org/fhir/us/qicore/StructureDefinition/qicore-patient"]},"extension":[{"url":"http://hl7.org/fhir/us/core/StructureDefinition/us-core-race","extension":[{"url":"ombCategory","valueCoding":{"system":"urn:oid:2.16.840.1.113883.6.238","code":"2054-5","display":"Black or African American","userSelected":true}},{"url":"text","valueString":"Black or African American"}]},{"url":"http://hl7.org/fhir/us/core/StructureDefinition/us-core-ethnicity","extension":[{"url":"ombCategory","valueCoding":{"system":"urn:oid:2.16.840.1.113883.6.238","code":"2186-5","display":"Non Hispanic or Latino","userSelected":true}},{"url":"text","valueString":"Non Hispanic or Latino"}]}],"identifier":[{"type":{"coding":[{"system":"http://terminology.hl7.org/CodeSystem/v2-0203","code":"MR"}]},"system":"https://GoodHealthCare.com/","value":"61168b8798086b77ef9c5ec1"}],"active":true,"name":[{"use":"usual","family":"IPPass","given":["Enc1MinAfterMPStart"]}],"gender":"female","birthDate":"1974-01-15"},"request":{"method":"PUT","url":"Patient/eb6c9df0-6dc7-4940-8785-0863f01b6e42"}},{"resource":{"resourceType":"MeasureReport","id":"4d7b4f79-0445-42d5-9df0-54d9e1111987","meta":{"profile":["http://hl7.org/fhir/us/cqfmeasures/StructureDefinition/test-case-cqfm"]},"contained":[{"resourceType":"Parameters","id":"d18836ab-a9d2-48d0-aa93-67ba5a8df4a0-parameters","parameter":[{"name":"subject","valueString":"eb6c9df0-6dc7-4940-8785-0863f01b6e42"}]}],"extension":[{"url":"http://hl7.org/fhir/StructureDefinition/cqf-inputParameters","valueReference":{"reference":"#d18836ab-a9d2-48d0-aa93-67ba5a8df4a0-parameters"}},{"url":"http://hl7.org/fhir/us/cqfmeasures/StructureDefinition/cqfm-testCaseDescription","valueMarkdown":"Qualifying Encounter Starts 1 minute into Measurement Period (edge)"}],"modifierExtension":[{"url":"http://hl7.org/fhir/us/cqfmeasures/StructureDefinition/cqfm-isTestCase","valueBoolean":true}],"status":"complete","type":"individual","measure":"https://madie.cms.gov/Measure/CMS142FHIRDRCommunicationWithPhysicianManagingDiabetes","period":{"start":"2026-01-01","end":"2026-12-31"},"group":[{"id":"Group_1","population":[{"id":"InitialPopulation_1","code":{"coding":[{"system":"http://terminology.hl7.org/CodeSystem/measure-population","code":"initial-population","display":"Initial Population"}]},"count":1},{"id":"Denominator_1","code":{"coding":[{"system":"http://terminology.hl7.org/CodeSystem/measure-population","code":"denominator","display":"Denominator"}]},"count":0},{"id":"Numerator_1","code":{"coding":[{"system":"http://terminology.hl7.org/CodeSystem/measure-population","code":"numerator","display":"Numerator"}]},"count":0},{"id":"DenominatorException_1","code":{"coding":[{"system":"http://terminology.hl7.org/CodeSystem/measure-population","code":"denominator-exception","display":"Denominator Exception"}]},"count":0}],"measureScore":{"value":1.0}}],"evaluatedResource":[{"reference":"Patient/eb6c9df0-6dc7-4940-8785-0863f01b6e42"},{"reference":"Condition/da02acfc-3f5a-4f16-a4d6-cdb736242577"},{"reference":"Encounter/6ff6c193-8190-4975-bfcc-c28ee62a8793"},{"reference":"Coverage/f57815e9-084d-429a-855b-81e5998c5ac5"},{"reference":"Organization/13e549b6-9982-4af4-ba90-f059ddf8fe9a"}]},"request":{"method":"PUT","url":"MeasureReport/4d7b4f79-0445-42d5-9df0-54d9e1111987"}}]}