{"resourceType":"Bundle","id":"tests-03b74242-d93e-438e-ac6a-f46b41548209-bundle","type":"transaction","entry":[{"fullUrl":"Communication/67a8d7d6-21d2-41f2-8edf-da9550c93435","resource":{"resourceType":"Communication","id":"67a8d7d6-21d2-41f2-8edf-da9550c93435","meta":{"profile":["http://hl7.org/fhir/us/qicore/StructureDefinition/qicore-communicationnotdone"]},"status":"not-done","statusReason":{"coding":[{"system":"http://snomed.info/sct","version":"http://snomed.info/sct/731000124108/version/202303","code":"183932001","display":"Procedure contraindicated (situation)","userSelected":true}]},"category":[{"coding":[{"system":"http://snomed.info/sct","code":"312912001","display":"Macular edema due to diabetes mellitus (disorder)","userSelected":true}]}],"sent":"2026-07-09T08:00:00.000+00:00"},"request":{"method":"PUT","url":"Communication/67a8d7d6-21d2-41f2-8edf-da9550c93435"}},{"fullUrl":"MeasureReport/7815c1ad-3705-43d2-90e1-20df495247d5","resource":{"resourceType":"MeasureReport","id":"7815c1ad-3705-43d2-90e1-20df495247d5","meta":{"profile":["http://hl7.org/fhir/us/cqfmeasures/StructureDefinition/test-case-cqfm"]},"contained":[{"resourceType":"Parameters","id":"c68da851-badb-4870-a59c-d4f2fabaadab-parameters","parameter":[{"name":"subject","valueString":"03b74242-d93e-438e-ac6a-f46b41548209"}]}],"extension":[{"url":"http://hl7.org/fhir/StructureDefinition/cqf-inputParameters","valueReference":{"reference":"#c68da851-badb-4870-a59c-d4f2fabaadab-parameters"}},{"url":"http://hl7.org/fhir/us/cqfmeasures/StructureDefinition/cqfm-testCaseDescription","valueMarkdown":"Communication status not done for Macular edema absent (situation)"}],"modifierExtension":[{"url":"http://hl7.org/fhir/us/cqfmeasures/StructureDefinition/cqfm-isTestCase","valueBoolean":true}],"status":"complete","type":"individual","measure":"https://madie.cms.gov/Measure/CMS142FHIRDRCommunicationWithPhysicianManagingDiabetes","period":{"start":"2026-01-01","end":"2026-12-31"},"group":[{"id":"Group_1","population":[{"id":"InitialPopulation_1","code":{"coding":[{"system":"http://terminology.hl7.org/CodeSystem/measure-population","code":"initial-population","display":"Initial Population"}]},"count":1},{"id":"Denominator_1","code":{"coding":[{"system":"http://terminology.hl7.org/CodeSystem/measure-population","code":"denominator","display":"Denominator"}]},"count":1},{"id":"Numerator_1","code":{"coding":[{"system":"http://terminology.hl7.org/CodeSystem/measure-population","code":"numerator","display":"Numerator"}]},"count":0},{"id":"DenominatorException_1","code":{"coding":[{"system":"http://terminology.hl7.org/CodeSystem/measure-population","code":"denominator-exception","display":"Denominator Exception"}]},"count":1}],"measureScore":{"value":1.0}}],"evaluatedResource":[{"reference":"Patient/03b74242-d93e-438e-ac6a-f46b41548209"},{"reference":"Communication/1de991ac-491b-43d5-aeff-5afd9f25f409"},{"reference":"Condition/93d1b084-2e10-46d0-ad32-3e0b82ba6e12"},{"reference":"Observation/c89b5d1b-3042-4c10-9ae0-c63ab88562c2"},{"reference":"Encounter/c600cbc4-afc5-4275-a7cc-3f7ef53d2582"},{"reference":"Communication/67a8d7d6-21d2-41f2-8edf-da9550c93435"}]},"request":{"method":"PUT","url":"MeasureReport/7815c1ad-3705-43d2-90e1-20df495247d5"}},{"fullUrl":"Bundle/61168b8798086b77ef9c5ecc","resource":{"resourceType":"Bundle","id":"61168b8798086b77ef9c5ecc","type":"transaction","entry":[{"fullUrl":"https://madie.cms.gov/Patient/03b74242-d93e-438e-ac6a-f46b41548209","resource":{"resourceType":"Patient","id":"03b74242-d93e-438e-ac6a-f46b41548209","meta":{"profile":["http://hl7.org/fhir/us/qicore/StructureDefinition/qicore-patient"]},"extension":[{"url":"http://hl7.org/fhir/us/core/StructureDefinition/us-core-race","extension":[{"url":"ombCategory","valueCoding":{"system":"urn:oid:2.16.840.1.113883.6.238","code":"2106-3","display":"White","userSelected":true}},{"url":"text","valueString":"White"}]},{"url":"http://hl7.org/fhir/us/core/StructureDefinition/us-core-ethnicity","extension":[{"url":"ombCategory","valueCoding":{"system":"urn:oid:2.16.840.1.113883.6.238","code":"2186-5","display":"Not Hispanic or Latino","userSelected":true}},{"url":"text","valueString":"Not Hispanic or Latino"}]}],"identifier":[{"type":{"coding":[{"system":"http://terminology.hl7.org/CodeSystem/v2-0203","code":"MR"}]},"system":"https://myGoodHealthCare.com/","value":"61168b8798086b77ef9c5ecc"}],"active":true,"name":[{"use":"usual","family":"DENEXCEPPass","given":["CommEdemaAbsentNotDoneMR"]}],"gender":"male","birthDate":"1973-08-29"},"request":{"method":"PUT","url":"Patient/03b74242-d93e-438e-ac6a-f46b41548209"}},{"fullUrl":"https://madie.cms.gov/Communication/1de991ac-491b-43d5-aeff-5afd9f25f409","resource":{"resourceType":"Communication","id":"1de991ac-491b-43d5-aeff-5afd9f25f409","meta":{"profile":["http://hl7.org/fhir/us/qicore/StructureDefinition/qicore-communication"]},"extension":[{"url":"http://hl7.org/fhir/us/qicore/StructureDefinition/qicore-recorded","valueDateTime":"2014-07-02T15:00:00.000+00:00"}],"modifierExtension":[{"url":"http://hl7.org/fhir/us/qicore/StructureDefinition/qicore-notDone","valueBoolean":true},{"url":"http://hl7.org/fhir/us/qicore/StructureDefinition/qicore-notDone","valueBoolean":true}],"status":"completed","statusReason":{"coding":[{"system":"http://snomed.info/sct","version":"http://snomed.info/sct/731000124108/version/202303","code":"183932001","display":"Procedure contraindicated (situation)","userSelected":true}]},"subject":{"reference":"Patient/03b74242-d93e-438e-ac6a-f46b41548209"},"sent":"2026-07-09T08:00:00.000+00:00","reasonCode":[{"coding":[{"system":"http://snomed.info/sct","version":"http://snomed.info/sct/731000124108/version/202303","code":"428341000124108"}]}]},"request":{"method":"PUT","url":"Communication/1de991ac-491b-43d5-aeff-5afd9f25f409"}},{"fullUrl":"https://madie.cms.gov/Condition/93d1b084-2e10-46d0-ad32-3e0b82ba6e12","resource":{"resourceType":"Condition","id":"93d1b084-2e10-46d0-ad32-3e0b82ba6e12","meta":{"profile":["http://hl7.org/fhir/us/qicore/StructureDefinition/qicore-condition-problems-health-concerns"]},"clinicalStatus":{"coding":[{"system":"http://terminology.hl7.org/CodeSystem/condition-clinical","code":"active","display":"active","userSelected":true}]},"category":[{"coding":[{"system":"http://terminology.hl7.org/CodeSystem/condition-category","code":"problem-list-item","display":"Problem List Item"}]}],"code":{"coding":[{"system":"http://snomed.info/sct","version":"http://snomed.info/sct/731000124108/version/202303","code":"193349004"},{"system":"http://hl7.org/fhir/sid/icd-10-cm","code":"E08.311"}]},"subject":{"reference":"Patient/03b74242-d93e-438e-ac6a-f46b41548209"},"onsetDateTime":"2014-07-01T15:00:00.000+00:00"},"request":{"method":"PUT","url":"Condition/93d1b084-2e10-46d0-ad32-3e0b82ba6e12"}},{"fullUrl":"https://madie.cms.gov/Observation/c89b5d1b-3042-4c10-9ae0-c63ab88562c2","resource":{"resourceType":"Observation","id":"c89b5d1b-3042-4c10-9ae0-c63ab88562c2","meta":{"profile":["http://hl7.org/fhir/us/qicore/StructureDefinition/qicore-observation-clinical-result"]},"status":"final","category":[{"coding":[{"system":"http://terminology.hl7.org/CodeSystem/observation-category","code":"vital-signs","display":"Vital Signs"}]}],"code":{"coding":[{"system":"http://loinc.org","version":"2.73","code":"32451-7"}]},"subject":{"reference":"Patient/03b74242-d93e-438e-ac6a-f46b41548209"},"effectiveDateTime":"2026-07-09T08:00:00.000+00:00","valueBoolean":true},"request":{"method":"PUT","url":"Observation/c89b5d1b-3042-4c10-9ae0-c63ab88562c2"}},{"fullUrl":"https://madie.cms.gov/Encounter/c600cbc4-afc5-4275-a7cc-3f7ef53d2582","resource":{"resourceType":"Encounter","id":"c600cbc4-afc5-4275-a7cc-3f7ef53d2582","meta":{"profile":["http://hl7.org/fhir/us/qicore/StructureDefinition/qicore-encounter"]},"status":"finished","class":{"system":"http://terminology.hl7.org/CodeSystem/v3-ActCode","code":"AMB"},"type":[{"coding":[{"system":"http://www.ama-assn.org/go/cpt","version":"2023","code":"99205"}]}],"subject":{"reference":"Patient/03b74242-d93e-438e-ac6a-f46b41548209"},"period":{"start":"2026-07-02T15:00:00.000+00:00","end":"2026-08-02T16:00:00.000+00:00"}},"request":{"method":"PUT","url":"Encounter/c600cbc4-afc5-4275-a7cc-3f7ef53d2582"}},{"fullUrl":"https://madie.cms.gov/Communication/67a8d7d6-21d2-41f2-8edf-da9550c93435","resource":{"resourceType":"Communication","id":"67a8d7d6-21d2-41f2-8edf-da9550c93435","meta":{"profile":["http://hl7.org/fhir/us/qicore/StructureDefinition/qicore-communicationnotdone"]},"status":"not-done","statusReason":{"coding":[{"system":"http://snomed.info/sct","version":"http://snomed.info/sct/731000124108/version/202303","code":"183932001","display":"Procedure contraindicated (situation)","userSelected":true}]},"category":[{"coding":[{"system":"http://snomed.info/sct","code":"312912001","display":"Macular edema due to diabetes mellitus (disorder)","userSelected":true}]}],"sent":"2026-07-09T08:00:00.000+00:00"},"request":{"method":"PUT","url":"Communication/67a8d7d6-21d2-41f2-8edf-da9550c93435"}},{"fullUrl":"https://madie.cms.gov/MeasureReport/7815c1ad-3705-43d2-90e1-20df495247d5","resource":{"resourceType":"MeasureReport","id":"7815c1ad-3705-43d2-90e1-20df495247d5","meta":{"profile":["http://hl7.org/fhir/us/cqfmeasures/StructureDefinition/test-case-cqfm"]},"contained":[{"resourceType":"Parameters","id":"c68da851-badb-4870-a59c-d4f2fabaadab-parameters","parameter":[{"name":"subject","valueString":"03b74242-d93e-438e-ac6a-f46b41548209"}]}],"extension":[{"url":"http://hl7.org/fhir/StructureDefinition/cqf-inputParameters","valueReference":{"reference":"#c68da851-badb-4870-a59c-d4f2fabaadab-parameters"}},{"url":"http://hl7.org/fhir/us/cqfmeasures/StructureDefinition/cqfm-testCaseDescription","valueMarkdown":"Communication status not done for Macular edema absent (situation)"}],"modifierExtension":[{"url":"http://hl7.org/fhir/us/cqfmeasures/StructureDefinition/cqfm-isTestCase","valueBoolean":true}],"status":"complete","type":"individual","measure":"https://madie.cms.gov/Measure/CMS142FHIRDRCommunicationWithPhysicianManagingDiabetes","period":{"start":"2026-01-01","end":"2026-12-31"},"group":[{"id":"Group_1","population":[{"id":"InitialPopulation_1","code":{"coding":[{"system":"http://terminology.hl7.org/CodeSystem/measure-population","code":"initial-population","display":"Initial Population"}]},"count":1},{"id":"Denominator_1","code":{"coding":[{"system":"http://terminology.hl7.org/CodeSystem/measure-population","code":"denominator","display":"Denominator"}]},"count":1},{"id":"Numerator_1","code":{"coding":[{"system":"http://terminology.hl7.org/CodeSystem/measure-population","code":"numerator","display":"Numerator"}]},"count":0},{"id":"DenominatorException_1","code":{"coding":[{"system":"http://terminology.hl7.org/CodeSystem/measure-population","code":"denominator-exception","display":"Denominator Exception"}]},"count":1}],"measureScore":{"value":1.0}}],"evaluatedResource":[{"reference":"Patient/03b74242-d93e-438e-ac6a-f46b41548209"},{"reference":"Communication/1de991ac-491b-43d5-aeff-5afd9f25f409"},{"reference":"Condition/93d1b084-2e10-46d0-ad32-3e0b82ba6e12"},{"reference":"Observation/c89b5d1b-3042-4c10-9ae0-c63ab88562c2"},{"reference":"Encounter/c600cbc4-afc5-4275-a7cc-3f7ef53d2582"},{"reference":"Communication/67a8d7d6-21d2-41f2-8edf-da9550c93435"}]},"request":{"method":"PUT","url":"MeasureReport/7815c1ad-3705-43d2-90e1-20df495247d5"}}]},"request":{"method":"PUT","url":"Bundle/61168b8798086b77ef9c5ecc"}},{"fullUrl":"Observation/c89b5d1b-3042-4c10-9ae0-c63ab88562c2","resource":{"resourceType":"Observation","id":"c89b5d1b-3042-4c10-9ae0-c63ab88562c2","meta":{"profile":["http://hl7.org/fhir/us/qicore/StructureDefinition/qicore-observation-clinical-result"]},"status":"final","category":[{"coding":[{"system":"http://terminology.hl7.org/CodeSystem/observation-category","code":"vital-signs","display":"Vital Signs"}]}],"code":{"coding":[{"system":"http://loinc.org","version":"2.73","code":"32451-7"}]},"subject":{"reference":"Patient/03b74242-d93e-438e-ac6a-f46b41548209"},"effectiveDateTime":"2026-07-09T08:00:00.000+00:00","valueBoolean":true},"request":{"method":"PUT","url":"Observation/c89b5d1b-3042-4c10-9ae0-c63ab88562c2"}},{"fullUrl":"Communication/1de991ac-491b-43d5-aeff-5afd9f25f409","resource":{"resourceType":"Communication","id":"1de991ac-491b-43d5-aeff-5afd9f25f409","meta":{"profile":["http://hl7.org/fhir/us/qicore/StructureDefinition/qicore-communication"]},"extension":[{"url":"http://hl7.org/fhir/us/qicore/StructureDefinition/qicore-recorded","valueDateTime":"2014-07-02T15:00:00.000+00:00"}],"modifierExtension":[{"url":"http://hl7.org/fhir/us/qicore/StructureDefinition/qicore-notDone","valueBoolean":true},{"url":"http://hl7.org/fhir/us/qicore/StructureDefinition/qicore-notDone","valueBoolean":true}],"status":"completed","statusReason":{"coding":[{"system":"http://snomed.info/sct","version":"http://snomed.info/sct/731000124108/version/202303","code":"183932001","display":"Procedure contraindicated (situation)","userSelected":true}]},"subject":{"reference":"Patient/03b74242-d93e-438e-ac6a-f46b41548209"},"sent":"2026-07-09T08:00:00.000+00:00","reasonCode":[{"coding":[{"system":"http://snomed.info/sct","version":"http://snomed.info/sct/731000124108/version/202303","code":"428341000124108"}]}]},"request":{"method":"PUT","url":"Communication/1de991ac-491b-43d5-aeff-5afd9f25f409"}},{"fullUrl":"Condition/93d1b084-2e10-46d0-ad32-3e0b82ba6e12","resource":{"resourceType":"Condition","id":"93d1b084-2e10-46d0-ad32-3e0b82ba6e12","meta":{"profile":["http://hl7.org/fhir/us/qicore/StructureDefinition/qicore-condition-problems-health-concerns"]},"clinicalStatus":{"coding":[{"system":"http://terminology.hl7.org/CodeSystem/condition-clinical","code":"active","display":"active","userSelected":true}]},"category":[{"coding":[{"system":"http://terminology.hl7.org/CodeSystem/condition-category","code":"problem-list-item","display":"Problem List Item"}]}],"code":{"coding":[{"system":"http://snomed.info/sct","version":"http://snomed.info/sct/731000124108/version/202303","code":"193349004"},{"system":"http://hl7.org/fhir/sid/icd-10-cm","code":"E08.311"}]},"subject":{"reference":"Patient/03b74242-d93e-438e-ac6a-f46b41548209"},"onsetDateTime":"2014-07-01T15:00:00.000+00:00"},"request":{"method":"PUT","url":"Condition/93d1b084-2e10-46d0-ad32-3e0b82ba6e12"}},{"fullUrl":"Patient/03b74242-d93e-438e-ac6a-f46b41548209","resource":{"resourceType":"Patient","id":"03b74242-d93e-438e-ac6a-f46b41548209","meta":{"profile":["http://hl7.org/fhir/us/qicore/StructureDefinition/qicore-patient"]},"extension":[{"url":"http://hl7.org/fhir/us/core/StructureDefinition/us-core-race","extension":[{"url":"ombCategory","valueCoding":{"system":"urn:oid:2.16.840.1.113883.6.238","code":"2106-3","display":"White","userSelected":true}},{"url":"text","valueString":"White"}]},{"url":"http://hl7.org/fhir/us/core/StructureDefinition/us-core-ethnicity","extension":[{"url":"ombCategory","valueCoding":{"system":"urn:oid:2.16.840.1.113883.6.238","code":"2186-5","display":"Not Hispanic or Latino","userSelected":true}},{"url":"text","valueString":"Not Hispanic or Latino"}]}],"identifier":[{"type":{"coding":[{"system":"http://terminology.hl7.org/CodeSystem/v2-0203","code":"MR"}]},"system":"https://myGoodHealthCare.com/","value":"61168b8798086b77ef9c5ecc"}],"active":true,"name":[{"use":"usual","family":"DENEXCEPPass","given":["CommEdemaAbsentNotDoneMR"]}],"gender":"male","birthDate":"1973-08-29"},"request":{"method":"PUT","url":"Patient/03b74242-d93e-438e-ac6a-f46b41548209"}},{"fullUrl":"Encounter/c600cbc4-afc5-4275-a7cc-3f7ef53d2582","resource":{"resourceType":"Encounter","id":"c600cbc4-afc5-4275-a7cc-3f7ef53d2582","meta":{"profile":["http://hl7.org/fhir/us/qicore/StructureDefinition/qicore-encounter"]},"status":"finished","class":{"system":"http://terminology.hl7.org/CodeSystem/v3-ActCode","code":"AMB"},"type":[{"coding":[{"system":"http://www.ama-assn.org/go/cpt","version":"2023","code":"99205"}]}],"subject":{"reference":"Patient/03b74242-d93e-438e-ac6a-f46b41548209"},"period":{"start":"2026-07-02T15:00:00.000+00:00","end":"2026-08-02T16:00:00.000+00:00"}},"request":{"method":"PUT","url":"Encounter/c600cbc4-afc5-4275-a7cc-3f7ef53d2582"}}]}