{"resourceType":"Bundle","id":"tests-c90e9816-b69c-423c-827c-475f63f1ef7d-bundle","type":"transaction","entry":[{"fullUrl":"Observation/d54fbdcb-754c-4dca-8bed-44adf2a36f1c","resource":{"resourceType":"Observation","id":"d54fbdcb-754c-4dca-8bed-44adf2a36f1c","meta":{"profile":["http://hl7.org/fhir/us/qicore/StructureDefinition/qicore-observation-clinical-result"]},"status":"final","category":[{"coding":[{"system":"http://terminology.hl7.org/CodeSystem/condition-ver-status","code":"confirmed","display":"confirmed","userSelected":true}]}],"code":{"coding":[{"system":"http://loinc.org","version":"2.73","code":"32451-7","display":"Physical findings of Macula","userSelected":true}]},"subject":{"reference":"Patient/c90e9816-b69c-423c-827c-475f63f1ef7d"},"effectiveDateTime":"2025-03-09T08:02:00.000+00:00","issued":"2025-03-09T08:05:00.000+00:00","valueBoolean":true},"request":{"method":"PUT","url":"Observation/d54fbdcb-754c-4dca-8bed-44adf2a36f1c"}},{"fullUrl":"Practitioner/8ca0f1d8-f808-4f8c-bd51-9ee3bad01345","resource":{"resourceType":"Practitioner","id":"8ca0f1d8-f808-4f8c-bd51-9ee3bad01345","meta":{"profile":["http://hl7.org/fhir/us/qicore/StructureDefinition/qicore-practitioner"]},"identifier":[{"system":"http://hl7.org/fhir/sid/us-npi","value":"123456"}],"name":[{"family":"Goodboy","prefix":["Dr"]}]},"request":{"method":"PUT","url":"Practitioner/8ca0f1d8-f808-4f8c-bd51-9ee3bad01345"}},{"fullUrl":"Bundle/63f628d8d289cd498bb84238","resource":{"resourceType":"Bundle","id":"63f628d8d289cd498bb84238","type":"transaction","entry":[{"fullUrl":"https://madie.cms.gov/Patient/c90e9816-b69c-423c-827c-475f63f1ef7d","resource":{"resourceType":"Patient","id":"c90e9816-b69c-423c-827c-475f63f1ef7d","meta":{"profile":["http://hl7.org/fhir/us/qicore/StructureDefinition/qicore-patient"]},"extension":[{"url":"http://hl7.org/fhir/us/core/StructureDefinition/us-core-race","extension":[{"url":"ombCategory","valueCoding":{"system":"urn:oid:2.16.840.1.113883.6.238","code":"2028-9","display":"Asian","userSelected":true}},{"url":"text","valueString":"Asian"}]},{"url":"http://hl7.org/fhir/us/core/StructureDefinition/us-core-ethnicity","extension":[{"url":"ombCategory","valueCoding":{"system":"urn:oid:2.16.840.1.113883.6.238","code":"2135-2","display":"Hispanic or Latino","userSelected":true}},{"url":"text","valueString":"Hispanic or Latino"}]}],"identifier":[{"type":{"coding":[{"system":"http://terminology.hl7.org/CodeSystem/v2-0203","code":"MR"}]},"system":"https://bonnie-fhir.healthit.gov/","value":"63f628d8d289cd498bb84238"}],"name":[{"family":"DENOMFail","given":["MacularExambeforeEncounter"]}],"gender":"male","birthDate":"1997-11-01"},"request":{"method":"PUT","url":"Patient/c90e9816-b69c-423c-827c-475f63f1ef7d"}},{"fullUrl":"https://madie.cms.gov/Encounter/72096ac6-659a-49c0-a176-d0dc2ef9d267","resource":{"resourceType":"Encounter","id":"72096ac6-659a-49c0-a176-d0dc2ef9d267","meta":{"profile":["http://hl7.org/fhir/us/qicore/StructureDefinition/qicore-encounter"]},"status":"finished","class":{"system":"http://terminology.hl7.org/CodeSystem/v3-ActCode","code":"AMB","display":"ambulatory","userSelected":true},"type":[{"coding":[{"system":"http://snomed.info/sct","version":"2021-09","code":"18170008","display":"Subsequent nursing facility visit (procedure)","userSelected":true}]}],"subject":{"reference":"Patient/c90e9816-b69c-423c-827c-475f63f1ef7d"},"period":{"start":"2026-01-01T08:00:00.000+00:00","end":"2026-01-01T08:15:00.000+00:00"}},"request":{"method":"PUT","url":"Encounter/72096ac6-659a-49c0-a176-d0dc2ef9d267"}},{"fullUrl":"https://madie.cms.gov/Condition/34b8faab-049c-42ed-8598-2ca87a29af54","resource":{"resourceType":"Condition","id":"34b8faab-049c-42ed-8598-2ca87a29af54","meta":{"profile":["http://hl7.org/fhir/us/qicore/StructureDefinition/qicore-condition-encounter-diagnosis"]},"clinicalStatus":{"coding":[{"system":"http://terminology.hl7.org/CodeSystem/condition-clinical","code":"active","display":"active","userSelected":true}]},"category":[{"coding":[{"system":"http://terminology.hl7.org/CodeSystem/condition-ver-status","code":"confirmed","display":"confirmed","userSelected":true}]}],"code":{"coding":[{"system":"http://snomed.info/sct","version":"http://snomed.info/sct/731000124108/version/202303","code":"193349004","display":"Preproliferative retinopathy due to diabetes mellitus (disorder)","userSelected":true}]},"subject":{"reference":"Patient/c90e9816-b69c-423c-827c-475f63f1ef7d"},"onsetDateTime":"2025-12-31T08:00:00.000+00:00"},"request":{"method":"PUT","url":"Condition/34b8faab-049c-42ed-8598-2ca87a29af54"}},{"fullUrl":"https://madie.cms.gov/Observation/d54fbdcb-754c-4dca-8bed-44adf2a36f1c","resource":{"resourceType":"Observation","id":"d54fbdcb-754c-4dca-8bed-44adf2a36f1c","meta":{"profile":["http://hl7.org/fhir/us/qicore/StructureDefinition/qicore-observation-clinical-result"]},"status":"final","category":[{"coding":[{"system":"http://terminology.hl7.org/CodeSystem/condition-ver-status","code":"confirmed","display":"confirmed","userSelected":true}]}],"code":{"coding":[{"system":"http://loinc.org","version":"2.73","code":"32451-7","display":"Physical findings of Macula","userSelected":true}]},"subject":{"reference":"Patient/c90e9816-b69c-423c-827c-475f63f1ef7d"},"effectiveDateTime":"2025-03-09T08:02:00.000+00:00","issued":"2025-03-09T08:05:00.000+00:00","valueBoolean":true},"request":{"method":"PUT","url":"Observation/d54fbdcb-754c-4dca-8bed-44adf2a36f1c"}},{"fullUrl":"https://madie.cms.gov/Coverage/a51b6857-033f-460e-b0b0-2f9daa2f0366","resource":{"resourceType":"Coverage","id":"a51b6857-033f-460e-b0b0-2f9daa2f0366","meta":{"profile":["http://hl7.org/fhir/us/qicore/StructureDefinition/qicore-coverage"]},"status":"active","beneficiary":{"reference":"Patient/c90e9816-b69c-423c-827c-475f63f1ef7d"},"payor":[{"reference":"Organization/b14d860b-d10c-4049-b9bf-bab376901a28"}]},"request":{"method":"PUT","url":"Coverage/a51b6857-033f-460e-b0b0-2f9daa2f0366"}},{"fullUrl":"https://madie.cms.gov/Organization/b14d860b-d10c-4049-b9bf-bab376901a28","resource":{"resourceType":"Organization","id":"b14d860b-d10c-4049-b9bf-bab376901a28","meta":{"profile":["http://hl7.org/fhir/us/qicore/StructureDefinition/qicore-organization"]},"identifier":[{"use":"temp","system":"urn:oid:2.16.840.1.113883.4.4","value":"21-3259825"}],"active":true,"type":[{"coding":[{"system":"http://terminology.hl7.org/CodeSystem/organization-type","code":"pay","display":"Payer"}]}],"name":"Blue Cross Blue Shield of Texas","telecom":[{"system":"phone","value":"(+1) 972-766-6900"}],"address":[{"use":"billing","type":"postal","line":["P.O. Box 660044"],"city":"Dallas","state":"TX","postalCode":"75266-0044","country":"USA"}]},"request":{"method":"PUT","url":"Organization/b14d860b-d10c-4049-b9bf-bab376901a28"}},{"fullUrl":"https://madie.cms.gov/Practitioner/8ca0f1d8-f808-4f8c-bd51-9ee3bad01345","resource":{"resourceType":"Practitioner","id":"8ca0f1d8-f808-4f8c-bd51-9ee3bad01345","meta":{"profile":["http://hl7.org/fhir/us/qicore/StructureDefinition/qicore-practitioner"]},"identifier":[{"system":"http://hl7.org/fhir/sid/us-npi","value":"123456"}],"name":[{"family":"Goodboy","prefix":["Dr"]}]},"request":{"method":"PUT","url":"Practitioner/8ca0f1d8-f808-4f8c-bd51-9ee3bad01345"}},{"fullUrl":"https://madie.cms.gov/MeasureReport/249163a7-6cda-41fe-8031-787ca27be30a","resource":{"resourceType":"MeasureReport","id":"249163a7-6cda-41fe-8031-787ca27be30a","meta":{"profile":["http://hl7.org/fhir/us/cqfmeasures/StructureDefinition/test-case-cqfm"]},"contained":[{"resourceType":"Parameters","id":"4e4da12f-2f55-41c5-b5ba-e07849c43228-parameters","parameter":[{"name":"subject","valueString":"c90e9816-b69c-423c-827c-475f63f1ef7d"}]}],"extension":[{"url":"http://hl7.org/fhir/StructureDefinition/cqf-inputParameters","valueReference":{"reference":"#4e4da12f-2f55-41c5-b5ba-e07849c43228-parameters"}},{"url":"http://hl7.org/fhir/us/cqfmeasures/StructureDefinition/cqfm-testCaseDescription","valueMarkdown":"Patient >=18 years with qualifying encounter and macular exam which occurs outside of the Diabetic Retinopathy Encounter"}],"modifierExtension":[{"url":"http://hl7.org/fhir/us/cqfmeasures/StructureDefinition/cqfm-isTestCase","valueBoolean":true}],"status":"complete","type":"individual","measure":"https://madie.cms.gov/Measure/CMS142FHIRDRCommunicationWithPhysicianManagingDiabetes","period":{"start":"2026-01-01","end":"2026-12-31"},"group":[{"id":"Group_1","population":[{"id":"InitialPopulation_1","code":{"coding":[{"system":"http://terminology.hl7.org/CodeSystem/measure-population","code":"initial-population","display":"Initial Population"}]},"count":1},{"id":"Denominator_1","code":{"coding":[{"system":"http://terminology.hl7.org/CodeSystem/measure-population","code":"denominator","display":"Denominator"}]},"count":0},{"id":"Numerator_1","code":{"coding":[{"system":"http://terminology.hl7.org/CodeSystem/measure-population","code":"numerator","display":"Numerator"}]},"count":0},{"id":"DenominatorException_1","code":{"coding":[{"system":"http://terminology.hl7.org/CodeSystem/measure-population","code":"denominator-exception","display":"Denominator Exception"}]},"count":0}],"measureScore":{"value":1.0}}],"evaluatedResource":[{"reference":"Patient/c90e9816-b69c-423c-827c-475f63f1ef7d"},{"reference":"Encounter/72096ac6-659a-49c0-a176-d0dc2ef9d267"},{"reference":"Condition/34b8faab-049c-42ed-8598-2ca87a29af54"},{"reference":"Observation/d54fbdcb-754c-4dca-8bed-44adf2a36f1c"},{"reference":"Coverage/a51b6857-033f-460e-b0b0-2f9daa2f0366"},{"reference":"Organization/b14d860b-d10c-4049-b9bf-bab376901a28"},{"reference":"Practitioner/8ca0f1d8-f808-4f8c-bd51-9ee3bad01345"}]},"request":{"method":"PUT","url":"MeasureReport/249163a7-6cda-41fe-8031-787ca27be30a"}}]},"request":{"method":"PUT","url":"Bundle/63f628d8d289cd498bb84238"}},{"fullUrl":"Coverage/a51b6857-033f-460e-b0b0-2f9daa2f0366","resource":{"resourceType":"Coverage","id":"a51b6857-033f-460e-b0b0-2f9daa2f0366","meta":{"profile":["http://hl7.org/fhir/us/qicore/StructureDefinition/qicore-coverage"]},"status":"active","beneficiary":{"reference":"Patient/c90e9816-b69c-423c-827c-475f63f1ef7d"},"payor":[{"reference":"Organization/b14d860b-d10c-4049-b9bf-bab376901a28"}]},"request":{"method":"PUT","url":"Coverage/a51b6857-033f-460e-b0b0-2f9daa2f0366"}},{"fullUrl":"Encounter/72096ac6-659a-49c0-a176-d0dc2ef9d267","resource":{"resourceType":"Encounter","id":"72096ac6-659a-49c0-a176-d0dc2ef9d267","meta":{"profile":["http://hl7.org/fhir/us/qicore/StructureDefinition/qicore-encounter"]},"status":"finished","class":{"system":"http://terminology.hl7.org/CodeSystem/v3-ActCode","code":"AMB","display":"ambulatory","userSelected":true},"type":[{"coding":[{"system":"http://snomed.info/sct","version":"2021-09","code":"18170008","display":"Subsequent nursing facility visit (procedure)","userSelected":true}]}],"subject":{"reference":"Patient/c90e9816-b69c-423c-827c-475f63f1ef7d"},"period":{"start":"2026-01-01T08:00:00.000+00:00","end":"2026-01-01T08:15:00.000+00:00"}},"request":{"method":"PUT","url":"Encounter/72096ac6-659a-49c0-a176-d0dc2ef9d267"}},{"fullUrl":"Condition/34b8faab-049c-42ed-8598-2ca87a29af54","resource":{"resourceType":"Condition","id":"34b8faab-049c-42ed-8598-2ca87a29af54","meta":{"profile":["http://hl7.org/fhir/us/qicore/StructureDefinition/qicore-condition-encounter-diagnosis"]},"clinicalStatus":{"coding":[{"system":"http://terminology.hl7.org/CodeSystem/condition-clinical","code":"active","display":"active","userSelected":true}]},"category":[{"coding":[{"system":"http://terminology.hl7.org/CodeSystem/condition-ver-status","code":"confirmed","display":"confirmed","userSelected":true}]}],"code":{"coding":[{"system":"http://snomed.info/sct","version":"http://snomed.info/sct/731000124108/version/202303","code":"193349004","display":"Preproliferative retinopathy due to diabetes mellitus (disorder)","userSelected":true}]},"subject":{"reference":"Patient/c90e9816-b69c-423c-827c-475f63f1ef7d"},"onsetDateTime":"2025-12-31T08:00:00.000+00:00"},"request":{"method":"PUT","url":"Condition/34b8faab-049c-42ed-8598-2ca87a29af54"}},{"fullUrl":"MeasureReport/249163a7-6cda-41fe-8031-787ca27be30a","resource":{"resourceType":"MeasureReport","id":"249163a7-6cda-41fe-8031-787ca27be30a","meta":{"profile":["http://hl7.org/fhir/us/cqfmeasures/StructureDefinition/test-case-cqfm"]},"contained":[{"resourceType":"Parameters","id":"4e4da12f-2f55-41c5-b5ba-e07849c43228-parameters","parameter":[{"name":"subject","valueString":"c90e9816-b69c-423c-827c-475f63f1ef7d"}]}],"extension":[{"url":"http://hl7.org/fhir/StructureDefinition/cqf-inputParameters","valueReference":{"reference":"#4e4da12f-2f55-41c5-b5ba-e07849c43228-parameters"}},{"url":"http://hl7.org/fhir/us/cqfmeasures/StructureDefinition/cqfm-testCaseDescription","valueMarkdown":"Patient >=18 years with qualifying encounter and macular exam which occurs outside of the Diabetic Retinopathy Encounter"}],"modifierExtension":[{"url":"http://hl7.org/fhir/us/cqfmeasures/StructureDefinition/cqfm-isTestCase","valueBoolean":true}],"status":"complete","type":"individual","measure":"https://madie.cms.gov/Measure/CMS142FHIRDRCommunicationWithPhysicianManagingDiabetes","period":{"start":"2026-01-01","end":"2026-12-31"},"group":[{"id":"Group_1","population":[{"id":"InitialPopulation_1","code":{"coding":[{"system":"http://terminology.hl7.org/CodeSystem/measure-population","code":"initial-population","display":"Initial Population"}]},"count":1},{"id":"Denominator_1","code":{"coding":[{"system":"http://terminology.hl7.org/CodeSystem/measure-population","code":"denominator","display":"Denominator"}]},"count":0},{"id":"Numerator_1","code":{"coding":[{"system":"http://terminology.hl7.org/CodeSystem/measure-population","code":"numerator","display":"Numerator"}]},"count":0},{"id":"DenominatorException_1","code":{"coding":[{"system":"http://terminology.hl7.org/CodeSystem/measure-population","code":"denominator-exception","display":"Denominator Exception"}]},"count":0}],"measureScore":{"value":1.0}}],"evaluatedResource":[{"reference":"Patient/c90e9816-b69c-423c-827c-475f63f1ef7d"},{"reference":"Encounter/72096ac6-659a-49c0-a176-d0dc2ef9d267"},{"reference":"Condition/34b8faab-049c-42ed-8598-2ca87a29af54"},{"reference":"Observation/d54fbdcb-754c-4dca-8bed-44adf2a36f1c"},{"reference":"Coverage/a51b6857-033f-460e-b0b0-2f9daa2f0366"},{"reference":"Organization/b14d860b-d10c-4049-b9bf-bab376901a28"},{"reference":"Practitioner/8ca0f1d8-f808-4f8c-bd51-9ee3bad01345"}]},"request":{"method":"PUT","url":"MeasureReport/249163a7-6cda-41fe-8031-787ca27be30a"}},{"fullUrl":"Patient/c90e9816-b69c-423c-827c-475f63f1ef7d","resource":{"resourceType":"Patient","id":"c90e9816-b69c-423c-827c-475f63f1ef7d","meta":{"profile":["http://hl7.org/fhir/us/qicore/StructureDefinition/qicore-patient"]},"extension":[{"url":"http://hl7.org/fhir/us/core/StructureDefinition/us-core-race","extension":[{"url":"ombCategory","valueCoding":{"system":"urn:oid:2.16.840.1.113883.6.238","code":"2028-9","display":"Asian","userSelected":true}},{"url":"text","valueString":"Asian"}]},{"url":"http://hl7.org/fhir/us/core/StructureDefinition/us-core-ethnicity","extension":[{"url":"ombCategory","valueCoding":{"system":"urn:oid:2.16.840.1.113883.6.238","code":"2135-2","display":"Hispanic or Latino","userSelected":true}},{"url":"text","valueString":"Hispanic or Latino"}]}],"identifier":[{"type":{"coding":[{"system":"http://terminology.hl7.org/CodeSystem/v2-0203","code":"MR"}]},"system":"https://bonnie-fhir.healthit.gov/","value":"63f628d8d289cd498bb84238"}],"name":[{"family":"DENOMFail","given":["MacularExambeforeEncounter"]}],"gender":"male","birthDate":"1997-11-01"},"request":{"method":"PUT","url":"Patient/c90e9816-b69c-423c-827c-475f63f1ef7d"}},{"fullUrl":"Organization/b14d860b-d10c-4049-b9bf-bab376901a28","resource":{"resourceType":"Organization","id":"b14d860b-d10c-4049-b9bf-bab376901a28","meta":{"profile":["http://hl7.org/fhir/us/qicore/StructureDefinition/qicore-organization"]},"identifier":[{"use":"temp","system":"urn:oid:2.16.840.1.113883.4.4","value":"21-3259825"}],"active":true,"type":[{"coding":[{"system":"http://terminology.hl7.org/CodeSystem/organization-type","code":"pay","display":"Payer"}]}],"name":"Blue Cross Blue Shield of Texas","telecom":[{"system":"phone","value":"(+1) 972-766-6900"}],"address":[{"use":"billing","type":"postal","line":["P.O. Box 660044"],"city":"Dallas","state":"TX","postalCode":"75266-0044","country":"USA"}]},"request":{"method":"PUT","url":"Organization/b14d860b-d10c-4049-b9bf-bab376901a28"}}]}