{"resourceType":"Bundle","id":"tests-dea40dde-9674-4a89-987f-0617a78a5e94-bundle","type":"transaction","entry":[{"fullUrl":"MeasureReport/676b7dc2-0569-4b7a-b858-fc10b8d88625","resource":{"resourceType":"MeasureReport","id":"676b7dc2-0569-4b7a-b858-fc10b8d88625","meta":{"profile":["http://hl7.org/fhir/us/cqfmeasures/StructureDefinition/test-case-cqfm"]},"contained":[{"resourceType":"Parameters","id":"5509576d-be7a-4fd3-847c-34730103208b-parameters","parameter":[{"name":"subject","valueString":"dea40dde-9674-4a89-987f-0617a78a5e94"}]}],"extension":[{"url":"http://hl7.org/fhir/StructureDefinition/cqf-inputParameters","valueReference":{"reference":"#5509576d-be7a-4fd3-847c-34730103208b-parameters"}},{"url":"http://hl7.org/fhir/us/cqfmeasures/StructureDefinition/cqfm-testCaseDescription","valueMarkdown":"Encounter period is outside MP by 1 min"}],"modifierExtension":[{"url":"http://hl7.org/fhir/us/cqfmeasures/StructureDefinition/cqfm-isTestCase","valueBoolean":true}],"status":"complete","type":"individual","measure":"https://madie.cms.gov/Measure/CMS142FHIRDRCommunicationWithPhysicianManagingDiabetes","period":{"start":"2026-01-01","end":"2026-12-31"},"group":[{"id":"Group_1","population":[{"id":"InitialPopulation_1","code":{"coding":[{"system":"http://terminology.hl7.org/CodeSystem/measure-population","code":"initial-population","display":"Initial Population"}]},"count":0},{"id":"Denominator_1","code":{"coding":[{"system":"http://terminology.hl7.org/CodeSystem/measure-population","code":"denominator","display":"Denominator"}]},"count":0},{"id":"Numerator_1","code":{"coding":[{"system":"http://terminology.hl7.org/CodeSystem/measure-population","code":"numerator","display":"Numerator"}]},"count":0},{"id":"DenominatorException_1","code":{"coding":[{"system":"http://terminology.hl7.org/CodeSystem/measure-population","code":"denominator-exception","display":"Denominator Exception"}]},"count":0}],"measureScore":{"value":1.0}}],"evaluatedResource":[{"reference":"Patient/dea40dde-9674-4a89-987f-0617a78a5e94"},{"reference":"Condition/00808c87-b4e4-4866-8083-a15f0074b9e3"},{"reference":"Encounter/72db0962-1868-4ce1-8132-4265103c78b3"},{"reference":"Coverage/c75d3ddf-93a3-4922-b298-70e115b8fb2b"},{"reference":"Organization/3cc7324d-6c76-4961-802c-c5fd558278d1"}]},"request":{"method":"PUT","url":"MeasureReport/676b7dc2-0569-4b7a-b858-fc10b8d88625"}},{"fullUrl":"Encounter/72db0962-1868-4ce1-8132-4265103c78b3","resource":{"resourceType":"Encounter","id":"72db0962-1868-4ce1-8132-4265103c78b3","meta":{"profile":["http://hl7.org/fhir/us/qicore/StructureDefinition/qicore-encounter"]},"status":"finished","class":{"system":"http://terminology.hl7.org/CodeSystem/v3-ActCode","code":"AMB"},"type":[{"coding":[{"system":"http://snomed.info/sct","version":"http://snomed.info/sct/731000124108/version/20230301","code":"77406008","display":"Confirmatory medical consultation (procedure)"}]}],"subject":{"reference":"Patient/dea40dde-9674-4a89-987f-0617a78a5e94"},"period":{"start":"2025-12-31T23:59:00.000+00:00","end":"2025-12-31T23:59:00.000+00:00"}},"request":{"method":"PUT","url":"Encounter/72db0962-1868-4ce1-8132-4265103c78b3"}},{"fullUrl":"Condition/00808c87-b4e4-4866-8083-a15f0074b9e3","resource":{"resourceType":"Condition","id":"00808c87-b4e4-4866-8083-a15f0074b9e3","meta":{"profile":["http://hl7.org/fhir/us/qicore/StructureDefinition/qicore-condition-problems-health-concerns"]},"clinicalStatus":{"coding":[{"system":"http://terminology.hl7.org/CodeSystem/condition-clinical","code":"active","display":"active","userSelected":true}]},"category":[{"coding":[{"system":"http://terminology.hl7.org/CodeSystem/condition-category","code":"problem-list-item","display":"Problem List Item"}]}],"code":{"coding":[{"system":"http://snomed.info/sct","version":"http://snomed.info/sct/731000124108/version/202303","code":"314014002"}]},"subject":{"reference":"Patient/dea40dde-9674-4a89-987f-0617a78a5e94"},"onsetDateTime":"2026-09-10T10:45:00.000+00:00"},"request":{"method":"PUT","url":"Condition/00808c87-b4e4-4866-8083-a15f0074b9e3"}},{"fullUrl":"Bundle/61168b8798086b77ef9c5ec1","resource":{"resourceType":"Bundle","id":"61168b8798086b77ef9c5ec1","type":"transaction","entry":[{"fullUrl":"https://madie.cms.gov/Patient/dea40dde-9674-4a89-987f-0617a78a5e94","resource":{"resourceType":"Patient","id":"dea40dde-9674-4a89-987f-0617a78a5e94","meta":{"profile":["http://hl7.org/fhir/us/qicore/StructureDefinition/qicore-patient"]},"extension":[{"url":"http://hl7.org/fhir/us/core/StructureDefinition/us-core-race","extension":[{"url":"ombCategory","valueCoding":{"system":"urn:oid:2.16.840.1.113883.6.238","code":"2028-9","display":"Asian","userSelected":true}},{"url":"text","valueString":"Asian"}]},{"url":"http://hl7.org/fhir/us/core/StructureDefinition/us-core-ethnicity","extension":[{"url":"ombCategory","valueCoding":{"system":"urn:oid:2.16.840.1.113883.6.238","code":"2135-2","display":"Hispanic or Latino","userSelected":true}},{"url":"text","valueString":"Hispanic or Latino"}]}],"identifier":[{"type":{"coding":[{"system":"http://terminology.hl7.org/CodeSystem/v2-0203","code":"MR"}]},"system":"https://bonnie-fhir.healthit.gov/","value":"61168b8798086b77ef9c5ec1"}],"active":true,"name":[{"use":"usual","family":"IPFail","given":["EncB4MPEdge"]}],"gender":"male","birthDate":"1958-08-17"},"request":{"method":"PUT","url":"Patient/dea40dde-9674-4a89-987f-0617a78a5e94"}},{"fullUrl":"https://madie.cms.gov/Condition/00808c87-b4e4-4866-8083-a15f0074b9e3","resource":{"resourceType":"Condition","id":"00808c87-b4e4-4866-8083-a15f0074b9e3","meta":{"profile":["http://hl7.org/fhir/us/qicore/StructureDefinition/qicore-condition-problems-health-concerns"]},"clinicalStatus":{"coding":[{"system":"http://terminology.hl7.org/CodeSystem/condition-clinical","code":"active","display":"active","userSelected":true}]},"category":[{"coding":[{"system":"http://terminology.hl7.org/CodeSystem/condition-category","code":"problem-list-item","display":"Problem List Item"}]}],"code":{"coding":[{"system":"http://snomed.info/sct","version":"http://snomed.info/sct/731000124108/version/202303","code":"314014002"}]},"subject":{"reference":"Patient/dea40dde-9674-4a89-987f-0617a78a5e94"},"onsetDateTime":"2026-09-10T10:45:00.000+00:00"},"request":{"method":"PUT","url":"Condition/00808c87-b4e4-4866-8083-a15f0074b9e3"}},{"fullUrl":"https://madie.cms.gov/Encounter/72db0962-1868-4ce1-8132-4265103c78b3","resource":{"resourceType":"Encounter","id":"72db0962-1868-4ce1-8132-4265103c78b3","meta":{"profile":["http://hl7.org/fhir/us/qicore/StructureDefinition/qicore-encounter"]},"status":"finished","class":{"system":"http://terminology.hl7.org/CodeSystem/v3-ActCode","code":"AMB"},"type":[{"coding":[{"system":"http://snomed.info/sct","version":"http://snomed.info/sct/731000124108/version/20230301","code":"77406008","display":"Confirmatory medical consultation (procedure)"}]}],"subject":{"reference":"Patient/dea40dde-9674-4a89-987f-0617a78a5e94"},"period":{"start":"2025-12-31T23:59:00.000+00:00","end":"2025-12-31T23:59:00.000+00:00"}},"request":{"method":"PUT","url":"Encounter/72db0962-1868-4ce1-8132-4265103c78b3"}},{"fullUrl":"https://madie.cms.gov/Coverage/c75d3ddf-93a3-4922-b298-70e115b8fb2b","resource":{"resourceType":"Coverage","id":"c75d3ddf-93a3-4922-b298-70e115b8fb2b","meta":{"profile":["http://hl7.org/fhir/us/qicore/StructureDefinition/qicore-coverage"]},"status":"active","beneficiary":{"reference":"Patient/dea40dde-9674-4a89-987f-0617a78a5e94"},"payor":[{"reference":"Organization/3cc7324d-6c76-4961-802c-c5fd558278d1"}]},"request":{"method":"PUT","url":"Coverage/c75d3ddf-93a3-4922-b298-70e115b8fb2b"}},{"fullUrl":"https://madie.cms.gov/Organization/3cc7324d-6c76-4961-802c-c5fd558278d1","resource":{"resourceType":"Organization","id":"3cc7324d-6c76-4961-802c-c5fd558278d1","meta":{"profile":["http://hl7.org/fhir/us/qicore/StructureDefinition/qicore-organization"]},"identifier":[{"use":"temp","system":"urn:oid:2.16.840.1.113883.4.4","value":"21-3259825"}],"active":true,"type":[{"coding":[{"system":"http://terminology.hl7.org/CodeSystem/organization-type","code":"pay","display":"Payer"}]}],"name":"Blue Cross Blue Shield of Texas","telecom":[{"system":"phone","value":"(+1) 972-766-6900"}],"address":[{"use":"billing","type":"postal","line":["P.O. Box 660044"],"city":"Dallas","state":"TX","postalCode":"75266-0044","country":"USA"}]},"request":{"method":"PUT","url":"Organization/3cc7324d-6c76-4961-802c-c5fd558278d1"}},{"fullUrl":"https://madie.cms.gov/MeasureReport/676b7dc2-0569-4b7a-b858-fc10b8d88625","resource":{"resourceType":"MeasureReport","id":"676b7dc2-0569-4b7a-b858-fc10b8d88625","meta":{"profile":["http://hl7.org/fhir/us/cqfmeasures/StructureDefinition/test-case-cqfm"]},"contained":[{"resourceType":"Parameters","id":"5509576d-be7a-4fd3-847c-34730103208b-parameters","parameter":[{"name":"subject","valueString":"dea40dde-9674-4a89-987f-0617a78a5e94"}]}],"extension":[{"url":"http://hl7.org/fhir/StructureDefinition/cqf-inputParameters","valueReference":{"reference":"#5509576d-be7a-4fd3-847c-34730103208b-parameters"}},{"url":"http://hl7.org/fhir/us/cqfmeasures/StructureDefinition/cqfm-testCaseDescription","valueMarkdown":"Encounter period is outside MP by 1 min"}],"modifierExtension":[{"url":"http://hl7.org/fhir/us/cqfmeasures/StructureDefinition/cqfm-isTestCase","valueBoolean":true}],"status":"complete","type":"individual","measure":"https://madie.cms.gov/Measure/CMS142FHIRDRCommunicationWithPhysicianManagingDiabetes","period":{"start":"2026-01-01","end":"2026-12-31"},"group":[{"id":"Group_1","population":[{"id":"InitialPopulation_1","code":{"coding":[{"system":"http://terminology.hl7.org/CodeSystem/measure-population","code":"initial-population","display":"Initial Population"}]},"count":0},{"id":"Denominator_1","code":{"coding":[{"system":"http://terminology.hl7.org/CodeSystem/measure-population","code":"denominator","display":"Denominator"}]},"count":0},{"id":"Numerator_1","code":{"coding":[{"system":"http://terminology.hl7.org/CodeSystem/measure-population","code":"numerator","display":"Numerator"}]},"count":0},{"id":"DenominatorException_1","code":{"coding":[{"system":"http://terminology.hl7.org/CodeSystem/measure-population","code":"denominator-exception","display":"Denominator Exception"}]},"count":0}],"measureScore":{"value":1.0}}],"evaluatedResource":[{"reference":"Patient/dea40dde-9674-4a89-987f-0617a78a5e94"},{"reference":"Condition/00808c87-b4e4-4866-8083-a15f0074b9e3"},{"reference":"Encounter/72db0962-1868-4ce1-8132-4265103c78b3"},{"reference":"Coverage/c75d3ddf-93a3-4922-b298-70e115b8fb2b"},{"reference":"Organization/3cc7324d-6c76-4961-802c-c5fd558278d1"}]},"request":{"method":"PUT","url":"MeasureReport/676b7dc2-0569-4b7a-b858-fc10b8d88625"}}]},"request":{"method":"PUT","url":"Bundle/61168b8798086b77ef9c5ec1"}},{"fullUrl":"Organization/3cc7324d-6c76-4961-802c-c5fd558278d1","resource":{"resourceType":"Organization","id":"3cc7324d-6c76-4961-802c-c5fd558278d1","meta":{"profile":["http://hl7.org/fhir/us/qicore/StructureDefinition/qicore-organization"]},"identifier":[{"use":"temp","system":"urn:oid:2.16.840.1.113883.4.4","value":"21-3259825"}],"active":true,"type":[{"coding":[{"system":"http://terminology.hl7.org/CodeSystem/organization-type","code":"pay","display":"Payer"}]}],"name":"Blue Cross Blue Shield of Texas","telecom":[{"system":"phone","value":"(+1) 972-766-6900"}],"address":[{"use":"billing","type":"postal","line":["P.O. Box 660044"],"city":"Dallas","state":"TX","postalCode":"75266-0044","country":"USA"}]},"request":{"method":"PUT","url":"Organization/3cc7324d-6c76-4961-802c-c5fd558278d1"}},{"fullUrl":"Coverage/c75d3ddf-93a3-4922-b298-70e115b8fb2b","resource":{"resourceType":"Coverage","id":"c75d3ddf-93a3-4922-b298-70e115b8fb2b","meta":{"profile":["http://hl7.org/fhir/us/qicore/StructureDefinition/qicore-coverage"]},"status":"active","beneficiary":{"reference":"Patient/dea40dde-9674-4a89-987f-0617a78a5e94"},"payor":[{"reference":"Organization/3cc7324d-6c76-4961-802c-c5fd558278d1"}]},"request":{"method":"PUT","url":"Coverage/c75d3ddf-93a3-4922-b298-70e115b8fb2b"}},{"fullUrl":"Patient/dea40dde-9674-4a89-987f-0617a78a5e94","resource":{"resourceType":"Patient","id":"dea40dde-9674-4a89-987f-0617a78a5e94","meta":{"profile":["http://hl7.org/fhir/us/qicore/StructureDefinition/qicore-patient"]},"extension":[{"url":"http://hl7.org/fhir/us/core/StructureDefinition/us-core-race","extension":[{"url":"ombCategory","valueCoding":{"system":"urn:oid:2.16.840.1.113883.6.238","code":"2028-9","display":"Asian","userSelected":true}},{"url":"text","valueString":"Asian"}]},{"url":"http://hl7.org/fhir/us/core/StructureDefinition/us-core-ethnicity","extension":[{"url":"ombCategory","valueCoding":{"system":"urn:oid:2.16.840.1.113883.6.238","code":"2135-2","display":"Hispanic or Latino","userSelected":true}},{"url":"text","valueString":"Hispanic or Latino"}]}],"identifier":[{"type":{"coding":[{"system":"http://terminology.hl7.org/CodeSystem/v2-0203","code":"MR"}]},"system":"https://bonnie-fhir.healthit.gov/","value":"61168b8798086b77ef9c5ec1"}],"active":true,"name":[{"use":"usual","family":"IPFail","given":["EncB4MPEdge"]}],"gender":"male","birthDate":"1958-08-17"},"request":{"method":"PUT","url":"Patient/dea40dde-9674-4a89-987f-0617a78a5e94"}}]}