{
  "resourceType": "Bundle",
  "id": "612e6b2e02c62a011f2ecc92",
  "type": "transaction",
  "entry": [ {
    "fullUrl": "https://madie.cms.gov/Patient/282ae3a0-a4fd-4fed-8ce9-bff3840c7ca9",
    "resource": {
      "resourceType": "Patient",
      "id": "282ae3a0-a4fd-4fed-8ce9-bff3840c7ca9",
      "meta": {
        "profile": [ "http://hl7.org/fhir/us/qicore/StructureDefinition/qicore-patient" ]
      },
      "text": {
        "status": "generated",
        "div": "<div xmlns=\"http://www.w3.org/1999/xhtml\"><div class=\"hapiHeaderText\">PtRefMOLMWHDayAfterICU<b>NUMERPASS </b></div><table class=\"hapiPropertyTable\"><tbody><tr><td>Identifier</td><td>bec2580a47ed4bf7691b191e0654b2de</td></tr><tr><td>Date of birth</td><td><span>02 January 1974</span></td></tr></tbody></table></div>"
      },
      "extension": [ {
        "url": "http://hl7.org/fhir/us/core/StructureDefinition/us-core-race",
        "extension": [ {
          "url": "ombCategory",
          "valueCoding": {
            "system": "urn:oid:2.16.840.1.113883.6.238",
            "code": "1002-5",
            "display": "American Indian or Alaska Native",
            "userSelected": true
          }
        }, {
          "url": "text",
          "valueString": "American Indian or Alaska Native"
        } ]
      }, {
        "url": "http://hl7.org/fhir/us/core/StructureDefinition/us-core-ethnicity",
        "extension": [ {
          "url": "ombCategory",
          "valueCoding": {
            "system": "urn:oid:2.16.840.1.113883.6.238",
            "code": "2135-2",
            "display": "Hispanic or Latino",
            "userSelected": true
          }
        }, {
          "url": "text",
          "valueString": "Hispanic or Latino"
        } ]
      } ],
      "identifier": [ {
        "type": {
          "coding": [ {
            "system": "http://terminology.hl7.org/CodeSystem/v2-0203",
            "code": "MR"
          } ]
        },
        "system": "https://bonnie-fhir.healthit.gov/",
        "value": "612e6b2e02c62a011f2ecc92"
      } ],
      "active": true,
      "name": [ {
        "use": "usual",
        "family": "NUMERPass",
        "given": [ "PtRefMOInjXaTaskReject" ]
      } ],
      "gender": "male",
      "birthDate": "1975-01-02"
    },
    "request": {
      "method": "PUT",
      "url": "Patient/282ae3a0-a4fd-4fed-8ce9-bff3840c7ca9"
    }
  }, {
    "fullUrl": "https://madie.cms.gov/Encounter/8ef5eba3-b385-4848-b05b-427cbe7e4c7a",
    "resource": {
      "resourceType": "Encounter",
      "id": "8ef5eba3-b385-4848-b05b-427cbe7e4c7a",
      "meta": {
        "profile": [ "http://hl7.org/fhir/us/qicore/StructureDefinition/qicore-encounter" ]
      },
      "status": "finished",
      "class": {
        "system": "http://terminology.hl7.org/CodeSystem/v3-ActCode",
        "code": "IMP",
        "display": "inpatient encounter"
      },
      "type": [ {
        "coding": [ {
          "system": "http://snomed.info/sct",
          "code": "8715000"
        } ]
      } ],
      "subject": {
        "reference": "Patient/282ae3a0-a4fd-4fed-8ce9-bff3840c7ca9"
      },
      "period": {
        "start": "2026-11-01T08:00:00Z",
        "end": "2026-11-26T08:15:00.000+00:00"
      },
      "length": {
        "value": 25,
        "unit": "days"
      },
      "location": [ {
        "location": {
          "reference": "Location/611481e8-b1c0-483b-8f48-bc001b272f81"
        },
        "period": {
          "start": "2026-11-04T09:00:00Z",
          "end": "2026-11-06T08:15:00.000+00:00"
        }
      } ]
    },
    "request": {
      "method": "PUT",
      "url": "Encounter/8ef5eba3-b385-4848-b05b-427cbe7e4c7a"
    }
  }, {
    "fullUrl": "https://madie.cms.gov/Coverage/811c257b-4f33-45ac-ba91-4d58147d4d64",
    "resource": {
      "resourceType": "Coverage",
      "id": "811c257b-4f33-45ac-ba91-4d58147d4d64",
      "status": "active",
      "beneficiary": {
        "reference": "Patient/282ae3a0-a4fd-4fed-8ce9-bff3840c7ca9"
      },
      "period": {
        "start": "1975-01-02T08:00:00Z"
      },
      "payor": [ {
        "reference": "Organization/a27ab4f1-9723-45b8-aaf2-b048ce6eeaa9"
      } ]
    },
    "request": {
      "method": "PUT",
      "url": "Coverage/811c257b-4f33-45ac-ba91-4d58147d4d64"
    }
  }, {
    "fullUrl": "https://madie.cms.gov/MedicationRequest/9c8a2a9b-6d01-45a9-9d8e-9d47f562fe3e",
    "resource": {
      "resourceType": "MedicationRequest",
      "id": "9c8a2a9b-6d01-45a9-9d8e-9d47f562fe3e",
      "meta": {
        "profile": [ "http://hl7.org/fhir/us/qicore/StructureDefinition/qicore-medicationrequest" ]
      },
      "status": "active",
      "intent": "order",
      "category": [ {
        "coding": [ {
          "system": "http://terminology.hl7.org/CodeSystem/medicationrequest-category",
          "code": "inpatient"
        } ]
      } ],
      "doNotPerform": false,
      "medicationCodeableConcept": {
        "coding": [ {
          "system": "http://www.nlm.nih.gov/research/umls/rxnorm",
          "code": "855338"
        } ]
      },
      "subject": {
        "reference": "Patient/282ae3a0-a4fd-4fed-8ce9-bff3840c7ca9"
      },
      "authoredOn": "2026-11-01T08:00:00Z",
      "requester": {
        "reference": "Practitioner/123456"
      },
      "dosageInstruction": [ {
        "timing": {
          "repeat": {
            "boundsPeriod": {
              "start": "2026-11-03T09:00:00Z"
            }
          }
        }
      } ]
    },
    "request": {
      "method": "PUT",
      "url": "MedicationRequest/9c8a2a9b-6d01-45a9-9d8e-9d47f562fe3e"
    }
  }, {
    "fullUrl": "https://madie.cms.gov/Task/c681c340-ec25-4ed6-9090-298a1c11a250",
    "resource": {
      "resourceType": "Task",
      "id": "c681c340-ec25-4ed6-9090-298a1c11a250",
      "meta": {
        "profile": [ "http://hl7.org/fhir/us/qicore/StructureDefinition/qicore-taskrejected" ]
      },
      "status": "rejected",
      "statusReason": {
        "coding": [ {
          "system": "http://snomed.info/sct",
          "code": "443390004",
          "display": "Refusal of treatment by patient (situation)",
          "userSelected": true
        } ]
      },
      "code": {
        "coding": [ {
          "system": "http://hl7.org/fhir/CodeSystem/task-code",
          "code": "fulfill"
        } ]
      },
      "focus": {
        "reference": "MedicationRequest/9c8a2a9b-6d01-45a9-9d8e-9d47f562fe3e"
      },
      "executionPeriod": {
        "start": "2026-11-01T09:00:00Z",
        "end": "2026-11-03T09:00:00.000+00:00"
      }
    },
    "request": {
      "method": "PUT",
      "url": "Task/c681c340-ec25-4ed6-9090-298a1c11a250"
    }
  }, {
    "fullUrl": "https://madie.cms.gov/Location/611481e8-b1c0-483b-8f48-bc001b272f81",
    "resource": {
      "resourceType": "Location",
      "id": "611481e8-b1c0-483b-8f48-bc001b272f81",
      "meta": {
        "profile": [ "http://hl7.org/fhir/us/qicore/StructureDefinition/qicore-location" ]
      },
      "identifier": [ {
        "use": "usual",
        "system": "http://exampleoflocation.com",
        "value": "B1-S.F2"
      } ],
      "name": "Medical Surgical East, first floor",
      "type": [ {
        "coding": [ {
          "system": "https://www.cdc.gov/nhsn/cdaportal/terminology/codesystem/hsloc.html",
          "code": "1025-6",
          "display": "Trauma Critical Care",
          "userSelected": true
        } ]
      } ]
    },
    "request": {
      "method": "PUT",
      "url": "Location/611481e8-b1c0-483b-8f48-bc001b272f81"
    }
  }, {
    "fullUrl": "https://madie.cms.gov/Organization/a27ab4f1-9723-45b8-aaf2-b048ce6eeaa9",
    "resource": {
      "resourceType": "Organization",
      "id": "a27ab4f1-9723-45b8-aaf2-b048ce6eeaa9",
      "meta": {
        "profile": [ "http://hl7.org/fhir/us/qicore/StructureDefinition/qicore-organization" ]
      },
      "identifier": [ {
        "use": "temp",
        "system": "urn:oid:2.16.840.1.113883.4.4",
        "value": "21-3259825"
      } ],
      "active": true,
      "type": [ {
        "coding": [ {
          "system": "http://terminology.hl7.org/CodeSystem/organization-type",
          "code": "pay",
          "display": "Payer"
        } ]
      } ],
      "name": "Blue Cross Blue Shield of Texas",
      "telecom": [ {
        "system": "phone",
        "value": "(+1) 972-766-6900"
      } ],
      "address": [ {
        "use": "billing",
        "type": "postal",
        "line": [ "P.O. Box 660044" ],
        "city": "Dallas",
        "state": "TX",
        "postalCode": "75266-0044",
        "country": "USA"
      } ]
    },
    "request": {
      "method": "PUT",
      "url": "Organization/a27ab4f1-9723-45b8-aaf2-b048ce6eeaa9"
    }
  }, {
    "fullUrl": "https://madie.cms.gov/Practitioner/b8d033df-fa55-4e6a-80c2-773fd3be0031",
    "resource": {
      "resourceType": "Practitioner",
      "id": "b8d033df-fa55-4e6a-80c2-773fd3be0031",
      "identifier": [ {
        "system": "http://hl7.org/fhir/sid/us-npi",
        "value": "123456"
      } ],
      "name": [ {
        "family": "Evil",
        "prefix": [ "Dr" ]
      } ]
    },
    "request": {
      "method": "PUT",
      "url": "Practitioner/b8d033df-fa55-4e6a-80c2-773fd3be0031"
    }
  }, {
    "fullUrl": "https://madie.cms.gov/MeasureReport/86f1729f-9139-434f-8e4a-06513c32ac82",
    "resource": {
      "resourceType": "MeasureReport",
      "id": "86f1729f-9139-434f-8e4a-06513c32ac82",
      "meta": {
        "profile": [ "http://hl7.org/fhir/us/cqfmeasures/StructureDefinition/test-case-cqfm" ]
      },
      "contained": [ {
        "resourceType": "Parameters",
        "id": "98ad17e8-5e6f-4f25-83e8-d87ecb17bf60-parameters",
        "parameter": [ {
          "name": "subject",
          "valueString": "282ae3a0-a4fd-4fed-8ce9-bff3840c7ca9"
        } ]
      } ],
      "extension": [ {
        "url": "http://hl7.org/fhir/StructureDefinition/cqf-inputParameters",
        "valueReference": {
          "reference": "#98ad17e8-5e6f-4f25-83e8-d87ecb17bf60-parameters"
        }
      }, {
        "url": "http://hl7.org/fhir/us/cqfmeasures/StructureDefinition/cqfm-testCaseDescription",
        "valueMarkdown": "Patient refusal for warfarin with Task Rejected"
      } ],
      "modifierExtension": [ {
        "url": "http://hl7.org/fhir/us/cqfmeasures/StructureDefinition/cqfm-isTestCase",
        "valueBoolean": true
      } ],
      "status": "complete",
      "type": "individual",
      "measure": "https://madie.cms.gov/Measure/CMS190VTEProphylaxisICUFHIR",
      "period": {
        "start": "2026-01-01",
        "end": "2026-12-31"
      },
      "group": [ {
        "id": "Group_1",
        "population": [ {
          "id": "InitialPopulation_1",
          "code": {
            "coding": [ {
              "system": "http://terminology.hl7.org/CodeSystem/measure-population",
              "code": "initial-population",
              "display": "Initial Population"
            } ]
          },
          "count": 1
        }, {
          "id": "Denominator_1",
          "code": {
            "coding": [ {
              "system": "http://terminology.hl7.org/CodeSystem/measure-population",
              "code": "denominator",
              "display": "Denominator"
            } ]
          },
          "count": 1
        }, {
          "id": "DenominatorExclusion_1",
          "code": {
            "coding": [ {
              "system": "http://terminology.hl7.org/CodeSystem/measure-population",
              "code": "denominator-exclusion",
              "display": "Denominator Exclusion"
            } ]
          },
          "count": 0
        }, {
          "id": "Numerator_1",
          "code": {
            "coding": [ {
              "system": "http://terminology.hl7.org/CodeSystem/measure-population",
              "code": "numerator",
              "display": "Numerator"
            } ]
          },
          "count": 1
        }, {
          "id": "DenominatorException_1",
          "code": {
            "coding": [ {
              "system": "http://terminology.hl7.org/CodeSystem/measure-population",
              "code": "denominator-exception",
              "display": "Denominator Exception"
            } ]
          },
          "count": 0
        } ],
        "measureScore": {
          "value": 0.0
        }
      } ],
      "evaluatedResource": [ {
        "reference": "Patient/282ae3a0-a4fd-4fed-8ce9-bff3840c7ca9"
      }, {
        "reference": "Encounter/8ef5eba3-b385-4848-b05b-427cbe7e4c7a"
      }, {
        "reference": "Coverage/811c257b-4f33-45ac-ba91-4d58147d4d64"
      }, {
        "reference": "MedicationRequest/9c8a2a9b-6d01-45a9-9d8e-9d47f562fe3e"
      }, {
        "reference": "Task/c681c340-ec25-4ed6-9090-298a1c11a250"
      }, {
        "reference": "Location/611481e8-b1c0-483b-8f48-bc001b272f81"
      }, {
        "reference": "Organization/a27ab4f1-9723-45b8-aaf2-b048ce6eeaa9"
      }, {
        "reference": "Practitioner/b8d033df-fa55-4e6a-80c2-773fd3be0031"
      } ]
    },
    "request": {
      "method": "PUT",
      "url": "MeasureReport/86f1729f-9139-434f-8e4a-06513c32ac82"
    }
  } ]
}