{
  "resourceType": "Bundle",
  "id": "630307cf0968f8012247895d",
  "type": "transaction",
  "entry": [ {
    "fullUrl": "https://madie.cms.gov/Patient/3900270d-e047-4ecf-9b26-7bac7625b328",
    "resource": {
      "resourceType": "Patient",
      "id": "3900270d-e047-4ecf-9b26-7bac7625b328",
      "meta": {
        "profile": [ "http://hl7.org/fhir/us/qicore/StructureDefinition/qicore-patient" ]
      },
      "extension": [ {
        "url": "http://hl7.org/fhir/us/core/StructureDefinition/us-core-race",
        "extension": [ {
          "url": "ombCategory",
          "valueCoding": {
            "system": "urn:oid:2.16.840.1.113883.6.238",
            "code": "2106-3",
            "display": "White"
          }
        }, {
          "url": "text",
          "valueString": "White"
        } ]
      }, {
        "url": "http://hl7.org/fhir/us/core/StructureDefinition/us-core-ethnicity",
        "extension": [ {
          "url": "ombCategory",
          "valueCoding": {
            "system": "urn:oid:2.16.840.1.113883.6.238",
            "code": "2186-5",
            "display": "Not Hispanic or Latino"
          }
        }, {
          "url": "text",
          "valueString": "Not Hispanic or Latino"
        } ]
      } ],
      "identifier": [ {
        "type": {
          "coding": [ {
            "system": "http://terminology.hl7.org/CodeSystem/v2-0203",
            "code": "MR"
          } ]
        },
        "system": "https://bonnie-fhir.healthit.gov/",
        "value": "6546841651641616513421"
      } ],
      "name": [ {
        "family": "DENEXPopStrat1Pass",
        "given": [ "Patientis17" ]
      } ],
      "gender": "female",
      "birthDate": "2008-01-01"
    },
    "request": {
      "method": "PUT",
      "url": "Patient/3900270d-e047-4ecf-9b26-7bac7625b328"
    }
  }, {
    "fullUrl": "https://madie.cms.gov/Encounter/3b3c7f9c-75b1-4fdb-9377-ee510f6dae64",
    "resource": {
      "resourceType": "Encounter",
      "id": "3b3c7f9c-75b1-4fdb-9377-ee510f6dae64",
      "meta": {
        "profile": [ "http://hl7.org/fhir/us/qicore/StructureDefinition/qicore-encounter" ]
      },
      "status": "finished",
      "class": {
        "system": "http://terminology.hl7.org/CodeSystem/v3-ActCode",
        "code": "AMB",
        "display": "ambulatory"
      },
      "type": [ {
        "coding": [ {
          "system": "http://www.ama-assn.org/go/cpt",
          "version": "2024",
          "code": "90791",
          "display": "An integrated biopsychosocial assessment, including history, mental status, and recommendations"
        } ]
      } ],
      "subject": {
        "reference": "Patient/3900270d-e047-4ecf-9b26-7bac7625b328"
      },
      "period": {
        "start": "2025-02-25T14:30:00+00:00",
        "end": "2025-02-25T14:50:00+00:00"
      }
    },
    "request": {
      "method": "PUT",
      "url": "Encounter/3b3c7f9c-75b1-4fdb-9377-ee510f6dae64"
    }
  }, {
    "fullUrl": "https://madie.cms.gov/Condition/9da054e6-eb07-402b-a339-917653c7d2c6",
    "resource": {
      "resourceType": "Condition",
      "id": "9da054e6-eb07-402b-a339-917653c7d2c6",
      "meta": {
        "profile": [ "http://hl7.org/fhir/us/qicore/StructureDefinition/qicore-condition-problems-health-concerns" ]
      },
      "clinicalStatus": {
        "coding": [ {
          "system": "http://terminology.hl7.org/CodeSystem/condition-clinical",
          "code": "active"
        } ]
      },
      "verificationStatus": {
        "coding": [ {
          "system": "http://terminology.hl7.org/CodeSystem/condition-ver-status",
          "code": "confirmed"
        } ]
      },
      "category": [ {
        "coding": [ {
          "system": "http://terminology.hl7.org/CodeSystem/condition-category",
          "code": "problem-list-item",
          "display": "Problem List Item"
        } ]
      } ],
      "code": {
        "coding": [ {
          "system": "http://snomed.info/sct",
          "version": "http://snomed.info/sct/731000124108/version/20230901",
          "code": "15193003",
          "display": "Severe recurrent major depression with psychotic features, mood-incongruent (disorder)"
        } ],
        "text": "Severe recurrent major depression with psychotic features, mood-incongruent (disorder)"
      },
      "subject": {
        "reference": "Patient/3900270d-e047-4ecf-9b26-7bac7625b328"
      },
      "onsetDateTime": "2024-05-24T00:00:00+00:00",
      "recordedDate": "2024-05-24T00:00:00+00:00"
    },
    "request": {
      "method": "PUT",
      "url": "Condition/9da054e6-eb07-402b-a339-917653c7d2c6"
    }
  }, {
    "fullUrl": "https://madie.cms.gov/Observation/20e1f340-7d39-4d66-b62d-39e96f94496d",
    "resource": {
      "resourceType": "Observation",
      "id": "20e1f340-7d39-4d66-b62d-39e96f94496d",
      "meta": {
        "profile": [ "http://hl7.org/fhir/us/qicore/StructureDefinition/qicore-observation-screening-assessment" ]
      },
      "status": "final",
      "category": [ {
        "coding": [ {
          "system": "http://terminology.hl7.org/CodeSystem/observation-category",
          "code": "survey",
          "display": "Survey"
        } ]
      } ],
      "code": {
        "coding": [ {
          "system": "http://loinc.org",
          "version": "2.76",
          "code": "44261-6"
        } ]
      },
      "subject": {
        "reference": "Patient/3900270d-e047-4ecf-9b26-7bac7625b328"
      },
      "effectiveDateTime": "2025-02-25T14:35:00+00:00",
      "valueInteger": 10
    },
    "request": {
      "method": "PUT",
      "url": "Observation/20e1f340-7d39-4d66-b62d-39e96f94496d"
    }
  }, {
    "fullUrl": "https://madie.cms.gov/MeasureReport/59ad4fb7-41b5-4ebd-803d-f6c4368c2d32",
    "resource": {
      "resourceType": "MeasureReport",
      "id": "59ad4fb7-41b5-4ebd-803d-f6c4368c2d32",
      "meta": {
        "profile": [ "http://hl7.org/fhir/us/cqfmeasures/StructureDefinition/test-case-cqfm" ]
      },
      "contained": [ {
        "resourceType": "Parameters",
        "id": "68eb7a35-2513-4b20-8a0b-7c8e30c044f1-parameters",
        "parameter": [ {
          "name": "subject",
          "valueString": "3900270d-e047-4ecf-9b26-7bac7625b328"
        } ]
      } ],
      "extension": [ {
        "url": "http://hl7.org/fhir/StructureDefinition/cqf-inputParameters",
        "valueReference": {
          "reference": "#68eb7a35-2513-4b20-8a0b-7c8e30c044f1-parameters"
        }
      }, {
        "url": "http://hl7.org/fhir/us/cqfmeasures/StructureDefinition/cqfm-testCaseDescription",
        "valueMarkdown": "Patient is 17 years old (edge case of stratification 1). Passes IP for strat 1, fails IP for strat 2. Note: Stratification issue; see Guidance."
      } ],
      "modifierExtension": [ {
        "url": "http://hl7.org/fhir/us/cqfmeasures/StructureDefinition/cqfm-isTestCase",
        "valueBoolean": true
      } ],
      "status": "complete",
      "type": "individual",
      "measure": "https://madie.cms.gov/Measure/CMS159FHIRDepressionRemissionatTwelveMonths",
      "period": {
        "start": "2026-01-01",
        "end": "2026-12-31"
      },
      "group": [ {
        "id": "Group_1",
        "population": [ {
          "id": "InitialPopulation_1",
          "code": {
            "coding": [ {
              "system": "http://terminology.hl7.org/CodeSystem/measure-population",
              "code": "initial-population",
              "display": "Initial Population"
            } ]
          },
          "count": 1
        }, {
          "id": "Denominator_1",
          "code": {
            "coding": [ {
              "system": "http://terminology.hl7.org/CodeSystem/measure-population",
              "code": "denominator",
              "display": "Denominator"
            } ]
          },
          "count": 1
        }, {
          "id": "DenominatorExclusion_1",
          "code": {
            "coding": [ {
              "system": "http://terminology.hl7.org/CodeSystem/measure-population",
              "code": "denominator-exclusion",
              "display": "Denominator Exclusion"
            } ]
          },
          "count": 0
        }, {
          "id": "Numerator_1",
          "code": {
            "coding": [ {
              "system": "http://terminology.hl7.org/CodeSystem/measure-population",
              "code": "numerator",
              "display": "Numerator"
            } ]
          },
          "count": 0
        } ],
        "measureScore": {
          "value": 1.0
        }
      } ],
      "evaluatedResource": [ {
        "reference": "Patient/3900270d-e047-4ecf-9b26-7bac7625b328"
      }, {
        "reference": "Encounter/3b3c7f9c-75b1-4fdb-9377-ee510f6dae64"
      }, {
        "reference": "Condition/9da054e6-eb07-402b-a339-917653c7d2c6"
      }, {
        "reference": "Observation/20e1f340-7d39-4d66-b62d-39e96f94496d"
      } ]
    },
    "request": {
      "method": "PUT",
      "url": "MeasureReport/59ad4fb7-41b5-4ebd-803d-f6c4368c2d32"
    }
  } ]
}