{
  "resourceType": "Bundle",
  "id": "61168b8798086b77ef9c5ecc",
  "type": "transaction",
  "entry": [ {
    "fullUrl": "https://madie.cms.gov/Patient/28492651-41c3-4e9e-a68f-9b7836e3eca9",
    "resource": {
      "resourceType": "Patient",
      "id": "28492651-41c3-4e9e-a68f-9b7836e3eca9",
      "meta": {
        "profile": [ "http://hl7.org/fhir/us/qicore/StructureDefinition/qicore-patient" ]
      },
      "extension": [ {
        "url": "http://hl7.org/fhir/us/core/StructureDefinition/us-core-race",
        "extension": [ {
          "url": "ombCategory",
          "valueCoding": {
            "system": "urn:oid:2.16.840.1.113883.6.238",
            "code": "2106-3",
            "display": "White",
            "userSelected": true
          }
        }, {
          "url": "text",
          "valueString": "White"
        } ]
      }, {
        "url": "http://hl7.org/fhir/us/core/StructureDefinition/us-core-ethnicity",
        "extension": [ {
          "url": "ombCategory",
          "valueCoding": {
            "system": "urn:oid:2.16.840.1.113883.6.238",
            "code": "2186-5",
            "display": "Not Hispanic or Latino",
            "userSelected": true
          }
        }, {
          "url": "text",
          "valueString": "Not Hispanic or Latino"
        } ]
      } ],
      "identifier": [ {
        "type": {
          "coding": [ {
            "system": "http://terminology.hl7.org/CodeSystem/v2-0203",
            "code": "MR"
          } ]
        },
        "system": "https://myGoodHealthCare.com/",
        "value": "61168b8798086b77ef9c5ecc"
      } ],
      "active": true,
      "name": [ {
        "use": "usual",
        "family": "DENEXCEPPass",
        "given": [ "CommEdemaAbsentNotDoneMR" ]
      } ],
      "gender": "male",
      "birthDate": "1973-08-29"
    },
    "request": {
      "method": "PUT",
      "url": "Patient/28492651-41c3-4e9e-a68f-9b7836e3eca9"
    }
  }, {
    "fullUrl": "https://madie.cms.gov/Communication/6e1a5701-1a6b-4f18-856f-4e41087fa0f3",
    "resource": {
      "resourceType": "Communication",
      "id": "6e1a5701-1a6b-4f18-856f-4e41087fa0f3",
      "meta": {
        "profile": [ "http://hl7.org/fhir/us/qicore/StructureDefinition/qicore-communication" ]
      },
      "extension": [ {
        "url": "http://hl7.org/fhir/us/qicore/StructureDefinition/qicore-recorded",
        "valueDateTime": "2014-07-02T15:00:00.000+00:00"
      } ],
      "modifierExtension": [ {
        "url": "http://hl7.org/fhir/us/qicore/StructureDefinition/qicore-notDone",
        "valueBoolean": true
      }, {
        "url": "http://hl7.org/fhir/us/qicore/StructureDefinition/qicore-notDone",
        "valueBoolean": true
      } ],
      "status": "completed",
      "statusReason": {
        "coding": [ {
          "system": "http://snomed.info/sct",
          "version": "http://snomed.info/sct/731000124108/version/202303",
          "code": "183932001",
          "display": "Procedure contraindicated (situation)",
          "userSelected": true
        } ]
      },
      "subject": {
        "reference": "Patient/28492651-41c3-4e9e-a68f-9b7836e3eca9"
      },
      "sent": "2026-07-09T08:00:00.000+00:00",
      "reasonCode": [ {
        "coding": [ {
          "system": "http://snomed.info/sct",
          "version": "http://snomed.info/sct/731000124108/version/202303",
          "code": "428341000124108"
        } ]
      } ]
    },
    "request": {
      "method": "PUT",
      "url": "Communication/6e1a5701-1a6b-4f18-856f-4e41087fa0f3"
    }
  }, {
    "fullUrl": "https://madie.cms.gov/Condition/eb1ca4e4-cde3-45bd-a202-fbdd56dc9294",
    "resource": {
      "resourceType": "Condition",
      "id": "eb1ca4e4-cde3-45bd-a202-fbdd56dc9294",
      "meta": {
        "profile": [ "http://hl7.org/fhir/us/qicore/StructureDefinition/qicore-condition-problems-health-concerns" ]
      },
      "clinicalStatus": {
        "coding": [ {
          "system": "http://terminology.hl7.org/CodeSystem/condition-clinical",
          "code": "active",
          "display": "active",
          "userSelected": true
        } ]
      },
      "category": [ {
        "coding": [ {
          "system": "http://terminology.hl7.org/CodeSystem/condition-category",
          "code": "problem-list-item",
          "display": "Problem List Item"
        } ]
      } ],
      "code": {
        "coding": [ {
          "system": "http://snomed.info/sct",
          "version": "http://snomed.info/sct/731000124108/version/202303",
          "code": "193349004"
        }, {
          "system": "http://hl7.org/fhir/sid/icd-10-cm",
          "code": "E08.311"
        } ]
      },
      "subject": {
        "reference": "Patient/28492651-41c3-4e9e-a68f-9b7836e3eca9"
      },
      "onsetDateTime": "2014-07-01T15:00:00.000+00:00"
    },
    "request": {
      "method": "PUT",
      "url": "Condition/eb1ca4e4-cde3-45bd-a202-fbdd56dc9294"
    }
  }, {
    "fullUrl": "https://madie.cms.gov/Observation/d6967627-4690-4e66-a42a-eeda31cd9059",
    "resource": {
      "resourceType": "Observation",
      "id": "d6967627-4690-4e66-a42a-eeda31cd9059",
      "meta": {
        "profile": [ "http://hl7.org/fhir/us/qicore/StructureDefinition/qicore-observation-clinical-result" ]
      },
      "status": "final",
      "category": [ {
        "coding": [ {
          "system": "http://terminology.hl7.org/CodeSystem/observation-category",
          "code": "vital-signs",
          "display": "Vital Signs"
        } ]
      } ],
      "code": {
        "coding": [ {
          "system": "http://loinc.org",
          "version": "2.73",
          "code": "32451-7"
        } ]
      },
      "subject": {
        "reference": "Patient/28492651-41c3-4e9e-a68f-9b7836e3eca9"
      },
      "effectiveDateTime": "2026-07-09T08:00:00.000+00:00",
      "valueBoolean": true
    },
    "request": {
      "method": "PUT",
      "url": "Observation/d6967627-4690-4e66-a42a-eeda31cd9059"
    }
  }, {
    "fullUrl": "https://madie.cms.gov/Encounter/10d6f3b4-fcbe-4a93-adbb-bfb0a658c356",
    "resource": {
      "resourceType": "Encounter",
      "id": "10d6f3b4-fcbe-4a93-adbb-bfb0a658c356",
      "meta": {
        "profile": [ "http://hl7.org/fhir/us/qicore/StructureDefinition/qicore-encounter" ]
      },
      "status": "finished",
      "class": {
        "system": "http://terminology.hl7.org/CodeSystem/v3-ActCode",
        "code": "AMB"
      },
      "type": [ {
        "coding": [ {
          "system": "http://www.ama-assn.org/go/cpt",
          "version": "2023",
          "code": "99205"
        } ]
      } ],
      "subject": {
        "reference": "Patient/28492651-41c3-4e9e-a68f-9b7836e3eca9"
      },
      "period": {
        "start": "2026-07-02T15:00:00.000+00:00",
        "end": "2026-08-02T16:00:00.000+00:00"
      }
    },
    "request": {
      "method": "PUT",
      "url": "Encounter/10d6f3b4-fcbe-4a93-adbb-bfb0a658c356"
    }
  }, {
    "fullUrl": "https://madie.cms.gov/Communication/758b4b0f-a740-4599-a25e-ac60768c2ef7",
    "resource": {
      "resourceType": "Communication",
      "id": "758b4b0f-a740-4599-a25e-ac60768c2ef7",
      "meta": {
        "profile": [ "http://hl7.org/fhir/us/qicore/StructureDefinition/qicore-communication" ]
      },
      "status": "completed",
      "statusReason": {
        "coding": [ {
          "system": "http://snomed.info/sct",
          "version": "http://snomed.info/sct/731000124108/version/202303",
          "code": "183932001",
          "display": "Procedure contraindicated (situation)",
          "userSelected": true
        } ]
      },
      "category": [ {
        "coding": [ {
          "system": "http://snomed.info/sct",
          "version": "http://snomed.info/sct/731000124108/version/202303",
          "code": "428341000124108",
          "display": "Macular edema absent (situation)",
          "userSelected": true
        } ]
      } ],
      "sent": "2026-07-09T08:00:00.000+00:00"
    },
    "request": {
      "method": "PUT",
      "url": "Communication/758b4b0f-a740-4599-a25e-ac60768c2ef7"
    }
  }, {
    "fullUrl": "https://madie.cms.gov/MeasureReport/e89cfd20-aa99-44d5-95dc-27e607426aba",
    "resource": {
      "resourceType": "MeasureReport",
      "id": "e89cfd20-aa99-44d5-95dc-27e607426aba",
      "meta": {
        "profile": [ "http://hl7.org/fhir/us/cqfmeasures/StructureDefinition/test-case-cqfm" ]
      },
      "contained": [ {
        "resourceType": "Parameters",
        "id": "89a411ad-25b3-44b6-9cd3-4de46c38d9dc-parameters",
        "parameter": [ {
          "name": "subject",
          "valueString": "28492651-41c3-4e9e-a68f-9b7836e3eca9"
        } ]
      } ],
      "extension": [ {
        "url": "http://hl7.org/fhir/StructureDefinition/cqf-inputParameters",
        "valueReference": {
          "reference": "#89a411ad-25b3-44b6-9cd3-4de46c38d9dc-parameters"
        }
      }, {
        "url": "http://hl7.org/fhir/us/cqfmeasures/StructureDefinition/cqfm-testCaseDescription",
        "valueMarkdown": "Communication status complete"
      } ],
      "modifierExtension": [ {
        "url": "http://hl7.org/fhir/us/cqfmeasures/StructureDefinition/cqfm-isTestCase",
        "valueBoolean": true
      } ],
      "status": "complete",
      "type": "individual",
      "measure": "https://madie.cms.gov/Measure/CMS142FHIRDRCommunicationWithPhysicianManagingDiabetes",
      "period": {
        "start": "2026-01-01",
        "end": "2026-12-31"
      },
      "group": [ {
        "id": "Group_1",
        "population": [ {
          "id": "InitialPopulation_1",
          "code": {
            "coding": [ {
              "system": "http://terminology.hl7.org/CodeSystem/measure-population",
              "code": "initial-population",
              "display": "Initial Population"
            } ]
          },
          "count": 1
        }, {
          "id": "Denominator_1",
          "code": {
            "coding": [ {
              "system": "http://terminology.hl7.org/CodeSystem/measure-population",
              "code": "denominator",
              "display": "Denominator"
            } ]
          },
          "count": 1
        }, {
          "id": "Numerator_1",
          "code": {
            "coding": [ {
              "system": "http://terminology.hl7.org/CodeSystem/measure-population",
              "code": "numerator",
              "display": "Numerator"
            } ]
          },
          "count": 0
        }, {
          "id": "DenominatorException_1",
          "code": {
            "coding": [ {
              "system": "http://terminology.hl7.org/CodeSystem/measure-population",
              "code": "denominator-exception",
              "display": "Denominator Exception"
            } ]
          },
          "count": 0
        } ],
        "measureScore": {
          "value": 1.0
        }
      } ],
      "evaluatedResource": [ {
        "reference": "Patient/28492651-41c3-4e9e-a68f-9b7836e3eca9"
      }, {
        "reference": "Communication/6e1a5701-1a6b-4f18-856f-4e41087fa0f3"
      }, {
        "reference": "Condition/eb1ca4e4-cde3-45bd-a202-fbdd56dc9294"
      }, {
        "reference": "Observation/d6967627-4690-4e66-a42a-eeda31cd9059"
      }, {
        "reference": "Encounter/10d6f3b4-fcbe-4a93-adbb-bfb0a658c356"
      }, {
        "reference": "Communication/758b4b0f-a740-4599-a25e-ac60768c2ef7"
      } ]
    },
    "request": {
      "method": "PUT",
      "url": "MeasureReport/e89cfd20-aa99-44d5-95dc-27e607426aba"
    }
  } ]
}