{
  "resourceType": "Bundle",
  "id": "61168b8798086b77ef9c5ed7",
  "type": "transaction",
  "entry": [ {
    "fullUrl": "https://madie.cms.gov/Patient/380d6e3a-1fc1-474c-a8f3-8e6ba4f0dd42",
    "resource": {
      "resourceType": "Patient",
      "id": "380d6e3a-1fc1-474c-a8f3-8e6ba4f0dd42",
      "meta": {
        "profile": [ "http://hl7.org/fhir/us/qicore/StructureDefinition/qicore-patient" ]
      },
      "extension": [ {
        "url": "http://hl7.org/fhir/us/core/StructureDefinition/us-core-race",
        "extension": [ {
          "url": "ombCategory",
          "valueCoding": {
            "system": "urn:oid:2.16.840.1.113883.6.238",
            "code": "2106-3",
            "display": "White"
          }
        }, {
          "url": "detailed",
          "valueCoding": {
            "system": "urn:oid:2.16.840.1.113883.6.238",
            "code": "2036-2",
            "display": "Filipino"
          }
        }, {
          "url": "text",
          "valueString": "White"
        } ]
      }, {
        "url": "http://hl7.org/fhir/us/core/StructureDefinition/us-core-ethnicity",
        "extension": [ {
          "url": "ombCategory",
          "valueCoding": {
            "system": "urn:oid:2.16.840.1.113883.6.238",
            "code": "2186-5",
            "display": "Not Hispanic or Latino",
            "userSelected": true
          }
        }, {
          "url": "detailed",
          "valueCoding": {
            "system": "urn:oid:2.16.840.1.113883.6.238",
            "code": "1586-7",
            "display": "Shoshone"
          }
        }, {
          "url": "text",
          "valueString": "Not Hispanic or Latino"
        } ]
      } ],
      "identifier": [ {
        "type": {
          "coding": [ {
            "system": "http://terminology.hl7.org/CodeSystem/v2-0203",
            "code": "MR"
          } ]
        },
        "system": "https://bonnie-fhir.healthit.gov/",
        "value": "61168b8798086b77ef9c5ed7"
      } ],
      "active": true,
      "name": [ {
        "use": "usual",
        "family": "NUMERPass",
        "given": [ "CommEdemaAbsentAftEnc" ]
      } ],
      "gender": "female",
      "birthDate": "1923-03-24"
    },
    "request": {
      "method": "PUT",
      "url": "Patient/380d6e3a-1fc1-474c-a8f3-8e6ba4f0dd42"
    }
  }, {
    "fullUrl": "https://madie.cms.gov/Communication/8259f9b2-ce00-41bf-9de1-5e71f7ef8d80",
    "resource": {
      "resourceType": "Communication",
      "id": "8259f9b2-ce00-41bf-9de1-5e71f7ef8d80",
      "meta": {
        "profile": [ "http://hl7.org/fhir/us/qicore/StructureDefinition/qicore-communication" ]
      },
      "extension": [ {
        "url": "http://hl7.org/fhir/us/qicore/StructureDefinition/qicore-recorded",
        "valueDateTime": "2014-12-17T10:00:00.000+00:00"
      } ],
      "status": "completed",
      "category": [ {
        "coding": [ {
          "system": "http://snomed.info/sct",
          "version": "http://snomed.info/sct/731000124108/version/202303",
          "code": "312903003",
          "display": "Mild nonproliferative retinopathy due to diabetes mellitus (disorder)",
          "userSelected": true
        } ]
      } ],
      "subject": {
        "reference": "Patient/380d6e3a-1fc1-474c-a8f3-8e6ba4f0dd42"
      },
      "sent": "2026-12-17T08:00:00.000+00:00",
      "reasonCode": [ {
        "coding": [ {
          "system": "http://snomed.info/sct",
          "code": "312903003"
        } ]
      } ]
    },
    "request": {
      "method": "PUT",
      "url": "Communication/8259f9b2-ce00-41bf-9de1-5e71f7ef8d80"
    }
  }, {
    "fullUrl": "https://madie.cms.gov/Condition/15732078-e9cb-47da-b913-9cf48f9711dc",
    "resource": {
      "resourceType": "Condition",
      "id": "15732078-e9cb-47da-b913-9cf48f9711dc",
      "meta": {
        "profile": [ "http://hl7.org/fhir/us/qicore/StructureDefinition/qicore-condition-problems-health-concerns" ]
      },
      "clinicalStatus": {
        "coding": [ {
          "system": "http://terminology.hl7.org/CodeSystem/condition-clinical",
          "code": "active",
          "display": "active",
          "userSelected": true
        } ]
      },
      "category": [ {
        "coding": [ {
          "system": "http://terminology.hl7.org/CodeSystem/condition-category",
          "code": "problem-list-item",
          "display": "Problem List Item"
        } ]
      } ],
      "code": {
        "coding": [ {
          "system": "http://snomed.info/sct",
          "version": "http://snomed.info/sct/731000124108/version/202303",
          "code": "314014002"
        } ]
      },
      "subject": {
        "reference": "Patient/380d6e3a-1fc1-474c-a8f3-8e6ba4f0dd42"
      },
      "onsetDateTime": "2021-05-10T08:00:00.000+00:00"
    },
    "request": {
      "method": "PUT",
      "url": "Condition/15732078-e9cb-47da-b913-9cf48f9711dc"
    }
  }, {
    "fullUrl": "https://madie.cms.gov/Observation/f8abe1a4-4896-4d8f-a7bb-09ffab14f93f",
    "resource": {
      "resourceType": "Observation",
      "id": "f8abe1a4-4896-4d8f-a7bb-09ffab14f93f",
      "meta": {
        "profile": [ "http://hl7.org/fhir/us/qicore/StructureDefinition/qicore-observation-clinical-result" ]
      },
      "status": "final",
      "category": [ {
        "coding": [ {
          "system": "http://terminology.hl7.org/CodeSystem/observation-category",
          "code": "vital-signs",
          "display": "Vital Signs"
        } ]
      } ],
      "code": {
        "coding": [ {
          "system": "http://loinc.org",
          "version": "2.73",
          "code": "32451-7"
        } ]
      },
      "subject": {
        "reference": "Patient/380d6e3a-1fc1-474c-a8f3-8e6ba4f0dd42"
      },
      "effectiveDateTime": "2026-06-16T14:45:00.000+00:00",
      "valueBoolean": true
    },
    "request": {
      "method": "PUT",
      "url": "Observation/f8abe1a4-4896-4d8f-a7bb-09ffab14f93f"
    }
  }, {
    "fullUrl": "https://madie.cms.gov/Encounter/beadbc48-1acd-4790-b0af-8b493bcc1eb6",
    "resource": {
      "resourceType": "Encounter",
      "id": "beadbc48-1acd-4790-b0af-8b493bcc1eb6",
      "meta": {
        "profile": [ "http://hl7.org/fhir/us/qicore/StructureDefinition/qicore-encounter" ]
      },
      "status": "finished",
      "class": {
        "system": "http://terminology.hl7.org/CodeSystem/v3-ActCode",
        "code": "AMB"
      },
      "type": [ {
        "coding": [ {
          "system": "http://snomed.info/sct",
          "version": "http://snomed.info/sct/731000124108/version/202303",
          "code": "359960003"
        } ]
      } ],
      "subject": {
        "reference": "Patient/380d6e3a-1fc1-474c-a8f3-8e6ba4f0dd42"
      },
      "period": {
        "start": "2026-06-16T14:30:00.000+00:00",
        "end": "2026-06-16T15:30:00.000+00:00"
      }
    },
    "request": {
      "method": "PUT",
      "url": "Encounter/beadbc48-1acd-4790-b0af-8b493bcc1eb6"
    }
  }, {
    "fullUrl": "https://madie.cms.gov/Communication/17ec1e18-7a7a-4146-abc3-6d8e33680124",
    "resource": {
      "resourceType": "Communication",
      "id": "17ec1e18-7a7a-4146-abc3-6d8e33680124",
      "meta": {
        "profile": [ "http://hl7.org/fhir/us/qicore/StructureDefinition/qicore-communication" ]
      },
      "extension": [ {
        "url": "http://hl7.org/fhir/us/qicore/StructureDefinition/qicore-recorded",
        "valueDateTime": "2026-12-21T16:15:00.000+00:00"
      } ],
      "status": "completed",
      "category": [ {
        "coding": [ {
          "system": "http://snomed.info/sct",
          "version": "http://snomed.info/sct/731000124108/version/202303",
          "code": "193350004",
          "display": "Advanced maculopathy due to diabetes mellitus (disorder)",
          "userSelected": true
        } ]
      } ],
      "subject": {
        "reference": "Patient/380d6e3a-1fc1-474c-a8f3-8e6ba4f0dd42"
      },
      "sent": "2026-12-21T08:00:00.000+00:00",
      "reasonCode": [ {
        "coding": [ {
          "system": "http://snomed.info/sct",
          "version": "http://snomed.info/sct/731000124108/version/202303",
          "code": "428341000124108"
        } ]
      } ]
    },
    "request": {
      "method": "PUT",
      "url": "Communication/17ec1e18-7a7a-4146-abc3-6d8e33680124"
    }
  }, {
    "fullUrl": "https://madie.cms.gov/Coverage/dae732f2-2405-4641-90e6-fb2fa85cf0d7",
    "resource": {
      "resourceType": "Coverage",
      "id": "dae732f2-2405-4641-90e6-fb2fa85cf0d7",
      "meta": {
        "profile": [ "http://hl7.org/fhir/us/qicore/StructureDefinition/qicore-coverage" ]
      },
      "identifier": [ {
        "system": "http://benefitsinc.com/certificate",
        "value": "12345"
      } ],
      "status": "active",
      "type": {
        "coding": [ {
          "system": "https://nahdo.org/sopt",
          "version": "9.2",
          "code": "59",
          "display": "Other Private Insurance"
        } ]
      },
      "beneficiary": {
        "reference": "Patient/380d6e3a-1fc1-474c-a8f3-8e6ba4f0dd42"
      },
      "dependent": "0",
      "relationship": {
        "coding": [ {
          "system": "http://terminology.hl7.org/CodeSystem/subscriber-relationship",
          "code": "self"
        } ]
      },
      "period": {
        "start": "2017-05-23",
        "end": "2032-05-23"
      },
      "payor": [ {
        "reference": "Organization/6743778a-18f0-4090-b9c5-2354b087e569"
      } ],
      "order": 9
    },
    "request": {
      "method": "PUT",
      "url": "Coverage/dae732f2-2405-4641-90e6-fb2fa85cf0d7"
    }
  }, {
    "fullUrl": "https://madie.cms.gov/Organization/6743778a-18f0-4090-b9c5-2354b087e569",
    "resource": {
      "resourceType": "Organization",
      "id": "6743778a-18f0-4090-b9c5-2354b087e569",
      "meta": {
        "profile": [ "http://hl7.org/fhir/us/qicore/StructureDefinition/qicore-organization" ]
      },
      "identifier": [ {
        "use": "temp",
        "system": "http://terminology.hl7.org/NamingSystem/USEIN",
        "value": "48915164351354"
      } ],
      "active": true,
      "type": [ {
        "coding": [ {
          "system": "http://terminology.hl7.org/CodeSystem/organization-type",
          "code": "team",
          "display": "Organizational team"
        } ]
      } ],
      "name": "Good Healthcare, LLC",
      "telecom": [ {
        "system": "phone",
        "value": "(+1) 901-683-7777"
      }, {
        "system": "fax",
        "value": "(+1) 901-683-6622"
      }, {
        "system": "email",
        "value": "BetterYourHealth@GoodHealthcare.com"
      } ],
      "address": [ {
        "line": [ "3651 Wentrow Blvd, Suite 227" ],
        "city": "Germantown",
        "state": "TN",
        "postalCode": "38138",
        "country": "USA"
      } ]
    },
    "request": {
      "method": "PUT",
      "url": "Organization/6743778a-18f0-4090-b9c5-2354b087e569"
    }
  }, {
    "fullUrl": "https://madie.cms.gov/MeasureReport/0af1661f-2b24-4348-804e-bc672862d8e4",
    "resource": {
      "resourceType": "MeasureReport",
      "id": "0af1661f-2b24-4348-804e-bc672862d8e4",
      "meta": {
        "profile": [ "http://hl7.org/fhir/us/cqfmeasures/StructureDefinition/test-case-cqfm" ]
      },
      "contained": [ {
        "resourceType": "Parameters",
        "id": "bd90efb1-2243-4afd-a29e-eaf5a21182ae-parameters",
        "parameter": [ {
          "name": "subject",
          "valueString": "380d6e3a-1fc1-474c-a8f3-8e6ba4f0dd42"
        } ]
      } ],
      "extension": [ {
        "url": "http://hl7.org/fhir/StructureDefinition/cqf-inputParameters",
        "valueReference": {
          "reference": "#bd90efb1-2243-4afd-a29e-eaf5a21182ae-parameters"
        }
      }, {
        "url": "http://hl7.org/fhir/us/cqfmeasures/StructureDefinition/cqfm-testCaseDescription",
        "valueMarkdown": "Communication of Edema Absent is performed as required and will pass Numerator Criteria"
      } ],
      "modifierExtension": [ {
        "url": "http://hl7.org/fhir/us/cqfmeasures/StructureDefinition/cqfm-isTestCase",
        "valueBoolean": true
      } ],
      "status": "complete",
      "type": "individual",
      "measure": "https://madie.cms.gov/Measure/CMS142FHIRDRCommunicationWithPhysicianManagingDiabetes",
      "period": {
        "start": "2026-01-01",
        "end": "2026-12-31"
      },
      "group": [ {
        "id": "Group_1",
        "population": [ {
          "id": "InitialPopulation_1",
          "code": {
            "coding": [ {
              "system": "http://terminology.hl7.org/CodeSystem/measure-population",
              "code": "initial-population",
              "display": "Initial Population"
            } ]
          },
          "count": 1
        }, {
          "id": "Denominator_1",
          "code": {
            "coding": [ {
              "system": "http://terminology.hl7.org/CodeSystem/measure-population",
              "code": "denominator",
              "display": "Denominator"
            } ]
          },
          "count": 1
        }, {
          "id": "Numerator_1",
          "code": {
            "coding": [ {
              "system": "http://terminology.hl7.org/CodeSystem/measure-population",
              "code": "numerator",
              "display": "Numerator"
            } ]
          },
          "count": 1
        }, {
          "id": "DenominatorException_1",
          "code": {
            "coding": [ {
              "system": "http://terminology.hl7.org/CodeSystem/measure-population",
              "code": "denominator-exception",
              "display": "Denominator Exception"
            } ]
          },
          "count": 0
        } ],
        "measureScore": {
          "value": 1.0
        }
      } ],
      "evaluatedResource": [ {
        "reference": "Patient/380d6e3a-1fc1-474c-a8f3-8e6ba4f0dd42"
      }, {
        "reference": "Communication/8259f9b2-ce00-41bf-9de1-5e71f7ef8d80"
      }, {
        "reference": "Condition/15732078-e9cb-47da-b913-9cf48f9711dc"
      }, {
        "reference": "Observation/f8abe1a4-4896-4d8f-a7bb-09ffab14f93f"
      }, {
        "reference": "Encounter/beadbc48-1acd-4790-b0af-8b493bcc1eb6"
      }, {
        "reference": "Communication/17ec1e18-7a7a-4146-abc3-6d8e33680124"
      }, {
        "reference": "Coverage/dae732f2-2405-4641-90e6-fb2fa85cf0d7"
      }, {
        "reference": "Organization/6743778a-18f0-4090-b9c5-2354b087e569"
      } ]
    },
    "request": {
      "method": "PUT",
      "url": "MeasureReport/0af1661f-2b24-4348-804e-bc672862d8e4"
    }
  } ]
}