{"resourceType":"Bundle","id":"tests-54e602f1-ae48-421f-ac5f-417538ae401e-bundle","type":"transaction","entry":[{"resource":{"resourceType":"Condition","id":"fb3b0e22-2cf0-463d-ab73-1667b609d166","meta":{"profile":["http://hl7.org/fhir/us/qicore/StructureDefinition/qicore-condition-problems-health-concerns"]},"clinicalStatus":{"coding":[{"system":"http://terminology.hl7.org/CodeSystem/condition-clinical","code":"active","display":"active","userSelected":true}]},"category":[{"coding":[{"system":"http://terminology.hl7.org/CodeSystem/condition-category","code":"problem-list-item","display":"Problem List Item"}]}],"code":{"coding":[{"system":"http://snomed.info/sct","version":"http://snomed.info/sct/731000124108/version/202303","code":"314014002"}]},"subject":{"reference":"Patient/54e602f1-ae48-421f-ac5f-417538ae401e"},"onsetDateTime":"2026-01-11T11:01:00.000+00:00"},"request":{"method":"PUT","url":"Condition/fb3b0e22-2cf0-463d-ab73-1667b609d166"}},{"resource":{"resourceType":"Bundle","id":"61168b8798086b77ef9c5ec1","type":"transaction","entry":[{"fullUrl":"https://madie.cms.gov/Patient/54e602f1-ae48-421f-ac5f-417538ae401e","resource":{"resourceType":"Patient","id":"54e602f1-ae48-421f-ac5f-417538ae401e","meta":{"profile":["http://hl7.org/fhir/us/qicore/StructureDefinition/qicore-patient"]},"extension":[{"url":"http://hl7.org/fhir/us/core/StructureDefinition/us-core-race","extension":[{"url":"ombCategory","valueCoding":{"system":"urn:oid:2.16.840.1.113883.6.238","code":"2028-9","display":"Asian","userSelected":true}},{"url":"text","valueString":"Asian"}]},{"url":"http://hl7.org/fhir/us/core/StructureDefinition/us-core-ethnicity","extension":[{"url":"ombCategory","valueCoding":{"system":"urn:oid:2.16.840.1.113883.6.238","code":"2135-2","display":"Hispanic or Latino","userSelected":true}},{"url":"text","valueString":"Hispanic or Latino"}]}],"identifier":[{"type":{"coding":[{"system":"http://terminology.hl7.org/CodeSystem/v2-0203","code":"MR"}]},"system":"https://myGoodHealthcare.com/","value":"61168b8798086b77ef9c5ec1"}],"active":true,"name":[{"use":"usual","family":"IPFail","given":["DiabeticRetinopathyDx1MinAfterEncEnd"]}],"gender":"male","birthDate":"1988-01-02"},"request":{"method":"PUT","url":"Patient/54e602f1-ae48-421f-ac5f-417538ae401e"}},{"fullUrl":"https://madie.cms.gov/Condition/fb3b0e22-2cf0-463d-ab73-1667b609d166","resource":{"resourceType":"Condition","id":"fb3b0e22-2cf0-463d-ab73-1667b609d166","meta":{"profile":["http://hl7.org/fhir/us/qicore/StructureDefinition/qicore-condition-problems-health-concerns"]},"clinicalStatus":{"coding":[{"system":"http://terminology.hl7.org/CodeSystem/condition-clinical","code":"active","display":"active","userSelected":true}]},"category":[{"coding":[{"system":"http://terminology.hl7.org/CodeSystem/condition-category","code":"problem-list-item","display":"Problem List Item"}]}],"code":{"coding":[{"system":"http://snomed.info/sct","version":"http://snomed.info/sct/731000124108/version/202303","code":"314014002"}]},"subject":{"reference":"Patient/54e602f1-ae48-421f-ac5f-417538ae401e"},"onsetDateTime":"2026-01-11T11:01:00.000+00:00"},"request":{"method":"PUT","url":"Condition/fb3b0e22-2cf0-463d-ab73-1667b609d166"}},{"fullUrl":"https://madie.cms.gov/Encounter/0b8e1969-172f-428b-a37c-b310f275783c","resource":{"resourceType":"Encounter","id":"0b8e1969-172f-428b-a37c-b310f275783c","meta":{"profile":["http://hl7.org/fhir/us/qicore/StructureDefinition/qicore-encounter"]},"status":"finished","class":{"system":"http://terminology.hl7.org/CodeSystem/v3-ActCode","code":"AMB"},"type":[{"coding":[{"system":"http://snomed.info/sct","version":"http://snomed.info/sct/731000124108/version/20230301","code":"210098006","display":"Domiciliary or rest home patient evaluation and management (procedure)"}]}],"subject":{"reference":"Patient/54e602f1-ae48-421f-ac5f-417538ae401e"},"period":{"start":"2026-01-10T10:00:00.000+00:00","end":"2026-01-10T11:00:00.000+00:00"}},"request":{"method":"PUT","url":"Encounter/0b8e1969-172f-428b-a37c-b310f275783c"}},{"fullUrl":"https://madie.cms.gov/Coverage/d2bb4440-7bb9-469c-a2f3-b85c6e3f54a5","resource":{"resourceType":"Coverage","id":"d2bb4440-7bb9-469c-a2f3-b85c6e3f54a5","meta":{"profile":["http://hl7.org/fhir/us/qicore/StructureDefinition/qicore-coverage"]},"status":"active","beneficiary":{"reference":"Patient/54e602f1-ae48-421f-ac5f-417538ae401e"},"payor":[{"reference":"Organization/a682d9a8-bb2a-4a07-b448-01520816af12"}]},"request":{"method":"PUT","url":"Coverage/d2bb4440-7bb9-469c-a2f3-b85c6e3f54a5"}},{"fullUrl":"https://madie.cms.gov/Organization/a682d9a8-bb2a-4a07-b448-01520816af12","resource":{"resourceType":"Organization","id":"a682d9a8-bb2a-4a07-b448-01520816af12","meta":{"profile":["http://hl7.org/fhir/us/qicore/StructureDefinition/qicore-organization"]},"identifier":[{"use":"temp","system":"urn:oid:2.16.840.1.113883.4.4","value":"21-3259825"}],"active":true,"type":[{"coding":[{"system":"http://terminology.hl7.org/CodeSystem/organization-type","code":"pay","display":"Payer"}]}],"name":"Blue Cross Blue Shield of Texas","telecom":[{"system":"phone","value":"(+1) 972-766-6900"}],"address":[{"use":"billing","type":"postal","line":["P.O. Box 660044"],"city":"Dallas","state":"TX","postalCode":"75266-0044","country":"USA"}]},"request":{"method":"PUT","url":"Organization/a682d9a8-bb2a-4a07-b448-01520816af12"}},{"fullUrl":"https://madie.cms.gov/MeasureReport/de15a565-61e2-4906-a3c3-debf6d1ab512","resource":{"resourceType":"MeasureReport","id":"de15a565-61e2-4906-a3c3-debf6d1ab512","meta":{"profile":["http://hl7.org/fhir/us/cqfmeasures/StructureDefinition/test-case-cqfm"]},"contained":[{"resourceType":"Parameters","id":"b8ca6960-9752-45a1-b87a-8573ec9f3ccd-parameters","parameter":[{"name":"subject","valueString":"54e602f1-ae48-421f-ac5f-417538ae401e"}]}],"extension":[{"url":"http://hl7.org/fhir/StructureDefinition/cqf-inputParameters","valueReference":{"reference":"#b8ca6960-9752-45a1-b87a-8573ec9f3ccd-parameters"}},{"url":"http://hl7.org/fhir/us/cqfmeasures/StructureDefinition/cqfm-testCaseDescription","valueMarkdown":"Fails Initial Population due to Diabetic Retinopathy dx onset 1 day after end of Encounter Edge."}],"modifierExtension":[{"url":"http://hl7.org/fhir/us/cqfmeasures/StructureDefinition/cqfm-isTestCase","valueBoolean":true}],"status":"complete","type":"individual","measure":"https://madie.cms.gov/Measure/CMS142FHIRDRCommunicationWithPhysicianManagingDiabetes","period":{"start":"2026-01-01","end":"2026-12-31"},"group":[{"id":"Group_1","population":[{"id":"InitialPopulation_1","code":{"coding":[{"system":"http://terminology.hl7.org/CodeSystem/measure-population","code":"initial-population","display":"Initial Population"}]},"count":0},{"id":"Denominator_1","code":{"coding":[{"system":"http://terminology.hl7.org/CodeSystem/measure-population","code":"denominator","display":"Denominator"}]},"count":0},{"id":"Numerator_1","code":{"coding":[{"system":"http://terminology.hl7.org/CodeSystem/measure-population","code":"numerator","display":"Numerator"}]},"count":0},{"id":"DenominatorException_1","code":{"coding":[{"system":"http://terminology.hl7.org/CodeSystem/measure-population","code":"denominator-exception","display":"Denominator Exception"}]},"count":0}],"measureScore":{"value":1.0}}],"evaluatedResource":[{"reference":"Patient/54e602f1-ae48-421f-ac5f-417538ae401e"},{"reference":"Condition/fb3b0e22-2cf0-463d-ab73-1667b609d166"},{"reference":"Encounter/0b8e1969-172f-428b-a37c-b310f275783c"},{"reference":"Coverage/d2bb4440-7bb9-469c-a2f3-b85c6e3f54a5"},{"reference":"Organization/a682d9a8-bb2a-4a07-b448-01520816af12"}]},"request":{"method":"PUT","url":"MeasureReport/de15a565-61e2-4906-a3c3-debf6d1ab512"}}]},"request":{"method":"PUT","url":"Bundle/61168b8798086b77ef9c5ec1"}},{"resource":{"resourceType":"Encounter","id":"0b8e1969-172f-428b-a37c-b310f275783c","meta":{"profile":["http://hl7.org/fhir/us/qicore/StructureDefinition/qicore-encounter"]},"status":"finished","class":{"system":"http://terminology.hl7.org/CodeSystem/v3-ActCode","code":"AMB"},"type":[{"coding":[{"system":"http://snomed.info/sct","version":"http://snomed.info/sct/731000124108/version/20230301","code":"210098006","display":"Domiciliary or rest home patient evaluation and management (procedure)"}]}],"subject":{"reference":"Patient/54e602f1-ae48-421f-ac5f-417538ae401e"},"period":{"start":"2026-01-10T10:00:00.000+00:00","end":"2026-01-10T11:00:00.000+00:00"}},"request":{"method":"PUT","url":"Encounter/0b8e1969-172f-428b-a37c-b310f275783c"}},{"resource":{"resourceType":"MeasureReport","id":"de15a565-61e2-4906-a3c3-debf6d1ab512","meta":{"profile":["http://hl7.org/fhir/us/cqfmeasures/StructureDefinition/test-case-cqfm"]},"contained":[{"resourceType":"Parameters","id":"b8ca6960-9752-45a1-b87a-8573ec9f3ccd-parameters","parameter":[{"name":"subject","valueString":"54e602f1-ae48-421f-ac5f-417538ae401e"}]}],"extension":[{"url":"http://hl7.org/fhir/StructureDefinition/cqf-inputParameters","valueReference":{"reference":"#b8ca6960-9752-45a1-b87a-8573ec9f3ccd-parameters"}},{"url":"http://hl7.org/fhir/us/cqfmeasures/StructureDefinition/cqfm-testCaseDescription","valueMarkdown":"Fails Initial Population due to Diabetic Retinopathy dx onset 1 day after end of Encounter Edge."}],"modifierExtension":[{"url":"http://hl7.org/fhir/us/cqfmeasures/StructureDefinition/cqfm-isTestCase","valueBoolean":true}],"status":"complete","type":"individual","measure":"https://madie.cms.gov/Measure/CMS142FHIRDRCommunicationWithPhysicianManagingDiabetes","period":{"start":"2026-01-01","end":"2026-12-31"},"group":[{"id":"Group_1","population":[{"id":"InitialPopulation_1","code":{"coding":[{"system":"http://terminology.hl7.org/CodeSystem/measure-population","code":"initial-population","display":"Initial Population"}]},"count":0},{"id":"Denominator_1","code":{"coding":[{"system":"http://terminology.hl7.org/CodeSystem/measure-population","code":"denominator","display":"Denominator"}]},"count":0},{"id":"Numerator_1","code":{"coding":[{"system":"http://terminology.hl7.org/CodeSystem/measure-population","code":"numerator","display":"Numerator"}]},"count":0},{"id":"DenominatorException_1","code":{"coding":[{"system":"http://terminology.hl7.org/CodeSystem/measure-population","code":"denominator-exception","display":"Denominator Exception"}]},"count":0}],"measureScore":{"value":1.0}}],"evaluatedResource":[{"reference":"Patient/54e602f1-ae48-421f-ac5f-417538ae401e"},{"reference":"Condition/fb3b0e22-2cf0-463d-ab73-1667b609d166"},{"reference":"Encounter/0b8e1969-172f-428b-a37c-b310f275783c"},{"reference":"Coverage/d2bb4440-7bb9-469c-a2f3-b85c6e3f54a5"},{"reference":"Organization/a682d9a8-bb2a-4a07-b448-01520816af12"}]},"request":{"method":"PUT","url":"MeasureReport/de15a565-61e2-4906-a3c3-debf6d1ab512"}},{"resource":{"resourceType":"Organization","id":"a682d9a8-bb2a-4a07-b448-01520816af12","meta":{"profile":["http://hl7.org/fhir/us/qicore/StructureDefinition/qicore-organization"]},"identifier":[{"use":"temp","system":"urn:oid:2.16.840.1.113883.4.4","value":"21-3259825"}],"active":true,"type":[{"coding":[{"system":"http://terminology.hl7.org/CodeSystem/organization-type","code":"pay","display":"Payer"}]}],"name":"Blue Cross Blue Shield of Texas","telecom":[{"system":"phone","value":"(+1) 972-766-6900"}],"address":[{"use":"billing","type":"postal","line":["P.O. Box 660044"],"city":"Dallas","state":"TX","postalCode":"75266-0044","country":"USA"}]},"request":{"method":"PUT","url":"Organization/a682d9a8-bb2a-4a07-b448-01520816af12"}},{"resource":{"resourceType":"Coverage","id":"d2bb4440-7bb9-469c-a2f3-b85c6e3f54a5","meta":{"profile":["http://hl7.org/fhir/us/qicore/StructureDefinition/qicore-coverage"]},"status":"active","beneficiary":{"reference":"Patient/54e602f1-ae48-421f-ac5f-417538ae401e"},"payor":[{"reference":"Organization/a682d9a8-bb2a-4a07-b448-01520816af12"}]},"request":{"method":"PUT","url":"Coverage/d2bb4440-7bb9-469c-a2f3-b85c6e3f54a5"}},{"resource":{"resourceType":"Patient","id":"54e602f1-ae48-421f-ac5f-417538ae401e","meta":{"profile":["http://hl7.org/fhir/us/qicore/StructureDefinition/qicore-patient"]},"extension":[{"url":"http://hl7.org/fhir/us/core/StructureDefinition/us-core-race","extension":[{"url":"ombCategory","valueCoding":{"system":"urn:oid:2.16.840.1.113883.6.238","code":"2028-9","display":"Asian","userSelected":true}},{"url":"text","valueString":"Asian"}]},{"url":"http://hl7.org/fhir/us/core/StructureDefinition/us-core-ethnicity","extension":[{"url":"ombCategory","valueCoding":{"system":"urn:oid:2.16.840.1.113883.6.238","code":"2135-2","display":"Hispanic or Latino","userSelected":true}},{"url":"text","valueString":"Hispanic or Latino"}]}],"identifier":[{"type":{"coding":[{"system":"http://terminology.hl7.org/CodeSystem/v2-0203","code":"MR"}]},"system":"https://myGoodHealthcare.com/","value":"61168b8798086b77ef9c5ec1"}],"active":true,"name":[{"use":"usual","family":"IPFail","given":["DiabeticRetinopathyDx1MinAfterEncEnd"]}],"gender":"male","birthDate":"1988-01-02"},"request":{"method":"PUT","url":"Patient/54e602f1-ae48-421f-ac5f-417538ae401e"}}]}