{"resourceType":"Bundle","id":"tests-3835c33d-b335-44d7-a7b6-c8a0d5420290-bundle","type":"transaction","entry":[{"resource":{"resourceType":"Condition","id":"6952e0f9-f380-4150-a650-a636d8b72d4f","meta":{"profile":["http://hl7.org/fhir/us/qicore/StructureDefinition/qicore-condition-problems-health-concerns"]},"clinicalStatus":{"coding":[{"system":"http://terminology.hl7.org/CodeSystem/condition-clinical","code":"active","display":"active","userSelected":true}]},"category":[{"coding":[{"system":"http://terminology.hl7.org/CodeSystem/condition-category","code":"problem-list-item","display":"Problem List Item"}]}],"code":{"coding":[{"system":"http://snomed.info/sct","version":"http://snomed.info/sct/731000124108/version/202303","code":"314011005"}]},"subject":{"reference":"Patient/3835c33d-b335-44d7-a7b6-c8a0d5420290"},"onsetDateTime":"2026-06-27T15:00:00.000+00:00"},"request":{"method":"PUT","url":"Condition/6952e0f9-f380-4150-a650-a636d8b72d4f"}},{"resource":{"resourceType":"Patient","id":"3835c33d-b335-44d7-a7b6-c8a0d5420290","meta":{"profile":["http://hl7.org/fhir/us/qicore/StructureDefinition/qicore-patient"]},"extension":[{"url":"http://hl7.org/fhir/us/core/StructureDefinition/us-core-race","extension":[{"url":"ombCategory","valueCoding":{"system":"urn:oid:2.16.840.1.113883.6.238","code":"2106-3","display":"White","userSelected":true}},{"url":"text","valueString":"White"}]},{"url":"http://hl7.org/fhir/us/core/StructureDefinition/us-core-ethnicity","extension":[{"url":"ombCategory","valueCoding":{"system":"urn:oid:2.16.840.1.113883.6.238","code":"2186-5","display":"Not Hispanic or Latino","userSelected":true}},{"url":"text","valueString":"Not Hispanic or Latino"}]}],"identifier":[{"type":{"coding":[{"system":"http://terminology.hl7.org/CodeSystem/v2-0203","code":"MR"}]},"system":"https://bonnie-fhir.healthit.gov/","value":"61168b8798086b77ef9c5ec9"}],"active":true,"name":[{"use":"usual","family":"NUMERPass","given":["BothCommANDEdemaPresentAfterEnc"]}],"gender":"female","birthDate":"1988-05-26"},"request":{"method":"PUT","url":"Patient/3835c33d-b335-44d7-a7b6-c8a0d5420290"}},{"resource":{"resourceType":"Observation","id":"3bb6a35e-07ea-48b2-ac05-8b2178b316ec","meta":{"profile":["http://hl7.org/fhir/us/qicore/StructureDefinition/qicore-observation-clinical-result"]},"status":"final","category":[{"coding":[{"system":"http://terminology.hl7.org/CodeSystem/observation-category","code":"vital-signs","display":"Vital Signs"}]}],"code":{"coding":[{"system":"http://loinc.org","version":"2.73","code":"32451-7"}]},"subject":{"reference":"Patient/3835c33d-b335-44d7-a7b6-c8a0d5420290"},"effectiveDateTime":"2026-08-28T16:10:00.000+00:00","valueCodeableConcept":{"coding":[{"system":"http://loinc.org","version":"2.73","code":"32451-7","display":"Physical findings of Macula","userSelected":true}]}},"request":{"method":"PUT","url":"Observation/3bb6a35e-07ea-48b2-ac05-8b2178b316ec"}},{"resource":{"resourceType":"MeasureReport","id":"3f53ec32-f81d-40c2-b739-4e8583c39593","meta":{"profile":["http://hl7.org/fhir/us/cqfmeasures/StructureDefinition/test-case-cqfm"]},"contained":[{"resourceType":"Parameters","id":"f311f976-e2a6-4b6d-9af9-10792cb9f294-parameters","parameter":[{"name":"subject","valueString":"3835c33d-b335-44d7-a7b6-c8a0d5420290"}]}],"extension":[{"url":"http://hl7.org/fhir/StructureDefinition/cqf-inputParameters","valueReference":{"reference":"#f311f976-e2a6-4b6d-9af9-10792cb9f294-parameters"}},{"url":"http://hl7.org/fhir/us/cqfmeasures/StructureDefinition/cqfm-testCaseDescription","valueMarkdown":"Patient with both communications, macular edema present after start of encounter. "}],"modifierExtension":[{"url":"http://hl7.org/fhir/us/cqfmeasures/StructureDefinition/cqfm-isTestCase","valueBoolean":true}],"status":"complete","type":"individual","measure":"https://madie.cms.gov/Measure/CMS142FHIRDRCommunicationWithPhysicianManagingDiabetes","period":{"start":"2026-01-01","end":"2026-12-31"},"group":[{"id":"Group_1","population":[{"id":"InitialPopulation_1","code":{"coding":[{"system":"http://terminology.hl7.org/CodeSystem/measure-population","code":"initial-population","display":"Initial Population"}]},"count":1},{"id":"Denominator_1","code":{"coding":[{"system":"http://terminology.hl7.org/CodeSystem/measure-population","code":"denominator","display":"Denominator"}]},"count":1},{"id":"Numerator_1","code":{"coding":[{"system":"http://terminology.hl7.org/CodeSystem/measure-population","code":"numerator","display":"Numerator"}]},"count":1},{"id":"DenominatorException_1","code":{"coding":[{"system":"http://terminology.hl7.org/CodeSystem/measure-population","code":"denominator-exception","display":"Denominator Exception"}]},"count":0}],"measureScore":{"value":1.0}}],"evaluatedResource":[{"reference":"Patient/3835c33d-b335-44d7-a7b6-c8a0d5420290"},{"reference":"Communication/c046f70b-1526-4194-8347-deca75772099"},{"reference":"Communication/b5761bb0-9bab-4dfb-8924-06a65ed75b14"},{"reference":"Condition/6952e0f9-f380-4150-a650-a636d8b72d4f"},{"reference":"Observation/3bb6a35e-07ea-48b2-ac05-8b2178b316ec"},{"reference":"Encounter/c0e50b2a-a27b-4cbb-9b2c-70b796faf374"}]},"request":{"method":"PUT","url":"MeasureReport/3f53ec32-f81d-40c2-b739-4e8583c39593"}},{"resource":{"resourceType":"Encounter","id":"c0e50b2a-a27b-4cbb-9b2c-70b796faf374","meta":{"profile":["http://hl7.org/fhir/us/qicore/StructureDefinition/qicore-encounter"]},"status":"finished","class":{"system":"http://terminology.hl7.org/CodeSystem/v3-ActCode","code":"AMB"},"type":[{"coding":[{"system":"http://snomed.info/sct","version":"http://snomed.info/sct/731000124108/version/202303","code":"17436001"},{"system":"http://www.ama-assn.org/go/cpt","version":"2023","code":"99205"}]}],"subject":{"reference":"Patient/3835c33d-b335-44d7-a7b6-c8a0d5420290"},"period":{"start":"2026-06-26T16:00:00.000+00:00","end":"2026-09-28T17:00:00.000+00:00"},"length":{"value":0.0,"unit":"days"}},"request":{"method":"PUT","url":"Encounter/c0e50b2a-a27b-4cbb-9b2c-70b796faf374"}},{"resource":{"resourceType":"Bundle","id":"61168b8798086b77ef9c5ec9","type":"transaction","entry":[{"fullUrl":"https://madie.cms.gov/Patient/3835c33d-b335-44d7-a7b6-c8a0d5420290","resource":{"resourceType":"Patient","id":"3835c33d-b335-44d7-a7b6-c8a0d5420290","meta":{"profile":["http://hl7.org/fhir/us/qicore/StructureDefinition/qicore-patient"]},"extension":[{"url":"http://hl7.org/fhir/us/core/StructureDefinition/us-core-race","extension":[{"url":"ombCategory","valueCoding":{"system":"urn:oid:2.16.840.1.113883.6.238","code":"2106-3","display":"White","userSelected":true}},{"url":"text","valueString":"White"}]},{"url":"http://hl7.org/fhir/us/core/StructureDefinition/us-core-ethnicity","extension":[{"url":"ombCategory","valueCoding":{"system":"urn:oid:2.16.840.1.113883.6.238","code":"2186-5","display":"Not Hispanic or Latino","userSelected":true}},{"url":"text","valueString":"Not Hispanic or Latino"}]}],"identifier":[{"type":{"coding":[{"system":"http://terminology.hl7.org/CodeSystem/v2-0203","code":"MR"}]},"system":"https://bonnie-fhir.healthit.gov/","value":"61168b8798086b77ef9c5ec9"}],"active":true,"name":[{"use":"usual","family":"NUMERPass","given":["BothCommANDEdemaPresentAfterEnc"]}],"gender":"female","birthDate":"1988-05-26"},"request":{"method":"PUT","url":"Patient/3835c33d-b335-44d7-a7b6-c8a0d5420290"}},{"fullUrl":"https://madie.cms.gov/Communication/c046f70b-1526-4194-8347-deca75772099","resource":{"resourceType":"Communication","id":"c046f70b-1526-4194-8347-deca75772099","meta":{"profile":["http://hl7.org/fhir/us/qicore/StructureDefinition/qicore-communication"]},"extension":[{"url":"http://hl7.org/fhir/us/qicore/StructureDefinition/qicore-recorded","valueDateTime":"2026-06-26T16:15:00.000+00:00"}],"status":"completed","category":[{"coding":[{"system":"http://snomed.info/sct","version":"http://snomed.info/sct/731000124108/version/202303","code":"312903003","display":"Mild nonproliferative retinopathy due to diabetes mellitus (disorder)","userSelected":true}]}],"subject":{"reference":"Patient/3835c33d-b335-44d7-a7b6-c8a0d5420290"},"sent":"2026-06-26T16:15:00.000+00:00","reasonCode":[{"coding":[{"system":"http://snomed.info/sct","code":"312903003"}]}]},"request":{"method":"PUT","url":"Communication/c046f70b-1526-4194-8347-deca75772099"}},{"fullUrl":"https://madie.cms.gov/Communication/b5761bb0-9bab-4dfb-8924-06a65ed75b14","resource":{"resourceType":"Communication","id":"b5761bb0-9bab-4dfb-8924-06a65ed75b14","meta":{"profile":["http://hl7.org/fhir/us/qicore/StructureDefinition/qicore-communication"]},"extension":[{"url":"http://hl7.org/fhir/us/qicore/StructureDefinition/qicore-recorded","valueDateTime":"2026-12-21T16:15:00.000+00:00"}],"status":"completed","category":[{"coding":[{"system":"http://snomed.info/sct","version":"http://snomed.info/sct/731000124108/version/202303","code":"193350004","display":"Advanced maculopathy due to diabetes mellitus (disorder)","userSelected":true}]}],"subject":{"reference":"Patient/3835c33d-b335-44d7-a7b6-c8a0d5420290"},"sent":"2026-12-21T08:00:00.000+00:00","reasonCode":[{"coding":[{"system":"http://snomed.info/sct","version":"http://snomed.info/sct/731000124108/version/202303","code":"193350004"}]}]},"request":{"method":"PUT","url":"Communication/b5761bb0-9bab-4dfb-8924-06a65ed75b14"}},{"fullUrl":"https://madie.cms.gov/Condition/6952e0f9-f380-4150-a650-a636d8b72d4f","resource":{"resourceType":"Condition","id":"6952e0f9-f380-4150-a650-a636d8b72d4f","meta":{"profile":["http://hl7.org/fhir/us/qicore/StructureDefinition/qicore-condition-problems-health-concerns"]},"clinicalStatus":{"coding":[{"system":"http://terminology.hl7.org/CodeSystem/condition-clinical","code":"active","display":"active","userSelected":true}]},"category":[{"coding":[{"system":"http://terminology.hl7.org/CodeSystem/condition-category","code":"problem-list-item","display":"Problem List Item"}]}],"code":{"coding":[{"system":"http://snomed.info/sct","version":"http://snomed.info/sct/731000124108/version/202303","code":"314011005"}]},"subject":{"reference":"Patient/3835c33d-b335-44d7-a7b6-c8a0d5420290"},"onsetDateTime":"2026-06-27T15:00:00.000+00:00"},"request":{"method":"PUT","url":"Condition/6952e0f9-f380-4150-a650-a636d8b72d4f"}},{"fullUrl":"https://madie.cms.gov/Observation/3bb6a35e-07ea-48b2-ac05-8b2178b316ec","resource":{"resourceType":"Observation","id":"3bb6a35e-07ea-48b2-ac05-8b2178b316ec","meta":{"profile":["http://hl7.org/fhir/us/qicore/StructureDefinition/qicore-observation-clinical-result"]},"status":"final","category":[{"coding":[{"system":"http://terminology.hl7.org/CodeSystem/observation-category","code":"vital-signs","display":"Vital Signs"}]}],"code":{"coding":[{"system":"http://loinc.org","version":"2.73","code":"32451-7"}]},"subject":{"reference":"Patient/3835c33d-b335-44d7-a7b6-c8a0d5420290"},"effectiveDateTime":"2026-08-28T16:10:00.000+00:00","valueCodeableConcept":{"coding":[{"system":"http://loinc.org","version":"2.73","code":"32451-7","display":"Physical findings of Macula","userSelected":true}]}},"request":{"method":"PUT","url":"Observation/3bb6a35e-07ea-48b2-ac05-8b2178b316ec"}},{"fullUrl":"https://madie.cms.gov/Encounter/c0e50b2a-a27b-4cbb-9b2c-70b796faf374","resource":{"resourceType":"Encounter","id":"c0e50b2a-a27b-4cbb-9b2c-70b796faf374","meta":{"profile":["http://hl7.org/fhir/us/qicore/StructureDefinition/qicore-encounter"]},"status":"finished","class":{"system":"http://terminology.hl7.org/CodeSystem/v3-ActCode","code":"AMB"},"type":[{"coding":[{"system":"http://snomed.info/sct","version":"http://snomed.info/sct/731000124108/version/202303","code":"17436001"},{"system":"http://www.ama-assn.org/go/cpt","version":"2023","code":"99205"}]}],"subject":{"reference":"Patient/3835c33d-b335-44d7-a7b6-c8a0d5420290"},"period":{"start":"2026-06-26T16:00:00.000+00:00","end":"2026-09-28T17:00:00.000+00:00"},"length":{"value":0.0,"unit":"days"}},"request":{"method":"PUT","url":"Encounter/c0e50b2a-a27b-4cbb-9b2c-70b796faf374"}},{"fullUrl":"https://madie.cms.gov/MeasureReport/3f53ec32-f81d-40c2-b739-4e8583c39593","resource":{"resourceType":"MeasureReport","id":"3f53ec32-f81d-40c2-b739-4e8583c39593","meta":{"profile":["http://hl7.org/fhir/us/cqfmeasures/StructureDefinition/test-case-cqfm"]},"contained":[{"resourceType":"Parameters","id":"f311f976-e2a6-4b6d-9af9-10792cb9f294-parameters","parameter":[{"name":"subject","valueString":"3835c33d-b335-44d7-a7b6-c8a0d5420290"}]}],"extension":[{"url":"http://hl7.org/fhir/StructureDefinition/cqf-inputParameters","valueReference":{"reference":"#f311f976-e2a6-4b6d-9af9-10792cb9f294-parameters"}},{"url":"http://hl7.org/fhir/us/cqfmeasures/StructureDefinition/cqfm-testCaseDescription","valueMarkdown":"Patient with both communications, macular edema present after start of encounter. "}],"modifierExtension":[{"url":"http://hl7.org/fhir/us/cqfmeasures/StructureDefinition/cqfm-isTestCase","valueBoolean":true}],"status":"complete","type":"individual","measure":"https://madie.cms.gov/Measure/CMS142FHIRDRCommunicationWithPhysicianManagingDiabetes","period":{"start":"2026-01-01","end":"2026-12-31"},"group":[{"id":"Group_1","population":[{"id":"InitialPopulation_1","code":{"coding":[{"system":"http://terminology.hl7.org/CodeSystem/measure-population","code":"initial-population","display":"Initial Population"}]},"count":1},{"id":"Denominator_1","code":{"coding":[{"system":"http://terminology.hl7.org/CodeSystem/measure-population","code":"denominator","display":"Denominator"}]},"count":1},{"id":"Numerator_1","code":{"coding":[{"system":"http://terminology.hl7.org/CodeSystem/measure-population","code":"numerator","display":"Numerator"}]},"count":1},{"id":"DenominatorException_1","code":{"coding":[{"system":"http://terminology.hl7.org/CodeSystem/measure-population","code":"denominator-exception","display":"Denominator Exception"}]},"count":0}],"measureScore":{"value":1.0}}],"evaluatedResource":[{"reference":"Patient/3835c33d-b335-44d7-a7b6-c8a0d5420290"},{"reference":"Communication/c046f70b-1526-4194-8347-deca75772099"},{"reference":"Communication/b5761bb0-9bab-4dfb-8924-06a65ed75b14"},{"reference":"Condition/6952e0f9-f380-4150-a650-a636d8b72d4f"},{"reference":"Observation/3bb6a35e-07ea-48b2-ac05-8b2178b316ec"},{"reference":"Encounter/c0e50b2a-a27b-4cbb-9b2c-70b796faf374"}]},"request":{"method":"PUT","url":"MeasureReport/3f53ec32-f81d-40c2-b739-4e8583c39593"}}]},"request":{"method":"PUT","url":"Bundle/61168b8798086b77ef9c5ec9"}},{"resource":{"resourceType":"Communication","id":"b5761bb0-9bab-4dfb-8924-06a65ed75b14","meta":{"profile":["http://hl7.org/fhir/us/qicore/StructureDefinition/qicore-communication"]},"extension":[{"url":"http://hl7.org/fhir/us/qicore/StructureDefinition/qicore-recorded","valueDateTime":"2026-12-21T16:15:00.000+00:00"}],"status":"completed","category":[{"coding":[{"system":"http://snomed.info/sct","version":"http://snomed.info/sct/731000124108/version/202303","code":"193350004","display":"Advanced maculopathy due to diabetes mellitus (disorder)","userSelected":true}]}],"subject":{"reference":"Patient/3835c33d-b335-44d7-a7b6-c8a0d5420290"},"sent":"2026-12-21T08:00:00.000+00:00","reasonCode":[{"coding":[{"system":"http://snomed.info/sct","version":"http://snomed.info/sct/731000124108/version/202303","code":"193350004"}]}]},"request":{"method":"PUT","url":"Communication/b5761bb0-9bab-4dfb-8924-06a65ed75b14"}},{"resource":{"resourceType":"Communication","id":"c046f70b-1526-4194-8347-deca75772099","meta":{"profile":["http://hl7.org/fhir/us/qicore/StructureDefinition/qicore-communication"]},"extension":[{"url":"http://hl7.org/fhir/us/qicore/StructureDefinition/qicore-recorded","valueDateTime":"2026-06-26T16:15:00.000+00:00"}],"status":"completed","category":[{"coding":[{"system":"http://snomed.info/sct","version":"http://snomed.info/sct/731000124108/version/202303","code":"312903003","display":"Mild nonproliferative retinopathy due to diabetes mellitus (disorder)","userSelected":true}]}],"subject":{"reference":"Patient/3835c33d-b335-44d7-a7b6-c8a0d5420290"},"sent":"2026-06-26T16:15:00.000+00:00","reasonCode":[{"coding":[{"system":"http://snomed.info/sct","code":"312903003"}]}]},"request":{"method":"PUT","url":"Communication/c046f70b-1526-4194-8347-deca75772099"}}]}