{
  "resourceType": "Bundle",
  "id": "612e6ab302c62a011f2eafaf",
  "type": "transaction",
  "entry": [ {
    "fullUrl": "https://madie.cms.gov/Patient/4c32b73b-abba-431b-a352-f0f454e7c9dd",
    "resource": {
      "resourceType": "Patient",
      "id": "4c32b73b-abba-431b-a352-f0f454e7c9dd",
      "meta": {
        "profile": [ "http://hl7.org/fhir/us/qicore/StructureDefinition/qicore-patient" ]
      },
      "text": {
        "status": "generated",
        "div": "<div xmlns=\"http://www.w3.org/1999/xhtml\"><div class=\"hapiHeaderText\">PtRefDAIPCDuringOBS <b>NUMERPASS </b></div><table class=\"hapiPropertyTable\"><tbody><tr><td>Identifier</td><td>5f7ad5e9fc357bf072546722e2c19e60</td></tr><tr><td>Date of birth</td><td><span>02 January 1974</span></td></tr></tbody></table></div>"
      },
      "extension": [ {
        "url": "http://hl7.org/fhir/us/core/StructureDefinition/us-core-race",
        "extension": [ {
          "url": "ombCategory",
          "valueCoding": {
            "system": "urn:oid:2.16.840.1.113883.6.238",
            "code": "1002-5",
            "display": "American Indian or Alaska Native",
            "userSelected": true
          }
        }, {
          "url": "text",
          "valueString": "American Indian or Alaska Native"
        } ]
      }, {
        "url": "http://hl7.org/fhir/us/core/StructureDefinition/us-core-ethnicity",
        "extension": [ {
          "url": "ombCategory",
          "valueCoding": {
            "system": "urn:oid:2.16.840.1.113883.6.238",
            "code": "2135-2",
            "display": "Hispanic or Latino",
            "userSelected": true
          }
        }, {
          "url": "text",
          "valueString": "Hispanic or Latino"
        } ]
      } ],
      "identifier": [ {
        "type": {
          "coding": [ {
            "system": "http://terminology.hl7.org/CodeSystem/v2-0203",
            "code": "MR"
          } ]
        },
        "system": "https://bonnie-fhir.healthit.gov/",
        "value": "612e6ab302c62a011f2eafaf"
      } ],
      "active": true,
      "name": [ {
        "use": "usual",
        "family": "NUMERPass",
        "given": [ "PtRefDAIPCDuringOBS" ]
      } ],
      "gender": "male",
      "birthDate": "1975-01-02"
    },
    "request": {
      "method": "PUT",
      "url": "Patient/4c32b73b-abba-431b-a352-f0f454e7c9dd"
    }
  }, {
    "fullUrl": "https://madie.cms.gov/Encounter/a8759bf0-9475-4fa3-bd28-8b9127850362",
    "resource": {
      "resourceType": "Encounter",
      "id": "a8759bf0-9475-4fa3-bd28-8b9127850362",
      "meta": {
        "profile": [ "http://hl7.org/fhir/us/qicore/StructureDefinition/qicore-encounter" ]
      },
      "status": "finished",
      "class": {
        "system": "http://terminology.hl7.org/CodeSystem/v3-ActCode",
        "code": "OBSENC",
        "display": "observation encounter"
      },
      "type": [ {
        "coding": [ {
          "system": "http://snomed.info/sct",
          "code": "448951000124107"
        } ]
      } ],
      "subject": {
        "reference": "Patient/4c32b73b-abba-431b-a352-f0f454e7c9dd"
      },
      "period": {
        "start": "2026-10-31T05:00:00.000+00:00",
        "end": "2026-11-01T07:15:00.000+00:00"
      },
      "length": {
        "value": 1,
        "unit": "days"
      }
    },
    "request": {
      "method": "PUT",
      "url": "Encounter/a8759bf0-9475-4fa3-bd28-8b9127850362"
    }
  }, {
    "fullUrl": "https://madie.cms.gov/Encounter/775e64c3-ab22-48f6-9b4a-0de1d5802b41",
    "resource": {
      "resourceType": "Encounter",
      "id": "775e64c3-ab22-48f6-9b4a-0de1d5802b41",
      "meta": {
        "profile": [ "http://hl7.org/fhir/us/qicore/StructureDefinition/qicore-encounter" ]
      },
      "status": "finished",
      "class": {
        "system": "http://terminology.hl7.org/CodeSystem/v3-ActCode",
        "code": "IMP",
        "display": "inpatient encounter"
      },
      "type": [ {
        "coding": [ {
          "system": "http://snomed.info/sct",
          "code": "8715000"
        } ]
      } ],
      "subject": {
        "reference": "Patient/4c32b73b-abba-431b-a352-f0f454e7c9dd"
      },
      "period": {
        "start": "2026-11-01T08:00:00.000+00:00",
        "end": "2026-11-26T08:15:00.000+00:00"
      },
      "length": {
        "value": 25,
        "unit": "days"
      },
      "location": [ {
        "location": {
          "reference": "Location/9be14167-ac87-4922-bcba-8c83009d5772"
        },
        "period": {
          "start": "2026-11-01T09:00:00.000+00:00",
          "end": "2026-11-02T08:15:00.000+00:00"
        }
      } ]
    },
    "request": {
      "method": "PUT",
      "url": "Encounter/775e64c3-ab22-48f6-9b4a-0de1d5802b41"
    }
  }, {
    "fullUrl": "https://madie.cms.gov/Coverage/cfdce1ac-640a-442a-ac5d-4eb8de847609",
    "resource": {
      "resourceType": "Coverage",
      "id": "cfdce1ac-640a-442a-ac5d-4eb8de847609",
      "status": "active",
      "beneficiary": {
        "reference": "Patient/4c32b73b-abba-431b-a352-f0f454e7c9dd"
      },
      "period": {
        "start": "1975-01-02T08:00:00.000+00:00"
      },
      "payor": [ {
        "reference": "Organization/5de014d1-8ef3-43e6-bce8-37bd0c41a3ad"
      } ]
    },
    "request": {
      "method": "PUT",
      "url": "Coverage/cfdce1ac-640a-442a-ac5d-4eb8de847609"
    }
  }, {
    "fullUrl": "https://madie.cms.gov/Procedure/f3109fbd-f215-4727-a5de-fee3bbb3e0fe",
    "resource": {
      "resourceType": "Procedure",
      "id": "f3109fbd-f215-4727-a5de-fee3bbb3e0fe",
      "meta": {
        "profile": [ "http://hl7.org/fhir/us/qicore/StructureDefinition/qicore-procedurenotdone" ]
      },
      "extension": [ {
        "url": "http://hl7.org/fhir/us/qicore/StructureDefinition/qicore-recorded",
        "valueDateTime": "2026-10-31T17:00:00.000+00:00"
      } ],
      "status": "not-done",
      "statusReason": {
        "coding": [ {
          "system": "http://snomed.info/sct",
          "code": "443390004",
          "display": "Refusal of treatment by patient (situation)",
          "userSelected": true
        } ]
      },
      "code": {
        "coding": [ {
          "system": "http://snomed.info/sct",
          "version": "2025-03",
          "code": "443448006",
          "display": "Application of intermittent pneumatic compression device (procedure)",
          "userSelected": true
        } ]
      },
      "subject": {
        "reference": "Patient/4c32b73b-abba-431b-a352-f0f454e7c9dd"
      },
      "_performedDateTime": {
        "extension": [ {
          "url": "http://hl7.org/fhir/StructureDefinition/data-absent-reason",
          "valueCode": "not-performed"
        } ]
      }
    },
    "request": {
      "method": "PUT",
      "url": "Procedure/f3109fbd-f215-4727-a5de-fee3bbb3e0fe"
    }
  }, {
    "fullUrl": "https://madie.cms.gov/Location/9be14167-ac87-4922-bcba-8c83009d5772",
    "resource": {
      "resourceType": "Location",
      "id": "9be14167-ac87-4922-bcba-8c83009d5772",
      "meta": {
        "profile": [ "http://hl7.org/fhir/us/qicore/StructureDefinition/qicore-location" ]
      },
      "identifier": [ {
        "use": "usual",
        "system": "http://exampleoflocation.com",
        "value": "B1-S.F2"
      } ],
      "name": "Medical Surgical East, first floor",
      "type": [ {
        "coding": [ {
          "system": "https://www.cdc.gov/nhsn/cdaportal/terminology/codesystem/hsloc.html",
          "code": "1025-6",
          "display": "Trauma Critical Care",
          "userSelected": true
        } ]
      } ]
    },
    "request": {
      "method": "PUT",
      "url": "Location/9be14167-ac87-4922-bcba-8c83009d5772"
    }
  }, {
    "fullUrl": "https://madie.cms.gov/Organization/5de014d1-8ef3-43e6-bce8-37bd0c41a3ad",
    "resource": {
      "resourceType": "Organization",
      "id": "5de014d1-8ef3-43e6-bce8-37bd0c41a3ad",
      "meta": {
        "profile": [ "http://hl7.org/fhir/us/qicore/StructureDefinition/qicore-organization" ]
      },
      "identifier": [ {
        "use": "temp",
        "system": "urn:oid:2.16.840.1.113883.4.4",
        "value": "21-3259825"
      } ],
      "active": true,
      "type": [ {
        "coding": [ {
          "system": "http://terminology.hl7.org/CodeSystem/organization-type",
          "code": "pay",
          "display": "Payer"
        } ]
      } ],
      "name": "Blue Cross Blue Shield of Texas",
      "telecom": [ {
        "system": "phone",
        "value": "(+1) 972-766-6900"
      } ],
      "address": [ {
        "use": "billing",
        "type": "postal",
        "line": [ "P.O. Box 660044" ],
        "city": "Dallas",
        "state": "TX",
        "postalCode": "75266-0044",
        "country": "USA"
      } ]
    },
    "request": {
      "method": "PUT",
      "url": "Organization/5de014d1-8ef3-43e6-bce8-37bd0c41a3ad"
    }
  }, {
    "fullUrl": "https://madie.cms.gov/Practitioner/b4b890b8-ce06-4c45-9737-557d80bfa3e5",
    "resource": {
      "resourceType": "Practitioner",
      "id": "b4b890b8-ce06-4c45-9737-557d80bfa3e5",
      "identifier": [ {
        "system": "http://hl7.org/fhir/sid/us-npi",
        "value": "123456"
      } ],
      "name": [ {
        "family": "Evil",
        "prefix": [ "Dr" ]
      } ]
    },
    "request": {
      "method": "PUT",
      "url": "Practitioner/b4b890b8-ce06-4c45-9737-557d80bfa3e5"
    }
  }, {
    "fullUrl": "https://madie.cms.gov/MeasureReport/9d12528c-9444-45ff-a884-06098d351e6b",
    "resource": {
      "resourceType": "MeasureReport",
      "id": "9d12528c-9444-45ff-a884-06098d351e6b",
      "meta": {
        "profile": [ "http://hl7.org/fhir/us/cqfmeasures/StructureDefinition/test-case-cqfm" ]
      },
      "contained": [ {
        "resourceType": "Parameters",
        "id": "3aa8b89d-5dad-4edd-88ed-d8c2fb11fe71-parameters",
        "parameter": [ {
          "name": "subject",
          "valueString": "4c32b73b-abba-431b-a352-f0f454e7c9dd"
        } ]
      } ],
      "extension": [ {
        "url": "http://hl7.org/fhir/StructureDefinition/cqf-inputParameters",
        "valueReference": {
          "reference": "#3aa8b89d-5dad-4edd-88ed-d8c2fb11fe71-parameters"
        }
      }, {
        "url": "http://hl7.org/fhir/us/cqfmeasures/StructureDefinition/cqfm-testCaseDescription",
        "valueMarkdown": "meets IPP, meets Denominator, IPC applied not done PatRfsl a - during OBS\n"
      } ],
      "modifierExtension": [ {
        "url": "http://hl7.org/fhir/us/cqfmeasures/StructureDefinition/cqfm-isTestCase",
        "valueBoolean": true
      } ],
      "status": "complete",
      "type": "individual",
      "measure": "https://madie.cms.gov/Measure/CMS190VTEProphylaxisICUFHIR",
      "period": {
        "start": "2026-01-01",
        "end": "2026-12-31"
      },
      "group": [ {
        "id": "Group_1",
        "population": [ {
          "id": "InitialPopulation_1",
          "code": {
            "coding": [ {
              "system": "http://terminology.hl7.org/CodeSystem/measure-population",
              "code": "initial-population",
              "display": "Initial Population"
            } ]
          },
          "count": 1
        }, {
          "id": "Denominator_1",
          "code": {
            "coding": [ {
              "system": "http://terminology.hl7.org/CodeSystem/measure-population",
              "code": "denominator",
              "display": "Denominator"
            } ]
          },
          "count": 1
        }, {
          "id": "DenominatorExclusion_1",
          "code": {
            "coding": [ {
              "system": "http://terminology.hl7.org/CodeSystem/measure-population",
              "code": "denominator-exclusion",
              "display": "Denominator Exclusion"
            } ]
          },
          "count": 0
        }, {
          "id": "Numerator_1",
          "code": {
            "coding": [ {
              "system": "http://terminology.hl7.org/CodeSystem/measure-population",
              "code": "numerator",
              "display": "Numerator"
            } ]
          },
          "count": 1
        }, {
          "id": "DenominatorException_1",
          "code": {
            "coding": [ {
              "system": "http://terminology.hl7.org/CodeSystem/measure-population",
              "code": "denominator-exception",
              "display": "Denominator Exception"
            } ]
          },
          "count": 0
        } ],
        "measureScore": {
          "value": 0.0
        }
      } ],
      "evaluatedResource": [ {
        "reference": "Patient/4c32b73b-abba-431b-a352-f0f454e7c9dd"
      }, {
        "reference": "Encounter/a8759bf0-9475-4fa3-bd28-8b9127850362"
      }, {
        "reference": "Encounter/775e64c3-ab22-48f6-9b4a-0de1d5802b41"
      }, {
        "reference": "Coverage/cfdce1ac-640a-442a-ac5d-4eb8de847609"
      }, {
        "reference": "Procedure/f3109fbd-f215-4727-a5de-fee3bbb3e0fe"
      }, {
        "reference": "Location/9be14167-ac87-4922-bcba-8c83009d5772"
      }, {
        "reference": "Organization/5de014d1-8ef3-43e6-bce8-37bd0c41a3ad"
      }, {
        "reference": "Practitioner/b4b890b8-ce06-4c45-9737-557d80bfa3e5"
      } ]
    },
    "request": {
      "method": "PUT",
      "url": "MeasureReport/9d12528c-9444-45ff-a884-06098d351e6b"
    }
  } ]
}