{
  "resourceType": "Bundle",
  "id": "612e6a9302c62a011f2ea6da",
  "type": "transaction",
  "entry": [ {
    "fullUrl": "https://madie.cms.gov/Patient/e8931859-4ad8-49c8-9cdd-8697293456a2",
    "resource": {
      "resourceType": "Patient",
      "id": "e8931859-4ad8-49c8-9cdd-8697293456a2",
      "meta": {
        "profile": [ "http://hl7.org/fhir/us/qicore/StructureDefinition/qicore-patient" ]
      },
      "text": {
        "status": "generated",
        "div": "<div xmlns=\"http://www.w3.org/1999/xhtml\"><div class=\"hapiHeaderText\">MedReasonMOInjXaDAVFPDayAFAnes <b>NUMERPASS </b></div><table class=\"hapiPropertyTable\"><tbody><tr><td>Identifier</td><td>2e65528d235225a29036bb2a5e6ef1d4</td></tr><tr><td>Date of birth</td><td><span>02 January 1974</span></td></tr></tbody></table></div>"
      },
      "extension": [ {
        "url": "http://hl7.org/fhir/us/core/StructureDefinition/us-core-race",
        "extension": [ {
          "url": "ombCategory",
          "valueCoding": {
            "system": "urn:oid:2.16.840.1.113883.6.238",
            "code": "1002-5",
            "display": "American Indian or Alaska Native",
            "userSelected": true
          }
        }, {
          "url": "text",
          "valueString": "American Indian or Alaska Native"
        } ]
      }, {
        "url": "http://hl7.org/fhir/us/core/StructureDefinition/us-core-ethnicity",
        "extension": [ {
          "url": "ombCategory",
          "valueCoding": {
            "system": "urn:oid:2.16.840.1.113883.6.238",
            "code": "2135-2",
            "display": "Hispanic or Latino",
            "userSelected": true
          }
        }, {
          "url": "text",
          "valueString": "Hispanic or Latino"
        } ]
      } ],
      "identifier": [ {
        "type": {
          "coding": [ {
            "system": "http://terminology.hl7.org/CodeSystem/v2-0203",
            "code": "MR"
          } ]
        },
        "system": "https://bonnie-fhir.healthit.gov/",
        "value": "612e6a9302c62a011f2ea6da"
      } ],
      "active": true,
      "name": [ {
        "use": "usual",
        "family": "NUMERPass",
        "given": [ "MedReasonMOInjXaDAVFPDayAFAnes" ]
      } ],
      "gender": "male",
      "birthDate": "1975-01-02"
    },
    "request": {
      "method": "PUT",
      "url": "Patient/e8931859-4ad8-49c8-9cdd-8697293456a2"
    }
  }, {
    "fullUrl": "https://madie.cms.gov/Encounter/2708c8f3-90a7-4fd1-ade5-db172aaef05d",
    "resource": {
      "resourceType": "Encounter",
      "id": "2708c8f3-90a7-4fd1-ade5-db172aaef05d",
      "meta": {
        "profile": [ "http://hl7.org/fhir/us/qicore/StructureDefinition/qicore-encounter" ]
      },
      "status": "finished",
      "class": {
        "system": "http://terminology.hl7.org/CodeSystem/v3-ActCode",
        "code": "IMP",
        "display": "inpatient encounter"
      },
      "type": [ {
        "coding": [ {
          "system": "http://snomed.info/sct",
          "code": "8715000"
        } ]
      } ],
      "subject": {
        "reference": "Patient/e8931859-4ad8-49c8-9cdd-8697293456a2"
      },
      "period": {
        "start": "2026-11-01T08:00:00.000+00:00",
        "end": "2026-11-26T08:15:00.000+00:00"
      },
      "length": {
        "value": 25,
        "unit": "days"
      },
      "location": [ {
        "location": {
          "reference": "Location/adce148a-317e-4ec6-b1a3-16af8c7a69f7"
        },
        "period": {
          "start": "2026-11-01T09:00:00.000+00:00",
          "end": "2026-11-02T08:15:00.000+00:00"
        }
      } ]
    },
    "request": {
      "method": "PUT",
      "url": "Encounter/2708c8f3-90a7-4fd1-ade5-db172aaef05d"
    }
  }, {
    "fullUrl": "https://madie.cms.gov/Coverage/8ae802f0-cc23-4c61-8891-088bfe46cd10",
    "resource": {
      "resourceType": "Coverage",
      "id": "8ae802f0-cc23-4c61-8891-088bfe46cd10",
      "status": "active",
      "beneficiary": {
        "reference": "Patient/e8931859-4ad8-49c8-9cdd-8697293456a2"
      },
      "period": {
        "start": "1975-01-02T08:00:00.000+00:00"
      },
      "payor": [ {
        "reference": "Organization/17960d43-2a29-4c42-91be-35971e3fa173"
      } ]
    },
    "request": {
      "method": "PUT",
      "url": "Coverage/8ae802f0-cc23-4c61-8891-088bfe46cd10"
    }
  }, {
    "fullUrl": "https://madie.cms.gov/Procedure/bbf0d990-cae9-423a-8d75-1ed3965ce01f",
    "resource": {
      "resourceType": "Procedure",
      "id": "bbf0d990-cae9-423a-8d75-1ed3965ce01f",
      "meta": {
        "profile": [ "http://hl7.org/fhir/us/qicore/StructureDefinition/qicore-procedurenotdone" ]
      },
      "extension": [ {
        "url": "http://hl7.org/fhir/us/qicore/StructureDefinition/qicore-recorded",
        "valueDateTime": "2026-11-03T11:35:00.000+00:00"
      } ],
      "status": "not-done",
      "statusReason": {
        "coding": [ {
          "system": "http://snomed.info/sct",
          "code": "183932001",
          "display": "Procedure contraindicated (situation)",
          "userSelected": true
        } ]
      },
      "code": {
        "coding": [ {
          "system": "http://snomed.info/sct",
          "code": "424831005",
          "display": "Application of foot pump (procedure)",
          "userSelected": true
        } ]
      },
      "subject": {
        "reference": "Patient/e8931859-4ad8-49c8-9cdd-8697293456a2"
      },
      "_performedDateTime": {
        "extension": [ {
          "url": "http://hl7.org/fhir/StructureDefinition/data-absent-reason",
          "valueCode": "not-performed"
        } ]
      }
    },
    "request": {
      "method": "PUT",
      "url": "Procedure/bbf0d990-cae9-423a-8d75-1ed3965ce01f"
    }
  }, {
    "fullUrl": "https://madie.cms.gov/MedicationRequest/7bf4e8a1-9335-4569-abe6-8d68e549bcd4",
    "resource": {
      "resourceType": "MedicationRequest",
      "id": "7bf4e8a1-9335-4569-abe6-8d68e549bcd4",
      "meta": {
        "profile": [ "http://hl7.org/fhir/us/qicore/StructureDefinition/qicore-medicationnotrequested" ]
      },
      "status": "completed",
      "intent": "order",
      "category": [ {
        "coding": [ {
          "system": "http://terminology.hl7.org/CodeSystem/medicationrequest-category",
          "code": "community"
        } ]
      } ],
      "doNotPerform": true,
      "medicationCodeableConcept": {
        "coding": [ {
          "system": "http://www.nlm.nih.gov/research/umls/rxnorm",
          "code": "861363"
        } ]
      },
      "subject": {
        "reference": "Patient/e8931859-4ad8-49c8-9cdd-8697293456a2"
      },
      "authoredOn": "2026-11-03T09:00:00.000+00:00",
      "requester": {
        "reference": "Practitioner/123456"
      },
      "reasonCode": [ {
        "coding": [ {
          "system": "http://snomed.info/sct",
          "code": "183932001",
          "display": "Procedure contraindicated (situation)",
          "userSelected": true
        } ]
      } ],
      "dosageInstruction": [ {
        "timing": {
          "repeat": {
            "boundsPeriod": {
              "start": "2026-11-03T09:00:00.000+00:00"
            }
          }
        }
      } ]
    },
    "request": {
      "method": "PUT",
      "url": "MedicationRequest/7bf4e8a1-9335-4569-abe6-8d68e549bcd4"
    }
  }, {
    "fullUrl": "https://madie.cms.gov/Procedure/9eec2f7b-6125-4577-9894-5bc592b050a9",
    "resource": {
      "resourceType": "Procedure",
      "id": "9eec2f7b-6125-4577-9894-5bc592b050a9",
      "meta": {
        "profile": [ "http://hl7.org/fhir/us/qicore/StructureDefinition/qicore-procedure" ]
      },
      "extension": [ {
        "url": "http://hl7.org/fhir/us/qicore/StructureDefinition/qicore-recorded",
        "valueDateTime": "2013-11-04T13:35:00.000+00:00"
      } ],
      "status": "completed",
      "code": {
        "coding": [ {
          "system": "http://snomed.info/sct",
          "code": "18946005"
        } ]
      },
      "subject": {
        "reference": "Patient/e8931859-4ad8-49c8-9cdd-8697293456a2"
      },
      "performedPeriod": {
        "start": "2026-11-02T09:00:00.000+00:00",
        "end": "2026-11-02T09:15:00.000+00:00"
      }
    },
    "request": {
      "method": "PUT",
      "url": "Procedure/9eec2f7b-6125-4577-9894-5bc592b050a9"
    }
  }, {
    "fullUrl": "https://madie.cms.gov/Location/adce148a-317e-4ec6-b1a3-16af8c7a69f7",
    "resource": {
      "resourceType": "Location",
      "id": "adce148a-317e-4ec6-b1a3-16af8c7a69f7",
      "meta": {
        "profile": [ "http://hl7.org/fhir/us/qicore/StructureDefinition/qicore-location" ]
      },
      "identifier": [ {
        "use": "usual",
        "system": "http://exampleoflocation.com",
        "value": "B1-S.F2"
      } ],
      "name": "Medical Surgical East, first floor",
      "type": [ {
        "coding": [ {
          "system": "https://www.cdc.gov/nhsn/cdaportal/terminology/codesystem/hsloc.html",
          "code": "1025-6",
          "display": "Trauma Critical Care",
          "userSelected": true
        } ]
      } ]
    },
    "request": {
      "method": "PUT",
      "url": "Location/adce148a-317e-4ec6-b1a3-16af8c7a69f7"
    }
  }, {
    "fullUrl": "https://madie.cms.gov/Organization/17960d43-2a29-4c42-91be-35971e3fa173",
    "resource": {
      "resourceType": "Organization",
      "id": "17960d43-2a29-4c42-91be-35971e3fa173",
      "meta": {
        "profile": [ "http://hl7.org/fhir/us/qicore/StructureDefinition/qicore-organization" ]
      },
      "identifier": [ {
        "use": "temp",
        "system": "urn:oid:2.16.840.1.113883.4.4",
        "value": "21-3259825"
      } ],
      "active": true,
      "type": [ {
        "coding": [ {
          "system": "http://terminology.hl7.org/CodeSystem/organization-type",
          "code": "pay",
          "display": "Payer"
        } ]
      } ],
      "name": "Blue Cross Blue Shield of Texas",
      "telecom": [ {
        "system": "phone",
        "value": "(+1) 972-766-6900"
      } ],
      "address": [ {
        "use": "billing",
        "type": "postal",
        "line": [ "P.O. Box 660044" ],
        "city": "Dallas",
        "state": "TX",
        "postalCode": "75266-0044",
        "country": "USA"
      } ]
    },
    "request": {
      "method": "PUT",
      "url": "Organization/17960d43-2a29-4c42-91be-35971e3fa173"
    }
  }, {
    "fullUrl": "https://madie.cms.gov/Practitioner/669862ce-1b22-4109-b652-e1454aa82d12",
    "resource": {
      "resourceType": "Practitioner",
      "id": "669862ce-1b22-4109-b652-e1454aa82d12",
      "identifier": [ {
        "system": "http://hl7.org/fhir/sid/us-npi",
        "value": "123456"
      } ],
      "name": [ {
        "family": "Evil",
        "prefix": [ "Dr" ]
      } ]
    },
    "request": {
      "method": "PUT",
      "url": "Practitioner/669862ce-1b22-4109-b652-e1454aa82d12"
    }
  }, {
    "fullUrl": "https://madie.cms.gov/MeasureReport/30f3f963-1b26-4d9b-ac72-c8b8ff166823",
    "resource": {
      "resourceType": "MeasureReport",
      "id": "30f3f963-1b26-4d9b-ac72-c8b8ff166823",
      "meta": {
        "profile": [ "http://hl7.org/fhir/us/cqfmeasures/StructureDefinition/test-case-cqfm" ]
      },
      "contained": [ {
        "resourceType": "Parameters",
        "id": "538a0afc-5684-489c-89da-dc089a0133b9-parameters",
        "parameter": [ {
          "name": "subject",
          "valueString": "e8931859-4ad8-49c8-9cdd-8697293456a2"
        } ]
      } ],
      "extension": [ {
        "url": "http://hl7.org/fhir/StructureDefinition/cqf-inputParameters",
        "valueReference": {
          "reference": "#538a0afc-5684-489c-89da-dc089a0133b9-parameters"
        }
      }, {
        "url": "http://hl7.org/fhir/us/cqfmeasures/StructureDefinition/cqfm-testCaseDescription",
        "valueMarkdown": "Injection Factor Xa and VFP  not done dt medical reason on day after neuraxial anesthesia end\n"
      } ],
      "modifierExtension": [ {
        "url": "http://hl7.org/fhir/us/cqfmeasures/StructureDefinition/cqfm-isTestCase",
        "valueBoolean": true
      } ],
      "status": "complete",
      "type": "individual",
      "measure": "https://madie.cms.gov/Measure/CMS190VTEProphylaxisICUFHIR",
      "period": {
        "start": "2026-01-01",
        "end": "2026-12-31"
      },
      "group": [ {
        "id": "Group_1",
        "population": [ {
          "id": "InitialPopulation_1",
          "code": {
            "coding": [ {
              "system": "http://terminology.hl7.org/CodeSystem/measure-population",
              "code": "initial-population",
              "display": "Initial Population"
            } ]
          },
          "count": 1
        }, {
          "id": "Denominator_1",
          "code": {
            "coding": [ {
              "system": "http://terminology.hl7.org/CodeSystem/measure-population",
              "code": "denominator",
              "display": "Denominator"
            } ]
          },
          "count": 1
        }, {
          "id": "DenominatorExclusion_1",
          "code": {
            "coding": [ {
              "system": "http://terminology.hl7.org/CodeSystem/measure-population",
              "code": "denominator-exclusion",
              "display": "Denominator Exclusion"
            } ]
          },
          "count": 0
        }, {
          "id": "Numerator_1",
          "code": {
            "coding": [ {
              "system": "http://terminology.hl7.org/CodeSystem/measure-population",
              "code": "numerator",
              "display": "Numerator"
            } ]
          },
          "count": 1
        }, {
          "id": "DenominatorException_1",
          "code": {
            "coding": [ {
              "system": "http://terminology.hl7.org/CodeSystem/measure-population",
              "code": "denominator-exception",
              "display": "Denominator Exception"
            } ]
          },
          "count": 0
        } ],
        "measureScore": {
          "value": 0.0
        }
      } ],
      "evaluatedResource": [ {
        "reference": "Patient/e8931859-4ad8-49c8-9cdd-8697293456a2"
      }, {
        "reference": "Encounter/2708c8f3-90a7-4fd1-ade5-db172aaef05d"
      }, {
        "reference": "Coverage/8ae802f0-cc23-4c61-8891-088bfe46cd10"
      }, {
        "reference": "Procedure/bbf0d990-cae9-423a-8d75-1ed3965ce01f"
      }, {
        "reference": "MedicationRequest/7bf4e8a1-9335-4569-abe6-8d68e549bcd4"
      }, {
        "reference": "Procedure/9eec2f7b-6125-4577-9894-5bc592b050a9"
      }, {
        "reference": "Location/adce148a-317e-4ec6-b1a3-16af8c7a69f7"
      }, {
        "reference": "Organization/17960d43-2a29-4c42-91be-35971e3fa173"
      }, {
        "reference": "Practitioner/669862ce-1b22-4109-b652-e1454aa82d12"
      } ]
    },
    "request": {
      "method": "PUT",
      "url": "MeasureReport/30f3f963-1b26-4d9b-ac72-c8b8ff166823"
    }
  } ]
}