{"resourceType":"Bundle","id":"CMS826FHIRHHPI-bundle","type":"transaction","entry":[{"resource":{"resourceType":"Claim","id":"5a2d7562-1dad-4183-8ad7-d1d24e84b2fc","meta":{"profile":["http://hl7.org/fhir/us/qicore/StructureDefinition/qicore-claim"]},"status":"active","type":{"coding":[{"system":"http://terminology.hl7.org/CodeSystem/claim-type","code":"professional"}]},"use":"claim","patient":{"reference":"Patient/6e5ce204-2257-40d5-a356-13614de68783"},"created":"2026-05-16","priority":{"coding":[{"system":"http://terminology.hl7.org/CodeSystem/processpriority","code":"normal"}]},"diagnosis":[{"sequence":1,"diagnosisCodeableConcept":{"coding":[{"system":"http://hl7.org/fhir/sid/icd-10-cm","code":"L89.006","display":"Pressure-induced deep tissue damage of unspecified elbow"}]},"type":[{"coding":[{"system":"http://terminology.hl7.org/CodeSystem/ex-diagnosistype","code":"principal"}]}],"onAdmission":{"coding":[{"system":"https://www.cms.gov/Medicare/Medicare-Fee-for-Service-Payment/HospitalAcqCond/Coding","code":"N"}]}}],"item":[{"sequence":1,"diagnosisSequence":[1,5,7],"productOrService":{"coding":[{"system":"http://example.org/fhir/CodeSystem/ex-professionalservice","code":"anesthesia"}]},"servicedDate":"2026-04-11","encounter":[{"reference":"Encounter/d1cdbfba-4609-4d19-8255-58e6970f487d"}]}]},"request":{"method":"PUT","url":"Claim/5a2d7562-1dad-4183-8ad7-d1d24e84b2fc"}},{"resource":{"resourceType":"MeasureReport","id":"2bce8791-d54e-4285-ac10-38a3159f935e","meta":{"profile":["http://hl7.org/fhir/us/cqfmeasures/StructureDefinition/test-case-cqfm"]},"contained":[{"resourceType":"Parameters","id":"df0871f0-051c-4b6a-a64a-c58fee97f9ff-parameters","parameter":[{"name":"subject","valueString":"f43f3deb-0762-48f6-a8c5-81303d6cd681"}]}],"extension":[{"url":"http://hl7.org/fhir/StructureDefinition/cqf-inputParameters","valueReference":{"reference":"#df0871f0-051c-4b6a-a64a-c58fee97f9ff-parameters"}},{"url":"http://hl7.org/fhir/us/cqfmeasures/StructureDefinition/cqfm-testCaseDescription","valueMarkdown":"Inpatient encounter during MP. DTI present on Admission = Y, Denex pass"}],"modifierExtension":[{"url":"http://hl7.org/fhir/us/cqfmeasures/StructureDefinition/cqfm-isTestCase","valueBoolean":true}],"status":"complete","type":"individual","measure":"https://madie.cms.gov/Measure/CMS826FHIRHHPI","period":{"start":"2026-01-01","end":"2026-12-31"},"group":[{"id":"Group_1","population":[{"id":"InitialPopulation_1","code":{"coding":[{"system":"http://terminology.hl7.org/CodeSystem/measure-population","code":"initial-population","display":"Initial Population"}]},"count":1},{"id":"Denominator_1","code":{"coding":[{"system":"http://terminology.hl7.org/CodeSystem/measure-population","code":"denominator","display":"Denominator"}]},"count":1},{"id":"DenominatorExclusion_1","code":{"coding":[{"system":"http://terminology.hl7.org/CodeSystem/measure-population","code":"denominator-exclusion","display":"Denominator Exclusion"}]},"count":1},{"id":"Numerator_1","code":{"coding":[{"system":"http://terminology.hl7.org/CodeSystem/measure-population","code":"numerator","display":"Numerator"}]},"count":0}],"measureScore":{"value":0.0}}],"evaluatedResource":[{"reference":"Patient/f43f3deb-0762-48f6-a8c5-81303d6cd681"},{"reference":"Encounter/07de6cfc-c342-409f-b2ee-28f4cd921c19"},{"reference":"Encounter/e48782d2-aae4-46f5-96d3-d333220debca"},{"reference":"Claim/37615af0-5c15-4230-95e5-08b360b6a8db"}]},"request":{"method":"PUT","url":"MeasureReport/2bce8791-d54e-4285-ac10-38a3159f935e"}},{"resource":{"resourceType":"Claim","id":"0a25fe7f-1042-483b-becb-d98a2095141a","meta":{"profile":["http://hl7.org/fhir/us/qicore/StructureDefinition/qicore-claim"]},"status":"active","type":{"coding":[{"system":"http://terminology.hl7.org/CodeSystem/claim-type","code":"professional"}]},"use":"claim","patient":{"reference":"Patient/865b3218-9d2a-4512-b76e-ed70c25324e6"},"created":"2026-05-16","priority":{"coding":[{"system":"http://terminology.hl7.org/CodeSystem/processpriority","code":"normal"}]},"diagnosis":[{"sequence":1,"diagnosisCodeableConcept":{"coding":[{"system":"http://hl7.org/fhir/sid/icd-10-cm","code":"L89.000","display":"Pressure ulcer of unspecified elbow, unstageable"}]},"type":[{"coding":[{"system":"http://terminology.hl7.org/CodeSystem/ex-diagnosistype","code":"principal"}]}],"onAdmission":{"coding":[{"system":"https://www.cms.gov/Medicare/Medicare-Fee-for-Service-Payment/HospitalAcqCond/Coding","code":"Y"}]}}],"item":[{"sequence":1,"diagnosisSequence":[1,5,7],"productOrService":{"coding":[{"system":"http://example.org/fhir/CodeSystem/ex-professionalservice","code":"anesthesia"}]},"servicedDate":"2026-04-11","encounter":[{"reference":"Encounter/2984e680-7ebf-4aa5-a8df-8bdc33314341"}]}]},"request":{"method":"PUT","url":"Claim/0a25fe7f-1042-483b-becb-d98a2095141a"}},{"resource":{"resourceType":"Encounter","id":"ed611f2d-0a89-4e5d-a9ad-73704e1ca23f","meta":{"profile":["http://hl7.org/fhir/us/qicore/StructureDefinition/qicore-encounter"]},"status":"finished","class":{"system":"http://terminology.hl7.org/CodeSystem/v3-ActCode","code":"IMP","display":"inpatient encounter"},"type":[{"coding":[{"system":"http://snomed.info/sct","version":"2022-09","code":"183452005","display":"Emergency hospital admission (procedure)","userSelected":true}]}],"subject":{"reference":"Patient/7f0a0909-3618-4bea-899e-0a12c8aed445"},"period":{"start":"2026-02-01T08:30:00.000+00:00","end":"2026-02-06T08:15:00.000+00:00"}},"request":{"method":"PUT","url":"Encounter/ed611f2d-0a89-4e5d-a9ad-73704e1ca23f"}},{"resource":{"resourceType":"Observation","id":"d1189b82-c7fc-4442-a92d-3b677cbcfa47","meta":{"profile":["http://hl7.org/fhir/us/qicore/StructureDefinition/qicore-observation-clinical-result"]},"status":"final","category":[{"coding":[{"system":"http://terminology.hl7.org/CodeSystem/observation-category","code":"exam","display":"Exam"}]}],"code":{"coding":[{"system":"http://loinc.org","code":"8709-8","display":"Physical findings of Skin","userSelected":true}]},"subject":{"reference":"Patient/73c1a7c6-2bcf-4e6d-b913-9125137da33a"},"effectiveDateTime":"2026-03-20T08:00:00.000+00:00","valueCodeableConcept":{"coding":[{"system":"http://loinc.org","version":"2.76","code":"54579-8","display":"Pressure injuries - unstageable due to non-removable dressing"}]}},"request":{"method":"PUT","url":"Observation/d1189b82-c7fc-4442-a92d-3b677cbcfa47"}},{"resource":{"resourceType":"Library","id":"CMS826FHIRHHPI","meta":{"profile":["http://hl7.org/fhir/uv/crmi/StructureDefinition/crmi-shareablelibrary","http://hl7.org/fhir/uv/crmi/StructureDefinition/crmi-computablelibrary","http://hl7.org/fhir/uv/crmi/StructureDefinition/crmi-publishablelibrary","http://hl7.org/fhir/uv/crmi/StructureDefinition/crmi-executablelibrary","http://hl7.org/fhir/uv/cql/StructureDefinition/cql-library","http://hl7.org/fhir/uv/cql/StructureDefinition/elm-json-library","http://hl7.org/fhir/uv/cql/StructureDefinition/elm-xml-library"]},"language":"en","text":{"status":"extensions","div":"<div xmlns=\"http://www.w3.org/1999/xhtml\" class=\"col-12\">  \n         <table xmlns=\"null\" class=\"narrative-table\"> \n            <tbody xmlns=\"http://www.w3.org/1999/xhtml\"> \n               <tr> \n                  <th colspan=\"2\" scope=\"row\" class=\"row-header\">Knowledge Artifact Metadata</th> \n               </tr> \n               <tr> \n                  <th scope=\"row\" class=\"row-header\">Name (machine-readable)</th> \n                  <td class=\"content-container\">CMS826FHIRHHPI</td> \n               </tr> \n               <tr> \n                  <th scope=\"row\" class=\"row-header\">Title (human-readable)</th> \n                  <td class=\"content-container\">CMS826FHIRHHPI</td> \n               </tr> \n               <tr> \n                  <th scope=\"row\" class=\"row-header\">Status</th> \n                  <td class=\"content-container\">active</td> \n               </tr> \n               <tr> \n                  <th scope=\"row\" class=\"row-header\">Experimental</th> \n                  <td class=\"content-container\">false</td> \n               </tr> \n               <tr> \n                  <th scope=\"row\" class=\"row-header\">Description</th> \n                  <td class=\"content-container\">CMS826FHIRHHPI</td> \n               </tr> \n               <tr> \n                  <th scope=\"row\" class=\"row-header\">Library Steward</th> \n                  <td class=\"content-container\">Centers for Medicare &amp; Medicaid Services (CMS)</td> \n               </tr> \n               <tr> \n                  <th scope=\"row\" class=\"row-header\">Dependency</th> \n                  <td class=\"content-container\"> \n                     <em>Description</em>: Library SDE \n                     <br/> \n                     <em>Resource</em>: https://madie.cms.gov/Library/SupplementalDataElements|5.1.000 \n                     <br/> \n                     <em>Canonical URL</em>: \n                     <tt>https://madie.cms.gov/Library/SupplementalDataElements|5.1.000</tt> \n                  </td> \n               </tr> \n               <tr> \n                  <th scope=\"row\" class=\"row-header\">Dependency</th> \n                  <td class=\"content-container\"> \n                     <em>Description</em>: Library FHIRHelpers \n                     <br/> \n                     <em>Resource</em>: https://madie.cms.gov/Library/FHIRHelpers|4.4.000 \n                     <br/> \n                     <em>Canonical URL</em>: \n                     <tt>https://madie.cms.gov/Library/FHIRHelpers|4.4.000</tt> \n                  </td> \n               </tr> \n               <tr> \n                  <th scope=\"row\" class=\"row-header\">Dependency</th> \n                  <td class=\"content-container\"> \n                     <em>Description</em>: Library CQMCommon \n                     <br/> \n                     <em>Resource</em>: https://madie.cms.gov/Library/CQMCommon|4.1.000 \n                     <br/> \n                     <em>Canonical URL</em>: \n                     <tt>https://madie.cms.gov/Library/CQMCommon|4.1.000</tt> \n                  </td> \n               </tr> \n               <tr> \n                  <th scope=\"row\" class=\"row-header\">Dependency</th> \n                  <td class=\"content-container\"> \n                     <em>Description</em>: Library QICoreCommon \n                     <br/> \n                     <em>Resource</em>: https://madie.cms.gov/Library/QICoreCommon|4.0.000 \n                     <br/> \n                     <em>Canonical URL</em>: \n                     <tt>https://madie.cms.gov/Library/QICoreCommon|4.0.000</tt> \n                  </td> \n               </tr> \n               <tr> \n                  <th scope=\"row\" class=\"row-header\">Dependency</th> \n                  <td class=\"content-container\"> \n                     <em>Description</em>: Code system LOINC \n                     <br/> \n                     <em>Resource</em>: http://loinc.org \n                     <br/> \n                     <em>Canonical URL</em>: \n                     <tt>http://loinc.org</tt> \n                  </td> \n               </tr> \n               <tr> \n                  <th scope=\"row\" class=\"row-header\">Dependency</th> \n                  <td class=\"content-container\"> \n                     <em>Description</em>: Value set Encounter Inpatient \n                     <br/> \n                     <em>Resource</em>: http://cts.nlm.nih.gov/fhir/ValueSet/2.16.840.1.113883.3.666.5.307 \n                     <br/> \n                     <em>Canonical URL</em>: \n                     <tt>http://cts.nlm.nih.gov/fhir/ValueSet/2.16.840.1.113883.3.666.5.307</tt> \n                  </td> \n               </tr> \n               <tr> \n                  <th scope=\"row\" class=\"row-header\">Dependency</th> \n                  <td class=\"content-container\"> \n                     <em>Description</em>: Value set Pressure Injury Deep Tissue Diagnoses \n                     <br/> \n                     <em>Resource</em>: http://cts.nlm.nih.gov/fhir/ValueSet/2.16.840.1.113762.1.4.1147.194 \n                     <br/> \n                     <em>Canonical URL</em>: \n                     <tt>http://cts.nlm.nih.gov/fhir/ValueSet/2.16.840.1.113762.1.4.1147.194</tt> \n                  </td> \n               </tr> \n               <tr> \n                  <th scope=\"row\" class=\"row-header\">Dependency</th> \n                  <td class=\"content-container\"> \n                     <em>Description</em>: Value set Not Present On Admission or Documentation Insufficient to Determine \n                     <br/> \n                     <em>Resource</em>: http://cts.nlm.nih.gov/fhir/ValueSet/2.16.840.1.113762.1.4.1147.198 \n                     <br/> \n                     <em>Canonical URL</em>: \n                     <tt>http://cts.nlm.nih.gov/fhir/ValueSet/2.16.840.1.113762.1.4.1147.198</tt> \n                  </td> \n               </tr> \n               <tr> \n                  <th scope=\"row\" class=\"row-header\">Dependency</th> \n                  <td class=\"content-container\"> \n                     <em>Description</em>: Value set Pressure Injury Stage 2, 3, 4 or Unstageable \n                     <br/> \n                     <em>Resource</em>: http://cts.nlm.nih.gov/fhir/ValueSet/2.16.840.1.113762.1.4.1147.113 \n                     <br/> \n                     <em>Canonical URL</em>: \n                     <tt>http://cts.nlm.nih.gov/fhir/ValueSet/2.16.840.1.113762.1.4.1147.113</tt> \n                  </td> \n               </tr> \n               <tr> \n                  <th scope=\"row\" class=\"row-header\">Dependency</th> \n                  <td class=\"content-container\"> \n                     <em>Description</em>: Value set Pressure Injury Stage 2, 3, 4, or Unstageable Diagnoses \n                     <br/> \n                     <em>Resource</em>: http://cts.nlm.nih.gov/fhir/ValueSet/2.16.840.1.113762.1.4.1147.196 \n                     <br/> \n                     <em>Canonical URL</em>: \n                     <tt>http://cts.nlm.nih.gov/fhir/ValueSet/2.16.840.1.113762.1.4.1147.196</tt> \n                  </td> \n               </tr> \n               <tr> \n                  <th scope=\"row\" class=\"row-header\">Dependency</th> \n                  <td class=\"content-container\"> \n                     <em>Description</em>: Value set Present on Admission or Clinically Undetermined \n                     <br/> \n                     <em>Resource</em>: http://cts.nlm.nih.gov/fhir/ValueSet/2.16.840.1.113762.1.4.1147.197 \n                     <br/> \n                     <em>Canonical URL</em>: \n                     <tt>http://cts.nlm.nih.gov/fhir/ValueSet/2.16.840.1.113762.1.4.1147.197</tt> \n                  </td> \n               </tr> \n               <tr> \n                  <th colspan=\"2\" scope=\"row\" class=\"row-header\">Library Metadata</th> \n               </tr> \n               <tr> \n                  <th scope=\"row\" class=\"row-header\">Identifier</th> \n                  <td class=\"content-container\">org.hl7.fhir.r5.model.Identifier@384bb669</td> \n               </tr> \n               <tr> \n                  <th scope=\"row\" class=\"row-header\">Version Number</th> \n                  <td class=\"content-container\">0.3.000</td> \n               </tr> \n               <tr> \n                  <th scope=\"row\" class=\"row-header\">Library Type</th> \n                  <td class=\"content-container\">[http://terminology.hl7.org/CodeSystem/library-type#logic-library]</td> \n               </tr> \n               <tr> \n                  <th scope=\"row\" class=\"row-header\">Data Requirement</th> \n                  <td class=\"content-container\"> \n                     <em>Type</em>: Observation \n                     <br/> \n                     <em>Profile(s)</em>:  http://hl7.org/fhir/us/qicore/StructureDefinition/qicore-observation-clinical-result \n                     <br/> \n                     <em>Must Support Elements</em>: code \n                     <br/> \n                     <em>Code Filter(s)</em>: \n                     <br/> \n                     <span class=\"tab-one\"> \n                        <em>Path</em>: code \n                     </span> \n                     <br/> \n                     <span class=\"tab-one\"> \n                        <em>Code(s)</em>:  http://loinc.org#8709-8: 'Physical findings of Skin' \n                     </span> \n                     <br/> \n                  </td> \n               </tr> \n               <tr> \n                  <th scope=\"row\" class=\"row-header\">Data Requirement</th> \n                  <td class=\"content-container\"> \n                     <em>Type</em>: Observation \n                     <br/> \n                     <em>Profile(s)</em>:  http://hl7.org/fhir/us/qicore/StructureDefinition/qicore-simple-observation \n                     <br/> \n                     <em>Must Support Elements</em>: code \n                     <br/> \n                     <em>Code Filter(s)</em>: \n                     <br/> \n                     <span class=\"tab-one\"> \n                        <em>Path</em>: code \n                     </span> \n                     <br/> \n                     <span class=\"tab-one\"> \n                        <em>Code(s)</em>:  http://loinc.org#8709-8: 'Physical findings of Skin' \n                     </span> \n                     <br/> \n                  </td> \n               </tr> \n               <tr> \n                  <th scope=\"row\" class=\"row-header\">Data Requirement</th> \n                  <td class=\"content-container\"> \n                     <em>Type</em>: Encounter \n                     <br/> \n                     <em>Profile(s)</em>:  http://hl7.org/fhir/us/qicore/StructureDefinition/qicore-encounter \n                     <br/> \n                     <em>Must Support Elements</em>: type, period, status, status.value \n                     <br/> \n                     <em>Code Filter(s)</em>: \n                     <br/> \n                     <span class=\"tab-one\"> \n                        <em>Path</em>: type \n                     </span> \n                     <br/> \n                     <span class=\"tab-one\"> \n                        <em>ValueSet</em>: \n                     </span> http://cts.nlm.nih.gov/fhir/ValueSet/2.16.840.1.113883.3.666.5.307 \n                     <br/> \n                  </td> \n               </tr> \n               <tr> \n                  <th colspan=\"2\" scope=\"row\" class=\"row-header\">Library Content</th> \n               </tr> \n               <tr> \n                  <th scope=\"row\" class=\"row-header\">CQL Content</th> \n                  <td> \n                     <pre style=\"border: none;\" class=\"content-container highlight language-cql\"><code class=\"language-cql\">library CMS826FHIRHHPI version '0.3.000'\n\nusing QICore version '6.0.0'\n\ninclude FHIRHelpers version '4.4.000' called FHIRHelpers\ninclude SupplementalDataElements version '5.1.000' called SDE\ninclude CQMCommon version '4.1.000' called CQMCommon\ninclude QICoreCommon version '4.0.000' called QICoreCommon\n\ncodesystem &quot;LOINC&quot;: 'http://loinc.org'\n\nvalueset &quot;Encounter Inpatient&quot;: 'http://cts.nlm.nih.gov/fhir/ValueSet/2.16.840.1.113883.3.666.5.307'\nvalueset &quot;Not Present On Admission or Documentation Insufficient to Determine&quot;: 'http://cts.nlm.nih.gov/fhir/ValueSet/2.16.840.1.113762.1.4.1147.198'\nvalueset &quot;Present on Admission or Clinically Undetermined&quot;: 'http://cts.nlm.nih.gov/fhir/ValueSet/2.16.840.1.113762.1.4.1147.197'\nvalueset &quot;Pressure Injury Deep Tissue&quot;: 'http://cts.nlm.nih.gov/fhir/ValueSet/2.16.840.1.113762.1.4.1147.112'\nvalueset &quot;Pressure Injury Deep Tissue Diagnoses&quot;: 'http://cts.nlm.nih.gov/fhir/ValueSet/2.16.840.1.113762.1.4.1147.194'\nvalueset &quot;Pressure Injury Stage 2, 3, 4 or Unstageable&quot;: 'http://cts.nlm.nih.gov/fhir/ValueSet/2.16.840.1.113762.1.4.1147.113'\nvalueset &quot;Pressure Injury Stage 2, 3, 4, or Unstageable Diagnoses&quot;: 'http://cts.nlm.nih.gov/fhir/ValueSet/2.16.840.1.113762.1.4.1147.196'\n\ncode &quot;Physical findings of Skin&quot;: '8709-8' from &quot;LOINC&quot; display 'Physical findings of Skin'\n\nparameter &quot;Measurement Period&quot; Interval&lt;DateTime&gt;\n\ncontext Patient\n\ndefine &quot;Initial Population&quot;:\n  &quot;Encounter with Age 18 and Older&quot;\n\ndefine &quot;Denominator&quot;:\n  &quot;Initial Population&quot;\n\ndefine &quot;Denominator Exclusions&quot;:\n  &quot;Encounter with Deep Tissue Pressure Injury POA by Indicator or Skin Exam within First 72 Hours&quot;\n    union &quot;Encounter with Stage 2, 3, 4 or Unstageable Pressure Injury POA&quot;\n\ndefine &quot;Numerator&quot;:\n  &quot;Encounter with New Deep Tissue Pressure Injury&quot;\n    union &quot;Encounter with New Stage 2, 3, 4 or Unstageable Pressure Injury&quot;\n\ndefine &quot;Encounter with Age 18 and Older&quot;:\n  [&quot;Encounter&quot;: &quot;Encounter Inpatient&quot;] InpatientEncounter\n    where AgeInYearsAt(date from start of InpatientEncounter.period) &gt;= 18\n      and InpatientEncounter.period ends during day of &quot;Measurement Period&quot;\n      and InpatientEncounter.status = 'finished'\n\ndefine &quot;Encounter with Deep Tissue Pressure Injury POA by Indicator or Skin Exam within First 72 Hours&quot;:\n  &quot;Encounter with Deep Tissue Pressure Injury POA by Indicator&quot;\n    union &quot;Encounter with Deep Tissue Pressure Injury POA by Skin Exam within First 72 Hours&quot;\n\ndefine &quot;Encounter with Stage 2, 3, 4 or Unstageable Pressure Injury POA&quot;:\n  &quot;Encounter with Stage 2, 3, 4, or Unstageable Pressure Injury Present on Admission by POA Indicator&quot;\n    union &quot;Encounter with Stage 2, 3, 4 or Unstageable Pressure Injury POA by Skin Exam within 24 Hours&quot;\n\ndefine &quot;Encounter with New Deep Tissue Pressure Injury&quot;:\n  &quot;Encounter with New Deep Tissue Pressure Injury Not POA by Indicator&quot;\n    union &quot;Encounter with New Deep Tissue Pressure Injury by Skin Exam after First 72 Hours&quot;\n\ndefine &quot;Encounter with New Stage 2, 3, 4 or Unstageable Pressure Injury&quot;:\n  &quot;Encounter with New Stage 2, 3, 4 or Unstageable Pressure Injury Not POA by Indicator&quot;\n    union &quot;Encounter with New Stage 2, 3, 4 or Unstageable Pressure Injury by Skin Exam after First 24 Hours&quot;\n\ndefine &quot;Encounter with Deep Tissue Pressure Injury POA by Indicator&quot;:\n  &quot;Encounter with Age 18 and Older&quot; InpatientHospitalization\n    where InpatientHospitalization.isDiagnosisPresentOnAdmission ( &quot;Pressure Injury Deep Tissue Diagnoses&quot;, &quot;Present on Admission or Clinically Undetermined&quot; )\n\ndefine &quot;Encounter with Deep Tissue Pressure Injury POA by Skin Exam within First 72 Hours&quot;:\n  &quot;Encounter with Age 18 and Older&quot; InpatientHospitalization\n    let hospitalizationPeriod: InpatientHospitalization.hospitalizationWithObservation ( )\n    with &quot;SkinExams with Pressure Injury&quot; SkinExam\n      such that SkinExam.effective.toInterval ( ) starts during Interval[start of hospitalizationPeriod, start of hospitalizationPeriod + 72 hours]\n\ndefine &quot;Encounter with Stage 2, 3, 4, or Unstageable Pressure Injury Present on Admission by POA Indicator&quot;:\n  &quot;Encounter with Age 18 and Older&quot; InpatientHospitalization\n    where InpatientHospitalization.isDiagnosisPresentOnAdmission ( &quot;Pressure Injury Stage 2, 3, 4, or Unstageable Diagnoses&quot;, &quot;Present on Admission or Clinically Undetermined&quot; )\n\ndefine &quot;Encounter with Stage 2, 3, 4 or Unstageable Pressure Injury POA by Skin Exam within 24 Hours&quot;:\n  &quot;Encounter with Age 18 and Older&quot; InpatientHospitalization\n    let hospitalizationPeriod: InpatientHospitalization.hospitalizationWithObservation ( )\n    with &quot;SkinExams with Pressure Injury&quot; SkinExam\n      such that SkinExam.effective.toInterval ( ) starts during Interval[start of hospitalizationPeriod, start of hospitalizationPeriod + 24 hours]\n\ndefine &quot;Encounter with New Deep Tissue Pressure Injury Not POA by Indicator&quot;:\n  &quot;Encounter with Age 18 and Older&quot; InpatientHospitalization\n    where InpatientHospitalization.isDiagnosisPresentOnAdmission ( &quot;Pressure Injury Deep Tissue Diagnoses&quot;, &quot;Not Present On Admission or Documentation Insufficient to Determine&quot; )\n\ndefine &quot;Encounter with New Deep Tissue Pressure Injury by Skin Exam after First 72 Hours&quot;:\n  &quot;Encounter with Age 18 and Older&quot; InpatientHospitalization\n    let hospitalizationPeriod: InpatientHospitalization.hospitalizationWithObservation ( )\n    with &quot;SkinExams with Pressure Injury&quot; SkinExam\n      such that SkinExam.effective.toInterval ( ) starts during Interval[start of hospitalizationPeriod + 72 hours, end of hospitalizationPeriod]\n\ndefine &quot;Encounter with New Stage 2, 3, 4 or Unstageable Pressure Injury Not POA by Indicator&quot;:\n  &quot;Encounter with Age 18 and Older&quot; InpatientHospitalization\n    where InpatientHospitalization.isDiagnosisPresentOnAdmission ( &quot;Pressure Injury Stage 2, 3, 4, or Unstageable Diagnoses&quot;, &quot;Not Present On Admission or Documentation Insufficient to Determine&quot; )\n\ndefine &quot;Encounter with New Stage 2, 3, 4 or Unstageable Pressure Injury by Skin Exam after First 24 Hours&quot;:\n  &quot;Encounter with Age 18 and Older&quot; InpatientHospitalization\n    let hospitalizationPeriod: CQMCommon.&quot;HospitalizationWithObservation&quot; ( InpatientHospitalization )\n    with &quot;SkinExams with Pressure Injury&quot; SkinExam\n      such that SkinExam.effective.toInterval ( ) starts during Interval[start of hospitalizationPeriod + 24 hours, end of hospitalizationPeriod]\n\ndefine &quot;SDE Ethnicity&quot;:\n  SDE.&quot;SDE Ethnicity&quot;\n\ndefine &quot;SDE Payer&quot;:\n  SDE.&quot;SDE Payer&quot;\n\ndefine &quot;SDE Race&quot;:\n  SDE.&quot;SDE Race&quot;\n\ndefine &quot;SDE Sex&quot;:\n  SDE.&quot;SDE Sex&quot;\n\ndefine &quot;Clinical SkinExams with Pressure Injury&quot;:\n  [&quot;ObservationClinicalResult&quot;: &quot;Physical findings of Skin&quot;] ClinicalSkinExam\n    where ClinicalSkinExam.isIn ( &quot;Pressure Injury Stage 2, 3, 4 or Unstageable&quot; )\n\ndefine &quot;Simple SkinExams with Pressure Injury&quot;:\n  [&quot;SimpleObservation&quot;: &quot;Physical findings of Skin&quot;] ObsSkinExam\n    where ObsSkinExam.isIn ( &quot;Pressure Injury Stage 2, 3, 4 or Unstageable&quot; )\n\n// Skin exams may be either a SimpleObservation or an ObservationClinicalResult\n// The following union is used to combine the two types of skin exams\n\n\n\ndefine &quot;SkinExams with Pressure Injury&quot;:\n  &quot;Clinical SkinExams with Pressure Injury&quot;\n    union &quot;Simple SkinExams with Pressure Injury&quot;\n\n// @description This function, attached to either a SimpleObseration or an ObservationClinicalResult,  is used to determine if the observation is completed and its value is in the given value set\n// @example  anObservation.isIn(&quot;Pressure Injury Stage 2, 3, 4 or Unstageable&quot;)\n\n\n\ndefine fluent function isIn(observation Choice&lt;&quot;SimpleObservation&quot;, &quot;ObservationClinicalResult&quot;&gt;, vset ValueSet):\n  observation.status in { 'final', 'amended', 'corrected' }\n    and observation.effective during &quot;Measurement Period&quot;\n    and case\n      when observation is SimpleObservation then ( observation as SimpleObservation ).value as Concept in vset\n      when observation is ObservationClinicalResult then ( observation as ObservationClinicalResult ).value as Concept in vset \n      else null end\n\n\n//----------------------  Debugging --------------- ------------------------------------//\n</code></pre> \n                  </td> \n               </tr> \n               <tr> \n                  <th colspan=\"2\" scope=\"row\" class=\"row-header\">Generated using version 0.4.7 of the sample-content-ig Liquid templates</th> \n               </tr> \n            </tbody> \n         </table> \n      </div>"},"contained":[{"resourceType":"Parameters","id":"options","parameter":[{"name":"translatorVersion","valueString":"3.25.0"},{"name":"option","valueString":"EnableAnnotations"},{"name":"option","valueString":"EnableLocators"},{"name":"option","valueString":"DisableListDemotion"},{"name":"option","valueString":"DisableListPromotion"},{"name":"format","valueString":"XML"},{"name":"format","valueString":"JSON"},{"name":"analyzeDataRequirements","valueBoolean":false},{"name":"collapseDataRequirements","valueBoolean":false},{"name":"compatibilityLevel","valueString":"1.5"},{"name":"enableCqlOnly","valueBoolean":false},{"name":"errorLevel","valueString":"Info"},{"name":"signatureLevel","valueString":"Overloads"},{"name":"validateUnits","valueBoolean":true},{"name":"verifyOnly","valueBoolean":false}]}],"extension":[{"url":"http://hl7.org/fhir/StructureDefinition/cqf-directReferenceCode","valueCoding":{"system":"http://loinc.org","code":"8709-8","display":"Physical findings of Skin"}},{"url":"http://hl7.org/fhir/StructureDefinition/cqf-cqlOptions","valueReference":{"reference":"#options"}}],"url":"https://madie.cms.gov/Library/CMS826FHIRHHPI","identifier":[{"use":"official","system":"https://madie.cms.gov/login","value":"CMS826FHIRHHPI"}],"version":"0.3.000","name":"CMS826FHIRHHPI","title":"CMS826FHIRHHPI","status":"active","experimental":false,"type":{"coding":[{"system":"http://terminology.hl7.org/CodeSystem/library-type","code":"logic-library"}]},"date":"2025-06-19T19:40:52+00:00","publisher":"Centers for Medicare & Medicaid Services (CMS)","description":"CMS826FHIRHHPI","content":[{"contentType":"text/cql","data":""}]},"request":{"method":"PUT","url":"Library/CMS826FHIRHHPI"}},{"resource":{"resourceType":"Patient","id":"39fd854c-e5c0-440e-a88d-1585af66cb1c","meta":{"profile":["http://hl7.org/fhir/us/qicore/StructureDefinition/qicore-patient"]},"extension":[{"url":"http://hl7.org/fhir/us/core/StructureDefinition/us-core-race","extension":[{"url":"ombCategory","valueCoding":{"system":"urn:oid:2.16.840.1.113883.6.238","code":"2028-9","display":"Asian","userSelected":true}},{"url":"text","valueString":"Asian"}]},{"url":"http://hl7.org/fhir/us/core/StructureDefinition/us-core-ethnicity","extension":[{"url":"ombCategory","valueCoding":{"system":"urn:oid:2.16.840.1.113883.6.238","code":"2186-5","display":"Not Hispanic or Latino","userSelected":true}},{"url":"text","valueString":"Not Hispanic or Latino"}]}],"identifier":[{"type":{"coding":[{"system":"http://terminology.hl7.org/CodeSystem/v2-0203","code":"MR"}]},"system":"https://bonnie-fhir.healthit.gov/","value":"63d963937a195f4975f0062a"}],"name":[{"family":"DENOMPass","given":["Age17inEDAge18DayOfAdmitToIP"]}],"gender":"female","birthDate":"2008-02-01"},"request":{"method":"PUT","url":"Patient/39fd854c-e5c0-440e-a88d-1585af66cb1c"}},{"resource":{"resourceType":"MeasureReport","id":"977f5484-9403-43a7-a601-d5ca7c38229f","meta":{"profile":["http://hl7.org/fhir/us/cqfmeasures/StructureDefinition/test-case-cqfm"]},"contained":[{"resourceType":"Parameters","id":"e15f1158-49c7-4c06-b0c6-5ee8c141279a-parameters","parameter":[{"name":"subject","valueString":"56336dd0-efe8-4251-b599-dd3f47279d6d"}]}],"extension":[{"url":"http://hl7.org/fhir/StructureDefinition/cqf-inputParameters","valueReference":{"reference":"#e15f1158-49c7-4c06-b0c6-5ee8c141279a-parameters"}},{"url":"http://hl7.org/fhir/us/cqfmeasures/StructureDefinition/cqfm-testCaseDescription","valueMarkdown":"Inpatient encounter during MP.  Age is 17 on day of IP admit, turns 18 day after admit. IPP fails, must be 18 at start of IP stay. "}],"modifierExtension":[{"url":"http://hl7.org/fhir/us/cqfmeasures/StructureDefinition/cqfm-isTestCase","valueBoolean":true}],"status":"complete","type":"individual","measure":"https://madie.cms.gov/Measure/CMS826FHIRHHPI","period":{"start":"2026-01-01","end":"2026-12-31"},"group":[{"id":"Group_1","population":[{"id":"InitialPopulation_1","code":{"coding":[{"system":"http://terminology.hl7.org/CodeSystem/measure-population","code":"initial-population","display":"Initial Population"}]},"count":0},{"id":"Denominator_1","code":{"coding":[{"system":"http://terminology.hl7.org/CodeSystem/measure-population","code":"denominator","display":"Denominator"}]},"count":0},{"id":"DenominatorExclusion_1","code":{"coding":[{"system":"http://terminology.hl7.org/CodeSystem/measure-population","code":"denominator-exclusion","display":"Denominator Exclusion"}]},"count":0},{"id":"Numerator_1","code":{"coding":[{"system":"http://terminology.hl7.org/CodeSystem/measure-population","code":"numerator","display":"Numerator"}]},"count":0}],"measureScore":{"value":0.0}}],"evaluatedResource":[{"reference":"Patient/56336dd0-efe8-4251-b599-dd3f47279d6d"},{"reference":"Encounter/8ac86953-3ac5-4359-bff0-f3b61edd95e6"},{"reference":"Coverage/7f86dcdd-125b-4251-a4ab-8c7a728235b6"}]},"request":{"method":"PUT","url":"MeasureReport/977f5484-9403-43a7-a601-d5ca7c38229f"}},{"resource":{"resourceType":"Encounter","id":"ccf49478-a0f2-4658-a637-5e293ea3cd86","meta":{"profile":["http://hl7.org/fhir/us/qicore/StructureDefinition/qicore-encounter"]},"status":"finished","class":{"system":"http://terminology.hl7.org/CodeSystem/v3-ActCode","code":"IMP","display":"inpatient encounter"},"type":[{"coding":[{"system":"http://snomed.info/sct","version":"2022-09","code":"183452005","display":"Emergency hospital admission (procedure)","userSelected":true}]}],"subject":{"reference":"Patient/bc28b32e-1c2f-457c-8c60-f36041a2519b"},"period":{"start":"2026-02-01T08:30:00.000+00:00","end":"2026-02-06T08:15:00.000+00:00"}},"request":{"method":"PUT","url":"Encounter/ccf49478-a0f2-4658-a637-5e293ea3cd86"}},{"resource":{"resourceType":"MeasureReport","id":"63399e40-a4c1-4778-a836-1154f0dbab8c","meta":{"profile":["http://hl7.org/fhir/us/cqfmeasures/StructureDefinition/test-case-cqfm"]},"contained":[{"resourceType":"Parameters","id":"03c1f00c-3e26-4727-ad84-1e993499a0a9-parameters","parameter":[{"name":"subject","valueString":"bc28b32e-1c2f-457c-8c60-f36041a2519b"}]}],"extension":[{"url":"http://hl7.org/fhir/StructureDefinition/cqf-inputParameters","valueReference":{"reference":"#03c1f00c-3e26-4727-ad84-1e993499a0a9-parameters"}},{"url":"http://hl7.org/fhir/us/cqfmeasures/StructureDefinition/cqfm-testCaseDescription","valueMarkdown":"Inpatient encounter during MP.  New unstageable PI by encounter diagnosis with POA indicator = N. Numerator Pass."}],"modifierExtension":[{"url":"http://hl7.org/fhir/us/cqfmeasures/StructureDefinition/cqfm-isTestCase","valueBoolean":true}],"status":"complete","type":"individual","measure":"https://madie.cms.gov/Measure/CMS826FHIRHHPI","period":{"start":"2026-01-01","end":"2026-12-31"},"group":[{"id":"Group_1","population":[{"id":"InitialPopulation_1","code":{"coding":[{"system":"http://terminology.hl7.org/CodeSystem/measure-population","code":"initial-population","display":"Initial Population"}]},"count":1},{"id":"Denominator_1","code":{"coding":[{"system":"http://terminology.hl7.org/CodeSystem/measure-population","code":"denominator","display":"Denominator"}]},"count":1},{"id":"DenominatorExclusion_1","code":{"coding":[{"system":"http://terminology.hl7.org/CodeSystem/measure-population","code":"denominator-exclusion","display":"Denominator Exclusion"}]},"count":0},{"id":"Numerator_1","code":{"coding":[{"system":"http://terminology.hl7.org/CodeSystem/measure-population","code":"numerator","display":"Numerator"}]},"count":1}],"measureScore":{"value":0.0}}],"evaluatedResource":[{"reference":"Claim/0fbec636-034f-4633-b51f-acf306b969f8"},{"reference":"Encounter/ccf49478-a0f2-4658-a637-5e293ea3cd86"},{"reference":"Encounter/2eba992d-7235-4cdf-9f58-1243b3ee82e3"},{"reference":"Patient/bc28b32e-1c2f-457c-8c60-f36041a2519b"}]},"request":{"method":"PUT","url":"MeasureReport/63399e40-a4c1-4778-a836-1154f0dbab8c"}},{"resource":{"resourceType":"Encounter","id":"ad354ac1-a4e9-4ec5-a0d7-c34f0f9fdd5f","meta":{"profile":["http://hl7.org/fhir/us/qicore/StructureDefinition/qicore-encounter"]},"status":"finished","class":{"system":"http://terminology.hl7.org/CodeSystem/v3-ActCode","code":"IMP","display":"inpatient encounter"},"type":[{"coding":[{"system":"http://snomed.info/sct","version":"2022-09","code":"183452005","display":"Emergency hospital admission (procedure)","userSelected":true}]}],"subject":{"reference":"Patient/73c1a7c6-2bcf-4e6d-b913-9125137da33a"},"period":{"start":"2026-03-15T11:00:00.000+00:00","end":"2026-03-22T08:15:00.000+00:00"}},"request":{"method":"PUT","url":"Encounter/ad354ac1-a4e9-4ec5-a0d7-c34f0f9fdd5f"}},{"resource":{"resourceType":"MeasureReport","id":"50864fe8-ce6b-4170-a4b3-2a0d8d6c07a4","meta":{"profile":["http://hl7.org/fhir/us/cqfmeasures/StructureDefinition/test-case-cqfm"]},"contained":[{"resourceType":"Parameters","id":"92bf7fb4-0ed7-4c27-98c6-c1edab038af1-parameters","parameter":[{"name":"subject","valueString":"39fd854c-e5c0-440e-a88d-1585af66cb1c"}]}],"extension":[{"url":"http://hl7.org/fhir/StructureDefinition/cqf-inputParameters","valueReference":{"reference":"#92bf7fb4-0ed7-4c27-98c6-c1edab038af1-parameters"}},{"url":"http://hl7.org/fhir/us/cqfmeasures/StructureDefinition/cqfm-testCaseDescription","valueMarkdown":"Inpatient encounter during MP.  Age is 17 when in ED. Turns 18 on day of inpatient admit. Meets IPP / Denom. "}],"modifierExtension":[{"url":"http://hl7.org/fhir/us/cqfmeasures/StructureDefinition/cqfm-isTestCase","valueBoolean":true}],"status":"complete","type":"individual","measure":"https://madie.cms.gov/Measure/CMS826FHIRHHPI","period":{"start":"2026-01-01","end":"2026-12-31"},"group":[{"id":"Group_1","population":[{"id":"InitialPopulation_1","code":{"coding":[{"system":"http://terminology.hl7.org/CodeSystem/measure-population","code":"initial-population","display":"Initial Population"}]},"count":1},{"id":"Denominator_1","code":{"coding":[{"system":"http://terminology.hl7.org/CodeSystem/measure-population","code":"denominator","display":"Denominator"}]},"count":1},{"id":"DenominatorExclusion_1","code":{"coding":[{"system":"http://terminology.hl7.org/CodeSystem/measure-population","code":"denominator-exclusion","display":"Denominator Exclusion"}]},"count":0},{"id":"Numerator_1","code":{"coding":[{"system":"http://terminology.hl7.org/CodeSystem/measure-population","code":"numerator","display":"Numerator"}]},"count":0}],"measureScore":{"value":0.0}}],"evaluatedResource":[{"reference":"Encounter/fbb56806-e609-48ba-af2f-b7d204f29467"},{"reference":"Encounter/7de9f2dd-b206-4c7a-aec9-16f780abd10f"},{"reference":"Patient/39fd854c-e5c0-440e-a88d-1585af66cb1c"}]},"request":{"method":"PUT","url":"MeasureReport/50864fe8-ce6b-4170-a4b3-2a0d8d6c07a4"}},{"resource":{"resourceType":"Patient","id":"f43f3deb-0762-48f6-a8c5-81303d6cd681","meta":{"profile":["http://hl7.org/fhir/us/qicore/StructureDefinition/qicore-patient"]},"extension":[{"url":"http://hl7.org/fhir/us/core/StructureDefinition/us-core-race","extension":[{"url":"ombCategory","valueCoding":{"system":"urn:oid:2.16.840.1.113883.6.238","code":"2028-9","display":"Asian","userSelected":true}},{"url":"text","valueString":"Asian"}]},{"url":"http://hl7.org/fhir/us/core/StructureDefinition/us-core-ethnicity","extension":[{"url":"ombCategory","valueCoding":{"system":"urn:oid:2.16.840.1.113883.6.238","code":"2186-5","display":"Not Hispanic or Latino","userSelected":true}},{"url":"text","valueString":"Not Hispanic or Latino"}]}],"identifier":[{"type":{"coding":[{"system":"http://terminology.hl7.org/CodeSystem/v2-0203","code":"MR"}]},"system":"https://bonnie-fhir.healthit.gov/","value":"647f51ab5e6d159b6e36ee31"}],"name":[{"family":"NUMERPass","given":["IPEncounterWithNewUnstageableNotPOAIndicator"]}],"gender":"other","birthDate":"2006-02-01"},"request":{"method":"PUT","url":"Patient/f43f3deb-0762-48f6-a8c5-81303d6cd681"}},{"resource":{"resourceType":"Encounter","id":"e48782d2-aae4-46f5-96d3-d333220debca","meta":{"profile":["http://hl7.org/fhir/us/qicore/StructureDefinition/qicore-encounter"]},"status":"finished","class":{"system":"http://terminology.hl7.org/CodeSystem/v3-ActCode","code":"EMER","display":"emergency"},"type":[{"coding":[{"system":"http://snomed.info/sct","version":"2022-09","code":"4525004","display":"Emergency department patient visit (procedure)","userSelected":true}]}],"subject":{"reference":"Patient/f43f3deb-0762-48f6-a8c5-81303d6cd681"},"period":{"start":"2026-01-31T08:00:00.000+00:00","end":"2026-02-01T08:15:00.000+00:00"}},"request":{"method":"PUT","url":"Encounter/e48782d2-aae4-46f5-96d3-d333220debca"}},{"resource":{"resourceType":"Encounter","id":"d1cdbfba-4609-4d19-8255-58e6970f487d","meta":{"profile":["http://hl7.org/fhir/us/qicore/StructureDefinition/qicore-encounter"]},"status":"finished","class":{"system":"http://terminology.hl7.org/CodeSystem/v3-ActCode","code":"IMP","display":"inpatient encounter"},"type":[{"coding":[{"system":"http://snomed.info/sct","version":"2022-09","code":"183452005","display":"Emergency hospital admission (procedure)","userSelected":true}]}],"subject":{"reference":"Patient/6e5ce204-2257-40d5-a356-13614de68783"},"period":{"start":"2026-02-01T08:30:00.000+00:00","end":"2026-02-06T08:15:00.000+00:00"}},"request":{"method":"PUT","url":"Encounter/d1cdbfba-4609-4d19-8255-58e6970f487d"}},{"resource":{"resourceType":"MeasureReport","id":"fd1b3564-a2df-4170-956c-d17c749eca6e","meta":{"profile":["http://hl7.org/fhir/us/cqfmeasures/StructureDefinition/test-case-cqfm"]},"contained":[{"resourceType":"Parameters","id":"6f54f9b3-f0ab-4250-b5a2-b2f91f0f9023-parameters","parameter":[{"name":"subject","valueString":"6e5ce204-2257-40d5-a356-13614de68783"}]}],"extension":[{"url":"http://hl7.org/fhir/StructureDefinition/cqf-inputParameters","valueReference":{"reference":"#6f54f9b3-f0ab-4250-b5a2-b2f91f0f9023-parameters"}},{"url":"http://hl7.org/fhir/us/cqfmeasures/StructureDefinition/cqfm-testCaseDescription","valueMarkdown":"Inpatient encounter during MP. DTI present on Admission = N, NUMER pass"}],"modifierExtension":[{"url":"http://hl7.org/fhir/us/cqfmeasures/StructureDefinition/cqfm-isTestCase","valueBoolean":true}],"status":"complete","type":"individual","measure":"https://madie.cms.gov/Measure/CMS826FHIRHHPI","period":{"start":"2026-01-01","end":"2026-12-31"},"group":[{"id":"Group_1","population":[{"id":"InitialPopulation_1","code":{"coding":[{"system":"http://terminology.hl7.org/CodeSystem/measure-population","code":"initial-population","display":"Initial Population"}]},"count":1},{"id":"Denominator_1","code":{"coding":[{"system":"http://terminology.hl7.org/CodeSystem/measure-population","code":"denominator","display":"Denominator"}]},"count":1},{"id":"DenominatorExclusion_1","code":{"coding":[{"system":"http://terminology.hl7.org/CodeSystem/measure-population","code":"denominator-exclusion","display":"Denominator Exclusion"}]},"count":0},{"id":"Numerator_1","code":{"coding":[{"system":"http://terminology.hl7.org/CodeSystem/measure-population","code":"numerator","display":"Numerator"}]},"count":1}],"measureScore":{"value":0.0}}],"evaluatedResource":[{"reference":"Claim/5a2d7562-1dad-4183-8ad7-d1d24e84b2fc"},{"reference":"Patient/6e5ce204-2257-40d5-a356-13614de68783"},{"reference":"Encounter/d1cdbfba-4609-4d19-8255-58e6970f487d"},{"reference":"Encounter/802a829a-34ca-4036-9755-98e080e2d356"}]},"request":{"method":"PUT","url":"MeasureReport/fd1b3564-a2df-4170-956c-d17c749eca6e"}},{"resource":{"resourceType":"Encounter","id":"7de9f2dd-b206-4c7a-aec9-16f780abd10f","meta":{"profile":["http://hl7.org/fhir/us/qicore/StructureDefinition/qicore-encounter"]},"status":"finished","class":{"system":"http://terminology.hl7.org/CodeSystem/v3-ActCode","code":"EMER","display":"emergency"},"type":[{"coding":[{"system":"http://snomed.info/sct","version":"2022-09","code":"4525004","display":"Emergency department patient visit (procedure)","userSelected":true}]}],"subject":{"reference":"Patient/39fd854c-e5c0-440e-a88d-1585af66cb1c"},"period":{"start":"2026-01-31T08:00:00.000+00:00","end":"2026-02-01T08:15:00.000+00:00"}},"request":{"method":"PUT","url":"Encounter/7de9f2dd-b206-4c7a-aec9-16f780abd10f"}},{"resource":{"resourceType":"Encounter","id":"8ac86953-3ac5-4359-bff0-f3b61edd95e6","meta":{"profile":["http://hl7.org/fhir/us/qicore/StructureDefinition/qicore-encounter"]},"status":"finished","class":{"system":"http://terminology.hl7.org/CodeSystem/v3-ActCode","code":"IMP","display":"inpatient encounter"},"type":[{"coding":[{"system":"http://snomed.info/sct","version":"2022-09","code":"183452005","display":"Emergency hospital admission (procedure)","userSelected":true}]}],"subject":{"reference":"Patient/56336dd0-efe8-4251-b599-dd3f47279d6d"},"period":{"start":"2026-01-31T08:00:00.000+00:00","end":"2026-02-03T08:15:00.000+00:00"}},"request":{"method":"PUT","url":"Encounter/8ac86953-3ac5-4359-bff0-f3b61edd95e6"}},{"resource":{"resourceType":"Encounter","id":"51bfe56b-4590-45de-ac4d-8ed8bf3d0093","meta":{"profile":["http://hl7.org/fhir/us/qicore/StructureDefinition/qicore-encounter"]},"status":"finished","class":{"system":"http://terminology.hl7.org/CodeSystem/v3-ActCode","code":"IMP","display":"inpatient encounter"},"type":[{"coding":[{"system":"http://snomed.info/sct","version":"2022-09","code":"183452005","display":"Emergency hospital admission (procedure)","userSelected":true}]}],"subject":{"reference":"Patient/599d4177-ae6e-4448-8b7d-9cfcdbdd9dc9"},"period":{"start":"2026-03-15T11:00:00.000+00:00","end":"2026-03-22T08:15:00.000+00:00"}},"request":{"method":"PUT","url":"Encounter/51bfe56b-4590-45de-ac4d-8ed8bf3d0093"}},{"resource":{"resourceType":"Encounter","id":"2984e680-7ebf-4aa5-a8df-8bdc33314341","meta":{"profile":["http://hl7.org/fhir/us/qicore/StructureDefinition/qicore-encounter"]},"status":"finished","class":{"system":"http://terminology.hl7.org/CodeSystem/v3-ActCode","code":"IMP","display":"inpatient encounter"},"type":[{"coding":[{"system":"http://snomed.info/sct","version":"2022-09","code":"183452005","display":"Emergency hospital admission (procedure)","userSelected":true}]}],"subject":{"reference":"Patient/865b3218-9d2a-4512-b76e-ed70c25324e6"},"period":{"start":"2026-02-01T08:30:00.000+00:00","end":"2026-02-06T08:15:00.000+00:00"}},"request":{"method":"PUT","url":"Encounter/2984e680-7ebf-4aa5-a8df-8bdc33314341"}},{"resource":{"resourceType":"Observation","id":"1a9eaec1-5903-439b-aa31-c22639f87bbb","meta":{"profile":["http://hl7.org/fhir/us/qicore/StructureDefinition/qicore-simple-observation"]},"status":"final","category":[{"coding":[{"system":"http://terminology.hl7.org/CodeSystem/observation-category","code":"exam","display":"Exam"}]}],"code":{"coding":[{"system":"http://loinc.org","code":"8709-8","display":"Physical findings of Skin","userSelected":true}]},"subject":{"reference":"Patient/599d4177-ae6e-4448-8b7d-9cfcdbdd9dc9"},"effectiveDateTime":"2026-03-16T08:00:00.000+00:00","valueCodeableConcept":{"coding":[{"system":"http://loinc.org","version":"2.76","code":"54579-8","display":"Pressure injuries - unstageable due to non-removable dressing"}]}},"request":{"method":"PUT","url":"Observation/1a9eaec1-5903-439b-aa31-c22639f87bbb"}},{"resource":{"resourceType":"Patient","id":"bc28b32e-1c2f-457c-8c60-f36041a2519b","meta":{"profile":["http://hl7.org/fhir/us/qicore/StructureDefinition/qicore-patient"]},"extension":[{"url":"http://hl7.org/fhir/us/core/StructureDefinition/us-core-race","extension":[{"url":"ombCategory","valueCoding":{"system":"urn:oid:2.16.840.1.113883.6.238","code":"2028-9","display":"Asian","userSelected":true}},{"url":"text","valueString":"Asian"}]},{"url":"http://hl7.org/fhir/us/core/StructureDefinition/us-core-ethnicity","extension":[{"url":"ombCategory","valueCoding":{"system":"urn:oid:2.16.840.1.113883.6.238","code":"2186-5","display":"Not Hispanic or Latino","userSelected":true}},{"url":"text","valueString":"Not Hispanic or Latino"}]}],"identifier":[{"type":{"coding":[{"system":"http://terminology.hl7.org/CodeSystem/v2-0203","code":"MR"}]},"system":"https://bonnie-fhir.healthit.gov/","value":"647f51ab5e6d159b6e36ee31"}],"name":[{"family":"NUMERPass","given":["IPEncounterWithNewUnstageableNotPOAIndicator"]}],"gender":"other","birthDate":"2006-02-01"},"request":{"method":"PUT","url":"Patient/bc28b32e-1c2f-457c-8c60-f36041a2519b"}},{"resource":{"resourceType":"Patient","id":"599d4177-ae6e-4448-8b7d-9cfcdbdd9dc9","meta":{"profile":["http://hl7.org/fhir/us/qicore/StructureDefinition/qicore-patient"]},"extension":[{"url":"http://hl7.org/fhir/us/core/StructureDefinition/us-core-race","extension":[{"url":"ombCategory","valueCoding":{"system":"urn:oid:2.16.840.1.113883.6.238","code":"2054-5","display":"Black or African American","userSelected":true}},{"url":"text","valueString":"Black or African American"}]},{"url":"http://hl7.org/fhir/us/core/StructureDefinition/us-core-ethnicity","extension":[{"url":"ombCategory","valueCoding":{"system":"urn:oid:2.16.840.1.113883.6.238","code":"2135-2","display":"Hispanic or Latino","userSelected":true}},{"url":"text","valueString":"Hispanic or Latino"}]},{"url":"http://hl7.org/fhir/us/core/StructureDefinition/us-core-sex","valueCode":"248152002"}],"identifier":[{"type":{"coding":[{"system":"http://terminology.hl7.org/CodeSystem/v2-0203","code":"MR"}]},"system":"https://bonnie-fhir.healthit.gov/","value":"64121f8a0c4b751dfe4ccb65"}],"name":[{"family":"NUMERPass","given":["NewDTInjuryByExamGT72Hrs"]}],"birthDate":"1962-09-08"},"request":{"method":"PUT","url":"Patient/599d4177-ae6e-4448-8b7d-9cfcdbdd9dc9"}},{"resource":{"resourceType":"Patient","id":"73c1a7c6-2bcf-4e6d-b913-9125137da33a","meta":{"profile":["http://hl7.org/fhir/us/qicore/StructureDefinition/qicore-patient"]},"extension":[{"url":"http://hl7.org/fhir/us/core/StructureDefinition/us-core-race","extension":[{"url":"ombCategory","valueCoding":{"system":"urn:oid:2.16.840.1.113883.6.238","code":"2054-5","display":"Black or African American","userSelected":true}},{"url":"text","valueString":"Black or African American"}]},{"url":"http://hl7.org/fhir/us/core/StructureDefinition/us-core-ethnicity","extension":[{"url":"ombCategory","valueCoding":{"system":"urn:oid:2.16.840.1.113883.6.238","code":"2135-2","display":"Hispanic or Latino","userSelected":true}},{"url":"text","valueString":"Hispanic or Latino"}]}],"identifier":[{"type":{"coding":[{"system":"http://terminology.hl7.org/CodeSystem/v2-0203","code":"MR"}]},"system":"https://bonnie-fhir.healthit.gov/","value":"64121f8a0c4b751dfe4ccb65"}],"name":[{"family":"NUMERPass","given":["NewDTInjuryByExamGT72Hrs"]}],"gender":"male","birthDate":"1962-09-08"},"request":{"method":"PUT","url":"Patient/73c1a7c6-2bcf-4e6d-b913-9125137da33a"}},{"resource":{"resourceType":"Encounter","id":"4f63ff4f-cab1-42ec-abcb-69c11e2e7f3b","meta":{"profile":["http://hl7.org/fhir/us/qicore/StructureDefinition/qicore-encounter"]},"status":"finished","class":{"system":"http://terminology.hl7.org/CodeSystem/v3-ActCode","code":"EMER","display":"emergency"},"type":[{"coding":[{"system":"http://snomed.info/sct","version":"2022-09","code":"4525004","display":"Emergency department patient visit (procedure)","userSelected":true}]}],"subject":{"reference":"Patient/73c1a7c6-2bcf-4e6d-b913-9125137da33a"},"period":{"start":"2026-03-15T08:00:00.000+00:00","end":"2026-03-15T10:15:00.000+00:00"}},"request":{"method":"PUT","url":"Encounter/4f63ff4f-cab1-42ec-abcb-69c11e2e7f3b"}},{"resource":{"resourceType":"Encounter","id":"e2fad579-dbf5-4b9f-b79c-5ccec8f383cf","meta":{"profile":["http://hl7.org/fhir/us/qicore/StructureDefinition/qicore-encounter"]},"status":"finished","class":{"system":"http://terminology.hl7.org/CodeSystem/v3-ActCode","code":"EMER","display":"emergency"},"type":[{"coding":[{"system":"http://snomed.info/sct","version":"2022-09","code":"4525004","display":"Emergency department patient visit (procedure)","userSelected":true}]}],"subject":{"reference":"Patient/599d4177-ae6e-4448-8b7d-9cfcdbdd9dc9"},"period":{"start":"2026-03-15T08:00:00.000+00:00","end":"2026-03-15T10:15:00.000+00:00"}},"request":{"method":"PUT","url":"Encounter/e2fad579-dbf5-4b9f-b79c-5ccec8f383cf"}},{"resource":{"resourceType":"Encounter","id":"fbb56806-e609-48ba-af2f-b7d204f29467","meta":{"profile":["http://hl7.org/fhir/us/qicore/StructureDefinition/qicore-encounter"]},"status":"finished","class":{"system":"http://terminology.hl7.org/CodeSystem/v3-ActCode","code":"IMP","display":"inpatient encounter"},"type":[{"coding":[{"system":"http://snomed.info/sct","version":"2022-09","code":"183452005","display":"Emergency hospital admission (procedure)","userSelected":true}]}],"subject":{"reference":"Patient/39fd854c-e5c0-440e-a88d-1585af66cb1c"},"period":{"start":"2026-02-01T08:30:00.000+00:00","end":"2026-02-06T08:15:00.000+00:00"}},"request":{"method":"PUT","url":"Encounter/fbb56806-e609-48ba-af2f-b7d204f29467"}},{"resource":{"resourceType":"Claim","id":"37615af0-5c15-4230-95e5-08b360b6a8db","meta":{"profile":["http://hl7.org/fhir/us/qicore/StructureDefinition/qicore-claim"]},"status":"active","type":{"coding":[{"system":"http://terminology.hl7.org/CodeSystem/claim-type","code":"professional"}]},"use":"claim","patient":{"reference":"Patient/f43f3deb-0762-48f6-a8c5-81303d6cd681"},"created":"2026-05-16","priority":{"coding":[{"system":"http://terminology.hl7.org/CodeSystem/processpriority","code":"normal"}]},"diagnosis":[{"sequence":1,"diagnosisCodeableConcept":{"coding":[{"system":"http://hl7.org/fhir/sid/icd-10-cm","code":"L89.006","display":"Pressure-induced deep tissue damage of unspecified elbow"}]},"type":[{"coding":[{"system":"http://terminology.hl7.org/CodeSystem/ex-diagnosistype","code":"principal"}]}],"onAdmission":{"coding":[{"system":"https://www.cms.gov/Medicare/Medicare-Fee-for-Service-Payment/HospitalAcqCond/Coding","code":"Y"}]}}],"item":[{"sequence":1,"diagnosisSequence":[1,5,7],"productOrService":{"coding":[{"system":"http://example.org/fhir/CodeSystem/ex-professionalservice","code":"anesthesia"}]},"servicedDate":"2026-04-11","encounter":[{"reference":"Encounter/07de6cfc-c342-409f-b2ee-28f4cd921c19"}]}]},"request":{"method":"PUT","url":"Claim/37615af0-5c15-4230-95e5-08b360b6a8db"}},{"resource":{"resourceType":"MeasureReport","id":"42d69a27-7e11-49f3-904d-6b8baae7d84b","meta":{"profile":["http://hl7.org/fhir/us/cqfmeasures/StructureDefinition/test-case-cqfm"]},"contained":[{"resourceType":"Parameters","id":"58091101-882f-4748-81fb-6e9489cf04fb-parameters","parameter":[{"name":"subject","valueString":"7f0a0909-3618-4bea-899e-0a12c8aed445"}]}],"extension":[{"url":"http://hl7.org/fhir/StructureDefinition/cqf-inputParameters","valueReference":{"reference":"#58091101-882f-4748-81fb-6e9489cf04fb-parameters"}},{"url":"http://hl7.org/fhir/us/cqfmeasures/StructureDefinition/cqfm-testCaseDescription","valueMarkdown":"Denom Pass test with more complete data for SDE elements, race, ethnicity, etc."}],"modifierExtension":[{"url":"http://hl7.org/fhir/us/cqfmeasures/StructureDefinition/cqfm-isTestCase","valueBoolean":true}],"status":"complete","type":"individual","measure":"https://madie.cms.gov/Measure/CMS826FHIRHHPI","period":{"start":"2026-01-01","end":"2026-12-31"},"group":[{"id":"Group_1","population":[{"id":"InitialPopulation_1","code":{"coding":[{"system":"http://terminology.hl7.org/CodeSystem/measure-population","code":"initial-population","display":"Initial Population"}]},"count":1},{"id":"Denominator_1","code":{"coding":[{"system":"http://terminology.hl7.org/CodeSystem/measure-population","code":"denominator","display":"Denominator"}]},"count":1},{"id":"DenominatorExclusion_1","code":{"coding":[{"system":"http://terminology.hl7.org/CodeSystem/measure-population","code":"denominator-exclusion","display":"Denominator Exclusion"}]},"count":0},{"id":"Numerator_1","code":{"coding":[{"system":"http://terminology.hl7.org/CodeSystem/measure-population","code":"numerator","display":"Numerator"}]},"count":0}],"measureScore":{"value":0.0}}],"evaluatedResource":[{"reference":"Patient/7f0a0909-3618-4bea-899e-0a12c8aed445"},{"reference":"Encounter/ed611f2d-0a89-4e5d-a9ad-73704e1ca23f"},{"reference":"Encounter/44f09e60-ddb1-48dc-a051-7392fa3d7810"}]},"request":{"method":"PUT","url":"MeasureReport/42d69a27-7e11-49f3-904d-6b8baae7d84b"}},{"resource":{"resourceType":"Patient","id":"56336dd0-efe8-4251-b599-dd3f47279d6d","meta":{"profile":["http://hl7.org/fhir/us/qicore/StructureDefinition/qicore-patient"]},"extension":[{"url":"http://hl7.org/fhir/us/core/StructureDefinition/us-core-race","extension":[{"url":"ombCategory","valueCoding":{"system":"urn:oid:2.16.840.1.113883.6.238","code":"2028-9","display":"Asian","userSelected":true}},{"url":"text","valueString":"Asian"}]},{"url":"http://hl7.org/fhir/us/core/StructureDefinition/us-core-ethnicity","extension":[{"url":"ombCategory","valueCoding":{"system":"urn:oid:2.16.840.1.113883.6.238","code":"2186-5","display":"Not Hispanic or Latino","userSelected":true}},{"url":"text","valueString":"Not Hispanic or Latino"}]}],"identifier":[{"type":{"coding":[{"system":"http://terminology.hl7.org/CodeSystem/v2-0203","code":"MR"}]},"system":"https://bonnie-fhir.healthit.gov/","value":"64121dd40c4b751dfe4ccb64"}],"name":[{"family":"IPPFail","given":["Age17StartOfIPHospitalizations"]}],"gender":"female","birthDate":"2008-02-01"},"request":{"method":"PUT","url":"Patient/56336dd0-efe8-4251-b599-dd3f47279d6d"}},{"resource":{"resourceType":"Encounter","id":"802a829a-34ca-4036-9755-98e080e2d356","meta":{"profile":["http://hl7.org/fhir/us/qicore/StructureDefinition/qicore-encounter"]},"status":"finished","class":{"system":"http://terminology.hl7.org/CodeSystem/v3-ActCode","code":"EMER","display":"emergency"},"type":[{"coding":[{"system":"http://snomed.info/sct","version":"2022-09","code":"4525004","display":"Emergency department patient visit (procedure)","userSelected":true}]}],"subject":{"reference":"Patient/6e5ce204-2257-40d5-a356-13614de68783"},"period":{"start":"2026-01-31T08:00:00.000+00:00","end":"2026-02-01T08:15:00.000+00:00"}},"request":{"method":"PUT","url":"Encounter/802a829a-34ca-4036-9755-98e080e2d356"}},{"resource":{"resourceType":"Patient","id":"6e5ce204-2257-40d5-a356-13614de68783","meta":{"profile":["http://hl7.org/fhir/us/qicore/StructureDefinition/qicore-patient"]},"extension":[{"url":"http://hl7.org/fhir/us/core/StructureDefinition/us-core-race","extension":[{"url":"ombCategory","valueCoding":{"system":"urn:oid:2.16.840.1.113883.6.238","code":"2028-9","display":"Asian","userSelected":true}},{"url":"text","valueString":"Asian"}]},{"url":"http://hl7.org/fhir/us/core/StructureDefinition/us-core-ethnicity","extension":[{"url":"ombCategory","valueCoding":{"system":"urn:oid:2.16.840.1.113883.6.238","code":"2186-5","display":"Not Hispanic or Latino","userSelected":true}},{"url":"text","valueString":"Not Hispanic or Latino"}]}],"identifier":[{"type":{"coding":[{"system":"http://terminology.hl7.org/CodeSystem/v2-0203","code":"MR"}]},"system":"https://bonnie-fhir.healthit.gov/","value":"647f51ab5e6d159b6e36ee31"}],"name":[{"family":"NUMERPass","given":["IPEncounterWithNewUnstageableNotPOAIndicator"]}],"gender":"other","birthDate":"2006-02-01"},"request":{"method":"PUT","url":"Patient/6e5ce204-2257-40d5-a356-13614de68783"}},{"resource":{"resourceType":"Encounter","id":"2eba992d-7235-4cdf-9f58-1243b3ee82e3","meta":{"profile":["http://hl7.org/fhir/us/qicore/StructureDefinition/qicore-encounter"]},"status":"finished","class":{"system":"http://terminology.hl7.org/CodeSystem/v3-ActCode","code":"EMER","display":"emergency"},"type":[{"coding":[{"system":"http://snomed.info/sct","version":"2022-09","code":"4525004","display":"Emergency department patient visit (procedure)","userSelected":true}]}],"subject":{"reference":"Patient/bc28b32e-1c2f-457c-8c60-f36041a2519b"},"period":{"start":"2026-01-31T08:00:00.000+00:00","end":"2026-02-01T08:15:00.000+00:00"}},"request":{"method":"PUT","url":"Encounter/2eba992d-7235-4cdf-9f58-1243b3ee82e3"}},{"resource":{"resourceType":"Measure","id":"CMS826FHIRHHPI","meta":{"profile":["http://hl7.org/fhir/uv/crmi/StructureDefinition/crmi-shareablemeasure","http://hl7.org/fhir/us/cqfmeasures/StructureDefinition/computable-measure-cqfm","http://hl7.org/fhir/us/cqfmeasures/StructureDefinition/publishable-measure-cqfm","http://hl7.org/fhir/us/cqfmeasures/StructureDefinition/executable-measure-cqfm","http://hl7.org/fhir/us/cqfmeasures/StructureDefinition/cql-measure-cqfm","http://hl7.org/fhir/us/cqfmeasures/StructureDefinition/elm-measure-cqfm","http://hl7.org/fhir/us/cqfmeasures/StructureDefinition/proportion-measure-cqfm"]},"contained":[{"resourceType":"Library","id":"effective-data-requirements","extension":[{"url":"http://hl7.org/fhir/us/cqfmeasures/StructureDefinition/cqfm-directReferenceCode","valueCoding":{"system":"http://snomed.info/sct","code":"248153007","display":"Male (finding)"}},{"url":"http://hl7.org/fhir/us/cqfmeasures/StructureDefinition/cqfm-directReferenceCode","valueCoding":{"system":"http://snomed.info/sct","code":"248152002","display":"Female (finding)"}},{"url":"http://hl7.org/fhir/us/cqfmeasures/StructureDefinition/cqfm-directReferenceCode","valueCoding":{"system":"http://loinc.org","code":"8709-8","display":"Physical findings of Skin"}},{"url":"http://hl7.org/fhir/StructureDefinition/cqf-logicDefinition","extension":[{"url":"libraryName","valueString":"SupplementalDataElements"},{"url":"name","valueString":"SDE Sex"},{"url":"statement","valueString":"define \"SDE Sex\":   case     when Patient.sex = '248153007' then \"Male (finding)\"     when Patient.sex = '248152002' then \"Female (finding)\"     else null   end"},{"url":"displaySequence","valueInteger":0}]},{"url":"http://hl7.org/fhir/StructureDefinition/cqf-logicDefinition","extension":[{"url":"libraryName","valueString":"CMS826FHIRHHPI"},{"url":"name","valueString":"SDE Sex"},{"url":"statement","valueString":"define \"SDE Sex\":   SDE.\"SDE Sex\""},{"url":"displaySequence","valueInteger":1}]},{"url":"http://hl7.org/fhir/StructureDefinition/cqf-logicDefinition","extension":[{"url":"libraryName","valueString":"CMS826FHIRHHPI"},{"url":"name","valueString":"Encounter with Age 18 and Older"},{"url":"statement","valueString":"define \"Encounter with Age 18 and Older\":   [\"Encounter\": \"Encounter Inpatient\"] InpatientEncounter     where AgeInYearsAt(date from start of InpatientEncounter.period) >= 18       and InpatientEncounter.period ends during day of \"Measurement Period\"       and InpatientEncounter.status = 'finished'"},{"url":"displaySequence","valueInteger":2}]},{"url":"http://hl7.org/fhir/StructureDefinition/cqf-logicDefinition","extension":[{"url":"libraryName","valueString":"CMS826FHIRHHPI"},{"url":"name","valueString":"Encounter with New Deep Tissue Pressure Injury Not POA by Indicator"},{"url":"statement","valueString":"define \"Encounter with New Deep Tissue Pressure Injury Not POA by Indicator\":   \"Encounter with Age 18 and Older\" InpatientHospitalization     where InpatientHospitalization.isDiagnosisPresentOnAdmission ( \"Pressure Injury Deep Tissue Diagnoses\", \"Not Present On Admission or Documentation Insufficient to Determine\" )"},{"url":"displaySequence","valueInteger":3}]},{"url":"http://hl7.org/fhir/StructureDefinition/cqf-logicDefinition","extension":[{"url":"libraryName","valueString":"CMS826FHIRHHPI"},{"url":"name","valueString":"Clinical SkinExams with Pressure Injury"},{"url":"statement","valueString":"define \"Clinical SkinExams with Pressure Injury\":   [\"ObservationClinicalResult\": \"Physical findings of Skin\"] ClinicalSkinExam     where ClinicalSkinExam.isIn ( \"Pressure Injury Stage 2, 3, 4 or Unstageable\" )"},{"url":"displaySequence","valueInteger":4}]},{"url":"http://hl7.org/fhir/StructureDefinition/cqf-logicDefinition","extension":[{"url":"libraryName","valueString":"CMS826FHIRHHPI"},{"url":"name","valueString":"Simple SkinExams with Pressure Injury"},{"url":"statement","valueString":"define \"Simple SkinExams with Pressure Injury\":   [\"SimpleObservation\": \"Physical findings of Skin\"] ObsSkinExam     where ObsSkinExam.isIn ( \"Pressure Injury Stage 2, 3, 4 or Unstageable\" )"},{"url":"displaySequence","valueInteger":5}]},{"url":"http://hl7.org/fhir/StructureDefinition/cqf-logicDefinition","extension":[{"url":"libraryName","valueString":"CMS826FHIRHHPI"},{"url":"name","valueString":"SkinExams with Pressure Injury"},{"url":"statement","valueString":"// Skin exams may be either a SimpleObservation or an ObservationClinicalResult // The following union is used to combine the two types of skin exams    define \"SkinExams with Pressure Injury\":   \"Clinical SkinExams with Pressure Injury\"     union \"Simple SkinExams with Pressure Injury\""},{"url":"displaySequence","valueInteger":6}]},{"url":"http://hl7.org/fhir/StructureDefinition/cqf-logicDefinition","extension":[{"url":"libraryName","valueString":"CMS826FHIRHHPI"},{"url":"name","valueString":"Encounter with New Deep Tissue Pressure Injury by Skin Exam after First 72 Hours"},{"url":"statement","valueString":"define \"Encounter with New Deep Tissue Pressure Injury by Skin Exam after First 72 Hours\":   \"Encounter with Age 18 and Older\" InpatientHospitalization     let hospitalizationPeriod: InpatientHospitalization.hospitalizationWithObservation ( )     with \"SkinExams with Pressure Injury\" SkinExam       such that SkinExam.effective.toInterval ( ) starts during Interval[start of hospitalizationPeriod + 72 hours, end of hospitalizationPeriod]"},{"url":"displaySequence","valueInteger":7}]},{"url":"http://hl7.org/fhir/StructureDefinition/cqf-logicDefinition","extension":[{"url":"libraryName","valueString":"CMS826FHIRHHPI"},{"url":"name","valueString":"Encounter with New Deep Tissue Pressure Injury"},{"url":"statement","valueString":"define \"Encounter with New Deep Tissue Pressure Injury\":   \"Encounter with New Deep Tissue Pressure Injury Not POA by Indicator\"     union \"Encounter with New Deep Tissue Pressure Injury by Skin Exam after First 72 Hours\""},{"url":"displaySequence","valueInteger":8}]},{"url":"http://hl7.org/fhir/StructureDefinition/cqf-logicDefinition","extension":[{"url":"libraryName","valueString":"CMS826FHIRHHPI"},{"url":"name","valueString":"Encounter with New Stage 2, 3, 4 or Unstageable Pressure Injury Not POA by Indicator"},{"url":"statement","valueString":"define \"Encounter with New Stage 2, 3, 4 or Unstageable Pressure Injury Not POA by Indicator\":   \"Encounter with Age 18 and Older\" InpatientHospitalization     where InpatientHospitalization.isDiagnosisPresentOnAdmission ( \"Pressure Injury Stage 2, 3, 4, or Unstageable Diagnoses\", \"Not Present On Admission or Documentation Insufficient to Determine\" )"},{"url":"displaySequence","valueInteger":9}]},{"url":"http://hl7.org/fhir/StructureDefinition/cqf-logicDefinition","extension":[{"url":"libraryName","valueString":"CMS826FHIRHHPI"},{"url":"name","valueString":"Encounter with New Stage 2, 3, 4 or Unstageable Pressure Injury by Skin Exam after First 24 Hours"},{"url":"statement","valueString":"define \"Encounter with New Stage 2, 3, 4 or Unstageable Pressure Injury by Skin Exam after First 24 Hours\":   \"Encounter with Age 18 and Older\" InpatientHospitalization     let hospitalizationPeriod: CQMCommon.\"HospitalizationWithObservation\" ( InpatientHospitalization )     with \"SkinExams with Pressure Injury\" SkinExam       such that SkinExam.effective.toInterval ( ) starts during Interval[start of hospitalizationPeriod + 24 hours, end of hospitalizationPeriod]"},{"url":"displaySequence","valueInteger":10}]},{"url":"http://hl7.org/fhir/StructureDefinition/cqf-logicDefinition","extension":[{"url":"libraryName","valueString":"CMS826FHIRHHPI"},{"url":"name","valueString":"Encounter with New Stage 2, 3, 4 or Unstageable Pressure Injury"},{"url":"statement","valueString":"define \"Encounter with New Stage 2, 3, 4 or Unstageable Pressure Injury\":   \"Encounter with New Stage 2, 3, 4 or Unstageable Pressure Injury Not POA by Indicator\"     union \"Encounter with New Stage 2, 3, 4 or Unstageable Pressure Injury by Skin Exam after First 24 Hours\""},{"url":"displaySequence","valueInteger":11}]},{"url":"http://hl7.org/fhir/StructureDefinition/cqf-logicDefinition","extension":[{"url":"libraryName","valueString":"CMS826FHIRHHPI"},{"url":"name","valueString":"Numerator"},{"url":"statement","valueString":"define \"Numerator\":   \"Encounter with New Deep Tissue Pressure Injury\"     union \"Encounter with New Stage 2, 3, 4 or Unstageable Pressure Injury\""},{"url":"displaySequence","valueInteger":12}]},{"url":"http://hl7.org/fhir/StructureDefinition/cqf-logicDefinition","extension":[{"url":"libraryName","valueString":"CMS826FHIRHHPI"},{"url":"name","valueString":"Initial Population"},{"url":"statement","valueString":"define \"Initial Population\":   \"Encounter with Age 18 and Older\""},{"url":"displaySequence","valueInteger":13}]},{"url":"http://hl7.org/fhir/StructureDefinition/cqf-logicDefinition","extension":[{"url":"libraryName","valueString":"CMS826FHIRHHPI"},{"url":"name","valueString":"Denominator"},{"url":"statement","valueString":"define \"Denominator\":   \"Initial Population\""},{"url":"displaySequence","valueInteger":14}]},{"url":"http://hl7.org/fhir/StructureDefinition/cqf-logicDefinition","extension":[{"url":"libraryName","valueString":"SupplementalDataElements"},{"url":"name","valueString":"SDE Payer"},{"url":"statement","valueString":"define \"SDE Payer\":   [Coverage: type in \"Payer Type\"] Payer     return {       code: Payer.type,       period: Payer.period     }"},{"url":"displaySequence","valueInteger":15}]},{"url":"http://hl7.org/fhir/StructureDefinition/cqf-logicDefinition","extension":[{"url":"libraryName","valueString":"CMS826FHIRHHPI"},{"url":"name","valueString":"SDE Payer"},{"url":"statement","valueString":"define \"SDE Payer\":   SDE.\"SDE Payer\""},{"url":"displaySequence","valueInteger":16}]},{"url":"http://hl7.org/fhir/StructureDefinition/cqf-logicDefinition","extension":[{"url":"libraryName","valueString":"SupplementalDataElements"},{"url":"name","valueString":"SDE Ethnicity"},{"url":"statement","valueString":"define \"SDE Ethnicity\":   Patient.ethnicity E     return Tuple {       codes: { E.ombCategory } union E.detailed,       display: E.text     }"},{"url":"displaySequence","valueInteger":17}]},{"url":"http://hl7.org/fhir/StructureDefinition/cqf-logicDefinition","extension":[{"url":"libraryName","valueString":"CMS826FHIRHHPI"},{"url":"name","valueString":"SDE Ethnicity"},{"url":"statement","valueString":"define \"SDE Ethnicity\":   SDE.\"SDE Ethnicity\""},{"url":"displaySequence","valueInteger":18}]},{"url":"http://hl7.org/fhir/StructureDefinition/cqf-logicDefinition","extension":[{"url":"libraryName","valueString":"CMS826FHIRHHPI"},{"url":"name","valueString":"Encounter with Deep Tissue Pressure Injury POA by Indicator"},{"url":"statement","valueString":"define \"Encounter with Deep Tissue Pressure Injury POA by Indicator\":   \"Encounter with Age 18 and Older\" InpatientHospitalization     where InpatientHospitalization.isDiagnosisPresentOnAdmission ( \"Pressure Injury Deep Tissue Diagnoses\", \"Present on Admission or Clinically Undetermined\" )"},{"url":"displaySequence","valueInteger":19}]},{"url":"http://hl7.org/fhir/StructureDefinition/cqf-logicDefinition","extension":[{"url":"libraryName","valueString":"CMS826FHIRHHPI"},{"url":"name","valueString":"Encounter with Deep Tissue Pressure Injury POA by Skin Exam within First 72 Hours"},{"url":"statement","valueString":"define \"Encounter with Deep Tissue Pressure Injury POA by Skin Exam within First 72 Hours\":   \"Encounter with Age 18 and Older\" InpatientHospitalization     let hospitalizationPeriod: InpatientHospitalization.hospitalizationWithObservation ( )     with \"SkinExams with Pressure Injury\" SkinExam       such that SkinExam.effective.toInterval ( ) starts during Interval[start of hospitalizationPeriod, start of hospitalizationPeriod + 72 hours]"},{"url":"displaySequence","valueInteger":20}]},{"url":"http://hl7.org/fhir/StructureDefinition/cqf-logicDefinition","extension":[{"url":"libraryName","valueString":"CMS826FHIRHHPI"},{"url":"name","valueString":"Encounter with Deep Tissue Pressure Injury POA by Indicator or Skin Exam within First 72 Hours"},{"url":"statement","valueString":"define \"Encounter with Deep Tissue Pressure Injury POA by Indicator or Skin Exam within First 72 Hours\":   \"Encounter with Deep Tissue Pressure Injury POA by Indicator\"     union \"Encounter with Deep Tissue Pressure Injury POA by Skin Exam within First 72 Hours\""},{"url":"displaySequence","valueInteger":21}]},{"url":"http://hl7.org/fhir/StructureDefinition/cqf-logicDefinition","extension":[{"url":"libraryName","valueString":"CMS826FHIRHHPI"},{"url":"name","valueString":"Encounter with Stage 2, 3, 4, or Unstageable Pressure Injury Present on Admission by POA Indicator"},{"url":"statement","valueString":"define \"Encounter with Stage 2, 3, 4, or Unstageable Pressure Injury Present on Admission by POA Indicator\":   \"Encounter with Age 18 and Older\" InpatientHospitalization     where InpatientHospitalization.isDiagnosisPresentOnAdmission ( \"Pressure Injury Stage 2, 3, 4, or Unstageable Diagnoses\", \"Present on Admission or Clinically Undetermined\" )"},{"url":"displaySequence","valueInteger":22}]},{"url":"http://hl7.org/fhir/StructureDefinition/cqf-logicDefinition","extension":[{"url":"libraryName","valueString":"CMS826FHIRHHPI"},{"url":"name","valueString":"Encounter with Stage 2, 3, 4 or Unstageable Pressure Injury POA by Skin Exam within 24 Hours"},{"url":"statement","valueString":"define \"Encounter with Stage 2, 3, 4 or Unstageable Pressure Injury POA by Skin Exam within 24 Hours\":   \"Encounter with Age 18 and Older\" InpatientHospitalization     let hospitalizationPeriod: InpatientHospitalization.hospitalizationWithObservation ( )     with \"SkinExams with Pressure Injury\" SkinExam       such that SkinExam.effective.toInterval ( ) starts during Interval[start of hospitalizationPeriod, start of hospitalizationPeriod + 24 hours]"},{"url":"displaySequence","valueInteger":23}]},{"url":"http://hl7.org/fhir/StructureDefinition/cqf-logicDefinition","extension":[{"url":"libraryName","valueString":"CMS826FHIRHHPI"},{"url":"name","valueString":"Encounter with Stage 2, 3, 4 or Unstageable Pressure Injury POA"},{"url":"statement","valueString":"define \"Encounter with Stage 2, 3, 4 or Unstageable Pressure Injury POA\":   \"Encounter with Stage 2, 3, 4, or Unstageable Pressure Injury Present on Admission by POA Indicator\"     union \"Encounter with Stage 2, 3, 4 or Unstageable Pressure Injury POA by Skin Exam within 24 Hours\""},{"url":"displaySequence","valueInteger":24}]},{"url":"http://hl7.org/fhir/StructureDefinition/cqf-logicDefinition","extension":[{"url":"libraryName","valueString":"CMS826FHIRHHPI"},{"url":"name","valueString":"Denominator Exclusions"},{"url":"statement","valueString":"define \"Denominator Exclusions\":   \"Encounter with Deep Tissue Pressure Injury POA by Indicator or Skin Exam within First 72 Hours\"     union \"Encounter with Stage 2, 3, 4 or Unstageable Pressure Injury POA\""},{"url":"displaySequence","valueInteger":25}]},{"url":"http://hl7.org/fhir/StructureDefinition/cqf-logicDefinition","extension":[{"url":"libraryName","valueString":"SupplementalDataElements"},{"url":"name","valueString":"SDE Race"},{"url":"statement","valueString":"define \"SDE Race\":   Patient.race R     return Tuple {       codes: R.ombCategory union R.detailed,       display: R.text     }"},{"url":"displaySequence","valueInteger":26}]},{"url":"http://hl7.org/fhir/StructureDefinition/cqf-logicDefinition","extension":[{"url":"libraryName","valueString":"CMS826FHIRHHPI"},{"url":"name","valueString":"SDE Race"},{"url":"statement","valueString":"define \"SDE Race\":   SDE.\"SDE Race\""},{"url":"displaySequence","valueInteger":27}]},{"url":"http://hl7.org/fhir/StructureDefinition/cqf-logicDefinition","extension":[{"url":"libraryName","valueString":"FHIRHelpers"},{"url":"name","valueString":"ToString"},{"url":"statement","valueString":"define function ToString(value uri): value.value"},{"url":"displaySequence","valueInteger":28}]},{"url":"http://hl7.org/fhir/StructureDefinition/cqf-logicDefinition","extension":[{"url":"libraryName","valueString":"FHIRHelpers"},{"url":"name","valueString":"ToInterval"},{"url":"statement","valueString":"/* @description: Converts the given [Period](https://hl7.org/fhir/datatypes.html#Period) value to a CQL DateTime Interval @comment: If the start value of the given period is unspecified, the starting boundary of the resulting interval will be open (meaning the start of the interval is unknown, as opposed to interpreted as the beginning of time). */ define function ToInterval(period FHIR.Period):     if period is null then         null     else         if period.\"start\" is null then             Interval(period.\"start\".value, period.\"end\".value]         else             Interval[period.\"start\".value, period.\"end\".value]"},{"url":"displaySequence","valueInteger":29}]},{"url":"http://hl7.org/fhir/StructureDefinition/cqf-logicDefinition","extension":[{"url":"libraryName","valueString":"CQMCommon"},{"url":"name","valueString":"isDiagnosisPresentOnAdmission"},{"url":"statement","valueString":"/*  @description: Returns true if the given diagnosis is present on admission, based on the given poaValueSet  @comment: See the QICore 6 Authoring Patterns discussion on [Principal Diagnosis and Present on Admission](https://github.com/cqframework/CQL-Formatting-and-Usage-Wiki/wiki/Authoring-Patterns-QICore-v6.0.0#conditions-present-on-admission-and-principal-diagnoses) for more information  */  define fluent function isDiagnosisPresentOnAdmission(encounter Encounter, diagnosisValueSet ValueSet, poaValueSet ValueSet):    exists (      (encounter.claimDiagnosis()) CD        where CD.onAdmission in poaValueSet          and (            CD.diagnosis in diagnosisValueSet              or CD.diagnosis.getCondition().code in diagnosisValueSet          )    )"},{"url":"displaySequence","valueInteger":30}]},{"url":"http://hl7.org/fhir/StructureDefinition/cqf-logicDefinition","extension":[{"url":"libraryName","valueString":"CQMCommon"},{"url":"name","valueString":"claimDiagnosis"},{"url":"statement","valueString":"/* @description: Returns the claim diagnosis elements for the given encounter @comment: See the QICore 6 Authoring Patterns discussion on [Principal Diagnosis and Present on Admission](https://github.com/cqframework/CQL-Formatting-and-Usage-Wiki/wiki/Authoring-Patterns-QICore-v6.0.0#conditions-present-on-admission-and-principal-diagnoses) for more information */ define fluent function claimDiagnosis(encounter Encounter):   encounter E     let        claim: ([Claim] C where C.status = 'active' and C.use = 'claim' and exists (C.item I where I.encounter.references(E))),       claimItem: (claim.item I where I.encounter.references(E))     return claim.diagnosis D where D.sequence in claimItem.diagnosisSequence"},{"url":"displaySequence","valueInteger":31}]},{"url":"http://hl7.org/fhir/StructureDefinition/cqf-logicDefinition","extension":[{"url":"libraryName","valueString":"QICoreCommon"},{"url":"name","valueString":"references"},{"url":"statement","valueString":"/* @description: Returns true if any of the given references are to the given resource @comment: Returns true if the `id` element of the given resource exactly equals the tail of any of the given references. NOTE: This function assumes resources from the same source server. */ define fluent function references(references List<Reference>, resource Resource):   exists (references R where R.references(resource))"},{"url":"displaySequence","valueInteger":32}]},{"url":"http://hl7.org/fhir/StructureDefinition/cqf-logicDefinition","extension":[{"url":"libraryName","valueString":"QICoreCommon"},{"url":"name","valueString":"references"},{"url":"statement","valueString":"/* @description: Returns true if the given reference is to the given resource @comment: Returns true if the `id` element of the given resource exactly equals the tail of the given reference. NOTE: This function assumes resources from the same source server. */ define fluent function references(reference Reference, resource Resource):   resource.id = Last(Split(reference.reference, '/'))"},{"url":"displaySequence","valueInteger":33}]},{"url":"http://hl7.org/fhir/StructureDefinition/cqf-logicDefinition","extension":[{"url":"libraryName","valueString":"CQMCommon"},{"url":"name","valueString":"getCondition"},{"url":"statement","valueString":"/* @description: Returns the Condition resource for the given reference */ define fluent function getCondition(reference Reference):   singleton from (([ConditionEncounterDiagnosis] union [ConditionProblemsHealthConcerns]) C where reference.references(C.id))"},{"url":"displaySequence","valueInteger":34}]},{"url":"http://hl7.org/fhir/StructureDefinition/cqf-logicDefinition","extension":[{"url":"libraryName","valueString":"QICoreCommon"},{"url":"name","valueString":"references"},{"url":"statement","valueString":"/* @description: Returns true if the given reference is to the given resourceId @comment: Returns true if the `resourceId` parameter exactly equals the tail of the given reference. NOTE: This function assumes resources from the same source server. */ define fluent function references(reference Reference, resourceId String):   resourceId = Last(Split(reference.reference, '/'))"},{"url":"displaySequence","valueInteger":35}]},{"url":"http://hl7.org/fhir/StructureDefinition/cqf-logicDefinition","extension":[{"url":"libraryName","valueString":"CQMCommon"},{"url":"name","valueString":"hospitalizationWithObservation"},{"url":"statement","valueString":"/* @description: Hospitalization with Observation returns the total interval from the start of any immediately prior emergency department visit through the observation visit to the discharge of the given encounter */ define fluent function hospitalizationWithObservation(TheEncounter Encounter ):   TheEncounter Visit     let ObsVisit: Last([Encounter: \"Observation Services\"] LastObs       where LastObs.status = 'finished'             and LastObs.period ends 1 hour or less on or before start of Visit.period       sort by end of period      ),      VisitStart: Coalesce(start of ObsVisit.period, start of Visit.period),      EDVisit: Last([Encounter: \"Emergency Department Visit\"] LastED       where LastED.status = 'finished'             and LastED.period ends 1 hour or less on or before VisitStart       sort by end of period      )     return Interval[Coalesce(start of EDVisit.period, VisitStart), end of Visit.period]"},{"url":"displaySequence","valueInteger":36}]},{"url":"http://hl7.org/fhir/StructureDefinition/cqf-logicDefinition","extension":[{"url":"libraryName","valueString":"CMS826FHIRHHPI"},{"url":"name","valueString":"isIn"},{"url":"statement","valueString":"// @description This function, attached to either a SimpleObseration or an ObservationClinicalResult,  is used to determine if the observation is completed and its value is in the given value set // @example  anObservation.isIn(\"Pressure Injury Stage 2, 3, 4 or Unstageable\")    define fluent function isIn(observation Choice<\"SimpleObservation\", \"ObservationClinicalResult\">, vset ValueSet):   observation.status in { 'final', 'amended', 'corrected' }     and observation.effective during \"Measurement Period\"     and case       when observation is SimpleObservation then ( observation as SimpleObservation ).value as Concept in vset       when observation is ObservationClinicalResult then ( observation as ObservationClinicalResult ).value as Concept in vset        else null end"},{"url":"displaySequence","valueInteger":37}]},{"url":"http://hl7.org/fhir/StructureDefinition/cqf-logicDefinition","extension":[{"url":"libraryName","valueString":"CQMCommon"},{"url":"name","valueString":"HospitalizationWithObservation"},{"url":"statement","valueString":"/* @description: Hospitalization with Observation returns the total interval from the start of any immediately prior emergency department visit through the observation visit to the discharge of the given encounter @deprecated: This function is deprecated. Use the fluent function `hospitalizationWithObservation()` instead. */ define function \"HospitalizationWithObservation\"(TheEncounter Encounter ):   TheEncounter Visit     let ObsVisit: Last([Encounter: \"Observation Services\"] LastObs       where LastObs.status = 'finished'             and LastObs.period ends 1 hour or less on or before start of Visit.period       sort by end of period      ),      VisitStart: Coalesce(start of ObsVisit.period, start of Visit.period),      EDVisit: Last([Encounter: \"Emergency Department Visit\"] LastED       where LastED.status = 'finished'             and LastED.period ends 1 hour or less on or before VisitStart       sort by end of period      )     return Interval[Coalesce(start of EDVisit.period, VisitStart), end of Visit.period]"},{"url":"displaySequence","valueInteger":38}]},{"url":"http://hl7.org/fhir/StructureDefinition/cqf-logicDefinition","extension":[{"url":"libraryName","valueString":"FHIRHelpers"},{"url":"name","valueString":"ToCode"},{"url":"statement","valueString":"/* @description: Converts the given FHIR [Coding](https://hl7.org/fhir/datatypes.html#Coding) value to a CQL Code. */ define function ToCode(coding FHIR.Coding):     if coding is null then         null     else         System.Code {           code: coding.code.value,           system: coding.system.value,           version: coding.version.value,           display: coding.display.value         }"},{"url":"displaySequence","valueInteger":39}]}],"name":"EffectiveDataRequirements","status":"active","type":{"coding":[{"system":"http://terminology.hl7.org/CodeSystem/library-type","code":"module-definition"}]},"relatedArtifact":[{"type":"depends-on","display":"Library SDE","resource":"https://madie.cms.gov/Library/SupplementalDataElements|5.1.000"},{"type":"depends-on","display":"Library FHIRHelpers","resource":"https://madie.cms.gov/Library/FHIRHelpers|4.4.000"},{"type":"depends-on","display":"Library CQMCommon","resource":"https://madie.cms.gov/Library/CQMCommon|4.1.000"},{"type":"depends-on","display":"Library QICoreCommon","resource":"https://madie.cms.gov/Library/QICoreCommon|4.0.000"},{"type":"depends-on","display":"Code system SNOMEDCT","resource":"http://snomed.info/sct"},{"type":"depends-on","display":"Code system LOINC","resource":"http://loinc.org"},{"type":"depends-on","display":"Value set Encounter Inpatient","resource":"http://cts.nlm.nih.gov/fhir/ValueSet/2.16.840.1.113883.3.666.5.307"},{"type":"depends-on","display":"Value set Pressure Injury Deep Tissue Diagnoses","resource":"http://cts.nlm.nih.gov/fhir/ValueSet/2.16.840.1.113762.1.4.1147.194"},{"type":"depends-on","display":"Value set Not Present On Admission or Documentation Insufficient to Determine","resource":"http://cts.nlm.nih.gov/fhir/ValueSet/2.16.840.1.113762.1.4.1147.198"},{"type":"depends-on","display":"Value set Observation Services","resource":"http://cts.nlm.nih.gov/fhir/ValueSet/2.16.840.1.113762.1.4.1111.143"},{"type":"depends-on","display":"Value set Emergency Department Visit","resource":"http://cts.nlm.nih.gov/fhir/ValueSet/2.16.840.1.113883.3.117.1.7.1.292"},{"type":"depends-on","display":"Value set Pressure Injury Stage 2, 3, 4 or Unstageable","resource":"http://cts.nlm.nih.gov/fhir/ValueSet/2.16.840.1.113762.1.4.1147.113"},{"type":"depends-on","display":"Value set Pressure Injury Stage 2, 3, 4, or Unstageable Diagnoses","resource":"http://cts.nlm.nih.gov/fhir/ValueSet/2.16.840.1.113762.1.4.1147.196"},{"type":"depends-on","display":"Value set Payer Type","resource":"http://cts.nlm.nih.gov/fhir/ValueSet/2.16.840.1.114222.4.11.3591"},{"type":"depends-on","display":"Value set Present on Admission or Clinically Undetermined","resource":"http://cts.nlm.nih.gov/fhir/ValueSet/2.16.840.1.113762.1.4.1147.197"}],"parameter":[{"name":"Measurement Period","use":"in","min":0,"max":"1","type":"Period"},{"name":"Numerator","use":"out","min":0,"max":"*","type":"Resource"},{"name":"Denominator","use":"out","min":0,"max":"*","type":"Resource"},{"name":"Initial Population","use":"out","min":0,"max":"*","type":"Resource"},{"name":"Denominator Exclusions","use":"out","min":0,"max":"*","type":"Resource"},{"name":"SDE Sex","use":"out","min":0,"max":"1","type":"Coding"},{"name":"SDE Payer","use":"out","min":0,"max":"*","type":"Resource"},{"name":"SDE Ethnicity","use":"out","min":0,"max":"1","type":"Resource"},{"name":"SDE Race","use":"out","min":0,"max":"1","type":"Resource"}],"dataRequirement":[{"type":"Patient","profile":["http://hl7.org/fhir/us/qicore/StructureDefinition/qicore-patient"],"mustSupport":["extension","url"]},{"type":"Encounter","profile":["http://hl7.org/fhir/us/qicore/StructureDefinition/qicore-encounter"],"mustSupport":["type","status","status.value","period","onAdmission","diagnosis","diagnosis.code"],"codeFilter":[{"path":"type","valueSet":"http://cts.nlm.nih.gov/fhir/ValueSet/2.16.840.1.113762.1.4.1111.143"}]},{"type":"Encounter","profile":["http://hl7.org/fhir/us/qicore/StructureDefinition/qicore-encounter"],"mustSupport":["type","status","status.value","period","onAdmission","diagnosis","diagnosis.code"],"codeFilter":[{"path":"type","valueSet":"http://cts.nlm.nih.gov/fhir/ValueSet/2.16.840.1.113883.3.117.1.7.1.292"}]},{"type":"Encounter","profile":["http://hl7.org/fhir/us/qicore/StructureDefinition/qicore-encounter"],"mustSupport":["type","period","status","status.value","onAdmission","diagnosis","diagnosis.code"],"codeFilter":[{"path":"type","valueSet":"http://cts.nlm.nih.gov/fhir/ValueSet/2.16.840.1.113883.3.666.5.307"}]},{"type":"Resource","profile":["http://hl7.org/fhir/StructureDefinition/Resource"],"mustSupport":["id","id.value"]},{"type":"Claim","profile":["http://hl7.org/fhir/us/qicore/StructureDefinition/qicore-claim"],"mustSupport":["status","status.value","use","use.value","item"]},{"type":"Condition","profile":["http://hl7.org/fhir/us/qicore/StructureDefinition/qicore-condition-encounter-diagnosis"]},{"type":"Condition","profile":["http://hl7.org/fhir/us/qicore/StructureDefinition/qicore-condition-problems-health-concerns"]},{"type":"Observation","profile":["http://hl7.org/fhir/us/qicore/StructureDefinition/qicore-simple-observation"],"mustSupport":["value"]},{"type":"Observation","profile":["http://hl7.org/fhir/us/qicore/StructureDefinition/qicore-simple-observation"],"mustSupport":["code"],"codeFilter":[{"path":"code","code":[{"system":"http://loinc.org","code":"8709-8","display":"Physical findings of Skin"}]}]},{"type":"Observation","profile":["http://hl7.org/fhir/us/qicore/StructureDefinition/qicore-observation-clinical-result"],"mustSupport":["value"]},{"type":"Observation","profile":["http://hl7.org/fhir/us/qicore/StructureDefinition/qicore-observation-clinical-result"],"mustSupport":["code"],"codeFilter":[{"path":"code","code":[{"system":"http://loinc.org","code":"8709-8","display":"Physical findings of Skin"}]}]},{"type":"Coverage","profile":["http://hl7.org/fhir/us/qicore/StructureDefinition/qicore-coverage"],"mustSupport":["type","period"],"codeFilter":[{"path":"type","valueSet":"http://cts.nlm.nih.gov/fhir/ValueSet/2.16.840.1.114222.4.11.3591"}]}]}],"extension":[{"id":"supplementalDataGuidance","url":"http://hl7.org/fhir/us/cqfmeasures/StructureDefinition/cqfm-supplementalDataGuidance","extension":[{"url":"guidance","valueString":"For every patient evaluated by this measure, also identify payer, race, ethnicity and sex"},{"url":"usage","valueCodeableConcept":{"coding":[{"system":"http://terminology.hl7.org/CodeSystem/measure-data-usage","code":"supplemental-data","display":"Supplemental Data"}],"text":"Supplemental Data Guidance"}}]},{"url":"http://hl7.org/fhir/uv/crmi/StructureDefinition/crmi-effectiveDataRequirements","valueReference":{"reference":"#effective-data-requirements"}},{"url":"http://hl7.org/fhir/uv/crmi/StructureDefinition/crmi-softwaresystem","valueReference":{"reference":"Device/cqf-tooling"}}],"url":"https://madie.cms.gov/Measure/CMS826FHIRHHPI","identifier":[{"use":"usual","type":{"coding":[{"system":"http://terminology.hl7.org/CodeSystem/artifact-identifier-type","code":"short-name","display":"Short Name"}]},"system":"https://madie.cms.gov/measure/shortName","value":"CMS826FHIR"},{"use":"official","type":{"coding":[{"system":"http://terminology.hl7.org/CodeSystem/artifact-identifier-type","code":"version-independent","display":"Version Independent"}]},"system":"urn:ietf:rfc:3986","value":"urn:uuid:75ae89cd-c418-4de1-98c3-0230c72402b6"},{"use":"official","type":{"coding":[{"system":"http://terminology.hl7.org/CodeSystem/artifact-identifier-type","code":"version-specific","display":"Version Specific"}]},"system":"urn:ietf:rfc:3986","value":"urn:uuid:7604121d-a2b5-4cf9-8ff4-37535407857a"},{"use":"official","type":{"coding":[{"system":"http://terminology.hl7.org/CodeSystem/artifact-identifier-type","code":"endorser","display":"Endorser"}]},"system":"https://madie.cms.gov/measure/cbeId","value":"3498e","assigner":{"display":"CMS Consensus Based Entity"}},{"use":"official","type":{"coding":[{"system":"http://terminology.hl7.org/CodeSystem/artifact-identifier-type","code":"publisher","display":"Publisher"}]},"system":"https://madie.cms.gov/measure/cmsId","value":"826FHIR","assigner":{"display":"CMS"}}],"version":"0.3.000","name":"CMS826FHIRHHPI","title":"Hospital Harm - Pressure InjuryFHIR","status":"active","experimental":false,"date":"2025-06-19T19:40:52+00:00","publisher":"Centers for Medicare & Medicaid Services (CMS)","contact":[{"telecom":[{"system":"url","value":"https://www.cms.gov/"}]}],"description":"The measure assesses the number of inpatient hospitalizations for patients aged 18 and older who suffer the harm of developing a new stage 2, stage 3. stage 4. deep tissue, or unstageable pressure injury","usage":"This dQM is an episode-based measure. An episode is defined as each inpatient hospitalization or encounter that ends during the measurement period.  This FHIR-based measure has been derived from the QDM-based measure: CMS826v3. Please refer to the HL7 QI-Core Implementation Guide (https://hl7.org/fhir/us/qicore/STU6/) for more information on QI-Core and mapping recommendations from QDM to QI-Core STU 6 (https://hl7.org/fhir/us/qicore/STU6/qdm-to-qicore.html).","copyright":"Limited proprietary coding is contained in the Measure specifications for user convenience. Users of proprietary code sets should obtain all necessary licenses from the owners of the code sets. Mathematica disclaims all liability for use or accuracy of any third-party codes contained in the specifications. LOINC(R) copyright 2004-2024 Regenstrief Institute, Inc.   This material contains SNOMED Clinical Terms(R) (SNOMED CT[R]) copyright 2004-2024 International Health Terminology Standards Development Organization. ICD-10 copyright 2024 World Health Organization. All Rights Reserved.","effectivePeriod":{"start":"2026-01-01","end":"2026-12-31"},"author":[{"name":"Mathematica","telecom":[{"system":"url","value":"https://www.mathematica.org/"}]}],"relatedArtifact":[{"type":"citation","citation":"CITATION - American College of Physicians (ACP). (2015). Risk assessment and prevention of pressure ulcers: a clinical practice guideline. "},{"type":"citation","citation":"CITATION - Bly, D., Schallom, M., Sona, C., & Klinkenberg, D. (2016). A model of pressure, oxygenation, and perfusion risk factors for pressure ulcers in the intensive care unit. American Journal of Critical Care, 25(2), 156–154 "},{"type":"citation","citation":"CITATION - Brem, H., Maggi, J., Nierman, D., Rolnitzky, L., Bell, D., Rennert, R., Golinko, M., Yan, A., Lyder, C., Vladeck, B. High cost of stage IV pressure ulcers. Am J Surg. 2010 Oct;200(4):473-7. doi: 10.1016/j.amjsurg.2009.12.021. PMID: 20887840; PMCID: PMC2950802. "},{"type":"citation","citation":"CITATION - Centers for Medicare & Medicaid Services. (2015). Hospital-acquired conditions. Retrieved January 13, 2017, from https://www.cms.gov/Medicare/Medicare-Fee-for-Service-Payment/HospitalAcqCond/Hospital-Acquired_Conditions.html "},{"type":"citation","citation":"CITATION - Cremasco, M. F., Wenzel, F., Zanei, S. S. V., & Whitaker, I. Y. (2013). Pressure ulcers in the intensive care unit: the relationship between nursing workload, illness severity and pressure ulcer risk. Journal of Clinical Nursing, 22(15–16), 2183–2191. https://doi.org/10.1111/j.1365-2702.2012.04216.x "},{"type":"citation","citation":"CITATION - European Pressure Ulcer Advisory Panel, National Pressure Injury Advisory Panel and Pan Pacific Pressure Injury Alliance. (2019). Prevention and treatment of pressure ulcers/injuries: clinical practice guideline. The International Guideline: Haesler (Ed.). EPUAP/NPIAP/PPPIA. "},{"type":"citation","citation":"CITATION - Gunningberg, L., Donaldson, N., Aydin, C., Idvall, E. (2011). Exploring variation in pressure ulcer prevalence in Sweden and the USA: Benchmarking in action. 18. Journal of evaluation in clinical practice., 904-910 "},{"type":"citation","citation":"CITATION - Li, Z., Lin, F., Thalib, L., & Chaboyer, W. (2020). Global prevalence and incidence of pressure injuries in hospitalised adult patients: A systematic review and meta-analysis. International Journal of Nursing Studies, Vol. 105. https://doi.org/10.1016/j.ijnurstu.103546 "},{"type":"citation","citation":"CITATION - National Pressure Ulcer Advisory Panel (NPUAP), Submission of Open Comment August 23, 2019, retrieved May 12, 2020 from: https://cdn.ymaws.com/npiap.com/resource/resmgr/npuap_nqf_response_final_8.2.pdf "},{"type":"citation","citation":"CITATION - Rondinelli, J., Zuniga, S., Kipnis, P., Kawar, L. N., Liu, V., & Escobar, G. J. (2018). Hospital-acquired pressure injury: Risk-adjusted comparisons in an integrated healthcare delivery system. Nurs Res, 67(1), 16–25 "},{"type":"citation","citation":"CITATION - Tayyib, N., Coyer, F., & Lewis, P. (2016). Saudi Arabian adult intensive care unit pressure ulcer incidence and risk factors: A prospective cohort study. International Wound Journal, 13(5), 912–919. https://doi.org/10.1111/iwj.12406 "},{"type":"citation","citation":"CITATION - Wound Management & Prevention. (2018, November). Index: Ostomy wound management. 64(11):30-41. ISSN 1943-2720 "}],"library":["https://madie.cms.gov/Library/CMS826FHIRHHPI"],"disclaimer":"This performance measure is not a clinical guideline, does not establish a standard of medical care, and has not been tested for all potential applications.   THE MEASURES AND SPECIFICATIONS ARE PROVIDED “AS IS” WITHOUT WARRANTY OF ANY KIND.   Due to technical limitations, registered trademarks are indicated by (R) or [R] and unregistered trademarks are indicated by (TM) or [TM].","rationale":"This safety dQM captures the number of patients who experience harm in the form of a pressure injury during their inpatient hospitalization. The incidence of pressure injuries in hospitalized patients has been estimated at 5.4 per 10,000 patient-days, and the rate of hospital-acquired pressure injuries (HAPIs) has been estimated at 8.4% (Li et al., 2020). Over 50% of reported pressure injuries in hospitals were stage 2 or higher (Li et al., 2020). HAPIs are serious events and one of the most common patient harms. Pressure injuries commonly cause local infection, osteomyelitis, anemia, and sepsis in addition to causing significant depression, pain, and discomfort to patients (Shui et al., 2021). Pressure injury is considered a serious reportable event by the National Quality Forum (NQF) (NQF, 2011).   Studies have shown that age, severity of illness, comorbidity indexes, and Braden scores are predictors of HAPIs (Rondinelli et al., 2018). However, even after risk adjustment for patient risk factors, significant variation in rates of HAPI exist between hospitals (Rondinelli et al., 2018). It is widely accepted that the risk of developing a pressure injury can be reduced through best practices. Hospital controlled factors that have been found to be significantly associated with an increase in pressure ulcer risk include infrequent repositioning (p=0.005) and number of days to bed change (OR, 2.89 [95% CI, 1.26-6.63]) (Tayyib et al., 2016; Bly et al., 2016). Nurse staffing, measured as hours per patient day (HPPD), skill mix, and expertise are also significant predictors of HAPI development; patients who require more nursing activity have actually been found to have a lower risk for HAPIs (Tschannen & Anderson, 2020). Systematically measuring patients who develop new pressure injuries while in the hospital setting will provide hospitals with a reliable and timely measurement to more reliably assess harm reduction efforts and modify their improvement efforts in near real-time. This dQM fills a gap in measurement and provides incentives for hospitals’ quality improvement. The intent of this measure is to incentivize greater achievements in reducing harms and enhance hospital performance on patient safety outcomes.   Stage 2 pressure injuries, characterized by partial-thickness skin loss, carry a less serious burden in terms of patient harm than stage 3, stage 4, unstageable, and deep tissue pressure injuries (DTPI). Partial-thickness wounds heal primarily as a result of epidermal regeneration and often heal without untoward consequences, loss of skin function, or scar tissue formation. Based on the healing capabilities inherent in these partial-thickness wounds, it is the expert opinion of the National Pressure Ulcer Advisory Panel (NPUAP) that the presentation of stage 2 pressure injuries does not carry the same potential longstanding negative consequences to patients as do full thickness pressure injuries. Stage 2 pressure injuries constitute a very real patient harm that should be monitored and addressed; however, the relative level of harm is less than with stage 3, stage 4, unstageable pressure injuries and potentially DTPI (NPUAP, 2019).  The accurate and timely identification of DTPI is important for several reasons. Early discovery of DTPI allows prompt identification of possible causes, initiation of treatment, and potential development of preventive strategies. In addition, 24 to 72 hours can lapse between the precipitating pressure event and the onset of purple or maroon skin. This delayed manifestation becomes particularly important when the precipitating event occurred before the patient’s admission, yet the DTPI appears beyond the 24-hour window for present-on-admission status (Tescher et al., 2018).","clinicalRecommendationStatement":"The Clinical Guidelines Committee for the American College of Physicians (ACP) presents the available evidence on the comparative effectiveness of various risk assessment instruments and benefits and harms of strategies to prevent pressure ulcers (Qaseem et al., 2015).  Recommendation 1: ACP recommends that clinicians should perform a risk assessment to identify patients who are at risk of developing pressure ulcers.   Recommendation 2: ACP recommends that clinicians should choose advanced static mattresses or advanced static overlays in patients who are at an increased risk of developing pressure ulcers.  Recommendation 3: ACP recommends against using alternating-air mattresses or alternating-air overlays in patients who are at an increased risk of developing pressure ulcers.  The European Pressure Ulcer Advisory Panel, National Pressure Injury Advisory Panel, and Pan Pacific Pressure Injury Alliance’s Prevention and Treatment of Pressure Ulcers/Injuries: Clinical Practice Guideline (The International Guideline) provides guidance for categorizing pressure injuries and recommendations for structured skin and risk assessment (European Pressure Ulcer Advisory Panel, National Pressure Injury Advisory Panel, and Pan Pacific Pressure Injury Alliance, 2019).  Guidelines focused on risk factors and risk assessment:  1.1: Consider individuals with limited mobility, limited activity and a high potential for friction and shear to be at risk of pressure injuries.  1.2: Consider individuals with a category/stage I pressure injury to be at risk of developing a category/stage II or greater pressure injury.  1.7: Consider the impact of diabetes mellitus on the risk of pressure injuries.  1.8: Consider the impact of perfusion and circulation deficits on the risk of pressure injuries.  1.12: Consider the impact of increased body temperature on the risk of pressure injuries.  1.17: Consider the impact of time spent immobilized before surgery, the duration of surgery and the American Society of Anesthesiologists (ASA) Physical Status Classification on surgery-related pressure injury risk.   Guidelines focused on skin and tissue assessment:  2.2: Inspect the skin of individuals at risk of pressure injuries to identify presence of erythema.  2.3: Differentiate blanchable from non-blanchable erythema using either finger pressure or the transparent disk method and evaluate the extent of erythema.   Guidelines focused on preventative skin care:  3.1: Implement a skin care regimen that includes:   - Keeping skin clean and appropriately hydrated   - Cleansing the skin promptly after episodes of incontinence   - Avoiding use of alkaline soaps and cleansers   - Protecting the skin from moisture with a barrier product  3.3: Use high absorbency incontinence products to protect the skin in individuals with or at risk of pressure injuries who have urinary incontinence.  3.4: Consider using textiles with low friction coefficients for individuals with or at risk of pressure injuries.   3.5: Use a soft silicone multi-layered foam dressing to protect the skin for individuals at risk of pressure injuries.   Guidelines focused on nutrition screening:   4.1: Conduct nutritional screening for individuals at risk of a pressure injury.  4.2: Conduct a comprehensive nutrition assessment for adults at risk of a pressure injury who are screened to be at risk of malnutrition and for all adults with a pressure injury.   4.3: Develop and implement an individualized nutrition care plan for individuals with or at risk of a pressure injury who are malnourished or who are at risk of malnutrition.   4.4: Optimize energy intake for individuals at risk of pressure injuries who are malnourished or at risk of malnutrition.   4.6: Provide 30 to 35 kcalories/kg body weight/day for adults with a pressure injury who are malnourished or at risk of malnutrition.   4.7: Provide 1.25 to 1.5 g protein/kg body weight/day for adults with a pressure injury who are malnourished or at risk of malnutrition.   4.9: Offer high calorie, high protein nutritional supplements in addition to the usual diet for adults with a pressure injury who are malnourished or at risk of malnutrition, if nutritional requirements cannot be achieved by normal dietary intake.   4.12: Discuss the benefits and harms of enteral or parenteral feeding to support pressure injury treatment in light of preferences and goals of care for individuals with pressure injuries who cannot meet their nutritional requirements through oral intake despite nutritional interventions.   Guidelines focused on repositioning and early mobilization:  5.1: Reposition all individuals with or at risk of pressure injuries on an individualized schedule, unless contraindicated.  5.2: Determine repositioning frequency with consideration to the individual’s level of activity and ability to independently reposition.   Guidelines focused on heel pressure injury:  6.1: Assess the vascular/perfusion status of the lower limbs, heels and feet when performing a skin and tissue assessment, and as part of a risk assessment.  6.2: For individuals at risk of heel pressure injuries and/or with category/stage I or II pressure injuries, elevate the heels using a specifically designed heel suspension device or a pillow/ foam cushion. Offload the heel completely in such a way as to distribute the weight of the leg along the calf without placing pressure on the Achilles tendon and the popliteal vein.  6.4: Use a prophylactic dressing as an adjunct to heel offloading and other strategies to prevent heel pressure injuries.   Guidelines focused on support surfaces:  7.4: Use a high specification reactive single layer foam mattress or overlay in preference to a foam mattress without high specification qualities for individuals at risk of developing pressure injuries.  7.7: Assess the relative benefits of using an alternating pressure air mattress or overlay for individuals at risk of pressure injuries.  7.8: Use a pressure redistribution support surface on the operating table for all individuals with or at risk of pressure injuries who are undergoing surgery.  7.12: Use a pressure redistribution cushion for preventing pressure injuries in people at high risk who are seated in a chair/wheelchair for prolonged periods, particularly if the individual is unable to perform pressure relieving maneuvers.  7.13: Assess the relative benefits of using an alternating pressure air cushion for supporting pressure injury healing in individuals who are seated in a chair/wheelchair for prolonged periods, particularly if the individual is unable to perform pressure relieving maneuvers.    Guidelines focused on device related pressure injury:  8.1: To reduce the risk of medical device related pressure injuries, review and select medical devices with consideration to:   - The device's ability to minimize tissue damage  - Correct sizing/shape of the device for the individual   - Ability to correctly apply the device according to manufacturer's instructions   - Ability to correctly secure the device  8.5: Use a prophylactic dressing beneath a medical device to reduce the risk of medical device related pressure injuries.     Guidelines focused on implementing best practices:  20.2: At the organizational level, assess the knowledge health professionals have about pressure injuries to facilitate implementation of an education program and a quality improvement program.   20.4: At an organizational level, assess and maximize the availability and quality of equipment and standards for its use as part of a quality improvement plan to reduce the incidence of pressure injuries.   20.5: At an organizational level, develop and implement a structured, tailored and multi-faceted quality improvement program to reduce the incidence of pressure injuries.   20.6: At an organizational level, engage all key stakeholders in oversight and implementation of the quality improvement program to reduce the incidence of pressure injuries.   20.7: At an organizational level, include evidence-based policies, procedures and protocols and standardized documentation systems to reduce the incidence of pressure injuries.   20.8: At an organizational level, provide clinical decision support tools as part of a quality improvement plan to reduce the incidence of pressure injuries.   20.9: Provide clinical leadership in pressure injury prevention and treatment as part of a quality improvement plan to reduce pressure injuries.   20.10: At a professional level, provide education in pressure injury prevention and treatment as part of a quality improvement plan to reduce the incidence of pressure injuries.   20.11: At an organizational level, regularly monitor, analyze and evaluate performance against quality indicators for pressure injury prevention and treatment.  20.12: At an organizational level, use feedback and reminder systems to promote the quality improvement program and its outcomes to stakeholders.   Guidelines focused on health professional education:  21.1: At the organizational level, assess the knowledge health professionals have about pressure injuries to facilitate implementation of an education program and a quality improvement program.   21.2: At an organizational level, develop and implement a multi-faceted education program for pressure injury prevention and treatment.","group":[{"id":"Group_1","extension":[{"url":"http://hl7.org/fhir/us/cqfmeasures/StructureDefinition/cqfm-scoring","valueCodeableConcept":{"coding":[{"system":"http://terminology.hl7.org/CodeSystem/measure-scoring","code":"proportion","display":"Proportion"}]}},{"url":"http://hl7.org/fhir/us/cqfmeasures/StructureDefinition/cqfm-populationBasis","valueCode":"Encounter"},{"url":"http://hl7.org/fhir/us/cqfmeasures/StructureDefinition/cqfm-type","valueCodeableConcept":{"coding":[{"system":"http://terminology.hl7.org/CodeSystem/measure-type","code":"outcome","display":"Outcome"}]}},{"url":"http://hl7.org/fhir/us/cqfmeasures/StructureDefinition/cqfm-rateAggregation","valueCode":"None"},{"url":"http://hl7.org/fhir/us/cqfmeasures/StructureDefinition/cqfm-improvementNotation","valueCodeableConcept":{"coding":[{"system":"http://terminology.hl7.org/CodeSystem/measure-improvement-notation","code":"decrease","display":"decrease"}]}}],"population":[{"id":"InitialPopulation_1","code":{"coding":[{"system":"http://terminology.hl7.org/CodeSystem/measure-population","code":"initial-population","display":"Initial Population"}]},"description":"Inpatient hospitalizations that end during the measurement period for patients aged 18 and older","criteria":{"language":"text/cql-identifier","expression":"Initial Population"}},{"id":"Denominator_1","code":{"coding":[{"system":"http://terminology.hl7.org/CodeSystem/measure-population","code":"denominator","display":"Denominator"}]},"description":"Equals Initial Population","criteria":{"language":"text/cql-identifier","expression":"Denominator"}},{"id":"DenominatorExclusion_1","code":{"coding":[{"system":"http://terminology.hl7.org/CodeSystem/measure-population","code":"denominator-exclusion","display":"Denominator Exclusion"}]},"description":"Inpatient hospitalizations for patients with a DTPI or stage 2, 3, 4 or unstageable pressure injury diagnosis present on admission as indicated by a present on admission indicator of Y or W.  Inpatient hospitalizations for patients with a DTPI found on exam within 72 hours after the start of the encounter  Inpatient hospitalizations for patients with a stage 2, 3, 4, or unstageable pressure injury found on exam within 24 hours after the start of the encounter","criteria":{"language":"text/cql-identifier","expression":"Denominator Exclusions"}},{"id":"Numerator_1","code":{"coding":[{"system":"http://terminology.hl7.org/CodeSystem/measure-population","code":"numerator","display":"Numerator"}]},"description":"Inpatient hospitalizations for patients with a new deep tissue pressure injury (DTPI) or stage 2, 3, 4, or unstageable pressure injury, as evidenced by any of the following:  A DTPI or stage 2, 3, 4, or unstageable pressure injury diagnosis not present on admission as indicated by a present on admission indicator of N  or U.  A DTPI found on exam greater than 72 hours after the start of the encounter  A stage 2, 3, 4 or unstageable pressure injury found on exam greater than 24 hours after the start of the encounter  Only one harm (new qualifying pressure injury) is counted per hospitalization.","criteria":{"language":"text/cql-identifier","expression":"Numerator"}}]}],"supplementalData":[{"id":"sde-ethnicity","usage":[{"coding":[{"system":"http://terminology.hl7.org/CodeSystem/measure-data-usage","code":"supplemental-data"}]}],"description":"SDE Ethnicity","criteria":{"language":"text/cql-identifier","expression":"SDE Ethnicity"}},{"id":"sde-payer","usage":[{"coding":[{"system":"http://terminology.hl7.org/CodeSystem/measure-data-usage","code":"supplemental-data"}]}],"description":"SDE Payer","criteria":{"language":"text/cql-identifier","expression":"SDE Payer"}},{"id":"sde-race","usage":[{"coding":[{"system":"http://terminology.hl7.org/CodeSystem/measure-data-usage","code":"supplemental-data"}]}],"description":"SDE Race","criteria":{"language":"text/cql-identifier","expression":"SDE Race"}},{"id":"sde-sex","usage":[{"coding":[{"system":"http://terminology.hl7.org/CodeSystem/measure-data-usage","code":"supplemental-data"}]}],"description":"SDE Sex","criteria":{"language":"text/cql-identifier","expression":"SDE Sex"}}]},"request":{"method":"PUT","url":"Measure/CMS826FHIRHHPI"}},{"resource":{"resourceType":"Coverage","id":"7f86dcdd-125b-4251-a4ab-8c7a728235b6","meta":{"profile":["http://hl7.org/fhir/us/qicore/StructureDefinition/qicore-coverage"]},"identifier":[{"system":"http://benefitsinc.com/certificate","value":"12345"}],"status":"active","type":{"coding":[{"system":"https://nahdo.org/sopt","code":"59","display":"Other Private Insurance"}]},"policyHolder":{"reference":"Patient/56336dd0-efe8-4251-b599-dd3f47279d6d"},"subscriber":{"reference":"Patient/56336dd0-efe8-4251-b599-dd3f47279d6d"},"beneficiary":{"reference":"Patient/56336dd0-efe8-4251-b599-dd3f47279d6d"},"dependent":"0","relationship":{"coding":[{"system":"http://terminology.hl7.org/CodeSystem/subscriber-relationship","code":"self"}]},"period":{"start":"2026-01-01T06:00:00.000+00:00","end":"2026-12-31T11:06:01.000+00:00"},"payor":[{"reference":"Organization/Organization-2"}],"order":9},"request":{"method":"PUT","url":"Coverage/7f86dcdd-125b-4251-a4ab-8c7a728235b6"}},{"resource":{"resourceType":"MeasureReport","id":"ee550eba-7e26-4f8a-99ad-cc1b74d4f909","meta":{"profile":["http://hl7.org/fhir/us/cqfmeasures/StructureDefinition/test-case-cqfm"]},"contained":[{"resourceType":"Parameters","id":"e98c5f66-0d6f-4156-a514-7aa030ffa80a-parameters","parameter":[{"name":"subject","valueString":"865b3218-9d2a-4512-b76e-ed70c25324e6"}]}],"extension":[{"url":"http://hl7.org/fhir/StructureDefinition/cqf-inputParameters","valueReference":{"reference":"#e98c5f66-0d6f-4156-a514-7aa030ffa80a-parameters"}},{"url":"http://hl7.org/fhir/us/cqfmeasures/StructureDefinition/cqfm-testCaseDescription","valueMarkdown":"Inpatient encounter during MP.Unstageable injury present on Admission = Y, Denex pass"}],"modifierExtension":[{"url":"http://hl7.org/fhir/us/cqfmeasures/StructureDefinition/cqfm-isTestCase","valueBoolean":true}],"status":"complete","type":"individual","measure":"https://madie.cms.gov/Measure/CMS826FHIRHHPI","period":{"start":"2026-01-01","end":"2026-12-31"},"group":[{"id":"Group_1","population":[{"id":"InitialPopulation_1","code":{"coding":[{"system":"http://terminology.hl7.org/CodeSystem/measure-population","code":"initial-population","display":"Initial Population"}]},"count":1},{"id":"Denominator_1","code":{"coding":[{"system":"http://terminology.hl7.org/CodeSystem/measure-population","code":"denominator","display":"Denominator"}]},"count":1},{"id":"DenominatorExclusion_1","code":{"coding":[{"system":"http://terminology.hl7.org/CodeSystem/measure-population","code":"denominator-exclusion","display":"Denominator Exclusion"}]},"count":1},{"id":"Numerator_1","code":{"coding":[{"system":"http://terminology.hl7.org/CodeSystem/measure-population","code":"numerator","display":"Numerator"}]},"count":0}],"measureScore":{"value":0.0}}],"evaluatedResource":[{"reference":"Encounter/2984e680-7ebf-4aa5-a8df-8bdc33314341"},{"reference":"Claim/0a25fe7f-1042-483b-becb-d98a2095141a"},{"reference":"Encounter/329fce82-a7f3-4603-9ede-ea8ee7f3ed2f"},{"reference":"Patient/865b3218-9d2a-4512-b76e-ed70c25324e6"}]},"request":{"method":"PUT","url":"MeasureReport/ee550eba-7e26-4f8a-99ad-cc1b74d4f909"}},{"resource":{"resourceType":"Encounter","id":"44f09e60-ddb1-48dc-a051-7392fa3d7810","meta":{"profile":["http://hl7.org/fhir/us/qicore/StructureDefinition/qicore-encounter"]},"status":"finished","class":{"system":"http://terminology.hl7.org/CodeSystem/v3-ActCode","code":"EMER","display":"emergency"},"type":[{"coding":[{"system":"http://snomed.info/sct","version":"2022-09","code":"4525004","display":"Emergency department patient visit (procedure)","userSelected":true}]}],"subject":{"reference":"Patient/7f0a0909-3618-4bea-899e-0a12c8aed445"},"period":{"start":"2026-01-31T08:00:00.000+00:00","end":"2026-02-01T08:15:00.000+00:00"}},"request":{"method":"PUT","url":"Encounter/44f09e60-ddb1-48dc-a051-7392fa3d7810"}},{"resource":{"resourceType":"MeasureReport","id":"1c0e8480-5b63-462f-b741-eb96848c5476","meta":{"profile":["http://hl7.org/fhir/us/cqfmeasures/StructureDefinition/test-case-cqfm"]},"contained":[{"resourceType":"Parameters","id":"32710ad0-494a-40c1-941e-47e84030dea0-parameters","parameter":[{"name":"subject","valueString":"73c1a7c6-2bcf-4e6d-b913-9125137da33a"}]}],"extension":[{"url":"http://hl7.org/fhir/StructureDefinition/cqf-inputParameters","valueReference":{"reference":"#32710ad0-494a-40c1-941e-47e84030dea0-parameters"}},{"url":"http://hl7.org/fhir/us/cqfmeasures/StructureDefinition/cqfm-testCaseDescription","valueMarkdown":"Inpatient encounter during MP.  Age is >=18. Has DTI by exam/observation more than 72 hours from start of hospitalization. Meets Numerator. "}],"modifierExtension":[{"url":"http://hl7.org/fhir/us/cqfmeasures/StructureDefinition/cqfm-isTestCase","valueBoolean":true}],"status":"complete","type":"individual","measure":"https://madie.cms.gov/Measure/CMS826FHIRHHPI","period":{"start":"2026-01-01","end":"2026-12-31"},"group":[{"id":"Group_1","population":[{"id":"InitialPopulation_1","code":{"coding":[{"system":"http://terminology.hl7.org/CodeSystem/measure-population","code":"initial-population","display":"Initial Population"}]},"count":1},{"id":"Denominator_1","code":{"coding":[{"system":"http://terminology.hl7.org/CodeSystem/measure-population","code":"denominator","display":"Denominator"}]},"count":1},{"id":"DenominatorExclusion_1","code":{"coding":[{"system":"http://terminology.hl7.org/CodeSystem/measure-population","code":"denominator-exclusion","display":"Denominator Exclusion"}]},"count":0},{"id":"Numerator_1","code":{"coding":[{"system":"http://terminology.hl7.org/CodeSystem/measure-population","code":"numerator","display":"Numerator"}]},"count":1}],"measureScore":{"value":0.0}}],"evaluatedResource":[{"reference":"Encounter/ad354ac1-a4e9-4ec5-a0d7-c34f0f9fdd5f"},{"reference":"Patient/73c1a7c6-2bcf-4e6d-b913-9125137da33a"},{"reference":"Encounter/4f63ff4f-cab1-42ec-abcb-69c11e2e7f3b"},{"reference":"Observation/d1189b82-c7fc-4442-a92d-3b677cbcfa47"}]},"request":{"method":"PUT","url":"MeasureReport/1c0e8480-5b63-462f-b741-eb96848c5476"}},{"resource":{"resourceType":"MeasureReport","id":"7531fce2-6380-47df-b847-a218ff1f0e61","meta":{"profile":["http://hl7.org/fhir/us/cqfmeasures/StructureDefinition/test-case-cqfm"]},"contained":[{"resourceType":"Parameters","id":"3d6604f0-57e0-465d-94c6-3044d4846223-parameters","parameter":[{"name":"subject","valueString":"599d4177-ae6e-4448-8b7d-9cfcdbdd9dc9"}]}],"extension":[{"url":"http://hl7.org/fhir/StructureDefinition/cqf-inputParameters","valueReference":{"reference":"#3d6604f0-57e0-465d-94c6-3044d4846223-parameters"}},{"url":"http://hl7.org/fhir/us/cqfmeasures/StructureDefinition/cqfm-testCaseDescription","valueMarkdown":"Inpatient encounter during MP, unstageable injury present within 24 hrs from start of hospitalization:  DENEX pass."}],"modifierExtension":[{"url":"http://hl7.org/fhir/us/cqfmeasures/StructureDefinition/cqfm-isTestCase","valueBoolean":true}],"status":"complete","type":"individual","measure":"https://madie.cms.gov/Measure/CMS826FHIRHHPI","period":{"start":"2026-01-01","end":"2026-12-31"},"group":[{"id":"Group_1","population":[{"id":"InitialPopulation_1","code":{"coding":[{"system":"http://terminology.hl7.org/CodeSystem/measure-population","code":"initial-population","display":"Initial Population"}]},"count":1},{"id":"Denominator_1","code":{"coding":[{"system":"http://terminology.hl7.org/CodeSystem/measure-population","code":"denominator","display":"Denominator"}]},"count":1},{"id":"DenominatorExclusion_1","code":{"coding":[{"system":"http://terminology.hl7.org/CodeSystem/measure-population","code":"denominator-exclusion","display":"Denominator Exclusion"}]},"count":1},{"id":"Numerator_1","code":{"coding":[{"system":"http://terminology.hl7.org/CodeSystem/measure-population","code":"numerator","display":"Numerator"}]},"count":0}],"measureScore":{"value":0.0}}],"evaluatedResource":[{"reference":"Encounter/51bfe56b-4590-45de-ac4d-8ed8bf3d0093"},{"reference":"Patient/599d4177-ae6e-4448-8b7d-9cfcdbdd9dc9"},{"reference":"Encounter/e2fad579-dbf5-4b9f-b79c-5ccec8f383cf"},{"reference":"Observation/1a9eaec1-5903-439b-aa31-c22639f87bbb"}]},"request":{"method":"PUT","url":"MeasureReport/7531fce2-6380-47df-b847-a218ff1f0e61"}},{"resource":{"resourceType":"Encounter","id":"329fce82-a7f3-4603-9ede-ea8ee7f3ed2f","meta":{"profile":["http://hl7.org/fhir/us/qicore/StructureDefinition/qicore-encounter"]},"status":"finished","class":{"system":"http://terminology.hl7.org/CodeSystem/v3-ActCode","code":"EMER","display":"emergency"},"type":[{"coding":[{"system":"http://snomed.info/sct","version":"2022-09","code":"4525004","display":"Emergency department patient visit (procedure)","userSelected":true}]}],"subject":{"reference":"Patient/865b3218-9d2a-4512-b76e-ed70c25324e6"},"period":{"start":"2026-01-31T08:00:00.000+00:00","end":"2026-02-01T08:15:00.000+00:00"}},"request":{"method":"PUT","url":"Encounter/329fce82-a7f3-4603-9ede-ea8ee7f3ed2f"}},{"resource":{"resourceType":"Patient","id":"7f0a0909-3618-4bea-899e-0a12c8aed445","meta":{"profile":["http://hl7.org/fhir/us/qicore/StructureDefinition/qicore-patient"]},"extension":[{"url":"http://hl7.org/fhir/us/core/StructureDefinition/us-core-race","extension":[{"url":"ombCategory","valueCoding":{"system":"urn:oid:2.16.840.1.113883.6.238","code":"2106-3","display":"White"}},{"url":"detailed","valueCoding":{"system":"urn:oid:2.16.840.1.113883.6.238","code":"1586-7","display":"Shoshone"}},{"url":"text","valueString":"White"}]},{"url":"http://hl7.org/fhir/us/core/StructureDefinition/us-core-ethnicity","extension":[{"url":"ombCategory","valueCoding":{"system":"urn:oid:2.16.840.1.113883.6.238","code":"2135-2","display":"Hispanic or Latino"}},{"url":"detailed","valueCoding":{"system":"urn:oid:2.16.840.1.113883.6.238","code":"1586-7","display":"Shoshone"}},{"url":"text","valueString":"Hispanic or Latino"}]},{"url":"http://hl7.org/fhir/us/core/StructureDefinition/us-core-sex","valueCode":"248153007"}],"identifier":[{"type":{"coding":[{"system":"http://terminology.hl7.org/CodeSystem/v2-0203","code":"MR"}]},"system":"https://bonnie-fhir.healthit.gov/","value":"63d963937a195f4975f0062a"}],"name":[{"family":"DENOMPass","given":["Age17inEDAge18DayOfAdmitToIP"]}],"birthDate":"2008-02-01"},"request":{"method":"PUT","url":"Patient/7f0a0909-3618-4bea-899e-0a12c8aed445"}},{"resource":{"resourceType":"Encounter","id":"07de6cfc-c342-409f-b2ee-28f4cd921c19","meta":{"profile":["http://hl7.org/fhir/us/qicore/StructureDefinition/qicore-encounter"]},"status":"finished","class":{"system":"http://terminology.hl7.org/CodeSystem/v3-ActCode","code":"IMP","display":"inpatient encounter"},"type":[{"coding":[{"system":"http://snomed.info/sct","version":"2022-09","code":"183452005","display":"Emergency hospital admission (procedure)","userSelected":true}]}],"subject":{"reference":"Patient/f43f3deb-0762-48f6-a8c5-81303d6cd681"},"period":{"start":"2026-02-01T08:30:00.000+00:00","end":"2026-02-06T08:15:00.000+00:00"}},"request":{"method":"PUT","url":"Encounter/07de6cfc-c342-409f-b2ee-28f4cd921c19"}},{"resource":{"resourceType":"Patient","id":"865b3218-9d2a-4512-b76e-ed70c25324e6","meta":{"profile":["http://hl7.org/fhir/us/qicore/StructureDefinition/qicore-patient"]},"extension":[{"url":"http://hl7.org/fhir/us/core/StructureDefinition/us-core-race","extension":[{"url":"ombCategory","valueCoding":{"system":"urn:oid:2.16.840.1.113883.6.238","code":"2028-9","display":"Asian","userSelected":true}},{"url":"text","valueString":"Asian"}]},{"url":"http://hl7.org/fhir/us/core/StructureDefinition/us-core-ethnicity","extension":[{"url":"ombCategory","valueCoding":{"system":"urn:oid:2.16.840.1.113883.6.238","code":"2186-5","display":"Not Hispanic or Latino","userSelected":true}},{"url":"text","valueString":"Not Hispanic or Latino"}]}],"identifier":[{"type":{"coding":[{"system":"http://terminology.hl7.org/CodeSystem/v2-0203","code":"MR"}]},"system":"https://bonnie-fhir.healthit.gov/","value":"647f51ab5e6d159b6e36ee31"}],"name":[{"family":"NUMERPass","given":["IPEncounterWithNewUnstageableNotPOAIndicator"]}],"gender":"other","birthDate":"2006-02-01"},"request":{"method":"PUT","url":"Patient/865b3218-9d2a-4512-b76e-ed70c25324e6"}},{"resource":{"resourceType":"Claim","id":"0fbec636-034f-4633-b51f-acf306b969f8","meta":{"profile":["http://hl7.org/fhir/us/qicore/StructureDefinition/qicore-claim"]},"status":"active","type":{"coding":[{"system":"http://terminology.hl7.org/CodeSystem/claim-type","code":"professional"}]},"use":"claim","patient":{"reference":"Patient/bc28b32e-1c2f-457c-8c60-f36041a2519b"},"created":"2026-05-16","priority":{"coding":[{"system":"http://terminology.hl7.org/CodeSystem/processpriority","code":"normal"}]},"diagnosis":[{"sequence":1,"diagnosisCodeableConcept":{"coding":[{"system":"http://hl7.org/fhir/sid/icd-10-cm","code":"L89.000","display":"Pressure ulcer of unspecified elbow, unstageable"}]},"type":[{"coding":[{"system":"http://terminology.hl7.org/CodeSystem/ex-diagnosistype","code":"principal"}]}],"onAdmission":{"coding":[{"system":"https://www.cms.gov/Medicare/Medicare-Fee-for-Service-Payment/HospitalAcqCond/Coding","code":"N"}]}}],"item":[{"sequence":1,"diagnosisSequence":[1,5,7],"productOrService":{"coding":[{"system":"http://example.org/fhir/CodeSystem/ex-professionalservice","code":"anesthesia"}]},"servicedDate":"2026-04-11","encounter":[{"reference":"Encounter/ccf49478-a0f2-4658-a637-5e293ea3cd86"}]}]},"request":{"method":"PUT","url":"Claim/0fbec636-034f-4633-b51f-acf306b969f8"}}]}