{
  "resourceType": "Bundle",
  "id": "63487c2d0968f80122540163",
  "type": "transaction",
  "entry": [ {
    "fullUrl": "https://madie.cms.gov/Patient/7ed48b89-cb57-45f9-ba16-24d85d09215c",
    "resource": {
      "resourceType": "Patient",
      "id": "7ed48b89-cb57-45f9-ba16-24d85d09215c",
      "meta": {
        "profile": [ "http://hl7.org/fhir/us/qicore/StructureDefinition/qicore-patient" ]
      },
      "text": {
        "status": "generated",
        "div": "<div xmlns=\"http://www.w3.org/1999/xhtml\"><div class=\"hapiHeaderText\">ProcNotCesareanBirth <b>NUMFAIL </b></div><table class=\"hapiPropertyTable\"><tbody><tr><td>Identifier</td><td>71189d70ba3427612f2a418107466ed1652ec9a0e76c1b9c30a1691a1d91b34c</td></tr><tr><td>Date of birth</td><td><span>14 February 1985</span></td></tr></tbody></table></div>"
      },
      "extension": [ {
        "url": "http://hl7.org/fhir/us/core/StructureDefinition/us-core-race",
        "extension": [ {
          "url": "ombCategory",
          "valueCoding": {
            "system": "urn:oid:2.16.840.1.113883.6.238",
            "code": "1002-5",
            "display": "American Indian or Alaska Native",
            "userSelected": true
          }
        }, {
          "url": "text",
          "valueString": "American Indian or Alaska Native"
        } ]
      }, {
        "url": "http://hl7.org/fhir/us/core/StructureDefinition/us-core-ethnicity",
        "extension": [ {
          "url": "ombCategory",
          "valueCoding": {
            "system": "urn:oid:2.16.840.1.113883.6.238",
            "code": "2135-2",
            "display": "Hispanic or Latino",
            "userSelected": true
          }
        }, {
          "url": "text",
          "valueString": "Hispanic or Latino"
        } ]
      } ],
      "identifier": [ {
        "type": {
          "coding": [ {
            "system": "http://terminology.hl7.org/CodeSystem/v2-0203",
            "code": "MR"
          } ]
        },
        "system": "https://bonnie-fhir.healthit.gov/",
        "value": "63487c2d0968f80122540163"
      } ],
      "active": true,
      "name": [ {
        "use": "usual",
        "family": "NUMFail",
        "given": [ "ProcNotCesareanBirth" ]
      } ],
      "gender": "female",
      "birthDate": "1998-02-14"
    },
    "request": {
      "method": "PUT",
      "url": "Patient/7ed48b89-cb57-45f9-ba16-24d85d09215c"
    }
  }, {
    "fullUrl": "https://madie.cms.gov/Observation/2b113dc0-02eb-4217-a46a-88da618d9a12",
    "resource": {
      "resourceType": "Observation",
      "id": "2b113dc0-02eb-4217-a46a-88da618d9a12",
      "meta": {
        "profile": [ "http://hl7.org/fhir/us/qicore/StructureDefinition/qicore-simple-observation" ]
      },
      "status": "final",
      "category": [ {
        "coding": [ {
          "system": "http://terminology.hl7.org/CodeSystem/observation-category",
          "code": "exam",
          "display": "exam",
          "userSelected": true
        } ]
      } ],
      "code": {
        "coding": [ {
          "system": "http://loinc.org",
          "code": "11996-6"
        } ]
      },
      "subject": {
        "reference": "Patient/7ed48b89-cb57-45f9-ba16-24d85d09215c"
      },
      "effectiveDateTime": "2026-02-09T08:00:00.000+00:00",
      "valueInteger": 1
    },
    "request": {
      "method": "PUT",
      "url": "Observation/2b113dc0-02eb-4217-a46a-88da618d9a12"
    }
  }, {
    "fullUrl": "https://madie.cms.gov/Observation/5d2a4063-3789-4968-b62e-8e95fb1debe6",
    "resource": {
      "resourceType": "Observation",
      "id": "5d2a4063-3789-4968-b62e-8e95fb1debe6",
      "meta": {
        "profile": [ "http://hl7.org/fhir/us/qicore/StructureDefinition/qicore-simple-observation" ]
      },
      "status": "final",
      "category": [ {
        "coding": [ {
          "system": "http://terminology.hl7.org/CodeSystem/observation-category",
          "code": "exam",
          "display": "exam",
          "userSelected": true
        } ]
      } ],
      "code": {
        "coding": [ {
          "system": "http://loinc.org",
          "code": "11884-4"
        } ]
      },
      "subject": {
        "reference": "Patient/7ed48b89-cb57-45f9-ba16-24d85d09215c"
      },
      "effectiveDateTime": "2026-11-28T21:15:00.000+00:00",
      "valueQuantity": {
        "value": 40,
        "system": "http://unitsofmeasure.org",
        "code": "wk"
      }
    },
    "request": {
      "method": "PUT",
      "url": "Observation/5d2a4063-3789-4968-b62e-8e95fb1debe6"
    }
  }, {
    "fullUrl": "https://madie.cms.gov/Observation/a4024511-7cb6-4dfb-b27f-5769ad5591d9",
    "resource": {
      "resourceType": "Observation",
      "id": "a4024511-7cb6-4dfb-b27f-5769ad5591d9",
      "meta": {
        "profile": [ "http://hl7.org/fhir/us/qicore/StructureDefinition/qicore-simple-observation" ]
      },
      "status": "final",
      "category": [ {
        "coding": [ {
          "system": "http://terminology.hl7.org/CodeSystem/observation-category",
          "code": "exam",
          "display": "exam",
          "userSelected": true
        } ]
      } ],
      "code": {
        "coding": [ {
          "system": "http://loinc.org",
          "code": "93857-1"
        } ]
      },
      "subject": {
        "reference": "Patient/7ed48b89-cb57-45f9-ba16-24d85d09215c"
      },
      "effectiveDateTime": "2026-11-28T21:15:00.000+00:00",
      "valueDateTime": "2026-11-28T21:15:00.000+00:00"
    },
    "request": {
      "method": "PUT",
      "url": "Observation/a4024511-7cb6-4dfb-b27f-5769ad5591d9"
    }
  }, {
    "fullUrl": "https://madie.cms.gov/Encounter/93a35bed-4a64-4946-99ff-5c29e36318a4",
    "resource": {
      "resourceType": "Encounter",
      "id": "93a35bed-4a64-4946-99ff-5c29e36318a4",
      "meta": {
        "profile": [ "http://hl7.org/fhir/us/qicore/StructureDefinition/qicore-encounter" ]
      },
      "status": "finished",
      "class": {
        "system": "http://terminology.hl7.org/CodeSystem/v3-ActCode",
        "code": "IMP",
        "display": "inpatient encounter"
      },
      "type": [ {
        "coding": [ {
          "system": "http://snomed.info/sct",
          "code": "183452005"
        } ]
      } ],
      "subject": {
        "reference": "Patient/7ed48b89-cb57-45f9-ba16-24d85d09215c"
      },
      "period": {
        "start": "2026-11-28T08:00:00.000+00:00",
        "end": "2026-11-30T08:15:00.000+00:00"
      },
      "reasonReference": [ {
        "reference": "Condition/031e5f62-9a69-4b4a-aba5-cb5cf3babfe4"
      } ]
    },
    "request": {
      "method": "PUT",
      "url": "Encounter/93a35bed-4a64-4946-99ff-5c29e36318a4"
    }
  }, {
    "fullUrl": "https://madie.cms.gov/Procedure/7e91de02-57ac-429b-934d-53ddbd648a42",
    "resource": {
      "resourceType": "Procedure",
      "id": "7e91de02-57ac-429b-934d-53ddbd648a42",
      "meta": {
        "profile": [ "http://hl7.org/fhir/us/qicore/StructureDefinition/qicore-procedure" ]
      },
      "extension": [ {
        "url": "http://hl7.org/fhir/us/qicore/StructureDefinition/qicore-recorded",
        "valueDateTime": "2014-04-05T13:35:00.000+00:00"
      } ],
      "status": "completed",
      "code": {
        "coding": [ {
          "system": "http://www.cms.gov/Medicare/Coding/ICD10",
          "code": "10D07Z3"
        } ]
      },
      "subject": {
        "reference": "Patient/7ed48b89-cb57-45f9-ba16-24d85d09215c"
      },
      "performedPeriod": {
        "start": "2026-11-28T20:00:00.000+00:00",
        "end": "2026-11-28T20:15:00.000+00:00"
      }
    },
    "request": {
      "method": "PUT",
      "url": "Procedure/7e91de02-57ac-429b-934d-53ddbd648a42"
    }
  }, {
    "fullUrl": "https://madie.cms.gov/Condition/031e5f62-9a69-4b4a-aba5-cb5cf3babfe4",
    "resource": {
      "resourceType": "Condition",
      "id": "031e5f62-9a69-4b4a-aba5-cb5cf3babfe4",
      "meta": {
        "profile": [ "http://hl7.org/fhir/us/qicore/StructureDefinition/qicore-condition-encounter-diagnosis" ]
      },
      "category": [ {
        "coding": [ {
          "system": "http://terminology.hl7.org/CodeSystem/condition-category",
          "code": "encounter-diagnosis",
          "display": "Encounter Diagnosis"
        } ]
      } ],
      "code": {
        "coding": [ {
          "system": "http://snomed.info/sct",
          "code": "169826009",
          "display": "Single live birth from singleton pregnancy (finding)"
        } ]
      },
      "subject": {
        "reference": "Patient/7ed48b89-cb57-45f9-ba16-24d85d09215c"
      },
      "encounter": {
        "reference": "Encounter/93a35bed-4a64-4946-99ff-5c29e36318a4"
      },
      "recordedDate": "2026-10-17T08:00:00.000+00:00"
    },
    "request": {
      "method": "PUT",
      "url": "Condition/031e5f62-9a69-4b4a-aba5-cb5cf3babfe4"
    }
  }, {
    "fullUrl": "https://madie.cms.gov/Coverage/164c73c0-7b46-4786-b4f3-90f1ca0fefb2",
    "resource": {
      "resourceType": "Coverage",
      "id": "164c73c0-7b46-4786-b4f3-90f1ca0fefb2",
      "meta": {
        "profile": [ "http://hl7.org/fhir/us/qicore/StructureDefinition/qicore-coverage" ]
      },
      "status": "active",
      "subscriberId": "523435",
      "beneficiary": {
        "reference": "Patient/7ed48b89-cb57-45f9-ba16-24d85d09215c"
      },
      "relationship": {
        "coding": [ {
          "system": "http://terminology.hl7.org/CodeSystem/subscriber-relationship",
          "code": "self"
        } ]
      },
      "payor": [ {
        "reference": "Organization/8c1a6f3a-6523-4b66-83ee-b3b9e6478f66"
      } ]
    },
    "request": {
      "method": "PUT",
      "url": "Coverage/164c73c0-7b46-4786-b4f3-90f1ca0fefb2"
    }
  }, {
    "fullUrl": "https://madie.cms.gov/Organization/8c1a6f3a-6523-4b66-83ee-b3b9e6478f66",
    "resource": {
      "resourceType": "Organization",
      "id": "8c1a6f3a-6523-4b66-83ee-b3b9e6478f66",
      "meta": {
        "profile": [ "http://hl7.org/fhir/us/qicore/StructureDefinition/qicore-organization" ]
      },
      "identifier": [ {
        "use": "temp",
        "system": "urn:oid:2.16.840.1.113883.4.4",
        "value": "21-3259825"
      } ],
      "active": true,
      "type": [ {
        "coding": [ {
          "system": "http://terminology.hl7.org/CodeSystem/organization-type",
          "code": "pay",
          "display": "Payer"
        } ]
      } ],
      "name": "Blue Cross Blue Shield of Texas",
      "telecom": [ {
        "system": "phone",
        "value": "(+1) 972-766-6900"
      } ],
      "address": [ {
        "use": "billing",
        "type": "postal",
        "line": [ "P.O. Box 660044" ],
        "city": "Dallas",
        "state": "TX",
        "postalCode": "75266-0044",
        "country": "USA"
      } ]
    },
    "request": {
      "method": "PUT",
      "url": "Organization/8c1a6f3a-6523-4b66-83ee-b3b9e6478f66"
    }
  }, {
    "fullUrl": "https://madie.cms.gov/Practitioner/c47abdb0-82f7-4536-a9c8-82f2d26ee29f",
    "resource": {
      "resourceType": "Practitioner",
      "id": "c47abdb0-82f7-4536-a9c8-82f2d26ee29f",
      "meta": {
        "profile": [ "http://hl7.org/fhir/us/qicore/StructureDefinition/qicore-practitioner" ]
      },
      "identifier": [ {
        "system": "http://hl7.org/fhir/sid/us-npi",
        "value": "1234567890"
      } ],
      "name": [ {
        "family": "Evil",
        "prefix": [ "Dr" ]
      } ]
    },
    "request": {
      "method": "PUT",
      "url": "Practitioner/c47abdb0-82f7-4536-a9c8-82f2d26ee29f"
    }
  }, {
    "fullUrl": "https://madie.cms.gov/MeasureReport/d27cf20f-9e17-4b69-a8a5-2ab750f9fa2d",
    "resource": {
      "resourceType": "MeasureReport",
      "id": "d27cf20f-9e17-4b69-a8a5-2ab750f9fa2d",
      "meta": {
        "profile": [ "http://hl7.org/fhir/us/cqfmeasures/StructureDefinition/test-case-cqfm" ]
      },
      "contained": [ {
        "resourceType": "Parameters",
        "id": "ca08d48b-5101-4a8f-993b-bbf1759dc1b5-parameters",
        "parameter": [ {
          "name": "subject",
          "valueString": "7ed48b89-cb57-45f9-ba16-24d85d09215c"
        } ]
      } ],
      "extension": [ {
        "url": "http://hl7.org/fhir/StructureDefinition/cqf-inputParameters",
        "valueReference": {
          "reference": "#ca08d48b-5101-4a8f-993b-bbf1759dc1b5-parameters"
        }
      }, {
        "url": "http://hl7.org/fhir/us/cqfmeasures/StructureDefinition/cqfm-testCaseDescription",
        "valueMarkdown": "Passes IP, DEN but fails NUM; Gravida 1(effect 42 weeks)  and EGA 40 weeks;  Proc is not Cesarean Birth "
      } ],
      "modifierExtension": [ {
        "url": "http://hl7.org/fhir/us/cqfmeasures/StructureDefinition/cqfm-isTestCase",
        "valueBoolean": true
      } ],
      "status": "complete",
      "type": "individual",
      "measure": "https://madie.cms.gov/Measure/CMS0334FHIRPCCesareanBirth",
      "period": {
        "start": "2026-01-01",
        "end": "2026-12-31"
      },
      "group": [ {
        "id": "Group_1",
        "population": [ {
          "id": "InitialPopulation_1",
          "code": {
            "coding": [ {
              "system": "http://terminology.hl7.org/CodeSystem/measure-population",
              "code": "initial-population",
              "display": "Initial Population"
            } ]
          },
          "count": 1
        }, {
          "id": "Denominator_1",
          "code": {
            "coding": [ {
              "system": "http://terminology.hl7.org/CodeSystem/measure-population",
              "code": "denominator",
              "display": "Denominator"
            } ]
          },
          "count": 1
        }, {
          "id": "DenominatorExclusion_1",
          "code": {
            "coding": [ {
              "system": "http://terminology.hl7.org/CodeSystem/measure-population",
              "code": "denominator-exclusion",
              "display": "Denominator Exclusion"
            } ]
          },
          "count": 0
        }, {
          "id": "Numerator_1",
          "code": {
            "coding": [ {
              "system": "http://terminology.hl7.org/CodeSystem/measure-population",
              "code": "numerator",
              "display": "Numerator"
            } ]
          },
          "count": 0
        } ],
        "measureScore": {
          "value": 0.0
        }
      } ],
      "evaluatedResource": [ {
        "reference": "Patient/7ed48b89-cb57-45f9-ba16-24d85d09215c"
      }, {
        "reference": "Observation/2b113dc0-02eb-4217-a46a-88da618d9a12"
      }, {
        "reference": "Observation/5d2a4063-3789-4968-b62e-8e95fb1debe6"
      }, {
        "reference": "Observation/a4024511-7cb6-4dfb-b27f-5769ad5591d9"
      }, {
        "reference": "Encounter/93a35bed-4a64-4946-99ff-5c29e36318a4"
      }, {
        "reference": "Procedure/7e91de02-57ac-429b-934d-53ddbd648a42"
      }, {
        "reference": "Condition/031e5f62-9a69-4b4a-aba5-cb5cf3babfe4"
      }, {
        "reference": "Coverage/164c73c0-7b46-4786-b4f3-90f1ca0fefb2"
      }, {
        "reference": "Organization/8c1a6f3a-6523-4b66-83ee-b3b9e6478f66"
      }, {
        "reference": "Practitioner/c47abdb0-82f7-4536-a9c8-82f2d26ee29f"
      } ]
    },
    "request": {
      "method": "PUT",
      "url": "MeasureReport/d27cf20f-9e17-4b69-a8a5-2ab750f9fa2d"
    }
  } ]
}