{"resourceType":"Bundle","id":"tests-41664f5f-5280-4b5b-a9f1-289a412dbc18-bundle","type":"transaction","entry":[{"resource":{"resourceType":"Patient","id":"41664f5f-5280-4b5b-a9f1-289a412dbc18","meta":{"profile":["http://hl7.org/fhir/us/qicore/StructureDefinition/qicore-patient"]},"extension":[{"url":"http://hl7.org/fhir/us/core/StructureDefinition/us-core-race","extension":[{"url":"ombCategory","valueCoding":{"system":"urn:oid:2.16.840.1.113883.6.238","code":"1002-5","display":"American Indian or Alaska Native","userSelected":true}},{"url":"text","valueString":"American Indian or Alaska Native"}]},{"url":"http://hl7.org/fhir/us/core/StructureDefinition/us-core-ethnicity","extension":[{"url":"ombCategory","valueCoding":{"system":"urn:oid:2.16.840.1.113883.6.238","code":"2135-2","display":"Hispanic or Latino","userSelected":true}},{"url":"text","valueString":"Hispanic or Latino"}]}],"identifier":[{"type":{"coding":[{"system":"http://terminology.hl7.org/CodeSystem/v2-0203","code":"MR"}]},"system":"https://bonnie-fhir.healthit.gov/","value":"62f6754d5efef5272905e717"}],"name":[{"family":"NUMERPass","given":["12yoPosAdolDepScreenandFollowUpReferral"]}],"gender":"male","birthDate":"2014-01-01"},"request":{"method":"PUT","url":"Patient/41664f5f-5280-4b5b-a9f1-289a412dbc18"}},{"resource":{"resourceType":"Observation","id":"515d9b25-b43b-43c5-a8a0-23d4da535a85","meta":{"profile":["http://hl7.org/fhir/us/qicore/StructureDefinition/qicore-observation-screening-assessment"]},"status":"final","category":[{"coding":[{"system":"http://terminology.hl7.org/CodeSystem/observation-category","code":"procedure","display":"Procedure"}]},{"coding":[{"system":"http://terminology.hl7.org/CodeSystem/observation-category","code":"survey","display":"Survey"}]}],"code":{"coding":[{"system":"http://loinc.org","code":"73831-0","display":"Adolescent depression screening assessment","userSelected":true}]},"subject":{"reference":"Patient/41664f5f-5280-4b5b-a9f1-289a412dbc18"},"effectiveDateTime":"2026-06-15T08:00:00.000+00:00","valueCodeableConcept":{"coding":[{"system":"http://snomed.info/sct","code":"428181000124104","display":"Depression screening positive (finding)","userSelected":true}]}},"request":{"method":"PUT","url":"Observation/515d9b25-b43b-43c5-a8a0-23d4da535a85"}},{"resource":{"resourceType":"Organization","id":"898f0602-55ac-4dbd-8c71-073db1064f8f","meta":{"profile":["http://hl7.org/fhir/us/qicore/StructureDefinition/qicore-organization"]},"identifier":[{"use":"temp","system":"urn:oid:2.16.840.1.113883.4.4","value":"21-3259825"}],"active":true,"type":[{"coding":[{"system":"http://terminology.hl7.org/CodeSystem/organization-type","code":"pay","display":"Payer"}]}],"name":"Blue Cross Blue Shield of Texas","telecom":[{"system":"phone","value":"(+1) 972-766-6900"}],"address":[{"use":"billing","type":"postal","line":["P.O. Box 660044"],"city":"Dallas","state":"TX","postalCode":"75266-0044","country":"USA"}]},"request":{"method":"PUT","url":"Organization/898f0602-55ac-4dbd-8c71-073db1064f8f"}},{"resource":{"resourceType":"Coverage","id":"95655e3b-fca9-43ca-b24a-346edc563be7","meta":{"profile":["http://hl7.org/fhir/us/qicore/StructureDefinition/qicore-coverage"]},"status":"active","subscriberId":"123456789","beneficiary":{"reference":"Patient/41664f5f-5280-4b5b-a9f1-289a412dbc18"},"relationship":{"coding":[{"system":"http://terminology.hl7.org/CodeSystem/subscriber-relationship","code":"self","display":"Self","userSelected":true}]},"payor":[{"reference":"Organization/898f0602-55ac-4dbd-8c71-073db1064f8f"}]},"request":{"method":"PUT","url":"Coverage/95655e3b-fca9-43ca-b24a-346edc563be7"}},{"resource":{"resourceType":"Encounter","id":"b240ed75-264e-4dba-bf8d-57e4cf915555","meta":{"profile":["http://hl7.org/fhir/us/qicore/StructureDefinition/qicore-encounter"]},"status":"finished","class":{"system":"http://terminology.hl7.org/CodeSystem/v3-ActCode","code":"AMB","display":"ambulatory"},"type":[{"coding":[{"system":"http://snomed.info/sct","code":"10197000","display":"Psychiatric interview and evaluation (procedure)","userSelected":true}]}],"subject":{"reference":"Patient/41664f5f-5280-4b5b-a9f1-289a412dbc18"},"period":{"start":"2026-06-15T08:00:00.000+00:00","end":"2026-06-21T08:15:00.000+00:00"}},"request":{"method":"PUT","url":"Encounter/b240ed75-264e-4dba-bf8d-57e4cf915555"}},{"resource":{"resourceType":"ServiceRequest","id":"b9503ddf-80f7-4839-98e3-e7e2af00bfb0","meta":{"profile":["http://hl7.org/fhir/us/qicore/StructureDefinition/qicore-servicerequest"]},"status":"active","intent":"order","doNotPerform":false,"code":{"coding":[{"system":"http://snomed.info/sct","code":"183524004","display":"Referral to psychiatry service (procedure)","userSelected":true}]},"subject":{"reference":"Patient/41664f5f-5280-4b5b-a9f1-289a412dbc18"},"authoredOn":"2026-06-21T08:00:00.000+00:00"},"request":{"method":"PUT","url":"ServiceRequest/b9503ddf-80f7-4839-98e3-e7e2af00bfb0"}},{"resource":{"resourceType":"Bundle","id":"62f6754d5efef5272905e717","type":"transaction","entry":[{"fullUrl":"https://madie.cms.gov/Patient/41664f5f-5280-4b5b-a9f1-289a412dbc18","resource":{"resourceType":"Patient","id":"41664f5f-5280-4b5b-a9f1-289a412dbc18","meta":{"profile":["http://hl7.org/fhir/us/qicore/StructureDefinition/qicore-patient"]},"extension":[{"url":"http://hl7.org/fhir/us/core/StructureDefinition/us-core-race","extension":[{"url":"ombCategory","valueCoding":{"system":"urn:oid:2.16.840.1.113883.6.238","code":"1002-5","display":"American Indian or Alaska Native","userSelected":true}},{"url":"text","valueString":"American Indian or Alaska Native"}]},{"url":"http://hl7.org/fhir/us/core/StructureDefinition/us-core-ethnicity","extension":[{"url":"ombCategory","valueCoding":{"system":"urn:oid:2.16.840.1.113883.6.238","code":"2135-2","display":"Hispanic or Latino","userSelected":true}},{"url":"text","valueString":"Hispanic or Latino"}]}],"identifier":[{"type":{"coding":[{"system":"http://terminology.hl7.org/CodeSystem/v2-0203","code":"MR"}]},"system":"https://bonnie-fhir.healthit.gov/","value":"62f6754d5efef5272905e717"}],"name":[{"family":"NUMERPass","given":["12yoPosAdolDepScreenandFollowUpReferral"]}],"gender":"male","birthDate":"2014-01-01"},"request":{"method":"PUT","url":"Patient/41664f5f-5280-4b5b-a9f1-289a412dbc18"}},{"fullUrl":"https://madie.cms.gov/Encounter/b240ed75-264e-4dba-bf8d-57e4cf915555","resource":{"resourceType":"Encounter","id":"b240ed75-264e-4dba-bf8d-57e4cf915555","meta":{"profile":["http://hl7.org/fhir/us/qicore/StructureDefinition/qicore-encounter"]},"status":"finished","class":{"system":"http://terminology.hl7.org/CodeSystem/v3-ActCode","code":"AMB","display":"ambulatory"},"type":[{"coding":[{"system":"http://snomed.info/sct","code":"10197000","display":"Psychiatric interview and evaluation (procedure)","userSelected":true}]}],"subject":{"reference":"Patient/41664f5f-5280-4b5b-a9f1-289a412dbc18"},"period":{"start":"2026-06-15T08:00:00.000+00:00","end":"2026-06-21T08:15:00.000+00:00"}},"request":{"method":"PUT","url":"Encounter/b240ed75-264e-4dba-bf8d-57e4cf915555"}},{"fullUrl":"https://madie.cms.gov/Observation/515d9b25-b43b-43c5-a8a0-23d4da535a85","resource":{"resourceType":"Observation","id":"515d9b25-b43b-43c5-a8a0-23d4da535a85","meta":{"profile":["http://hl7.org/fhir/us/qicore/StructureDefinition/qicore-observation-screening-assessment"]},"status":"final","category":[{"coding":[{"system":"http://terminology.hl7.org/CodeSystem/observation-category","code":"procedure","display":"Procedure"}]},{"coding":[{"system":"http://terminology.hl7.org/CodeSystem/observation-category","code":"survey","display":"Survey"}]}],"code":{"coding":[{"system":"http://loinc.org","code":"73831-0","display":"Adolescent depression screening assessment","userSelected":true}]},"subject":{"reference":"Patient/41664f5f-5280-4b5b-a9f1-289a412dbc18"},"effectiveDateTime":"2026-06-15T08:00:00.000+00:00","valueCodeableConcept":{"coding":[{"system":"http://snomed.info/sct","code":"428181000124104","display":"Depression screening positive (finding)","userSelected":true}]}},"request":{"method":"PUT","url":"Observation/515d9b25-b43b-43c5-a8a0-23d4da535a85"}},{"fullUrl":"https://madie.cms.gov/ServiceRequest/b9503ddf-80f7-4839-98e3-e7e2af00bfb0","resource":{"resourceType":"ServiceRequest","id":"b9503ddf-80f7-4839-98e3-e7e2af00bfb0","meta":{"profile":["http://hl7.org/fhir/us/qicore/StructureDefinition/qicore-servicerequest"]},"status":"active","intent":"order","doNotPerform":false,"code":{"coding":[{"system":"http://snomed.info/sct","code":"183524004","display":"Referral to psychiatry service (procedure)","userSelected":true}]},"subject":{"reference":"Patient/41664f5f-5280-4b5b-a9f1-289a412dbc18"},"authoredOn":"2026-06-21T08:00:00.000+00:00"},"request":{"method":"PUT","url":"ServiceRequest/b9503ddf-80f7-4839-98e3-e7e2af00bfb0"}},{"fullUrl":"https://madie.cms.gov/Coverage/95655e3b-fca9-43ca-b24a-346edc563be7","resource":{"resourceType":"Coverage","id":"95655e3b-fca9-43ca-b24a-346edc563be7","meta":{"profile":["http://hl7.org/fhir/us/qicore/StructureDefinition/qicore-coverage"]},"status":"active","subscriberId":"123456789","beneficiary":{"reference":"Patient/41664f5f-5280-4b5b-a9f1-289a412dbc18"},"relationship":{"coding":[{"system":"http://terminology.hl7.org/CodeSystem/subscriber-relationship","code":"self","display":"Self","userSelected":true}]},"payor":[{"reference":"Organization/898f0602-55ac-4dbd-8c71-073db1064f8f"}]},"request":{"method":"PUT","url":"Coverage/95655e3b-fca9-43ca-b24a-346edc563be7"}},{"fullUrl":"https://madie.cms.gov/Organization/898f0602-55ac-4dbd-8c71-073db1064f8f","resource":{"resourceType":"Organization","id":"898f0602-55ac-4dbd-8c71-073db1064f8f","meta":{"profile":["http://hl7.org/fhir/us/qicore/StructureDefinition/qicore-organization"]},"identifier":[{"use":"temp","system":"urn:oid:2.16.840.1.113883.4.4","value":"21-3259825"}],"active":true,"type":[{"coding":[{"system":"http://terminology.hl7.org/CodeSystem/organization-type","code":"pay","display":"Payer"}]}],"name":"Blue Cross Blue Shield of Texas","telecom":[{"system":"phone","value":"(+1) 972-766-6900"}],"address":[{"use":"billing","type":"postal","line":["P.O. Box 660044"],"city":"Dallas","state":"TX","postalCode":"75266-0044","country":"USA"}]},"request":{"method":"PUT","url":"Organization/898f0602-55ac-4dbd-8c71-073db1064f8f"}},{"fullUrl":"https://madie.cms.gov/Practitioner/63cf816d-bc2d-4d31-885e-f90dabcc9b21","resource":{"resourceType":"Practitioner","id":"63cf816d-bc2d-4d31-885e-f90dabcc9b21","meta":{"profile":["http://hl7.org/fhir/us/qicore/StructureDefinition/qicore-practitioner"]},"identifier":[{"system":"http://hl7.org/fhir/sid/us-npi","value":"1234567893"}],"name":[{"family":"Evil","prefix":["Dr"]}]},"request":{"method":"PUT","url":"Practitioner/63cf816d-bc2d-4d31-885e-f90dabcc9b21"}},{"fullUrl":"https://madie.cms.gov/MeasureReport/9d0fedc0-1fd0-43c8-8e31-f6568e41c093","resource":{"resourceType":"MeasureReport","id":"9d0fedc0-1fd0-43c8-8e31-f6568e41c093","meta":{"profile":["http://hl7.org/fhir/us/cqfmeasures/StructureDefinition/test-case-cqfm"]},"contained":[{"resourceType":"Parameters","id":"c7d16b2e-fa43-43a9-ad5f-e5312c63a576-parameters","parameter":[{"name":"subject","valueString":"41664f5f-5280-4b5b-a9f1-289a412dbc18"}]}],"extension":[{"url":"http://hl7.org/fhir/StructureDefinition/cqf-inputParameters","valueReference":{"reference":"#c7d16b2e-fa43-43a9-ad5f-e5312c63a576-parameters"}},{"url":"http://hl7.org/fhir/us/cqfmeasures/StructureDefinition/cqfm-testCaseDescription","valueMarkdown":"12yo with previous positive adolescent depression screening and service request follow up"}],"modifierExtension":[{"url":"http://hl7.org/fhir/us/cqfmeasures/StructureDefinition/cqfm-isTestCase","valueBoolean":true}],"status":"complete","type":"individual","measure":"https://madie.cms.gov/Measure/CMS2FHIRPCSDepressionScreenAndFollowUp","period":{"start":"2026-01-01","end":"2026-12-31"},"group":[{"id":"Group_1","population":[{"id":"InitialPopulation_1","code":{"coding":[{"system":"http://terminology.hl7.org/CodeSystem/measure-population","code":"initial-population","display":"Initial Population"}]},"count":1},{"id":"Denominator_1","code":{"coding":[{"system":"http://terminology.hl7.org/CodeSystem/measure-population","code":"denominator","display":"Denominator"}]},"count":1},{"id":"DenominatorExclusion_1","code":{"coding":[{"system":"http://terminology.hl7.org/CodeSystem/measure-population","code":"denominator-exclusion","display":"Denominator Exclusion"}]},"count":0},{"id":"Numerator_1","code":{"coding":[{"system":"http://terminology.hl7.org/CodeSystem/measure-population","code":"numerator","display":"Numerator"}]},"count":1},{"id":"DenominatorException_1","code":{"coding":[{"system":"http://terminology.hl7.org/CodeSystem/measure-population","code":"denominator-exception","display":"Denominator Exception"}]},"count":0}],"measureScore":{"value":1.0}}],"evaluatedResource":[{"reference":"Patient/41664f5f-5280-4b5b-a9f1-289a412dbc18"},{"reference":"Encounter/b240ed75-264e-4dba-bf8d-57e4cf915555"},{"reference":"Observation/515d9b25-b43b-43c5-a8a0-23d4da535a85"},{"reference":"ServiceRequest/b9503ddf-80f7-4839-98e3-e7e2af00bfb0"},{"reference":"Coverage/95655e3b-fca9-43ca-b24a-346edc563be7"},{"reference":"Organization/898f0602-55ac-4dbd-8c71-073db1064f8f"},{"reference":"Practitioner/63cf816d-bc2d-4d31-885e-f90dabcc9b21"}]},"request":{"method":"PUT","url":"MeasureReport/9d0fedc0-1fd0-43c8-8e31-f6568e41c093"}}]},"request":{"method":"PUT","url":"Bundle/62f6754d5efef5272905e717"}},{"resource":{"resourceType":"Practitioner","id":"63cf816d-bc2d-4d31-885e-f90dabcc9b21","meta":{"profile":["http://hl7.org/fhir/us/qicore/StructureDefinition/qicore-practitioner"]},"identifier":[{"system":"http://hl7.org/fhir/sid/us-npi","value":"1234567893"}],"name":[{"family":"Evil","prefix":["Dr"]}]},"request":{"method":"PUT","url":"Practitioner/63cf816d-bc2d-4d31-885e-f90dabcc9b21"}},{"resource":{"resourceType":"MeasureReport","id":"9d0fedc0-1fd0-43c8-8e31-f6568e41c093","meta":{"profile":["http://hl7.org/fhir/us/cqfmeasures/StructureDefinition/test-case-cqfm"]},"contained":[{"resourceType":"Parameters","id":"c7d16b2e-fa43-43a9-ad5f-e5312c63a576-parameters","parameter":[{"name":"subject","valueString":"41664f5f-5280-4b5b-a9f1-289a412dbc18"}]}],"extension":[{"url":"http://hl7.org/fhir/StructureDefinition/cqf-inputParameters","valueReference":{"reference":"#c7d16b2e-fa43-43a9-ad5f-e5312c63a576-parameters"}},{"url":"http://hl7.org/fhir/us/cqfmeasures/StructureDefinition/cqfm-testCaseDescription","valueMarkdown":"12yo with previous positive adolescent depression screening and service request follow up"}],"modifierExtension":[{"url":"http://hl7.org/fhir/us/cqfmeasures/StructureDefinition/cqfm-isTestCase","valueBoolean":true}],"status":"complete","type":"individual","measure":"https://madie.cms.gov/Measure/CMS2FHIRPCSDepressionScreenAndFollowUp","period":{"start":"2026-01-01","end":"2026-12-31"},"group":[{"id":"Group_1","population":[{"id":"InitialPopulation_1","code":{"coding":[{"system":"http://terminology.hl7.org/CodeSystem/measure-population","code":"initial-population","display":"Initial Population"}]},"count":1},{"id":"Denominator_1","code":{"coding":[{"system":"http://terminology.hl7.org/CodeSystem/measure-population","code":"denominator","display":"Denominator"}]},"count":1},{"id":"DenominatorExclusion_1","code":{"coding":[{"system":"http://terminology.hl7.org/CodeSystem/measure-population","code":"denominator-exclusion","display":"Denominator Exclusion"}]},"count":0},{"id":"Numerator_1","code":{"coding":[{"system":"http://terminology.hl7.org/CodeSystem/measure-population","code":"numerator","display":"Numerator"}]},"count":1},{"id":"DenominatorException_1","code":{"coding":[{"system":"http://terminology.hl7.org/CodeSystem/measure-population","code":"denominator-exception","display":"Denominator Exception"}]},"count":0}],"measureScore":{"value":1.0}}],"evaluatedResource":[{"reference":"Patient/41664f5f-5280-4b5b-a9f1-289a412dbc18"},{"reference":"Encounter/b240ed75-264e-4dba-bf8d-57e4cf915555"},{"reference":"Observation/515d9b25-b43b-43c5-a8a0-23d4da535a85"},{"reference":"ServiceRequest/b9503ddf-80f7-4839-98e3-e7e2af00bfb0"},{"reference":"Coverage/95655e3b-fca9-43ca-b24a-346edc563be7"},{"reference":"Organization/898f0602-55ac-4dbd-8c71-073db1064f8f"},{"reference":"Practitioner/63cf816d-bc2d-4d31-885e-f90dabcc9b21"}]},"request":{"method":"PUT","url":"MeasureReport/9d0fedc0-1fd0-43c8-8e31-f6568e41c093"}}]}