{"resourceType":"Bundle","id":"tests-15ad723f-b561-4cdd-9a11-7e6619780459-bundle","type":"transaction","entry":[{"resource":{"resourceType":"Organization","id":"432f1c26-3458-48b8-ac40-3ad07b86fe99","meta":{"profile":["http://hl7.org/fhir/us/qicore/StructureDefinition/qicore-organization"]},"identifier":[{"use":"temp","system":"urn:oid:2.16.840.1.113883.4.4","value":"21-3259825"}],"active":true,"type":[{"coding":[{"system":"http://terminology.hl7.org/CodeSystem/organization-type","code":"pay","display":"Payer"}]}],"name":"Blue Cross Blue Shield of Texas","telecom":[{"system":"phone","value":"(+1) 972-766-6900"}],"address":[{"use":"billing","type":"postal","line":["P.O. Box 660044"],"city":"Dallas","state":"TX","postalCode":"75266-0044","country":"USA"}]},"request":{"method":"PUT","url":"Organization/432f1c26-3458-48b8-ac40-3ad07b86fe99"}},{"resource":{"resourceType":"Condition","id":"f39c93d6-58ef-43ee-a268-db92b17a234c","meta":{"profile":["http://hl7.org/fhir/us/qicore/StructureDefinition/qicore-condition-problems-health-concerns"]},"clinicalStatus":{"coding":[{"system":"http://terminology.hl7.org/CodeSystem/condition-clinical","code":"active","display":"active","userSelected":true}]},"category":[{"coding":[{"system":"http://terminology.hl7.org/CodeSystem/condition-category","code":"problem-list-item","display":"Problem List Item"}]}],"code":{"coding":[{"system":"http://snomed.info/sct","code":"10875004","display":"Severe mixed bipolar I disorder with psychotic features, mood-incongruent (disorder)","userSelected":true}]},"subject":{"reference":"Patient/15ad723f-b561-4cdd-9a11-7e6619780459"},"onsetDateTime":"2026-06-15T08:00:00.000+00:00"},"request":{"method":"PUT","url":"Condition/f39c93d6-58ef-43ee-a268-db92b17a234c"}},{"resource":{"resourceType":"Practitioner","id":"a822033a-2280-49a9-b2bf-14c393a97790","meta":{"profile":["http://hl7.org/fhir/us/qicore/StructureDefinition/qicore-practitioner"]},"identifier":[{"system":"http://hl7.org/fhir/sid/us-npi","value":"1234567893"}],"name":[{"family":"Evil","prefix":["Dr"]}]},"request":{"method":"PUT","url":"Practitioner/a822033a-2280-49a9-b2bf-14c393a97790"}},{"resource":{"resourceType":"Encounter","id":"35b54443-1b0e-429b-94e1-52a9e7a8b3c4","meta":{"profile":["http://hl7.org/fhir/us/qicore/StructureDefinition/qicore-encounter"]},"status":"finished","class":{"system":"http://terminology.hl7.org/CodeSystem/v3-ActCode","code":"AMB","display":"ambulatory"},"type":[{"coding":[{"system":"http://snomed.info/sct","code":"10197000","display":"Psychiatric interview and evaluation (procedure)","userSelected":true}]}],"subject":{"reference":"Patient/15ad723f-b561-4cdd-9a11-7e6619780459"},"period":{"start":"2026-06-21T08:00:00.000+00:00","end":"2026-06-21T08:15:00.000+00:00"}},"request":{"method":"PUT","url":"Encounter/35b54443-1b0e-429b-94e1-52a9e7a8b3c4"}},{"resource":{"resourceType":"Bundle","id":"62b1e15a3968556e5150cf3b","type":"transaction","entry":[{"fullUrl":"https://madie.cms.gov/Patient/15ad723f-b561-4cdd-9a11-7e6619780459","resource":{"resourceType":"Patient","id":"15ad723f-b561-4cdd-9a11-7e6619780459","meta":{"profile":["http://hl7.org/fhir/us/qicore/StructureDefinition/qicore-patient"]},"extension":[{"url":"http://hl7.org/fhir/us/core/StructureDefinition/us-core-race","extension":[{"url":"ombCategory","valueCoding":{"system":"urn:oid:2.16.840.1.113883.6.238","code":"1002-5","display":"American Indian or Alaska Native","userSelected":true}},{"url":"text","valueString":"American Indian or Alaska Native"}]},{"url":"http://hl7.org/fhir/us/core/StructureDefinition/us-core-ethnicity","extension":[{"url":"ombCategory","valueCoding":{"system":"urn:oid:2.16.840.1.113883.6.238","code":"2135-2","display":"Hispanic or Latino","userSelected":true}},{"url":"text","valueString":"Hispanic or Latino"}]},{"url":"http://hl7.org/fhir/us/core/StructureDefinition/us-core-sex","valueCode":"248152002"}],"identifier":[{"type":{"coding":[{"system":"http://terminology.hl7.org/CodeSystem/v2-0203","code":"MR"}]},"system":"https://bonnie-fhir.healthit.gov/","value":"62b1e15a3968556e5150cf3b"}],"name":[{"family":"DENOMEXPass","given":["AdultHistoryOfBipolarActive"]}],"gender":"female","birthDate":"2008-01-01"},"request":{"method":"PUT","url":"Patient/15ad723f-b561-4cdd-9a11-7e6619780459"}},{"fullUrl":"https://madie.cms.gov/Encounter/35b54443-1b0e-429b-94e1-52a9e7a8b3c4","resource":{"resourceType":"Encounter","id":"35b54443-1b0e-429b-94e1-52a9e7a8b3c4","meta":{"profile":["http://hl7.org/fhir/us/qicore/StructureDefinition/qicore-encounter"]},"status":"finished","class":{"system":"http://terminology.hl7.org/CodeSystem/v3-ActCode","code":"AMB","display":"ambulatory"},"type":[{"coding":[{"system":"http://snomed.info/sct","code":"10197000","display":"Psychiatric interview and evaluation (procedure)","userSelected":true}]}],"subject":{"reference":"Patient/15ad723f-b561-4cdd-9a11-7e6619780459"},"period":{"start":"2026-06-21T08:00:00.000+00:00","end":"2026-06-21T08:15:00.000+00:00"}},"request":{"method":"PUT","url":"Encounter/35b54443-1b0e-429b-94e1-52a9e7a8b3c4"}},{"fullUrl":"https://madie.cms.gov/Condition/f39c93d6-58ef-43ee-a268-db92b17a234c","resource":{"resourceType":"Condition","id":"f39c93d6-58ef-43ee-a268-db92b17a234c","meta":{"profile":["http://hl7.org/fhir/us/qicore/StructureDefinition/qicore-condition-problems-health-concerns"]},"clinicalStatus":{"coding":[{"system":"http://terminology.hl7.org/CodeSystem/condition-clinical","code":"active","display":"active","userSelected":true}]},"category":[{"coding":[{"system":"http://terminology.hl7.org/CodeSystem/condition-category","code":"problem-list-item","display":"Problem List Item"}]}],"code":{"coding":[{"system":"http://snomed.info/sct","code":"10875004","display":"Severe mixed bipolar I disorder with psychotic features, mood-incongruent (disorder)","userSelected":true}]},"subject":{"reference":"Patient/15ad723f-b561-4cdd-9a11-7e6619780459"},"onsetDateTime":"2026-06-15T08:00:00.000+00:00"},"request":{"method":"PUT","url":"Condition/f39c93d6-58ef-43ee-a268-db92b17a234c"}},{"fullUrl":"https://madie.cms.gov/Coverage/1f1f1637-40d1-4544-898b-7edc12393b57","resource":{"resourceType":"Coverage","id":"1f1f1637-40d1-4544-898b-7edc12393b57","meta":{"profile":["http://hl7.org/fhir/us/qicore/StructureDefinition/qicore-coverage"]},"status":"active","subscriberId":"123456789","beneficiary":{"reference":"Patient/15ad723f-b561-4cdd-9a11-7e6619780459"},"relationship":{"coding":[{"system":"http://terminology.hl7.org/CodeSystem/subscriber-relationship","code":"self","display":"Self","userSelected":true}]},"payor":[{"reference":"Organization/432f1c26-3458-48b8-ac40-3ad07b86fe99"}]},"request":{"method":"PUT","url":"Coverage/1f1f1637-40d1-4544-898b-7edc12393b57"}},{"fullUrl":"https://madie.cms.gov/Organization/432f1c26-3458-48b8-ac40-3ad07b86fe99","resource":{"resourceType":"Organization","id":"432f1c26-3458-48b8-ac40-3ad07b86fe99","meta":{"profile":["http://hl7.org/fhir/us/qicore/StructureDefinition/qicore-organization"]},"identifier":[{"use":"temp","system":"urn:oid:2.16.840.1.113883.4.4","value":"21-3259825"}],"active":true,"type":[{"coding":[{"system":"http://terminology.hl7.org/CodeSystem/organization-type","code":"pay","display":"Payer"}]}],"name":"Blue Cross Blue Shield of Texas","telecom":[{"system":"phone","value":"(+1) 972-766-6900"}],"address":[{"use":"billing","type":"postal","line":["P.O. Box 660044"],"city":"Dallas","state":"TX","postalCode":"75266-0044","country":"USA"}]},"request":{"method":"PUT","url":"Organization/432f1c26-3458-48b8-ac40-3ad07b86fe99"}},{"fullUrl":"https://madie.cms.gov/Practitioner/a822033a-2280-49a9-b2bf-14c393a97790","resource":{"resourceType":"Practitioner","id":"a822033a-2280-49a9-b2bf-14c393a97790","meta":{"profile":["http://hl7.org/fhir/us/qicore/StructureDefinition/qicore-practitioner"]},"identifier":[{"system":"http://hl7.org/fhir/sid/us-npi","value":"1234567893"}],"name":[{"family":"Evil","prefix":["Dr"]}]},"request":{"method":"PUT","url":"Practitioner/a822033a-2280-49a9-b2bf-14c393a97790"}},{"fullUrl":"https://madie.cms.gov/MeasureReport/a2804903-2d4e-4ffc-a163-ddb98146d50d","resource":{"resourceType":"MeasureReport","id":"a2804903-2d4e-4ffc-a163-ddb98146d50d","meta":{"profile":["http://hl7.org/fhir/us/cqfmeasures/StructureDefinition/test-case-cqfm"]},"contained":[{"resourceType":"Parameters","id":"517dfe51-a268-4e2d-b461-2fb10a0b3c4a-parameters","parameter":[{"name":"subject","valueString":"15ad723f-b561-4cdd-9a11-7e6619780459"}]}],"extension":[{"url":"http://hl7.org/fhir/StructureDefinition/cqf-inputParameters","valueReference":{"reference":"#517dfe51-a268-4e2d-b461-2fb10a0b3c4a-parameters"}},{"url":"http://hl7.org/fhir/us/cqfmeasures/StructureDefinition/cqfm-testCaseDescription","valueMarkdown":"18 yo patient with history of bipolar - active"}],"modifierExtension":[{"url":"http://hl7.org/fhir/us/cqfmeasures/StructureDefinition/cqfm-isTestCase","valueBoolean":true}],"status":"complete","type":"individual","measure":"https://madie.cms.gov/Measure/CMS2FHIRPCSDepressionScreenAndFollowUp","period":{"start":"2026-01-01","end":"2026-12-31"},"group":[{"id":"Group_1","population":[{"id":"InitialPopulation_1","code":{"coding":[{"system":"http://terminology.hl7.org/CodeSystem/measure-population","code":"initial-population","display":"Initial Population"}]},"count":1},{"id":"Denominator_1","code":{"coding":[{"system":"http://terminology.hl7.org/CodeSystem/measure-population","code":"denominator","display":"Denominator"}]},"count":1},{"id":"DenominatorExclusion_1","code":{"coding":[{"system":"http://terminology.hl7.org/CodeSystem/measure-population","code":"denominator-exclusion","display":"Denominator Exclusion"}]},"count":1},{"id":"Numerator_1","code":{"coding":[{"system":"http://terminology.hl7.org/CodeSystem/measure-population","code":"numerator","display":"Numerator"}]},"count":0},{"id":"DenominatorException_1","code":{"coding":[{"system":"http://terminology.hl7.org/CodeSystem/measure-population","code":"denominator-exception","display":"Denominator Exception"}]},"count":0}],"measureScore":{"value":1.0}}],"evaluatedResource":[{"reference":"Patient/15ad723f-b561-4cdd-9a11-7e6619780459"},{"reference":"Encounter/35b54443-1b0e-429b-94e1-52a9e7a8b3c4"},{"reference":"Condition/f39c93d6-58ef-43ee-a268-db92b17a234c"},{"reference":"Coverage/1f1f1637-40d1-4544-898b-7edc12393b57"},{"reference":"Organization/432f1c26-3458-48b8-ac40-3ad07b86fe99"},{"reference":"Practitioner/a822033a-2280-49a9-b2bf-14c393a97790"}]},"request":{"method":"PUT","url":"MeasureReport/a2804903-2d4e-4ffc-a163-ddb98146d50d"}}]},"request":{"method":"PUT","url":"Bundle/62b1e15a3968556e5150cf3b"}},{"resource":{"resourceType":"MeasureReport","id":"a2804903-2d4e-4ffc-a163-ddb98146d50d","meta":{"profile":["http://hl7.org/fhir/us/cqfmeasures/StructureDefinition/test-case-cqfm"]},"contained":[{"resourceType":"Parameters","id":"517dfe51-a268-4e2d-b461-2fb10a0b3c4a-parameters","parameter":[{"name":"subject","valueString":"15ad723f-b561-4cdd-9a11-7e6619780459"}]}],"extension":[{"url":"http://hl7.org/fhir/StructureDefinition/cqf-inputParameters","valueReference":{"reference":"#517dfe51-a268-4e2d-b461-2fb10a0b3c4a-parameters"}},{"url":"http://hl7.org/fhir/us/cqfmeasures/StructureDefinition/cqfm-testCaseDescription","valueMarkdown":"18 yo patient with history of bipolar - active"}],"modifierExtension":[{"url":"http://hl7.org/fhir/us/cqfmeasures/StructureDefinition/cqfm-isTestCase","valueBoolean":true}],"status":"complete","type":"individual","measure":"https://madie.cms.gov/Measure/CMS2FHIRPCSDepressionScreenAndFollowUp","period":{"start":"2026-01-01","end":"2026-12-31"},"group":[{"id":"Group_1","population":[{"id":"InitialPopulation_1","code":{"coding":[{"system":"http://terminology.hl7.org/CodeSystem/measure-population","code":"initial-population","display":"Initial Population"}]},"count":1},{"id":"Denominator_1","code":{"coding":[{"system":"http://terminology.hl7.org/CodeSystem/measure-population","code":"denominator","display":"Denominator"}]},"count":1},{"id":"DenominatorExclusion_1","code":{"coding":[{"system":"http://terminology.hl7.org/CodeSystem/measure-population","code":"denominator-exclusion","display":"Denominator Exclusion"}]},"count":1},{"id":"Numerator_1","code":{"coding":[{"system":"http://terminology.hl7.org/CodeSystem/measure-population","code":"numerator","display":"Numerator"}]},"count":0},{"id":"DenominatorException_1","code":{"coding":[{"system":"http://terminology.hl7.org/CodeSystem/measure-population","code":"denominator-exception","display":"Denominator Exception"}]},"count":0}],"measureScore":{"value":1.0}}],"evaluatedResource":[{"reference":"Patient/15ad723f-b561-4cdd-9a11-7e6619780459"},{"reference":"Encounter/35b54443-1b0e-429b-94e1-52a9e7a8b3c4"},{"reference":"Condition/f39c93d6-58ef-43ee-a268-db92b17a234c"},{"reference":"Coverage/1f1f1637-40d1-4544-898b-7edc12393b57"},{"reference":"Organization/432f1c26-3458-48b8-ac40-3ad07b86fe99"},{"reference":"Practitioner/a822033a-2280-49a9-b2bf-14c393a97790"}]},"request":{"method":"PUT","url":"MeasureReport/a2804903-2d4e-4ffc-a163-ddb98146d50d"}},{"resource":{"resourceType":"Patient","id":"15ad723f-b561-4cdd-9a11-7e6619780459","meta":{"profile":["http://hl7.org/fhir/us/qicore/StructureDefinition/qicore-patient"]},"extension":[{"url":"http://hl7.org/fhir/us/core/StructureDefinition/us-core-race","extension":[{"url":"ombCategory","valueCoding":{"system":"urn:oid:2.16.840.1.113883.6.238","code":"1002-5","display":"American Indian or Alaska Native","userSelected":true}},{"url":"text","valueString":"American Indian or Alaska Native"}]},{"url":"http://hl7.org/fhir/us/core/StructureDefinition/us-core-ethnicity","extension":[{"url":"ombCategory","valueCoding":{"system":"urn:oid:2.16.840.1.113883.6.238","code":"2135-2","display":"Hispanic or Latino","userSelected":true}},{"url":"text","valueString":"Hispanic or Latino"}]},{"url":"http://hl7.org/fhir/us/core/StructureDefinition/us-core-sex","valueCode":"248152002"}],"identifier":[{"type":{"coding":[{"system":"http://terminology.hl7.org/CodeSystem/v2-0203","code":"MR"}]},"system":"https://bonnie-fhir.healthit.gov/","value":"62b1e15a3968556e5150cf3b"}],"name":[{"family":"DENOMEXPass","given":["AdultHistoryOfBipolarActive"]}],"gender":"female","birthDate":"2008-01-01"},"request":{"method":"PUT","url":"Patient/15ad723f-b561-4cdd-9a11-7e6619780459"}},{"resource":{"resourceType":"Coverage","id":"1f1f1637-40d1-4544-898b-7edc12393b57","meta":{"profile":["http://hl7.org/fhir/us/qicore/StructureDefinition/qicore-coverage"]},"status":"active","subscriberId":"123456789","beneficiary":{"reference":"Patient/15ad723f-b561-4cdd-9a11-7e6619780459"},"relationship":{"coding":[{"system":"http://terminology.hl7.org/CodeSystem/subscriber-relationship","code":"self","display":"Self","userSelected":true}]},"payor":[{"reference":"Organization/432f1c26-3458-48b8-ac40-3ad07b86fe99"}]},"request":{"method":"PUT","url":"Coverage/1f1f1637-40d1-4544-898b-7edc12393b57"}}]}