{"resourceType":"Bundle","id":"tests-4a1f1d8c-0de8-4819-a0a3-28f6caaf6265-bundle","type":"transaction","entry":[{"resource":{"resourceType":"Bundle","id":"62f663525efef5272905e70e","type":"transaction","entry":[{"fullUrl":"https://madie.cms.gov/Patient/4a1f1d8c-0de8-4819-a0a3-28f6caaf6265","resource":{"resourceType":"Patient","id":"4a1f1d8c-0de8-4819-a0a3-28f6caaf6265","meta":{"profile":["http://hl7.org/fhir/us/qicore/StructureDefinition/qicore-patient"]},"extension":[{"url":"http://hl7.org/fhir/us/core/StructureDefinition/us-core-race","extension":[{"url":"ombCategory","valueCoding":{"system":"urn:oid:2.16.840.1.113883.6.238","code":"1002-5","display":"American Indian or Alaska Native","userSelected":true}},{"url":"text","valueString":"American Indian or Alaska Native"}]},{"url":"http://hl7.org/fhir/us/core/StructureDefinition/us-core-ethnicity","extension":[{"url":"ombCategory","valueCoding":{"system":"urn:oid:2.16.840.1.113883.6.238","code":"2135-2","display":"Hispanic or Latino","userSelected":true}},{"url":"text","valueString":"Hispanic or Latino"}]}],"identifier":[{"type":{"coding":[{"system":"http://terminology.hl7.org/CodeSystem/v2-0203","code":"MR"}]},"system":"https://bonnie-fhir.healthit.gov/","value":"62f663525efef5272905e70e"}],"name":[{"family":"DENOMPass","given":["AdultPhysicalTherapyEvaluation"]}],"gender":"male","birthDate":"2008-12-31"},"request":{"method":"PUT","url":"Patient/4a1f1d8c-0de8-4819-a0a3-28f6caaf6265"}},{"fullUrl":"https://madie.cms.gov/Encounter/7d57a636-9e2b-4058-9acc-6c909112891d","resource":{"resourceType":"Encounter","id":"7d57a636-9e2b-4058-9acc-6c909112891d","meta":{"profile":["http://hl7.org/fhir/us/qicore/StructureDefinition/qicore-encounter"]},"status":"finished","class":{"system":"http://terminology.hl7.org/CodeSystem/v3-ActCode","code":"IMP","display":"inpatient encounter"},"type":[{"coding":[{"system":"http://snomed.info/sct","code":"183326003","display":"Combined physical therapy (regime/therapy)","userSelected":true}]}],"subject":{"reference":"Patient/4a1f1d8c-0de8-4819-a0a3-28f6caaf6265"},"period":{"start":"2026-08-12T08:00:00.000+00:00","end":"2026-08-12T08:15:00.000+00:00"}},"request":{"method":"PUT","url":"Encounter/7d57a636-9e2b-4058-9acc-6c909112891d"}},{"fullUrl":"https://madie.cms.gov/Coverage/22a64043-1e3e-4bd2-b3ce-8dc21134cada","resource":{"resourceType":"Coverage","id":"22a64043-1e3e-4bd2-b3ce-8dc21134cada","meta":{"profile":["http://hl7.org/fhir/us/qicore/StructureDefinition/qicore-coverage"]},"status":"active","subscriberId":"123456789","beneficiary":{"reference":"Patient/4a1f1d8c-0de8-4819-a0a3-28f6caaf6265"},"relationship":{"coding":[{"system":"http://terminology.hl7.org/CodeSystem/subscriber-relationship","code":"self","display":"Self","userSelected":true}]},"payor":[{"reference":"Organization/0a99ec53-05a1-437e-9770-2720649b29b3"}]},"request":{"method":"PUT","url":"Coverage/22a64043-1e3e-4bd2-b3ce-8dc21134cada"}},{"fullUrl":"https://madie.cms.gov/Organization/0a99ec53-05a1-437e-9770-2720649b29b3","resource":{"resourceType":"Organization","id":"0a99ec53-05a1-437e-9770-2720649b29b3","meta":{"profile":["http://hl7.org/fhir/us/qicore/StructureDefinition/qicore-organization"]},"identifier":[{"use":"temp","system":"urn:oid:2.16.840.1.113883.4.4","value":"21-3259825"}],"active":true,"type":[{"coding":[{"system":"http://terminology.hl7.org/CodeSystem/organization-type","code":"pay","display":"Payer"}]}],"name":"Blue Cross Blue Shield of Texas","telecom":[{"system":"phone","value":"(+1) 972-766-6900"}],"address":[{"use":"billing","type":"postal","line":["P.O. Box 660044"],"city":"Dallas","state":"TX","postalCode":"75266-0044","country":"USA"}]},"request":{"method":"PUT","url":"Organization/0a99ec53-05a1-437e-9770-2720649b29b3"}},{"fullUrl":"https://madie.cms.gov/Practitioner/c48ce6e1-a222-482b-8716-b3890455f6db","resource":{"resourceType":"Practitioner","id":"c48ce6e1-a222-482b-8716-b3890455f6db","meta":{"profile":["http://hl7.org/fhir/us/qicore/StructureDefinition/qicore-practitioner"]},"identifier":[{"system":"http://hl7.org/fhir/sid/us-npi","value":"1234567893"}],"name":[{"family":"Evil","prefix":["Dr"]}]},"request":{"method":"PUT","url":"Practitioner/c48ce6e1-a222-482b-8716-b3890455f6db"}},{"fullUrl":"https://madie.cms.gov/MeasureReport/5135bc0e-ff09-4dec-8bb1-7eea2d9ff4b0","resource":{"resourceType":"MeasureReport","id":"5135bc0e-ff09-4dec-8bb1-7eea2d9ff4b0","meta":{"profile":["http://hl7.org/fhir/us/cqfmeasures/StructureDefinition/test-case-cqfm"]},"contained":[{"resourceType":"Parameters","id":"70e6e314-555c-4504-806d-21b91a03a282-parameters","parameter":[{"name":"subject","valueString":"4a1f1d8c-0de8-4819-a0a3-28f6caaf6265"}]}],"extension":[{"url":"http://hl7.org/fhir/StructureDefinition/cqf-inputParameters","valueReference":{"reference":"#70e6e314-555c-4504-806d-21b91a03a282-parameters"}},{"url":"http://hl7.org/fhir/us/cqfmeasures/StructureDefinition/cqfm-testCaseDescription","valueMarkdown":"18 yo male with physical therapy evaluation"}],"modifierExtension":[{"url":"http://hl7.org/fhir/us/cqfmeasures/StructureDefinition/cqfm-isTestCase","valueBoolean":true}],"status":"complete","type":"individual","measure":"https://madie.cms.gov/Measure/CMS2FHIRPCSDepressionScreenAndFollowUp","period":{"start":"2026-01-01","end":"2026-12-31"},"group":[{"id":"Group_1","population":[{"id":"InitialPopulation_1","code":{"coding":[{"system":"http://terminology.hl7.org/CodeSystem/measure-population","code":"initial-population","display":"Initial Population"}]},"count":1},{"id":"Denominator_1","code":{"coding":[{"system":"http://terminology.hl7.org/CodeSystem/measure-population","code":"denominator","display":"Denominator"}]},"count":1},{"id":"DenominatorExclusion_1","code":{"coding":[{"system":"http://terminology.hl7.org/CodeSystem/measure-population","code":"denominator-exclusion","display":"Denominator Exclusion"}]},"count":0},{"id":"Numerator_1","code":{"coding":[{"system":"http://terminology.hl7.org/CodeSystem/measure-population","code":"numerator","display":"Numerator"}]},"count":0},{"id":"DenominatorException_1","code":{"coding":[{"system":"http://terminology.hl7.org/CodeSystem/measure-population","code":"denominator-exception","display":"Denominator Exception"}]},"count":0}],"measureScore":{"value":1.0}}],"evaluatedResource":[{"reference":"Patient/4a1f1d8c-0de8-4819-a0a3-28f6caaf6265"},{"reference":"Encounter/7d57a636-9e2b-4058-9acc-6c909112891d"},{"reference":"Coverage/22a64043-1e3e-4bd2-b3ce-8dc21134cada"},{"reference":"Organization/0a99ec53-05a1-437e-9770-2720649b29b3"},{"reference":"Practitioner/c48ce6e1-a222-482b-8716-b3890455f6db"}]},"request":{"method":"PUT","url":"MeasureReport/5135bc0e-ff09-4dec-8bb1-7eea2d9ff4b0"}}]},"request":{"method":"PUT","url":"Bundle/62f663525efef5272905e70e"}},{"resource":{"resourceType":"Organization","id":"0a99ec53-05a1-437e-9770-2720649b29b3","meta":{"profile":["http://hl7.org/fhir/us/qicore/StructureDefinition/qicore-organization"]},"identifier":[{"use":"temp","system":"urn:oid:2.16.840.1.113883.4.4","value":"21-3259825"}],"active":true,"type":[{"coding":[{"system":"http://terminology.hl7.org/CodeSystem/organization-type","code":"pay","display":"Payer"}]}],"name":"Blue Cross Blue Shield of Texas","telecom":[{"system":"phone","value":"(+1) 972-766-6900"}],"address":[{"use":"billing","type":"postal","line":["P.O. Box 660044"],"city":"Dallas","state":"TX","postalCode":"75266-0044","country":"USA"}]},"request":{"method":"PUT","url":"Organization/0a99ec53-05a1-437e-9770-2720649b29b3"}},{"resource":{"resourceType":"Patient","id":"4a1f1d8c-0de8-4819-a0a3-28f6caaf6265","meta":{"profile":["http://hl7.org/fhir/us/qicore/StructureDefinition/qicore-patient"]},"extension":[{"url":"http://hl7.org/fhir/us/core/StructureDefinition/us-core-race","extension":[{"url":"ombCategory","valueCoding":{"system":"urn:oid:2.16.840.1.113883.6.238","code":"1002-5","display":"American Indian or Alaska Native","userSelected":true}},{"url":"text","valueString":"American Indian or Alaska Native"}]},{"url":"http://hl7.org/fhir/us/core/StructureDefinition/us-core-ethnicity","extension":[{"url":"ombCategory","valueCoding":{"system":"urn:oid:2.16.840.1.113883.6.238","code":"2135-2","display":"Hispanic or Latino","userSelected":true}},{"url":"text","valueString":"Hispanic or Latino"}]}],"identifier":[{"type":{"coding":[{"system":"http://terminology.hl7.org/CodeSystem/v2-0203","code":"MR"}]},"system":"https://bonnie-fhir.healthit.gov/","value":"62f663525efef5272905e70e"}],"name":[{"family":"DENOMPass","given":["AdultPhysicalTherapyEvaluation"]}],"gender":"male","birthDate":"2008-12-31"},"request":{"method":"PUT","url":"Patient/4a1f1d8c-0de8-4819-a0a3-28f6caaf6265"}},{"resource":{"resourceType":"Practitioner","id":"c48ce6e1-a222-482b-8716-b3890455f6db","meta":{"profile":["http://hl7.org/fhir/us/qicore/StructureDefinition/qicore-practitioner"]},"identifier":[{"system":"http://hl7.org/fhir/sid/us-npi","value":"1234567893"}],"name":[{"family":"Evil","prefix":["Dr"]}]},"request":{"method":"PUT","url":"Practitioner/c48ce6e1-a222-482b-8716-b3890455f6db"}},{"resource":{"resourceType":"Coverage","id":"22a64043-1e3e-4bd2-b3ce-8dc21134cada","meta":{"profile":["http://hl7.org/fhir/us/qicore/StructureDefinition/qicore-coverage"]},"status":"active","subscriberId":"123456789","beneficiary":{"reference":"Patient/4a1f1d8c-0de8-4819-a0a3-28f6caaf6265"},"relationship":{"coding":[{"system":"http://terminology.hl7.org/CodeSystem/subscriber-relationship","code":"self","display":"Self","userSelected":true}]},"payor":[{"reference":"Organization/0a99ec53-05a1-437e-9770-2720649b29b3"}]},"request":{"method":"PUT","url":"Coverage/22a64043-1e3e-4bd2-b3ce-8dc21134cada"}},{"resource":{"resourceType":"MeasureReport","id":"5135bc0e-ff09-4dec-8bb1-7eea2d9ff4b0","meta":{"profile":["http://hl7.org/fhir/us/cqfmeasures/StructureDefinition/test-case-cqfm"]},"contained":[{"resourceType":"Parameters","id":"70e6e314-555c-4504-806d-21b91a03a282-parameters","parameter":[{"name":"subject","valueString":"4a1f1d8c-0de8-4819-a0a3-28f6caaf6265"}]}],"extension":[{"url":"http://hl7.org/fhir/StructureDefinition/cqf-inputParameters","valueReference":{"reference":"#70e6e314-555c-4504-806d-21b91a03a282-parameters"}},{"url":"http://hl7.org/fhir/us/cqfmeasures/StructureDefinition/cqfm-testCaseDescription","valueMarkdown":"18 yo male with physical therapy evaluation"}],"modifierExtension":[{"url":"http://hl7.org/fhir/us/cqfmeasures/StructureDefinition/cqfm-isTestCase","valueBoolean":true}],"status":"complete","type":"individual","measure":"https://madie.cms.gov/Measure/CMS2FHIRPCSDepressionScreenAndFollowUp","period":{"start":"2026-01-01","end":"2026-12-31"},"group":[{"id":"Group_1","population":[{"id":"InitialPopulation_1","code":{"coding":[{"system":"http://terminology.hl7.org/CodeSystem/measure-population","code":"initial-population","display":"Initial Population"}]},"count":1},{"id":"Denominator_1","code":{"coding":[{"system":"http://terminology.hl7.org/CodeSystem/measure-population","code":"denominator","display":"Denominator"}]},"count":1},{"id":"DenominatorExclusion_1","code":{"coding":[{"system":"http://terminology.hl7.org/CodeSystem/measure-population","code":"denominator-exclusion","display":"Denominator Exclusion"}]},"count":0},{"id":"Numerator_1","code":{"coding":[{"system":"http://terminology.hl7.org/CodeSystem/measure-population","code":"numerator","display":"Numerator"}]},"count":0},{"id":"DenominatorException_1","code":{"coding":[{"system":"http://terminology.hl7.org/CodeSystem/measure-population","code":"denominator-exception","display":"Denominator Exception"}]},"count":0}],"measureScore":{"value":1.0}}],"evaluatedResource":[{"reference":"Patient/4a1f1d8c-0de8-4819-a0a3-28f6caaf6265"},{"reference":"Encounter/7d57a636-9e2b-4058-9acc-6c909112891d"},{"reference":"Coverage/22a64043-1e3e-4bd2-b3ce-8dc21134cada"},{"reference":"Organization/0a99ec53-05a1-437e-9770-2720649b29b3"},{"reference":"Practitioner/c48ce6e1-a222-482b-8716-b3890455f6db"}]},"request":{"method":"PUT","url":"MeasureReport/5135bc0e-ff09-4dec-8bb1-7eea2d9ff4b0"}},{"resource":{"resourceType":"Encounter","id":"7d57a636-9e2b-4058-9acc-6c909112891d","meta":{"profile":["http://hl7.org/fhir/us/qicore/StructureDefinition/qicore-encounter"]},"status":"finished","class":{"system":"http://terminology.hl7.org/CodeSystem/v3-ActCode","code":"IMP","display":"inpatient encounter"},"type":[{"coding":[{"system":"http://snomed.info/sct","code":"183326003","display":"Combined physical therapy (regime/therapy)","userSelected":true}]}],"subject":{"reference":"Patient/4a1f1d8c-0de8-4819-a0a3-28f6caaf6265"},"period":{"start":"2026-08-12T08:00:00.000+00:00","end":"2026-08-12T08:15:00.000+00:00"}},"request":{"method":"PUT","url":"Encounter/7d57a636-9e2b-4058-9acc-6c909112891d"}}]}