{"resourceType":"Bundle","id":"tests-0e463fc3-d1bf-4e19-882b-fad6342aa668-bundle","type":"transaction","entry":[{"resource":{"resourceType":"Patient","id":"0e463fc3-d1bf-4e19-882b-fad6342aa668","meta":{"profile":["http://hl7.org/fhir/us/qicore/StructureDefinition/qicore-patient"]},"extension":[{"url":"http://hl7.org/fhir/us/core/StructureDefinition/us-core-race","extension":[{"url":"ombCategory","valueCoding":{"system":"urn:oid:2.16.840.1.113883.6.238","code":"1002-5","display":"American Indian or Alaska Native","userSelected":true}},{"url":"text","valueString":"American Indian or Alaska Native"}]},{"url":"http://hl7.org/fhir/us/core/StructureDefinition/us-core-ethnicity","extension":[{"url":"ombCategory","valueCoding":{"system":"urn:oid:2.16.840.1.113883.6.238","code":"2135-2","display":"Hispanic or Latino","userSelected":true}},{"url":"text","valueString":"Hispanic or Latino"}]}],"identifier":[{"type":{"coding":[{"system":"http://terminology.hl7.org/CodeSystem/v2-0203","code":"MR"}]},"system":"https://bonnie-fhir.healthit.gov/","value":"62f65f6e5efef5272905e70b"}],"name":[{"family":"DENEXCEPPass","given":["AdolescentMedicalReasonForNoDepressionScreenAge17"]}],"gender":"male","birthDate":"2009-01-01"},"request":{"method":"PUT","url":"Patient/0e463fc3-d1bf-4e19-882b-fad6342aa668"}},{"resource":{"resourceType":"Bundle","id":"62f65f6e5efef5272905e70b","type":"transaction","entry":[{"fullUrl":"https://madie.cms.gov/Patient/0e463fc3-d1bf-4e19-882b-fad6342aa668","resource":{"resourceType":"Patient","id":"0e463fc3-d1bf-4e19-882b-fad6342aa668","meta":{"profile":["http://hl7.org/fhir/us/qicore/StructureDefinition/qicore-patient"]},"extension":[{"url":"http://hl7.org/fhir/us/core/StructureDefinition/us-core-race","extension":[{"url":"ombCategory","valueCoding":{"system":"urn:oid:2.16.840.1.113883.6.238","code":"1002-5","display":"American Indian or Alaska Native","userSelected":true}},{"url":"text","valueString":"American Indian or Alaska Native"}]},{"url":"http://hl7.org/fhir/us/core/StructureDefinition/us-core-ethnicity","extension":[{"url":"ombCategory","valueCoding":{"system":"urn:oid:2.16.840.1.113883.6.238","code":"2135-2","display":"Hispanic or Latino","userSelected":true}},{"url":"text","valueString":"Hispanic or Latino"}]}],"identifier":[{"type":{"coding":[{"system":"http://terminology.hl7.org/CodeSystem/v2-0203","code":"MR"}]},"system":"https://bonnie-fhir.healthit.gov/","value":"62f65f6e5efef5272905e70b"}],"name":[{"family":"DENEXCEPPass","given":["AdolescentMedicalReasonForNoDepressionScreenAge17"]}],"gender":"male","birthDate":"2009-01-01"},"request":{"method":"PUT","url":"Patient/0e463fc3-d1bf-4e19-882b-fad6342aa668"}},{"fullUrl":"https://madie.cms.gov/Encounter/7182130f-273e-49af-9d7a-cfd32707fd48","resource":{"resourceType":"Encounter","id":"7182130f-273e-49af-9d7a-cfd32707fd48","meta":{"profile":["http://hl7.org/fhir/us/qicore/StructureDefinition/qicore-encounter"]},"status":"finished","class":{"system":"http://terminology.hl7.org/CodeSystem/v3-ActCode","code":"AMB","display":"ambulatory"},"type":[{"coding":[{"system":"http://snomed.info/sct","code":"10197000","display":"Psychiatric interview and evaluation (procedure)","userSelected":true}]}],"subject":{"reference":"Patient/0e463fc3-d1bf-4e19-882b-fad6342aa668"},"period":{"start":"2026-01-02T08:00:00.000+00:00","end":"2026-01-02T08:15:00.000+00:00"}},"request":{"method":"PUT","url":"Encounter/7182130f-273e-49af-9d7a-cfd32707fd48"}},{"fullUrl":"https://madie.cms.gov/Observation/474243ce-e793-4dcf-8067-eebc328b36bb","resource":{"resourceType":"Observation","id":"474243ce-e793-4dcf-8067-eebc328b36bb","meta":{"profile":["http://hl7.org/fhir/us/qicore/StructureDefinition/qicore-observationcancelled"]},"extension":[{"url":"http://hl7.org/fhir/us/qicore/StructureDefinition/qicore-notDoneReason","valueCodeableConcept":{"coding":[{"system":"http://snomed.info/sct","code":"183932001","display":"Procedure contraindicated (situation)","userSelected":true}]}}],"status":"cancelled","category":[{"coding":[{"system":"http://terminology.hl7.org/CodeSystem/observation-category","code":"procedure","display":"Procedure"}]}],"code":{"coding":[{"system":"http://loinc.org","code":"73831-0","display":"Adolescent depression screening assessment","userSelected":true}]},"subject":{"reference":"Patient/0e463fc3-d1bf-4e19-882b-fad6342aa668"},"issued":"2026-01-02T08:00:00.000+00:00","valueBoolean":true},"request":{"method":"PUT","url":"Observation/474243ce-e793-4dcf-8067-eebc328b36bb"}},{"fullUrl":"https://madie.cms.gov/Coverage/ad007454-19de-45a7-966d-205122b83ee1","resource":{"resourceType":"Coverage","id":"ad007454-19de-45a7-966d-205122b83ee1","meta":{"profile":["http://hl7.org/fhir/us/qicore/StructureDefinition/qicore-coverage"]},"status":"active","subscriberId":"123456789","beneficiary":{"reference":"Patient/0e463fc3-d1bf-4e19-882b-fad6342aa668"},"relationship":{"coding":[{"system":"http://terminology.hl7.org/CodeSystem/subscriber-relationship","code":"self","display":"Self","userSelected":true}]},"payor":[{"reference":"Organization/8a6723a1-edf1-4ca8-9eac-698cc76f015e"}]},"request":{"method":"PUT","url":"Coverage/ad007454-19de-45a7-966d-205122b83ee1"}},{"fullUrl":"https://madie.cms.gov/Organization/8a6723a1-edf1-4ca8-9eac-698cc76f015e","resource":{"resourceType":"Organization","id":"8a6723a1-edf1-4ca8-9eac-698cc76f015e","meta":{"profile":["http://hl7.org/fhir/us/qicore/StructureDefinition/qicore-organization"]},"identifier":[{"use":"temp","system":"urn:oid:2.16.840.1.113883.4.4","value":"21-3259825"}],"active":true,"type":[{"coding":[{"system":"http://terminology.hl7.org/CodeSystem/organization-type","code":"pay","display":"Payer"}]}],"name":"Blue Cross Blue Shield of Texas","telecom":[{"system":"phone","value":"(+1) 972-766-6900"}],"address":[{"use":"billing","type":"postal","line":["P.O. Box 660044"],"city":"Dallas","state":"TX","postalCode":"75266-0044","country":"USA"}]},"request":{"method":"PUT","url":"Organization/8a6723a1-edf1-4ca8-9eac-698cc76f015e"}},{"fullUrl":"https://madie.cms.gov/Practitioner/af734421-1782-494e-b02f-ac6b3ad4aed3","resource":{"resourceType":"Practitioner","id":"af734421-1782-494e-b02f-ac6b3ad4aed3","meta":{"profile":["http://hl7.org/fhir/us/qicore/StructureDefinition/qicore-practitioner"]},"identifier":[{"system":"http://hl7.org/fhir/sid/us-npi","value":"1234567893"}],"name":[{"family":"Evil","prefix":["Dr"]}]},"request":{"method":"PUT","url":"Practitioner/af734421-1782-494e-b02f-ac6b3ad4aed3"}},{"fullUrl":"https://madie.cms.gov/MeasureReport/591a6ae0-4382-49b0-82d6-90f0236513d8","resource":{"resourceType":"MeasureReport","id":"591a6ae0-4382-49b0-82d6-90f0236513d8","meta":{"profile":["http://hl7.org/fhir/us/cqfmeasures/StructureDefinition/test-case-cqfm"]},"contained":[{"resourceType":"Parameters","id":"59c0453d-f218-4bd0-abde-f011c75c7d6f-parameters","parameter":[{"name":"subject","valueString":"0e463fc3-d1bf-4e19-882b-fad6342aa668"}]}],"extension":[{"url":"http://hl7.org/fhir/StructureDefinition/cqf-inputParameters","valueReference":{"reference":"#59c0453d-f218-4bd0-abde-f011c75c7d6f-parameters"}},{"url":"http://hl7.org/fhir/us/cqfmeasures/StructureDefinition/cqfm-testCaseDescription","valueMarkdown":"17 yo male with medical reason for not screening for depression - Procedure contraindicated - 17 on first day MP."}],"modifierExtension":[{"url":"http://hl7.org/fhir/us/cqfmeasures/StructureDefinition/cqfm-isTestCase","valueBoolean":true}],"status":"complete","type":"individual","measure":"https://madie.cms.gov/Measure/CMS2FHIRPCSDepressionScreenAndFollowUp","period":{"start":"2026-01-01","end":"2026-12-31"},"group":[{"id":"Group_1","population":[{"id":"InitialPopulation_1","code":{"coding":[{"system":"http://terminology.hl7.org/CodeSystem/measure-population","code":"initial-population","display":"Initial Population"}]},"count":1},{"id":"Denominator_1","code":{"coding":[{"system":"http://terminology.hl7.org/CodeSystem/measure-population","code":"denominator","display":"Denominator"}]},"count":1},{"id":"DenominatorExclusion_1","code":{"coding":[{"system":"http://terminology.hl7.org/CodeSystem/measure-population","code":"denominator-exclusion","display":"Denominator Exclusion"}]},"count":0},{"id":"Numerator_1","code":{"coding":[{"system":"http://terminology.hl7.org/CodeSystem/measure-population","code":"numerator","display":"Numerator"}]},"count":0},{"id":"DenominatorException_1","code":{"coding":[{"system":"http://terminology.hl7.org/CodeSystem/measure-population","code":"denominator-exception","display":"Denominator Exception"}]},"count":1}],"measureScore":{"value":1.0}}],"evaluatedResource":[{"reference":"Patient/0e463fc3-d1bf-4e19-882b-fad6342aa668"},{"reference":"Encounter/7182130f-273e-49af-9d7a-cfd32707fd48"},{"reference":"Observation/474243ce-e793-4dcf-8067-eebc328b36bb"},{"reference":"Coverage/ad007454-19de-45a7-966d-205122b83ee1"},{"reference":"Organization/8a6723a1-edf1-4ca8-9eac-698cc76f015e"},{"reference":"Practitioner/af734421-1782-494e-b02f-ac6b3ad4aed3"}]},"request":{"method":"PUT","url":"MeasureReport/591a6ae0-4382-49b0-82d6-90f0236513d8"}}]},"request":{"method":"PUT","url":"Bundle/62f65f6e5efef5272905e70b"}},{"resource":{"resourceType":"MeasureReport","id":"591a6ae0-4382-49b0-82d6-90f0236513d8","meta":{"profile":["http://hl7.org/fhir/us/cqfmeasures/StructureDefinition/test-case-cqfm"]},"contained":[{"resourceType":"Parameters","id":"59c0453d-f218-4bd0-abde-f011c75c7d6f-parameters","parameter":[{"name":"subject","valueString":"0e463fc3-d1bf-4e19-882b-fad6342aa668"}]}],"extension":[{"url":"http://hl7.org/fhir/StructureDefinition/cqf-inputParameters","valueReference":{"reference":"#59c0453d-f218-4bd0-abde-f011c75c7d6f-parameters"}},{"url":"http://hl7.org/fhir/us/cqfmeasures/StructureDefinition/cqfm-testCaseDescription","valueMarkdown":"17 yo male with medical reason for not screening for depression - Procedure contraindicated - 17 on first day MP."}],"modifierExtension":[{"url":"http://hl7.org/fhir/us/cqfmeasures/StructureDefinition/cqfm-isTestCase","valueBoolean":true}],"status":"complete","type":"individual","measure":"https://madie.cms.gov/Measure/CMS2FHIRPCSDepressionScreenAndFollowUp","period":{"start":"2026-01-01","end":"2026-12-31"},"group":[{"id":"Group_1","population":[{"id":"InitialPopulation_1","code":{"coding":[{"system":"http://terminology.hl7.org/CodeSystem/measure-population","code":"initial-population","display":"Initial Population"}]},"count":1},{"id":"Denominator_1","code":{"coding":[{"system":"http://terminology.hl7.org/CodeSystem/measure-population","code":"denominator","display":"Denominator"}]},"count":1},{"id":"DenominatorExclusion_1","code":{"coding":[{"system":"http://terminology.hl7.org/CodeSystem/measure-population","code":"denominator-exclusion","display":"Denominator Exclusion"}]},"count":0},{"id":"Numerator_1","code":{"coding":[{"system":"http://terminology.hl7.org/CodeSystem/measure-population","code":"numerator","display":"Numerator"}]},"count":0},{"id":"DenominatorException_1","code":{"coding":[{"system":"http://terminology.hl7.org/CodeSystem/measure-population","code":"denominator-exception","display":"Denominator Exception"}]},"count":1}],"measureScore":{"value":1.0}}],"evaluatedResource":[{"reference":"Patient/0e463fc3-d1bf-4e19-882b-fad6342aa668"},{"reference":"Encounter/7182130f-273e-49af-9d7a-cfd32707fd48"},{"reference":"Observation/474243ce-e793-4dcf-8067-eebc328b36bb"},{"reference":"Coverage/ad007454-19de-45a7-966d-205122b83ee1"},{"reference":"Organization/8a6723a1-edf1-4ca8-9eac-698cc76f015e"},{"reference":"Practitioner/af734421-1782-494e-b02f-ac6b3ad4aed3"}]},"request":{"method":"PUT","url":"MeasureReport/591a6ae0-4382-49b0-82d6-90f0236513d8"}},{"resource":{"resourceType":"Organization","id":"8a6723a1-edf1-4ca8-9eac-698cc76f015e","meta":{"profile":["http://hl7.org/fhir/us/qicore/StructureDefinition/qicore-organization"]},"identifier":[{"use":"temp","system":"urn:oid:2.16.840.1.113883.4.4","value":"21-3259825"}],"active":true,"type":[{"coding":[{"system":"http://terminology.hl7.org/CodeSystem/organization-type","code":"pay","display":"Payer"}]}],"name":"Blue Cross Blue Shield of Texas","telecom":[{"system":"phone","value":"(+1) 972-766-6900"}],"address":[{"use":"billing","type":"postal","line":["P.O. Box 660044"],"city":"Dallas","state":"TX","postalCode":"75266-0044","country":"USA"}]},"request":{"method":"PUT","url":"Organization/8a6723a1-edf1-4ca8-9eac-698cc76f015e"}},{"resource":{"resourceType":"Observation","id":"474243ce-e793-4dcf-8067-eebc328b36bb","meta":{"profile":["http://hl7.org/fhir/us/qicore/StructureDefinition/qicore-observationcancelled"]},"extension":[{"url":"http://hl7.org/fhir/us/qicore/StructureDefinition/qicore-notDoneReason","valueCodeableConcept":{"coding":[{"system":"http://snomed.info/sct","code":"183932001","display":"Procedure contraindicated (situation)","userSelected":true}]}}],"status":"cancelled","category":[{"coding":[{"system":"http://terminology.hl7.org/CodeSystem/observation-category","code":"procedure","display":"Procedure"}]}],"code":{"coding":[{"system":"http://loinc.org","code":"73831-0","display":"Adolescent depression screening assessment","userSelected":true}]},"subject":{"reference":"Patient/0e463fc3-d1bf-4e19-882b-fad6342aa668"},"issued":"2026-01-02T08:00:00.000+00:00","valueBoolean":true},"request":{"method":"PUT","url":"Observation/474243ce-e793-4dcf-8067-eebc328b36bb"}},{"resource":{"resourceType":"Practitioner","id":"af734421-1782-494e-b02f-ac6b3ad4aed3","meta":{"profile":["http://hl7.org/fhir/us/qicore/StructureDefinition/qicore-practitioner"]},"identifier":[{"system":"http://hl7.org/fhir/sid/us-npi","value":"1234567893"}],"name":[{"family":"Evil","prefix":["Dr"]}]},"request":{"method":"PUT","url":"Practitioner/af734421-1782-494e-b02f-ac6b3ad4aed3"}},{"resource":{"resourceType":"Encounter","id":"7182130f-273e-49af-9d7a-cfd32707fd48","meta":{"profile":["http://hl7.org/fhir/us/qicore/StructureDefinition/qicore-encounter"]},"status":"finished","class":{"system":"http://terminology.hl7.org/CodeSystem/v3-ActCode","code":"AMB","display":"ambulatory"},"type":[{"coding":[{"system":"http://snomed.info/sct","code":"10197000","display":"Psychiatric interview and evaluation (procedure)","userSelected":true}]}],"subject":{"reference":"Patient/0e463fc3-d1bf-4e19-882b-fad6342aa668"},"period":{"start":"2026-01-02T08:00:00.000+00:00","end":"2026-01-02T08:15:00.000+00:00"}},"request":{"method":"PUT","url":"Encounter/7182130f-273e-49af-9d7a-cfd32707fd48"}},{"resource":{"resourceType":"Coverage","id":"ad007454-19de-45a7-966d-205122b83ee1","meta":{"profile":["http://hl7.org/fhir/us/qicore/StructureDefinition/qicore-coverage"]},"status":"active","subscriberId":"123456789","beneficiary":{"reference":"Patient/0e463fc3-d1bf-4e19-882b-fad6342aa668"},"relationship":{"coding":[{"system":"http://terminology.hl7.org/CodeSystem/subscriber-relationship","code":"self","display":"Self","userSelected":true}]},"payor":[{"reference":"Organization/8a6723a1-edf1-4ca8-9eac-698cc76f015e"}]},"request":{"method":"PUT","url":"Coverage/ad007454-19de-45a7-966d-205122b83ee1"}}]}