{"resourceType":"Bundle","id":"tests-f29e2786-fade-4dca-b14d-7037a34ef498-bundle","type":"transaction","entry":[{"resource":{"resourceType":"Coverage","id":"a8c1ef39-19d5-479f-8ffc-c08494d11211","meta":{"profile":["http://hl7.org/fhir/us/qicore/StructureDefinition/qicore-coverage"]},"status":"active","subscriberId":"123456789","beneficiary":{"reference":"Patient/f29e2786-fade-4dca-b14d-7037a34ef498"},"relationship":{"coding":[{"system":"http://terminology.hl7.org/CodeSystem/subscriber-relationship","code":"self","display":"Self","userSelected":true}]},"payor":[{"reference":"Organization/5deeb0f1-0894-4db5-9a66-c889742cda5b"}]},"request":{"method":"PUT","url":"Coverage/a8c1ef39-19d5-479f-8ffc-c08494d11211"}},{"resource":{"resourceType":"Organization","id":"5deeb0f1-0894-4db5-9a66-c889742cda5b","meta":{"profile":["http://hl7.org/fhir/us/qicore/StructureDefinition/qicore-organization"]},"identifier":[{"use":"temp","system":"urn:oid:2.16.840.1.113883.4.4","value":"21-3259825"}],"active":true,"type":[{"coding":[{"system":"http://terminology.hl7.org/CodeSystem/organization-type","code":"pay","display":"Payer"}]}],"name":"Blue Cross Blue Shield of Texas","telecom":[{"system":"phone","value":"(+1) 972-766-6900"}],"address":[{"use":"billing","type":"postal","line":["P.O. Box 660044"],"city":"Dallas","state":"TX","postalCode":"75266-0044","country":"USA"}]},"request":{"method":"PUT","url":"Organization/5deeb0f1-0894-4db5-9a66-c889742cda5b"}},{"resource":{"resourceType":"Practitioner","id":"f1d651fc-845b-4b9c-81dd-835db1448619","meta":{"profile":["http://hl7.org/fhir/us/qicore/StructureDefinition/qicore-practitioner"]},"identifier":[{"system":"http://hl7.org/fhir/sid/us-npi","value":"1234567893"}],"name":[{"family":"Evil","prefix":["Dr"]}]},"request":{"method":"PUT","url":"Practitioner/f1d651fc-845b-4b9c-81dd-835db1448619"}},{"resource":{"resourceType":"Encounter","id":"60eb927a-cebc-482f-af1a-ce56ff60efaa","meta":{"profile":["http://hl7.org/fhir/us/qicore/StructureDefinition/qicore-encounter"]},"status":"finished","class":{"system":"http://terminology.hl7.org/CodeSystem/v3-ActCode","code":"AMB","display":"ambulatory"},"type":[{"coding":[{"system":"http://snomed.info/sct","code":"10197000","display":"Psychiatric interview and evaluation (procedure)","userSelected":true}]}],"subject":{"reference":"Patient/f29e2786-fade-4dca-b14d-7037a34ef498"},"period":{"start":"2026-06-28T08:00:00.000+00:00","end":"2026-06-28T08:15:00.000+00:00"}},"request":{"method":"PUT","url":"Encounter/60eb927a-cebc-482f-af1a-ce56ff60efaa"}},{"resource":{"resourceType":"MeasureReport","id":"a62b758c-c208-4683-a59f-3d80c8952b60","meta":{"profile":["http://hl7.org/fhir/us/cqfmeasures/StructureDefinition/test-case-cqfm"]},"contained":[{"resourceType":"Parameters","id":"3f45f59f-e800-4eff-b32f-6b423eb87292-parameters","parameter":[{"name":"subject","valueString":"f29e2786-fade-4dca-b14d-7037a34ef498"}]}],"extension":[{"url":"http://hl7.org/fhir/StructureDefinition/cqf-inputParameters","valueReference":{"reference":"#3f45f59f-e800-4eff-b32f-6b423eb87292-parameters"}},{"url":"http://hl7.org/fhir/us/cqfmeasures/StructureDefinition/cqfm-testCaseDescription","valueMarkdown":"17 yo male with medical reason for not screening for depression - 17 on first day MP"}],"modifierExtension":[{"url":"http://hl7.org/fhir/us/cqfmeasures/StructureDefinition/cqfm-isTestCase","valueBoolean":true}],"status":"complete","type":"individual","measure":"https://madie.cms.gov/Measure/CMS2FHIRPCSDepressionScreenAndFollowUp","period":{"start":"2026-01-01","end":"2026-12-31"},"group":[{"id":"Group_1","population":[{"id":"InitialPopulation_1","code":{"coding":[{"system":"http://terminology.hl7.org/CodeSystem/measure-population","code":"initial-population","display":"Initial Population"}]},"count":1},{"id":"Denominator_1","code":{"coding":[{"system":"http://terminology.hl7.org/CodeSystem/measure-population","code":"denominator","display":"Denominator"}]},"count":1},{"id":"DenominatorExclusion_1","code":{"coding":[{"system":"http://terminology.hl7.org/CodeSystem/measure-population","code":"denominator-exclusion","display":"Denominator Exclusion"}]},"count":0},{"id":"Numerator_1","code":{"coding":[{"system":"http://terminology.hl7.org/CodeSystem/measure-population","code":"numerator","display":"Numerator"}]},"count":0},{"id":"DenominatorException_1","code":{"coding":[{"system":"http://terminology.hl7.org/CodeSystem/measure-population","code":"denominator-exception","display":"Denominator Exception"}]},"count":1}],"measureScore":{"value":1.0}}],"evaluatedResource":[{"reference":"Patient/f29e2786-fade-4dca-b14d-7037a34ef498"},{"reference":"Encounter/60eb927a-cebc-482f-af1a-ce56ff60efaa"},{"reference":"Observation/95d8690f-a568-4273-9e5f-aee31b77fd7c"},{"reference":"Coverage/a8c1ef39-19d5-479f-8ffc-c08494d11211"},{"reference":"Organization/5deeb0f1-0894-4db5-9a66-c889742cda5b"},{"reference":"Practitioner/f1d651fc-845b-4b9c-81dd-835db1448619"}]},"request":{"method":"PUT","url":"MeasureReport/a62b758c-c208-4683-a59f-3d80c8952b60"}},{"resource":{"resourceType":"Bundle","id":"62bb0269a2aa708c99ded708","type":"transaction","entry":[{"fullUrl":"https://madie.cms.gov/Patient/f29e2786-fade-4dca-b14d-7037a34ef498","resource":{"resourceType":"Patient","id":"f29e2786-fade-4dca-b14d-7037a34ef498","meta":{"profile":["http://hl7.org/fhir/us/qicore/StructureDefinition/qicore-patient"]},"extension":[{"url":"http://hl7.org/fhir/us/core/StructureDefinition/us-core-race","extension":[{"url":"ombCategory","valueCoding":{"system":"urn:oid:2.16.840.1.113883.6.238","code":"1002-5","display":"American Indian or Alaska Native","userSelected":true}},{"url":"text","valueString":"American Indian or Alaska Native"}]},{"url":"http://hl7.org/fhir/us/core/StructureDefinition/us-core-ethnicity","extension":[{"url":"ombCategory","valueCoding":{"system":"urn:oid:2.16.840.1.113883.6.238","code":"2135-2","display":"Hispanic or Latino","userSelected":true}},{"url":"text","valueString":"Hispanic or Latino"}]}],"identifier":[{"type":{"coding":[{"system":"http://terminology.hl7.org/CodeSystem/v2-0203","code":"MR"}]},"system":"https://bonnie-fhir.healthit.gov/","value":"62bb0269a2aa708c99ded708"}],"name":[{"family":"DENEXCEPPass","given":["AdultMedicalReasonForNoDepressionScreenAge17"]}],"gender":"male","birthDate":"2009-01-01"},"request":{"method":"PUT","url":"Patient/f29e2786-fade-4dca-b14d-7037a34ef498"}},{"fullUrl":"https://madie.cms.gov/Encounter/60eb927a-cebc-482f-af1a-ce56ff60efaa","resource":{"resourceType":"Encounter","id":"60eb927a-cebc-482f-af1a-ce56ff60efaa","meta":{"profile":["http://hl7.org/fhir/us/qicore/StructureDefinition/qicore-encounter"]},"status":"finished","class":{"system":"http://terminology.hl7.org/CodeSystem/v3-ActCode","code":"AMB","display":"ambulatory"},"type":[{"coding":[{"system":"http://snomed.info/sct","code":"10197000","display":"Psychiatric interview and evaluation (procedure)","userSelected":true}]}],"subject":{"reference":"Patient/f29e2786-fade-4dca-b14d-7037a34ef498"},"period":{"start":"2026-06-28T08:00:00.000+00:00","end":"2026-06-28T08:15:00.000+00:00"}},"request":{"method":"PUT","url":"Encounter/60eb927a-cebc-482f-af1a-ce56ff60efaa"}},{"fullUrl":"https://madie.cms.gov/Observation/95d8690f-a568-4273-9e5f-aee31b77fd7c","resource":{"resourceType":"Observation","id":"95d8690f-a568-4273-9e5f-aee31b77fd7c","meta":{"profile":["http://hl7.org/fhir/us/qicore/StructureDefinition/qicore-observationcancelled"]},"extension":[{"url":"http://hl7.org/fhir/us/qicore/StructureDefinition/qicore-notDoneReason","valueCodeableConcept":{"coding":[{"system":"http://snomed.info/sct","code":"183932001","display":"Procedure contraindicated (situation)","userSelected":true}]}}],"status":"cancelled","category":[{"coding":[{"system":"http://terminology.hl7.org/CodeSystem/observation-category","code":"procedure","display":"Procedure"}]}],"code":{"coding":[{"system":"http://loinc.org","code":"73832-8","display":"Adult depression screening assessment","userSelected":true}]},"subject":{"reference":"Patient/f29e2786-fade-4dca-b14d-7037a34ef498"},"issued":"2026-06-28T08:00:00.000+00:00","valueBoolean":true},"request":{"method":"PUT","url":"Observation/95d8690f-a568-4273-9e5f-aee31b77fd7c"}},{"fullUrl":"https://madie.cms.gov/Coverage/a8c1ef39-19d5-479f-8ffc-c08494d11211","resource":{"resourceType":"Coverage","id":"a8c1ef39-19d5-479f-8ffc-c08494d11211","meta":{"profile":["http://hl7.org/fhir/us/qicore/StructureDefinition/qicore-coverage"]},"status":"active","subscriberId":"123456789","beneficiary":{"reference":"Patient/f29e2786-fade-4dca-b14d-7037a34ef498"},"relationship":{"coding":[{"system":"http://terminology.hl7.org/CodeSystem/subscriber-relationship","code":"self","display":"Self","userSelected":true}]},"payor":[{"reference":"Organization/5deeb0f1-0894-4db5-9a66-c889742cda5b"}]},"request":{"method":"PUT","url":"Coverage/a8c1ef39-19d5-479f-8ffc-c08494d11211"}},{"fullUrl":"https://madie.cms.gov/Organization/5deeb0f1-0894-4db5-9a66-c889742cda5b","resource":{"resourceType":"Organization","id":"5deeb0f1-0894-4db5-9a66-c889742cda5b","meta":{"profile":["http://hl7.org/fhir/us/qicore/StructureDefinition/qicore-organization"]},"identifier":[{"use":"temp","system":"urn:oid:2.16.840.1.113883.4.4","value":"21-3259825"}],"active":true,"type":[{"coding":[{"system":"http://terminology.hl7.org/CodeSystem/organization-type","code":"pay","display":"Payer"}]}],"name":"Blue Cross Blue Shield of Texas","telecom":[{"system":"phone","value":"(+1) 972-766-6900"}],"address":[{"use":"billing","type":"postal","line":["P.O. Box 660044"],"city":"Dallas","state":"TX","postalCode":"75266-0044","country":"USA"}]},"request":{"method":"PUT","url":"Organization/5deeb0f1-0894-4db5-9a66-c889742cda5b"}},{"fullUrl":"https://madie.cms.gov/Practitioner/f1d651fc-845b-4b9c-81dd-835db1448619","resource":{"resourceType":"Practitioner","id":"f1d651fc-845b-4b9c-81dd-835db1448619","meta":{"profile":["http://hl7.org/fhir/us/qicore/StructureDefinition/qicore-practitioner"]},"identifier":[{"system":"http://hl7.org/fhir/sid/us-npi","value":"1234567893"}],"name":[{"family":"Evil","prefix":["Dr"]}]},"request":{"method":"PUT","url":"Practitioner/f1d651fc-845b-4b9c-81dd-835db1448619"}},{"fullUrl":"https://madie.cms.gov/MeasureReport/a62b758c-c208-4683-a59f-3d80c8952b60","resource":{"resourceType":"MeasureReport","id":"a62b758c-c208-4683-a59f-3d80c8952b60","meta":{"profile":["http://hl7.org/fhir/us/cqfmeasures/StructureDefinition/test-case-cqfm"]},"contained":[{"resourceType":"Parameters","id":"3f45f59f-e800-4eff-b32f-6b423eb87292-parameters","parameter":[{"name":"subject","valueString":"f29e2786-fade-4dca-b14d-7037a34ef498"}]}],"extension":[{"url":"http://hl7.org/fhir/StructureDefinition/cqf-inputParameters","valueReference":{"reference":"#3f45f59f-e800-4eff-b32f-6b423eb87292-parameters"}},{"url":"http://hl7.org/fhir/us/cqfmeasures/StructureDefinition/cqfm-testCaseDescription","valueMarkdown":"17 yo male with medical reason for not screening for depression - 17 on first day MP"}],"modifierExtension":[{"url":"http://hl7.org/fhir/us/cqfmeasures/StructureDefinition/cqfm-isTestCase","valueBoolean":true}],"status":"complete","type":"individual","measure":"https://madie.cms.gov/Measure/CMS2FHIRPCSDepressionScreenAndFollowUp","period":{"start":"2026-01-01","end":"2026-12-31"},"group":[{"id":"Group_1","population":[{"id":"InitialPopulation_1","code":{"coding":[{"system":"http://terminology.hl7.org/CodeSystem/measure-population","code":"initial-population","display":"Initial Population"}]},"count":1},{"id":"Denominator_1","code":{"coding":[{"system":"http://terminology.hl7.org/CodeSystem/measure-population","code":"denominator","display":"Denominator"}]},"count":1},{"id":"DenominatorExclusion_1","code":{"coding":[{"system":"http://terminology.hl7.org/CodeSystem/measure-population","code":"denominator-exclusion","display":"Denominator Exclusion"}]},"count":0},{"id":"Numerator_1","code":{"coding":[{"system":"http://terminology.hl7.org/CodeSystem/measure-population","code":"numerator","display":"Numerator"}]},"count":0},{"id":"DenominatorException_1","code":{"coding":[{"system":"http://terminology.hl7.org/CodeSystem/measure-population","code":"denominator-exception","display":"Denominator Exception"}]},"count":1}],"measureScore":{"value":1.0}}],"evaluatedResource":[{"reference":"Patient/f29e2786-fade-4dca-b14d-7037a34ef498"},{"reference":"Encounter/60eb927a-cebc-482f-af1a-ce56ff60efaa"},{"reference":"Observation/95d8690f-a568-4273-9e5f-aee31b77fd7c"},{"reference":"Coverage/a8c1ef39-19d5-479f-8ffc-c08494d11211"},{"reference":"Organization/5deeb0f1-0894-4db5-9a66-c889742cda5b"},{"reference":"Practitioner/f1d651fc-845b-4b9c-81dd-835db1448619"}]},"request":{"method":"PUT","url":"MeasureReport/a62b758c-c208-4683-a59f-3d80c8952b60"}}]},"request":{"method":"PUT","url":"Bundle/62bb0269a2aa708c99ded708"}},{"resource":{"resourceType":"Patient","id":"f29e2786-fade-4dca-b14d-7037a34ef498","meta":{"profile":["http://hl7.org/fhir/us/qicore/StructureDefinition/qicore-patient"]},"extension":[{"url":"http://hl7.org/fhir/us/core/StructureDefinition/us-core-race","extension":[{"url":"ombCategory","valueCoding":{"system":"urn:oid:2.16.840.1.113883.6.238","code":"1002-5","display":"American Indian or Alaska Native","userSelected":true}},{"url":"text","valueString":"American Indian or Alaska Native"}]},{"url":"http://hl7.org/fhir/us/core/StructureDefinition/us-core-ethnicity","extension":[{"url":"ombCategory","valueCoding":{"system":"urn:oid:2.16.840.1.113883.6.238","code":"2135-2","display":"Hispanic or Latino","userSelected":true}},{"url":"text","valueString":"Hispanic or Latino"}]}],"identifier":[{"type":{"coding":[{"system":"http://terminology.hl7.org/CodeSystem/v2-0203","code":"MR"}]},"system":"https://bonnie-fhir.healthit.gov/","value":"62bb0269a2aa708c99ded708"}],"name":[{"family":"DENEXCEPPass","given":["AdultMedicalReasonForNoDepressionScreenAge17"]}],"gender":"male","birthDate":"2009-01-01"},"request":{"method":"PUT","url":"Patient/f29e2786-fade-4dca-b14d-7037a34ef498"}},{"resource":{"resourceType":"Observation","id":"95d8690f-a568-4273-9e5f-aee31b77fd7c","meta":{"profile":["http://hl7.org/fhir/us/qicore/StructureDefinition/qicore-observationcancelled"]},"extension":[{"url":"http://hl7.org/fhir/us/qicore/StructureDefinition/qicore-notDoneReason","valueCodeableConcept":{"coding":[{"system":"http://snomed.info/sct","code":"183932001","display":"Procedure contraindicated (situation)","userSelected":true}]}}],"status":"cancelled","category":[{"coding":[{"system":"http://terminology.hl7.org/CodeSystem/observation-category","code":"procedure","display":"Procedure"}]}],"code":{"coding":[{"system":"http://loinc.org","code":"73832-8","display":"Adult depression screening assessment","userSelected":true}]},"subject":{"reference":"Patient/f29e2786-fade-4dca-b14d-7037a34ef498"},"issued":"2026-06-28T08:00:00.000+00:00","valueBoolean":true},"request":{"method":"PUT","url":"Observation/95d8690f-a568-4273-9e5f-aee31b77fd7c"}}]}