{"resourceType":"Bundle","id":"tests-e1b6a53f-c856-41c2-b1fe-ec50d3f23333-bundle","type":"transaction","entry":[{"resource":{"resourceType":"MeasureReport","id":"19579028-1513-4df4-88c9-f7b20fcb0bc9","meta":{"profile":["http://hl7.org/fhir/us/cqfmeasures/StructureDefinition/test-case-cqfm"]},"contained":[{"resourceType":"Parameters","id":"ca940a9e-f142-411a-8492-dfd744407603-parameters","parameter":[{"name":"subject","valueString":"e1b6a53f-c856-41c2-b1fe-ec50d3f23333"}]}],"extension":[{"url":"http://hl7.org/fhir/StructureDefinition/cqf-inputParameters","valueReference":{"reference":"#ca940a9e-f142-411a-8492-dfd744407603-parameters"}},{"url":"http://hl7.org/fhir/us/cqfmeasures/StructureDefinition/cqfm-testCaseDescription","valueMarkdown":"18 yo patient with history of bipolar - remission"}],"modifierExtension":[{"url":"http://hl7.org/fhir/us/cqfmeasures/StructureDefinition/cqfm-isTestCase","valueBoolean":true}],"status":"complete","type":"individual","measure":"https://madie.cms.gov/Measure/CMS2FHIRPCSDepressionScreenAndFollowUp","period":{"start":"2026-01-01","end":"2026-12-31"},"group":[{"id":"Group_1","population":[{"id":"InitialPopulation_1","code":{"coding":[{"system":"http://terminology.hl7.org/CodeSystem/measure-population","code":"initial-population","display":"Initial Population"}]},"count":1},{"id":"Denominator_1","code":{"coding":[{"system":"http://terminology.hl7.org/CodeSystem/measure-population","code":"denominator","display":"Denominator"}]},"count":1},{"id":"DenominatorExclusion_1","code":{"coding":[{"system":"http://terminology.hl7.org/CodeSystem/measure-population","code":"denominator-exclusion","display":"Denominator Exclusion"}]},"count":1},{"id":"Numerator_1","code":{"coding":[{"system":"http://terminology.hl7.org/CodeSystem/measure-population","code":"numerator","display":"Numerator"}]},"count":0},{"id":"DenominatorException_1","code":{"coding":[{"system":"http://terminology.hl7.org/CodeSystem/measure-population","code":"denominator-exception","display":"Denominator Exception"}]},"count":0}],"measureScore":{"value":1.0}}],"evaluatedResource":[{"reference":"Patient/e1b6a53f-c856-41c2-b1fe-ec50d3f23333"},{"reference":"Encounter/229831d2-d028-49e5-9876-9c240502b733"},{"reference":"Condition/7a76bf16-ee79-40b6-bceb-93e9b1097aef"},{"reference":"Coverage/8c9c5ee5-3f64-4665-9f87-0e28f1e992f2"},{"reference":"Organization/66dfc898-536d-4d75-a70d-fc61d3b41f3c"},{"reference":"Practitioner/a02857a5-b122-4e2c-9a91-b566565ba11c"}]},"request":{"method":"PUT","url":"MeasureReport/19579028-1513-4df4-88c9-f7b20fcb0bc9"}},{"resource":{"resourceType":"Condition","id":"7a76bf16-ee79-40b6-bceb-93e9b1097aef","meta":{"profile":["http://hl7.org/fhir/us/qicore/StructureDefinition/qicore-condition-problems-health-concerns"]},"clinicalStatus":{"coding":[{"system":"http://terminology.hl7.org/CodeSystem/condition-clinical","code":"active","display":"active","userSelected":true}]},"category":[{"coding":[{"system":"http://terminology.hl7.org/CodeSystem/condition-category","code":"problem-list-item","display":"Problem List Item"}]}],"code":{"coding":[{"system":"http://snomed.info/sct","code":"12969000","display":"Severe bipolar II disorder, most recent episode major depressive, in full remission (disorder)","userSelected":true}]},"subject":{"reference":"Patient/e1b6a53f-c856-41c2-b1fe-ec50d3f23333"},"onsetDateTime":"2021-06-15T08:00:00.000+00:00"},"request":{"method":"PUT","url":"Condition/7a76bf16-ee79-40b6-bceb-93e9b1097aef"}},{"resource":{"resourceType":"Patient","id":"e1b6a53f-c856-41c2-b1fe-ec50d3f23333","meta":{"profile":["http://hl7.org/fhir/us/qicore/StructureDefinition/qicore-patient"]},"extension":[{"url":"http://hl7.org/fhir/us/core/StructureDefinition/us-core-race","extension":[{"url":"ombCategory","valueCoding":{"system":"urn:oid:2.16.840.1.113883.6.238","code":"1002-5","display":"American Indian or Alaska Native","userSelected":true}},{"url":"text","valueString":"American Indian or Alaska Native"}]},{"url":"http://hl7.org/fhir/us/core/StructureDefinition/us-core-ethnicity","extension":[{"url":"ombCategory","valueCoding":{"system":"urn:oid:2.16.840.1.113883.6.238","code":"2135-2","display":"Hispanic or Latino","userSelected":true}},{"url":"text","valueString":"Hispanic or Latino"}]}],"identifier":[{"type":{"coding":[{"system":"http://terminology.hl7.org/CodeSystem/v2-0203","code":"MR"}]},"system":"https://bonnie-fhir.healthit.gov/","value":"62b1e15a3968556e5150cf3b"}],"name":[{"family":"DENOMEXPass","given":["AdultHistoryOfBipolarRemission"]}],"gender":"male","birthDate":"2008-01-01"},"request":{"method":"PUT","url":"Patient/e1b6a53f-c856-41c2-b1fe-ec50d3f23333"}},{"resource":{"resourceType":"Encounter","id":"229831d2-d028-49e5-9876-9c240502b733","meta":{"profile":["http://hl7.org/fhir/us/qicore/StructureDefinition/qicore-encounter"]},"status":"finished","class":{"system":"http://terminology.hl7.org/CodeSystem/v3-ActCode","code":"AMB","display":"ambulatory"},"type":[{"coding":[{"system":"http://snomed.info/sct","code":"10197000","display":"Psychiatric interview and evaluation (procedure)","userSelected":true}]}],"subject":{"reference":"Patient/e1b6a53f-c856-41c2-b1fe-ec50d3f23333"},"period":{"start":"2026-06-21T08:00:00.000+00:00","end":"2026-06-21T08:15:00.000+00:00"}},"request":{"method":"PUT","url":"Encounter/229831d2-d028-49e5-9876-9c240502b733"}},{"resource":{"resourceType":"Bundle","id":"62b1e15a3968556e5150cf3b","type":"transaction","entry":[{"fullUrl":"https://madie.cms.gov/Patient/e1b6a53f-c856-41c2-b1fe-ec50d3f23333","resource":{"resourceType":"Patient","id":"e1b6a53f-c856-41c2-b1fe-ec50d3f23333","meta":{"profile":["http://hl7.org/fhir/us/qicore/StructureDefinition/qicore-patient"]},"extension":[{"url":"http://hl7.org/fhir/us/core/StructureDefinition/us-core-race","extension":[{"url":"ombCategory","valueCoding":{"system":"urn:oid:2.16.840.1.113883.6.238","code":"1002-5","display":"American Indian or Alaska Native","userSelected":true}},{"url":"text","valueString":"American Indian or Alaska Native"}]},{"url":"http://hl7.org/fhir/us/core/StructureDefinition/us-core-ethnicity","extension":[{"url":"ombCategory","valueCoding":{"system":"urn:oid:2.16.840.1.113883.6.238","code":"2135-2","display":"Hispanic or Latino","userSelected":true}},{"url":"text","valueString":"Hispanic or Latino"}]}],"identifier":[{"type":{"coding":[{"system":"http://terminology.hl7.org/CodeSystem/v2-0203","code":"MR"}]},"system":"https://bonnie-fhir.healthit.gov/","value":"62b1e15a3968556e5150cf3b"}],"name":[{"family":"DENOMEXPass","given":["AdultHistoryOfBipolarRemission"]}],"gender":"male","birthDate":"2008-01-01"},"request":{"method":"PUT","url":"Patient/e1b6a53f-c856-41c2-b1fe-ec50d3f23333"}},{"fullUrl":"https://madie.cms.gov/Encounter/229831d2-d028-49e5-9876-9c240502b733","resource":{"resourceType":"Encounter","id":"229831d2-d028-49e5-9876-9c240502b733","meta":{"profile":["http://hl7.org/fhir/us/qicore/StructureDefinition/qicore-encounter"]},"status":"finished","class":{"system":"http://terminology.hl7.org/CodeSystem/v3-ActCode","code":"AMB","display":"ambulatory"},"type":[{"coding":[{"system":"http://snomed.info/sct","code":"10197000","display":"Psychiatric interview and evaluation (procedure)","userSelected":true}]}],"subject":{"reference":"Patient/e1b6a53f-c856-41c2-b1fe-ec50d3f23333"},"period":{"start":"2026-06-21T08:00:00.000+00:00","end":"2026-06-21T08:15:00.000+00:00"}},"request":{"method":"PUT","url":"Encounter/229831d2-d028-49e5-9876-9c240502b733"}},{"fullUrl":"https://madie.cms.gov/Condition/7a76bf16-ee79-40b6-bceb-93e9b1097aef","resource":{"resourceType":"Condition","id":"7a76bf16-ee79-40b6-bceb-93e9b1097aef","meta":{"profile":["http://hl7.org/fhir/us/qicore/StructureDefinition/qicore-condition-problems-health-concerns"]},"clinicalStatus":{"coding":[{"system":"http://terminology.hl7.org/CodeSystem/condition-clinical","code":"active","display":"active","userSelected":true}]},"category":[{"coding":[{"system":"http://terminology.hl7.org/CodeSystem/condition-category","code":"problem-list-item","display":"Problem List Item"}]}],"code":{"coding":[{"system":"http://snomed.info/sct","code":"12969000","display":"Severe bipolar II disorder, most recent episode major depressive, in full remission (disorder)","userSelected":true}]},"subject":{"reference":"Patient/e1b6a53f-c856-41c2-b1fe-ec50d3f23333"},"onsetDateTime":"2021-06-15T08:00:00.000+00:00"},"request":{"method":"PUT","url":"Condition/7a76bf16-ee79-40b6-bceb-93e9b1097aef"}},{"fullUrl":"https://madie.cms.gov/Coverage/8c9c5ee5-3f64-4665-9f87-0e28f1e992f2","resource":{"resourceType":"Coverage","id":"8c9c5ee5-3f64-4665-9f87-0e28f1e992f2","meta":{"profile":["http://hl7.org/fhir/us/qicore/StructureDefinition/qicore-coverage"]},"status":"active","subscriberId":"123456789","beneficiary":{"reference":"Patient/e1b6a53f-c856-41c2-b1fe-ec50d3f23333"},"relationship":{"coding":[{"system":"http://terminology.hl7.org/CodeSystem/subscriber-relationship","code":"self","display":"Self","userSelected":true}]},"payor":[{"reference":"Organization/66dfc898-536d-4d75-a70d-fc61d3b41f3c"}]},"request":{"method":"PUT","url":"Coverage/8c9c5ee5-3f64-4665-9f87-0e28f1e992f2"}},{"fullUrl":"https://madie.cms.gov/Organization/66dfc898-536d-4d75-a70d-fc61d3b41f3c","resource":{"resourceType":"Organization","id":"66dfc898-536d-4d75-a70d-fc61d3b41f3c","meta":{"profile":["http://hl7.org/fhir/us/qicore/StructureDefinition/qicore-organization"]},"identifier":[{"use":"temp","system":"urn:oid:2.16.840.1.113883.4.4","value":"21-3259825"}],"active":true,"type":[{"coding":[{"system":"http://terminology.hl7.org/CodeSystem/organization-type","code":"pay","display":"Payer"}]}],"name":"Blue Cross Blue Shield of Texas","telecom":[{"system":"phone","value":"(+1) 972-766-6900"}],"address":[{"use":"billing","type":"postal","line":["P.O. Box 660044"],"city":"Dallas","state":"TX","postalCode":"75266-0044","country":"USA"}]},"request":{"method":"PUT","url":"Organization/66dfc898-536d-4d75-a70d-fc61d3b41f3c"}},{"fullUrl":"https://madie.cms.gov/Practitioner/a02857a5-b122-4e2c-9a91-b566565ba11c","resource":{"resourceType":"Practitioner","id":"a02857a5-b122-4e2c-9a91-b566565ba11c","meta":{"profile":["http://hl7.org/fhir/us/qicore/StructureDefinition/qicore-practitioner"]},"identifier":[{"system":"http://hl7.org/fhir/sid/us-npi","value":"1234567893"}],"name":[{"family":"Evil","prefix":["Dr"]}]},"request":{"method":"PUT","url":"Practitioner/a02857a5-b122-4e2c-9a91-b566565ba11c"}},{"fullUrl":"https://madie.cms.gov/MeasureReport/19579028-1513-4df4-88c9-f7b20fcb0bc9","resource":{"resourceType":"MeasureReport","id":"19579028-1513-4df4-88c9-f7b20fcb0bc9","meta":{"profile":["http://hl7.org/fhir/us/cqfmeasures/StructureDefinition/test-case-cqfm"]},"contained":[{"resourceType":"Parameters","id":"ca940a9e-f142-411a-8492-dfd744407603-parameters","parameter":[{"name":"subject","valueString":"e1b6a53f-c856-41c2-b1fe-ec50d3f23333"}]}],"extension":[{"url":"http://hl7.org/fhir/StructureDefinition/cqf-inputParameters","valueReference":{"reference":"#ca940a9e-f142-411a-8492-dfd744407603-parameters"}},{"url":"http://hl7.org/fhir/us/cqfmeasures/StructureDefinition/cqfm-testCaseDescription","valueMarkdown":"18 yo patient with history of bipolar - remission"}],"modifierExtension":[{"url":"http://hl7.org/fhir/us/cqfmeasures/StructureDefinition/cqfm-isTestCase","valueBoolean":true}],"status":"complete","type":"individual","measure":"https://madie.cms.gov/Measure/CMS2FHIRPCSDepressionScreenAndFollowUp","period":{"start":"2026-01-01","end":"2026-12-31"},"group":[{"id":"Group_1","population":[{"id":"InitialPopulation_1","code":{"coding":[{"system":"http://terminology.hl7.org/CodeSystem/measure-population","code":"initial-population","display":"Initial Population"}]},"count":1},{"id":"Denominator_1","code":{"coding":[{"system":"http://terminology.hl7.org/CodeSystem/measure-population","code":"denominator","display":"Denominator"}]},"count":1},{"id":"DenominatorExclusion_1","code":{"coding":[{"system":"http://terminology.hl7.org/CodeSystem/measure-population","code":"denominator-exclusion","display":"Denominator Exclusion"}]},"count":1},{"id":"Numerator_1","code":{"coding":[{"system":"http://terminology.hl7.org/CodeSystem/measure-population","code":"numerator","display":"Numerator"}]},"count":0},{"id":"DenominatorException_1","code":{"coding":[{"system":"http://terminology.hl7.org/CodeSystem/measure-population","code":"denominator-exception","display":"Denominator Exception"}]},"count":0}],"measureScore":{"value":1.0}}],"evaluatedResource":[{"reference":"Patient/e1b6a53f-c856-41c2-b1fe-ec50d3f23333"},{"reference":"Encounter/229831d2-d028-49e5-9876-9c240502b733"},{"reference":"Condition/7a76bf16-ee79-40b6-bceb-93e9b1097aef"},{"reference":"Coverage/8c9c5ee5-3f64-4665-9f87-0e28f1e992f2"},{"reference":"Organization/66dfc898-536d-4d75-a70d-fc61d3b41f3c"},{"reference":"Practitioner/a02857a5-b122-4e2c-9a91-b566565ba11c"}]},"request":{"method":"PUT","url":"MeasureReport/19579028-1513-4df4-88c9-f7b20fcb0bc9"}}]},"request":{"method":"PUT","url":"Bundle/62b1e15a3968556e5150cf3b"}},{"resource":{"resourceType":"Coverage","id":"8c9c5ee5-3f64-4665-9f87-0e28f1e992f2","meta":{"profile":["http://hl7.org/fhir/us/qicore/StructureDefinition/qicore-coverage"]},"status":"active","subscriberId":"123456789","beneficiary":{"reference":"Patient/e1b6a53f-c856-41c2-b1fe-ec50d3f23333"},"relationship":{"coding":[{"system":"http://terminology.hl7.org/CodeSystem/subscriber-relationship","code":"self","display":"Self","userSelected":true}]},"payor":[{"reference":"Organization/66dfc898-536d-4d75-a70d-fc61d3b41f3c"}]},"request":{"method":"PUT","url":"Coverage/8c9c5ee5-3f64-4665-9f87-0e28f1e992f2"}},{"resource":{"resourceType":"Practitioner","id":"a02857a5-b122-4e2c-9a91-b566565ba11c","meta":{"profile":["http://hl7.org/fhir/us/qicore/StructureDefinition/qicore-practitioner"]},"identifier":[{"system":"http://hl7.org/fhir/sid/us-npi","value":"1234567893"}],"name":[{"family":"Evil","prefix":["Dr"]}]},"request":{"method":"PUT","url":"Practitioner/a02857a5-b122-4e2c-9a91-b566565ba11c"}},{"resource":{"resourceType":"Organization","id":"66dfc898-536d-4d75-a70d-fc61d3b41f3c","meta":{"profile":["http://hl7.org/fhir/us/qicore/StructureDefinition/qicore-organization"]},"identifier":[{"use":"temp","system":"urn:oid:2.16.840.1.113883.4.4","value":"21-3259825"}],"active":true,"type":[{"coding":[{"system":"http://terminology.hl7.org/CodeSystem/organization-type","code":"pay","display":"Payer"}]}],"name":"Blue Cross Blue Shield of Texas","telecom":[{"system":"phone","value":"(+1) 972-766-6900"}],"address":[{"use":"billing","type":"postal","line":["P.O. Box 660044"],"city":"Dallas","state":"TX","postalCode":"75266-0044","country":"USA"}]},"request":{"method":"PUT","url":"Organization/66dfc898-536d-4d75-a70d-fc61d3b41f3c"}}]}