{"resourceType":"Bundle","id":"tests-a7ad97c4-9769-4630-8ad7-8cf354384aa1-bundle","type":"transaction","entry":[{"resource":{"resourceType":"Encounter","id":"170259a9-ca62-45d5-966c-9aeda753c2f1","meta":{"profile":["http://hl7.org/fhir/us/qicore/StructureDefinition/qicore-encounter"]},"status":"finished","class":{"system":"http://terminology.hl7.org/CodeSystem/v3-ActCode","code":"AMB","display":"ambulatory"},"type":[{"coding":[{"system":"http://snomed.info/sct","code":"10197000","display":"Psychiatric interview and evaluation (procedure)","userSelected":true}]}],"subject":{"reference":"Patient/a7ad97c4-9769-4630-8ad7-8cf354384aa1"},"period":{"start":"2026-06-21T08:00:00.000+00:00","end":"2026-06-21T08:15:00.000+00:00"}},"request":{"method":"PUT","url":"Encounter/170259a9-ca62-45d5-966c-9aeda753c2f1"}},{"resource":{"resourceType":"Patient","id":"a7ad97c4-9769-4630-8ad7-8cf354384aa1","meta":{"profile":["http://hl7.org/fhir/us/qicore/StructureDefinition/qicore-patient"]},"extension":[{"url":"http://hl7.org/fhir/us/core/StructureDefinition/us-core-race","extension":[{"url":"ombCategory","valueCoding":{"system":"urn:oid:2.16.840.1.113883.6.238","code":"1002-5","display":"American Indian or Alaska Native","userSelected":true}},{"url":"text","valueString":"American Indian or Alaska Native"}]},{"url":"http://hl7.org/fhir/us/core/StructureDefinition/us-core-ethnicity","extension":[{"url":"ombCategory","valueCoding":{"system":"urn:oid:2.16.840.1.113883.6.238","code":"2135-2","display":"Hispanic or Latino","userSelected":true}},{"url":"text","valueString":"Hispanic or Latino"}]}],"identifier":[{"type":{"coding":[{"system":"http://terminology.hl7.org/CodeSystem/v2-0203","code":"MR"}]},"system":"https://bonnie-fhir.healthit.gov/","value":"62b1d9b23968556e5150cf30"}],"name":[{"family":"NUMERPass","given":["NegativeAdultDepressionScreening"]}],"gender":"male","birthDate":"2008-01-01"},"request":{"method":"PUT","url":"Patient/a7ad97c4-9769-4630-8ad7-8cf354384aa1"}},{"resource":{"resourceType":"Bundle","id":"62b1d9b23968556e5150cf30","type":"transaction","entry":[{"fullUrl":"https://madie.cms.gov/Patient/a7ad97c4-9769-4630-8ad7-8cf354384aa1","resource":{"resourceType":"Patient","id":"a7ad97c4-9769-4630-8ad7-8cf354384aa1","meta":{"profile":["http://hl7.org/fhir/us/qicore/StructureDefinition/qicore-patient"]},"extension":[{"url":"http://hl7.org/fhir/us/core/StructureDefinition/us-core-race","extension":[{"url":"ombCategory","valueCoding":{"system":"urn:oid:2.16.840.1.113883.6.238","code":"1002-5","display":"American Indian or Alaska Native","userSelected":true}},{"url":"text","valueString":"American Indian or Alaska Native"}]},{"url":"http://hl7.org/fhir/us/core/StructureDefinition/us-core-ethnicity","extension":[{"url":"ombCategory","valueCoding":{"system":"urn:oid:2.16.840.1.113883.6.238","code":"2135-2","display":"Hispanic or Latino","userSelected":true}},{"url":"text","valueString":"Hispanic or Latino"}]}],"identifier":[{"type":{"coding":[{"system":"http://terminology.hl7.org/CodeSystem/v2-0203","code":"MR"}]},"system":"https://bonnie-fhir.healthit.gov/","value":"62b1d9b23968556e5150cf30"}],"name":[{"family":"NUMERPass","given":["NegativeAdultDepressionScreening"]}],"gender":"male","birthDate":"2008-01-01"},"request":{"method":"PUT","url":"Patient/a7ad97c4-9769-4630-8ad7-8cf354384aa1"}},{"fullUrl":"https://madie.cms.gov/Encounter/170259a9-ca62-45d5-966c-9aeda753c2f1","resource":{"resourceType":"Encounter","id":"170259a9-ca62-45d5-966c-9aeda753c2f1","meta":{"profile":["http://hl7.org/fhir/us/qicore/StructureDefinition/qicore-encounter"]},"status":"finished","class":{"system":"http://terminology.hl7.org/CodeSystem/v3-ActCode","code":"AMB","display":"ambulatory"},"type":[{"coding":[{"system":"http://snomed.info/sct","code":"10197000","display":"Psychiatric interview and evaluation (procedure)","userSelected":true}]}],"subject":{"reference":"Patient/a7ad97c4-9769-4630-8ad7-8cf354384aa1"},"period":{"start":"2026-06-21T08:00:00.000+00:00","end":"2026-06-21T08:15:00.000+00:00"}},"request":{"method":"PUT","url":"Encounter/170259a9-ca62-45d5-966c-9aeda753c2f1"}},{"fullUrl":"https://madie.cms.gov/Observation/05010622-484e-4706-a77d-ab5f78099957","resource":{"resourceType":"Observation","id":"05010622-484e-4706-a77d-ab5f78099957","meta":{"profile":["http://hl7.org/fhir/us/qicore/StructureDefinition/qicore-observation-screening-assessment"]},"status":"final","category":[{"coding":[{"system":"http://terminology.hl7.org/CodeSystem/observation-category","code":"procedure","display":"Procedure"}]},{"coding":[{"system":"http://terminology.hl7.org/CodeSystem/observation-category","code":"survey","display":"Survey"}]}],"code":{"coding":[{"system":"http://loinc.org","code":"73832-8","display":"Adult depression screening assessment","userSelected":true}]},"subject":{"reference":"Patient/a7ad97c4-9769-4630-8ad7-8cf354384aa1"},"effectiveDateTime":"2026-06-15T08:00:00.000+00:00","valueCodeableConcept":{"coding":[{"system":"http://snomed.info/sct","code":"428171000124102","display":"Depression screening negative (finding)","userSelected":true}]}},"request":{"method":"PUT","url":"Observation/05010622-484e-4706-a77d-ab5f78099957"}},{"fullUrl":"https://madie.cms.gov/Coverage/45a131d4-ee62-4d7d-994e-86ed88eb0528","resource":{"resourceType":"Coverage","id":"45a131d4-ee62-4d7d-994e-86ed88eb0528","meta":{"profile":["http://hl7.org/fhir/us/qicore/StructureDefinition/qicore-coverage"]},"status":"active","subscriberId":"123456789","beneficiary":{"reference":"Patient/a7ad97c4-9769-4630-8ad7-8cf354384aa1"},"relationship":{"coding":[{"system":"http://terminology.hl7.org/CodeSystem/subscriber-relationship","code":"self","display":"Self","userSelected":true}]},"payor":[{"reference":"Organization/057a36ca-4f53-4ec2-ba74-2d3888ca0cbd"}]},"request":{"method":"PUT","url":"Coverage/45a131d4-ee62-4d7d-994e-86ed88eb0528"}},{"fullUrl":"https://madie.cms.gov/Organization/057a36ca-4f53-4ec2-ba74-2d3888ca0cbd","resource":{"resourceType":"Organization","id":"057a36ca-4f53-4ec2-ba74-2d3888ca0cbd","meta":{"profile":["http://hl7.org/fhir/us/qicore/StructureDefinition/qicore-organization"]},"identifier":[{"use":"temp","system":"urn:oid:2.16.840.1.113883.4.4","value":"21-3259825"}],"active":true,"type":[{"coding":[{"system":"http://terminology.hl7.org/CodeSystem/organization-type","code":"pay","display":"Payer"}]}],"name":"Blue Cross Blue Shield of Texas","telecom":[{"system":"phone","value":"(+1) 972-766-6900"}],"address":[{"use":"billing","type":"postal","line":["P.O. Box 660044"],"city":"Dallas","state":"TX","postalCode":"75266-0044","country":"USA"}]},"request":{"method":"PUT","url":"Organization/057a36ca-4f53-4ec2-ba74-2d3888ca0cbd"}},{"fullUrl":"https://madie.cms.gov/Practitioner/068f26b1-34ac-41e3-a9d3-f2831f4ecace","resource":{"resourceType":"Practitioner","id":"068f26b1-34ac-41e3-a9d3-f2831f4ecace","meta":{"profile":["http://hl7.org/fhir/us/qicore/StructureDefinition/qicore-practitioner"]},"identifier":[{"system":"http://hl7.org/fhir/sid/us-npi","value":"1234567893"}],"name":[{"family":"Evil","prefix":["Dr"]}]},"request":{"method":"PUT","url":"Practitioner/068f26b1-34ac-41e3-a9d3-f2831f4ecace"}},{"fullUrl":"https://madie.cms.gov/MeasureReport/e538284a-8b17-4cf0-bcad-739d2c910144","resource":{"resourceType":"MeasureReport","id":"e538284a-8b17-4cf0-bcad-739d2c910144","meta":{"profile":["http://hl7.org/fhir/us/cqfmeasures/StructureDefinition/test-case-cqfm"]},"contained":[{"resourceType":"Parameters","id":"e04a9c4e-1060-4ab1-81e7-39625b2979f2-parameters","parameter":[{"name":"subject","valueString":"a7ad97c4-9769-4630-8ad7-8cf354384aa1"}]}],"extension":[{"url":"http://hl7.org/fhir/StructureDefinition/cqf-inputParameters","valueReference":{"reference":"#e04a9c4e-1060-4ab1-81e7-39625b2979f2-parameters"}},{"url":"http://hl7.org/fhir/us/cqfmeasures/StructureDefinition/cqfm-testCaseDescription","valueMarkdown":"Adult with previous negative adult depression screening"}],"modifierExtension":[{"url":"http://hl7.org/fhir/us/cqfmeasures/StructureDefinition/cqfm-isTestCase","valueBoolean":true}],"status":"complete","type":"individual","measure":"https://madie.cms.gov/Measure/CMS2FHIRPCSDepressionScreenAndFollowUp","period":{"start":"2026-01-01","end":"2026-12-31"},"group":[{"id":"Group_1","population":[{"id":"InitialPopulation_1","code":{"coding":[{"system":"http://terminology.hl7.org/CodeSystem/measure-population","code":"initial-population","display":"Initial Population"}]},"count":1},{"id":"Denominator_1","code":{"coding":[{"system":"http://terminology.hl7.org/CodeSystem/measure-population","code":"denominator","display":"Denominator"}]},"count":1},{"id":"DenominatorExclusion_1","code":{"coding":[{"system":"http://terminology.hl7.org/CodeSystem/measure-population","code":"denominator-exclusion","display":"Denominator Exclusion"}]},"count":0},{"id":"Numerator_1","code":{"coding":[{"system":"http://terminology.hl7.org/CodeSystem/measure-population","code":"numerator","display":"Numerator"}]},"count":1},{"id":"DenominatorException_1","code":{"coding":[{"system":"http://terminology.hl7.org/CodeSystem/measure-population","code":"denominator-exception","display":"Denominator Exception"}]},"count":0}],"measureScore":{"value":1.0}}],"evaluatedResource":[{"reference":"Patient/a7ad97c4-9769-4630-8ad7-8cf354384aa1"},{"reference":"Encounter/170259a9-ca62-45d5-966c-9aeda753c2f1"},{"reference":"Observation/05010622-484e-4706-a77d-ab5f78099957"},{"reference":"Coverage/45a131d4-ee62-4d7d-994e-86ed88eb0528"},{"reference":"Organization/057a36ca-4f53-4ec2-ba74-2d3888ca0cbd"},{"reference":"Practitioner/068f26b1-34ac-41e3-a9d3-f2831f4ecace"}]},"request":{"method":"PUT","url":"MeasureReport/e538284a-8b17-4cf0-bcad-739d2c910144"}}]},"request":{"method":"PUT","url":"Bundle/62b1d9b23968556e5150cf30"}},{"resource":{"resourceType":"Organization","id":"057a36ca-4f53-4ec2-ba74-2d3888ca0cbd","meta":{"profile":["http://hl7.org/fhir/us/qicore/StructureDefinition/qicore-organization"]},"identifier":[{"use":"temp","system":"urn:oid:2.16.840.1.113883.4.4","value":"21-3259825"}],"active":true,"type":[{"coding":[{"system":"http://terminology.hl7.org/CodeSystem/organization-type","code":"pay","display":"Payer"}]}],"name":"Blue Cross Blue Shield of Texas","telecom":[{"system":"phone","value":"(+1) 972-766-6900"}],"address":[{"use":"billing","type":"postal","line":["P.O. Box 660044"],"city":"Dallas","state":"TX","postalCode":"75266-0044","country":"USA"}]},"request":{"method":"PUT","url":"Organization/057a36ca-4f53-4ec2-ba74-2d3888ca0cbd"}},{"resource":{"resourceType":"Practitioner","id":"068f26b1-34ac-41e3-a9d3-f2831f4ecace","meta":{"profile":["http://hl7.org/fhir/us/qicore/StructureDefinition/qicore-practitioner"]},"identifier":[{"system":"http://hl7.org/fhir/sid/us-npi","value":"1234567893"}],"name":[{"family":"Evil","prefix":["Dr"]}]},"request":{"method":"PUT","url":"Practitioner/068f26b1-34ac-41e3-a9d3-f2831f4ecace"}},{"resource":{"resourceType":"Coverage","id":"45a131d4-ee62-4d7d-994e-86ed88eb0528","meta":{"profile":["http://hl7.org/fhir/us/qicore/StructureDefinition/qicore-coverage"]},"status":"active","subscriberId":"123456789","beneficiary":{"reference":"Patient/a7ad97c4-9769-4630-8ad7-8cf354384aa1"},"relationship":{"coding":[{"system":"http://terminology.hl7.org/CodeSystem/subscriber-relationship","code":"self","display":"Self","userSelected":true}]},"payor":[{"reference":"Organization/057a36ca-4f53-4ec2-ba74-2d3888ca0cbd"}]},"request":{"method":"PUT","url":"Coverage/45a131d4-ee62-4d7d-994e-86ed88eb0528"}},{"resource":{"resourceType":"MeasureReport","id":"e538284a-8b17-4cf0-bcad-739d2c910144","meta":{"profile":["http://hl7.org/fhir/us/cqfmeasures/StructureDefinition/test-case-cqfm"]},"contained":[{"resourceType":"Parameters","id":"e04a9c4e-1060-4ab1-81e7-39625b2979f2-parameters","parameter":[{"name":"subject","valueString":"a7ad97c4-9769-4630-8ad7-8cf354384aa1"}]}],"extension":[{"url":"http://hl7.org/fhir/StructureDefinition/cqf-inputParameters","valueReference":{"reference":"#e04a9c4e-1060-4ab1-81e7-39625b2979f2-parameters"}},{"url":"http://hl7.org/fhir/us/cqfmeasures/StructureDefinition/cqfm-testCaseDescription","valueMarkdown":"Adult with previous negative adult depression screening"}],"modifierExtension":[{"url":"http://hl7.org/fhir/us/cqfmeasures/StructureDefinition/cqfm-isTestCase","valueBoolean":true}],"status":"complete","type":"individual","measure":"https://madie.cms.gov/Measure/CMS2FHIRPCSDepressionScreenAndFollowUp","period":{"start":"2026-01-01","end":"2026-12-31"},"group":[{"id":"Group_1","population":[{"id":"InitialPopulation_1","code":{"coding":[{"system":"http://terminology.hl7.org/CodeSystem/measure-population","code":"initial-population","display":"Initial Population"}]},"count":1},{"id":"Denominator_1","code":{"coding":[{"system":"http://terminology.hl7.org/CodeSystem/measure-population","code":"denominator","display":"Denominator"}]},"count":1},{"id":"DenominatorExclusion_1","code":{"coding":[{"system":"http://terminology.hl7.org/CodeSystem/measure-population","code":"denominator-exclusion","display":"Denominator Exclusion"}]},"count":0},{"id":"Numerator_1","code":{"coding":[{"system":"http://terminology.hl7.org/CodeSystem/measure-population","code":"numerator","display":"Numerator"}]},"count":1},{"id":"DenominatorException_1","code":{"coding":[{"system":"http://terminology.hl7.org/CodeSystem/measure-population","code":"denominator-exception","display":"Denominator Exception"}]},"count":0}],"measureScore":{"value":1.0}}],"evaluatedResource":[{"reference":"Patient/a7ad97c4-9769-4630-8ad7-8cf354384aa1"},{"reference":"Encounter/170259a9-ca62-45d5-966c-9aeda753c2f1"},{"reference":"Observation/05010622-484e-4706-a77d-ab5f78099957"},{"reference":"Coverage/45a131d4-ee62-4d7d-994e-86ed88eb0528"},{"reference":"Organization/057a36ca-4f53-4ec2-ba74-2d3888ca0cbd"},{"reference":"Practitioner/068f26b1-34ac-41e3-a9d3-f2831f4ecace"}]},"request":{"method":"PUT","url":"MeasureReport/e538284a-8b17-4cf0-bcad-739d2c910144"}},{"resource":{"resourceType":"Observation","id":"05010622-484e-4706-a77d-ab5f78099957","meta":{"profile":["http://hl7.org/fhir/us/qicore/StructureDefinition/qicore-observation-screening-assessment"]},"status":"final","category":[{"coding":[{"system":"http://terminology.hl7.org/CodeSystem/observation-category","code":"procedure","display":"Procedure"}]},{"coding":[{"system":"http://terminology.hl7.org/CodeSystem/observation-category","code":"survey","display":"Survey"}]}],"code":{"coding":[{"system":"http://loinc.org","code":"73832-8","display":"Adult depression screening assessment","userSelected":true}]},"subject":{"reference":"Patient/a7ad97c4-9769-4630-8ad7-8cf354384aa1"},"effectiveDateTime":"2026-06-15T08:00:00.000+00:00","valueCodeableConcept":{"coding":[{"system":"http://snomed.info/sct","code":"428171000124102","display":"Depression screening negative (finding)","userSelected":true}]}},"request":{"method":"PUT","url":"Observation/05010622-484e-4706-a77d-ab5f78099957"}}]}