{"resourceType":"Bundle","id":"tests-2ee18ee0-f67a-4694-8411-fda20e6d108d-bundle","type":"transaction","entry":[{"resource":{"resourceType":"Patient","id":"2ee18ee0-f67a-4694-8411-fda20e6d108d","meta":{"profile":["http://hl7.org/fhir/us/qicore/StructureDefinition/qicore-patient"]},"extension":[{"url":"http://hl7.org/fhir/us/core/StructureDefinition/us-core-race","extension":[{"url":"ombCategory","valueCoding":{"system":"urn:oid:2.16.840.1.113883.6.238","code":"1002-5","display":"American Indian or Alaska Native","userSelected":true}},{"url":"text","valueString":"American Indian or Alaska Native"}]},{"url":"http://hl7.org/fhir/us/core/StructureDefinition/us-core-ethnicity","extension":[{"url":"ombCategory","valueCoding":{"system":"urn:oid:2.16.840.1.113883.6.238","code":"2135-2","display":"Hispanic or Latino","userSelected":true}},{"url":"text","valueString":"Hispanic or Latino"}]}],"identifier":[{"type":{"coding":[{"system":"http://terminology.hl7.org/CodeSystem/v2-0203","code":"MR"}]},"system":"https://bonnie-fhir.healthit.gov/","value":"62f6770c5efef5272905e719"}],"name":[{"family":"NUMERPass","given":["12yoPosAdolDepScreenandFollowUpProcedure"]}],"gender":"male","birthDate":"2014-01-01"},"request":{"method":"PUT","url":"Patient/2ee18ee0-f67a-4694-8411-fda20e6d108d"}},{"resource":{"resourceType":"Procedure","id":"0aac41a1-d218-4647-905e-637ec5dd5bd8","meta":{"profile":["http://hl7.org/fhir/us/qicore/StructureDefinition/qicore-procedure"]},"extension":[{"url":"http://hl7.org/fhir/us/qicore/StructureDefinition/qicore-recorded","valueDateTime":"2026-06-21T08:00:00.000+00:00"}],"status":"completed","code":{"coding":[{"system":"http://snomed.info/sct","code":"108313002","display":"Family psychotherapy procedure (regime/therapy)","userSelected":true}]},"subject":{"reference":"Patient/2ee18ee0-f67a-4694-8411-fda20e6d108d"},"performedDateTime":"2026-06-21T08:00:00.000+00:00"},"request":{"method":"PUT","url":"Procedure/0aac41a1-d218-4647-905e-637ec5dd5bd8"}},{"resource":{"resourceType":"Observation","id":"6cdd152a-9758-4908-910f-15523cc55571","meta":{"profile":["http://hl7.org/fhir/us/qicore/StructureDefinition/qicore-observation-screening-assessment"]},"status":"final","category":[{"coding":[{"system":"http://terminology.hl7.org/CodeSystem/observation-category","code":"procedure","display":"Procedure"}]},{"coding":[{"system":"http://terminology.hl7.org/CodeSystem/observation-category","code":"survey","display":"Survey"}]}],"code":{"coding":[{"system":"http://loinc.org","code":"73831-0","display":"Adolescent depression screening assessment","userSelected":true}]},"subject":{"reference":"Patient/2ee18ee0-f67a-4694-8411-fda20e6d108d"},"effectiveDateTime":"2026-06-21T08:00:00.000+00:00","valueCodeableConcept":{"coding":[{"system":"http://snomed.info/sct","code":"428181000124104","display":"Depression screening positive (finding)","userSelected":true}]}},"request":{"method":"PUT","url":"Observation/6cdd152a-9758-4908-910f-15523cc55571"}},{"resource":{"resourceType":"Coverage","id":"9128cf30-7969-47fe-8b4f-a1622a20310a","meta":{"profile":["http://hl7.org/fhir/us/qicore/StructureDefinition/qicore-coverage"]},"status":"active","subscriberId":"123456789","beneficiary":{"reference":"Patient/2ee18ee0-f67a-4694-8411-fda20e6d108d"},"relationship":{"coding":[{"system":"http://terminology.hl7.org/CodeSystem/subscriber-relationship","code":"self","display":"Self","userSelected":true}]},"payor":[{"reference":"Organization/60558ffe-fa54-44c9-b429-a671b760918b"}]},"request":{"method":"PUT","url":"Coverage/9128cf30-7969-47fe-8b4f-a1622a20310a"}},{"resource":{"resourceType":"Encounter","id":"1e9530df-fb7a-4333-86b5-814068ac13f5","meta":{"profile":["http://hl7.org/fhir/us/qicore/StructureDefinition/qicore-encounter"]},"status":"finished","class":{"system":"http://terminology.hl7.org/CodeSystem/v3-ActCode","code":"AMB","display":"ambulatory"},"type":[{"coding":[{"system":"http://snomed.info/sct","code":"10197000","display":"Psychiatric interview and evaluation (procedure)","userSelected":true}]}],"subject":{"reference":"Patient/2ee18ee0-f67a-4694-8411-fda20e6d108d"},"period":{"start":"2026-06-21T08:00:00.000+00:00","end":"2026-06-21T08:15:00.000+00:00"}},"request":{"method":"PUT","url":"Encounter/1e9530df-fb7a-4333-86b5-814068ac13f5"}},{"resource":{"resourceType":"Organization","id":"60558ffe-fa54-44c9-b429-a671b760918b","meta":{"profile":["http://hl7.org/fhir/us/qicore/StructureDefinition/qicore-organization"]},"identifier":[{"use":"temp","system":"urn:oid:2.16.840.1.113883.4.4","value":"21-3259825"}],"active":true,"type":[{"coding":[{"system":"http://terminology.hl7.org/CodeSystem/organization-type","code":"pay","display":"Payer"}]}],"name":"Blue Cross Blue Shield of Texas","telecom":[{"system":"phone","value":"(+1) 972-766-6900"}],"address":[{"use":"billing","type":"postal","line":["P.O. Box 660044"],"city":"Dallas","state":"TX","postalCode":"75266-0044","country":"USA"}]},"request":{"method":"PUT","url":"Organization/60558ffe-fa54-44c9-b429-a671b760918b"}},{"resource":{"resourceType":"Bundle","id":"62f6770c5efef5272905e719","type":"transaction","entry":[{"fullUrl":"https://madie.cms.gov/Patient/2ee18ee0-f67a-4694-8411-fda20e6d108d","resource":{"resourceType":"Patient","id":"2ee18ee0-f67a-4694-8411-fda20e6d108d","meta":{"profile":["http://hl7.org/fhir/us/qicore/StructureDefinition/qicore-patient"]},"extension":[{"url":"http://hl7.org/fhir/us/core/StructureDefinition/us-core-race","extension":[{"url":"ombCategory","valueCoding":{"system":"urn:oid:2.16.840.1.113883.6.238","code":"1002-5","display":"American Indian or Alaska Native","userSelected":true}},{"url":"text","valueString":"American Indian or Alaska Native"}]},{"url":"http://hl7.org/fhir/us/core/StructureDefinition/us-core-ethnicity","extension":[{"url":"ombCategory","valueCoding":{"system":"urn:oid:2.16.840.1.113883.6.238","code":"2135-2","display":"Hispanic or Latino","userSelected":true}},{"url":"text","valueString":"Hispanic or Latino"}]}],"identifier":[{"type":{"coding":[{"system":"http://terminology.hl7.org/CodeSystem/v2-0203","code":"MR"}]},"system":"https://bonnie-fhir.healthit.gov/","value":"62f6770c5efef5272905e719"}],"name":[{"family":"NUMERPass","given":["12yoPosAdolDepScreenandFollowUpProcedure"]}],"gender":"male","birthDate":"2014-01-01"},"request":{"method":"PUT","url":"Patient/2ee18ee0-f67a-4694-8411-fda20e6d108d"}},{"fullUrl":"https://madie.cms.gov/Encounter/1e9530df-fb7a-4333-86b5-814068ac13f5","resource":{"resourceType":"Encounter","id":"1e9530df-fb7a-4333-86b5-814068ac13f5","meta":{"profile":["http://hl7.org/fhir/us/qicore/StructureDefinition/qicore-encounter"]},"status":"finished","class":{"system":"http://terminology.hl7.org/CodeSystem/v3-ActCode","code":"AMB","display":"ambulatory"},"type":[{"coding":[{"system":"http://snomed.info/sct","code":"10197000","display":"Psychiatric interview and evaluation (procedure)","userSelected":true}]}],"subject":{"reference":"Patient/2ee18ee0-f67a-4694-8411-fda20e6d108d"},"period":{"start":"2026-06-21T08:00:00.000+00:00","end":"2026-06-21T08:15:00.000+00:00"}},"request":{"method":"PUT","url":"Encounter/1e9530df-fb7a-4333-86b5-814068ac13f5"}},{"fullUrl":"https://madie.cms.gov/Observation/6cdd152a-9758-4908-910f-15523cc55571","resource":{"resourceType":"Observation","id":"6cdd152a-9758-4908-910f-15523cc55571","meta":{"profile":["http://hl7.org/fhir/us/qicore/StructureDefinition/qicore-observation-screening-assessment"]},"status":"final","category":[{"coding":[{"system":"http://terminology.hl7.org/CodeSystem/observation-category","code":"procedure","display":"Procedure"}]},{"coding":[{"system":"http://terminology.hl7.org/CodeSystem/observation-category","code":"survey","display":"Survey"}]}],"code":{"coding":[{"system":"http://loinc.org","code":"73831-0","display":"Adolescent depression screening assessment","userSelected":true}]},"subject":{"reference":"Patient/2ee18ee0-f67a-4694-8411-fda20e6d108d"},"effectiveDateTime":"2026-06-21T08:00:00.000+00:00","valueCodeableConcept":{"coding":[{"system":"http://snomed.info/sct","code":"428181000124104","display":"Depression screening positive (finding)","userSelected":true}]}},"request":{"method":"PUT","url":"Observation/6cdd152a-9758-4908-910f-15523cc55571"}},{"fullUrl":"https://madie.cms.gov/Procedure/0aac41a1-d218-4647-905e-637ec5dd5bd8","resource":{"resourceType":"Procedure","id":"0aac41a1-d218-4647-905e-637ec5dd5bd8","meta":{"profile":["http://hl7.org/fhir/us/qicore/StructureDefinition/qicore-procedure"]},"extension":[{"url":"http://hl7.org/fhir/us/qicore/StructureDefinition/qicore-recorded","valueDateTime":"2026-06-21T08:00:00.000+00:00"}],"status":"completed","code":{"coding":[{"system":"http://snomed.info/sct","code":"108313002","display":"Family psychotherapy procedure (regime/therapy)","userSelected":true}]},"subject":{"reference":"Patient/2ee18ee0-f67a-4694-8411-fda20e6d108d"},"performedDateTime":"2026-06-21T08:00:00.000+00:00"},"request":{"method":"PUT","url":"Procedure/0aac41a1-d218-4647-905e-637ec5dd5bd8"}},{"fullUrl":"https://madie.cms.gov/Coverage/9128cf30-7969-47fe-8b4f-a1622a20310a","resource":{"resourceType":"Coverage","id":"9128cf30-7969-47fe-8b4f-a1622a20310a","meta":{"profile":["http://hl7.org/fhir/us/qicore/StructureDefinition/qicore-coverage"]},"status":"active","subscriberId":"123456789","beneficiary":{"reference":"Patient/2ee18ee0-f67a-4694-8411-fda20e6d108d"},"relationship":{"coding":[{"system":"http://terminology.hl7.org/CodeSystem/subscriber-relationship","code":"self","display":"Self","userSelected":true}]},"payor":[{"reference":"Organization/60558ffe-fa54-44c9-b429-a671b760918b"}]},"request":{"method":"PUT","url":"Coverage/9128cf30-7969-47fe-8b4f-a1622a20310a"}},{"fullUrl":"https://madie.cms.gov/Organization/60558ffe-fa54-44c9-b429-a671b760918b","resource":{"resourceType":"Organization","id":"60558ffe-fa54-44c9-b429-a671b760918b","meta":{"profile":["http://hl7.org/fhir/us/qicore/StructureDefinition/qicore-organization"]},"identifier":[{"use":"temp","system":"urn:oid:2.16.840.1.113883.4.4","value":"21-3259825"}],"active":true,"type":[{"coding":[{"system":"http://terminology.hl7.org/CodeSystem/organization-type","code":"pay","display":"Payer"}]}],"name":"Blue Cross Blue Shield of Texas","telecom":[{"system":"phone","value":"(+1) 972-766-6900"}],"address":[{"use":"billing","type":"postal","line":["P.O. Box 660044"],"city":"Dallas","state":"TX","postalCode":"75266-0044","country":"USA"}]},"request":{"method":"PUT","url":"Organization/60558ffe-fa54-44c9-b429-a671b760918b"}},{"fullUrl":"https://madie.cms.gov/Practitioner/b63927b3-69a0-4dd6-bcb8-e07fa7d2d063","resource":{"resourceType":"Practitioner","id":"b63927b3-69a0-4dd6-bcb8-e07fa7d2d063","meta":{"profile":["http://hl7.org/fhir/us/qicore/StructureDefinition/qicore-practitioner"]},"identifier":[{"system":"http://hl7.org/fhir/sid/us-npi","value":"1234567893"}],"name":[{"family":"Evil","prefix":["Dr"]}]},"request":{"method":"PUT","url":"Practitioner/b63927b3-69a0-4dd6-bcb8-e07fa7d2d063"}},{"fullUrl":"https://madie.cms.gov/MeasureReport/cba0c280-b9e5-42c4-8cc2-725464d254ed","resource":{"resourceType":"MeasureReport","id":"cba0c280-b9e5-42c4-8cc2-725464d254ed","meta":{"profile":["http://hl7.org/fhir/us/cqfmeasures/StructureDefinition/test-case-cqfm"]},"contained":[{"resourceType":"Parameters","id":"f83a1a46-588c-452a-aec8-4673c23392a0-parameters","parameter":[{"name":"subject","valueString":"2ee18ee0-f67a-4694-8411-fda20e6d108d"}]}],"extension":[{"url":"http://hl7.org/fhir/StructureDefinition/cqf-inputParameters","valueReference":{"reference":"#f83a1a46-588c-452a-aec8-4673c23392a0-parameters"}},{"url":"http://hl7.org/fhir/us/cqfmeasures/StructureDefinition/cqfm-testCaseDescription","valueMarkdown":"12yo with previous positive adolescent depression screening and procedure follow up"}],"modifierExtension":[{"url":"http://hl7.org/fhir/us/cqfmeasures/StructureDefinition/cqfm-isTestCase","valueBoolean":true}],"status":"complete","type":"individual","measure":"https://madie.cms.gov/Measure/CMS2FHIRPCSDepressionScreenAndFollowUp","period":{"start":"2026-01-01","end":"2026-12-31"},"group":[{"id":"Group_1","population":[{"id":"InitialPopulation_1","code":{"coding":[{"system":"http://terminology.hl7.org/CodeSystem/measure-population","code":"initial-population","display":"Initial Population"}]},"count":1},{"id":"Denominator_1","code":{"coding":[{"system":"http://terminology.hl7.org/CodeSystem/measure-population","code":"denominator","display":"Denominator"}]},"count":1},{"id":"DenominatorExclusion_1","code":{"coding":[{"system":"http://terminology.hl7.org/CodeSystem/measure-population","code":"denominator-exclusion","display":"Denominator Exclusion"}]},"count":0},{"id":"Numerator_1","code":{"coding":[{"system":"http://terminology.hl7.org/CodeSystem/measure-population","code":"numerator","display":"Numerator"}]},"count":1},{"id":"DenominatorException_1","code":{"coding":[{"system":"http://terminology.hl7.org/CodeSystem/measure-population","code":"denominator-exception","display":"Denominator Exception"}]},"count":0}],"measureScore":{"value":1.0}}],"evaluatedResource":[{"reference":"Patient/2ee18ee0-f67a-4694-8411-fda20e6d108d"},{"reference":"Encounter/1e9530df-fb7a-4333-86b5-814068ac13f5"},{"reference":"Observation/6cdd152a-9758-4908-910f-15523cc55571"},{"reference":"Procedure/0aac41a1-d218-4647-905e-637ec5dd5bd8"},{"reference":"Coverage/9128cf30-7969-47fe-8b4f-a1622a20310a"},{"reference":"Organization/60558ffe-fa54-44c9-b429-a671b760918b"},{"reference":"Practitioner/b63927b3-69a0-4dd6-bcb8-e07fa7d2d063"}]},"request":{"method":"PUT","url":"MeasureReport/cba0c280-b9e5-42c4-8cc2-725464d254ed"}}]},"request":{"method":"PUT","url":"Bundle/62f6770c5efef5272905e719"}},{"resource":{"resourceType":"MeasureReport","id":"cba0c280-b9e5-42c4-8cc2-725464d254ed","meta":{"profile":["http://hl7.org/fhir/us/cqfmeasures/StructureDefinition/test-case-cqfm"]},"contained":[{"resourceType":"Parameters","id":"f83a1a46-588c-452a-aec8-4673c23392a0-parameters","parameter":[{"name":"subject","valueString":"2ee18ee0-f67a-4694-8411-fda20e6d108d"}]}],"extension":[{"url":"http://hl7.org/fhir/StructureDefinition/cqf-inputParameters","valueReference":{"reference":"#f83a1a46-588c-452a-aec8-4673c23392a0-parameters"}},{"url":"http://hl7.org/fhir/us/cqfmeasures/StructureDefinition/cqfm-testCaseDescription","valueMarkdown":"12yo with previous positive adolescent depression screening and procedure follow up"}],"modifierExtension":[{"url":"http://hl7.org/fhir/us/cqfmeasures/StructureDefinition/cqfm-isTestCase","valueBoolean":true}],"status":"complete","type":"individual","measure":"https://madie.cms.gov/Measure/CMS2FHIRPCSDepressionScreenAndFollowUp","period":{"start":"2026-01-01","end":"2026-12-31"},"group":[{"id":"Group_1","population":[{"id":"InitialPopulation_1","code":{"coding":[{"system":"http://terminology.hl7.org/CodeSystem/measure-population","code":"initial-population","display":"Initial Population"}]},"count":1},{"id":"Denominator_1","code":{"coding":[{"system":"http://terminology.hl7.org/CodeSystem/measure-population","code":"denominator","display":"Denominator"}]},"count":1},{"id":"DenominatorExclusion_1","code":{"coding":[{"system":"http://terminology.hl7.org/CodeSystem/measure-population","code":"denominator-exclusion","display":"Denominator Exclusion"}]},"count":0},{"id":"Numerator_1","code":{"coding":[{"system":"http://terminology.hl7.org/CodeSystem/measure-population","code":"numerator","display":"Numerator"}]},"count":1},{"id":"DenominatorException_1","code":{"coding":[{"system":"http://terminology.hl7.org/CodeSystem/measure-population","code":"denominator-exception","display":"Denominator Exception"}]},"count":0}],"measureScore":{"value":1.0}}],"evaluatedResource":[{"reference":"Patient/2ee18ee0-f67a-4694-8411-fda20e6d108d"},{"reference":"Encounter/1e9530df-fb7a-4333-86b5-814068ac13f5"},{"reference":"Observation/6cdd152a-9758-4908-910f-15523cc55571"},{"reference":"Procedure/0aac41a1-d218-4647-905e-637ec5dd5bd8"},{"reference":"Coverage/9128cf30-7969-47fe-8b4f-a1622a20310a"},{"reference":"Organization/60558ffe-fa54-44c9-b429-a671b760918b"},{"reference":"Practitioner/b63927b3-69a0-4dd6-bcb8-e07fa7d2d063"}]},"request":{"method":"PUT","url":"MeasureReport/cba0c280-b9e5-42c4-8cc2-725464d254ed"}},{"resource":{"resourceType":"Practitioner","id":"b63927b3-69a0-4dd6-bcb8-e07fa7d2d063","meta":{"profile":["http://hl7.org/fhir/us/qicore/StructureDefinition/qicore-practitioner"]},"identifier":[{"system":"http://hl7.org/fhir/sid/us-npi","value":"1234567893"}],"name":[{"family":"Evil","prefix":["Dr"]}]},"request":{"method":"PUT","url":"Practitioner/b63927b3-69a0-4dd6-bcb8-e07fa7d2d063"}}]}