{"resourceType":"Bundle","id":"tests-75a5223a-3a62-418a-bcc6-4522cfe71726-bundle","type":"transaction","entry":[{"resource":{"resourceType":"MedicationRequest","id":"40bc32eb-cdc5-4495-a323-de5bceaf7743","meta":{"profile":["http://hl7.org/fhir/us/qicore/StructureDefinition/qicore-medicationrequest"]},"status":"active","intent":"order","doNotPerform":false,"medicationCodeableConcept":{"coding":[{"system":"http://www.nlm.nih.gov/research/umls/rxnorm","code":"1000048","display":"doxepin 10 MG Oral Capsule","userSelected":true}]},"subject":{"reference":"Patient/75a5223a-3a62-418a-bcc6-4522cfe71726"},"authoredOn":"2026-06-21T08:00:00Z","requester":{"reference":"Practitioner/123456"},"dispenseRequest":{"expectedSupplyDuration":{"value":30,"system":"http://unitsofmeasure.org","code":"days"}}},"request":{"method":"PUT","url":"MedicationRequest/40bc32eb-cdc5-4495-a323-de5bceaf7743"}},{"resource":{"resourceType":"Patient","id":"75a5223a-3a62-418a-bcc6-4522cfe71726","meta":{"profile":["http://hl7.org/fhir/us/qicore/StructureDefinition/qicore-patient"]},"extension":[{"url":"http://hl7.org/fhir/us/core/StructureDefinition/us-core-race","extension":[{"url":"ombCategory","valueCoding":{"system":"urn:oid:2.16.840.1.113883.6.238","code":"1002-5","display":"American Indian or Alaska Native","userSelected":true}},{"url":"text","valueString":"American Indian or Alaska Native"}]},{"url":"http://hl7.org/fhir/us/core/StructureDefinition/us-core-ethnicity","extension":[{"url":"ombCategory","valueCoding":{"system":"urn:oid:2.16.840.1.113883.6.238","code":"2135-2","display":"Hispanic or Latino","userSelected":true}},{"url":"text","valueString":"Hispanic or Latino"}]}],"identifier":[{"type":{"coding":[{"system":"http://terminology.hl7.org/CodeSystem/v2-0203","code":"MR"}]},"system":"https://bonnie-fhir.healthit.gov/","value":"62f684febc6a474306a95b43"}],"name":[{"family":"NUMERPass","given":["PosAdultDepScreenandFUWI2DAfterEndOfEnc"]}],"gender":"male","birthDate":"2008-01-01"},"request":{"method":"PUT","url":"Patient/75a5223a-3a62-418a-bcc6-4522cfe71726"}},{"resource":{"resourceType":"Coverage","id":"7cf5f047-823c-4742-8dea-7432b16957ff","meta":{"profile":["http://hl7.org/fhir/us/qicore/StructureDefinition/qicore-coverage"]},"status":"active","subscriberId":"123456789","beneficiary":{"reference":"Patient/75a5223a-3a62-418a-bcc6-4522cfe71726"},"relationship":{"coding":[{"system":"http://terminology.hl7.org/CodeSystem/subscriber-relationship","code":"self","display":"Self","userSelected":true}]},"payor":[{"reference":"Organization/714eae6a-b897-4a73-b80d-f7aea91272a0"}]},"request":{"method":"PUT","url":"Coverage/7cf5f047-823c-4742-8dea-7432b16957ff"}},{"resource":{"resourceType":"Organization","id":"714eae6a-b897-4a73-b80d-f7aea91272a0","meta":{"profile":["http://hl7.org/fhir/us/qicore/StructureDefinition/qicore-organization"]},"identifier":[{"use":"temp","system":"urn:oid:2.16.840.1.113883.4.4","value":"21-3259825"}],"active":true,"type":[{"coding":[{"system":"http://terminology.hl7.org/CodeSystem/organization-type","code":"pay","display":"Payer"}]}],"name":"Blue Cross Blue Shield of Texas","telecom":[{"system":"phone","value":"(+1) 972-766-6900"}],"address":[{"use":"billing","type":"postal","line":["P.O. Box 660044"],"city":"Dallas","state":"TX","postalCode":"75266-0044","country":"USA"}]},"request":{"method":"PUT","url":"Organization/714eae6a-b897-4a73-b80d-f7aea91272a0"}},{"resource":{"resourceType":"MeasureReport","id":"2703d5b6-dd3b-431f-9a87-659fd95f38f6","meta":{"profile":["http://hl7.org/fhir/us/cqfmeasures/StructureDefinition/test-case-cqfm"]},"contained":[{"resourceType":"Parameters","id":"8d12f697-0e90-48af-98a8-4038b8f49208-parameters","parameter":[{"name":"subject","valueString":"75a5223a-3a62-418a-bcc6-4522cfe71726"}]}],"extension":[{"url":"http://hl7.org/fhir/StructureDefinition/cqf-inputParameters","valueReference":{"reference":"#8d12f697-0e90-48af-98a8-4038b8f49208-parameters"}},{"url":"http://hl7.org/fhir/us/cqfmeasures/StructureDefinition/cqfm-testCaseDescription","valueMarkdown":"Adult with previous positive adult depression screening and medication request follow up within 2 days after end of encounter"}],"modifierExtension":[{"url":"http://hl7.org/fhir/us/cqfmeasures/StructureDefinition/cqfm-isTestCase","valueBoolean":true}],"status":"complete","type":"individual","measure":"https://madie.cms.gov/Measure/CMS2FHIRPCSDepressionScreenAndFollowUp","period":{"start":"2026-01-01","end":"2026-12-31"},"group":[{"id":"Group_1","population":[{"id":"InitialPopulation_1","code":{"coding":[{"system":"http://terminology.hl7.org/CodeSystem/measure-population","code":"initial-population","display":"Initial Population"}]},"count":1},{"id":"Denominator_1","code":{"coding":[{"system":"http://terminology.hl7.org/CodeSystem/measure-population","code":"denominator","display":"Denominator"}]},"count":1},{"id":"DenominatorExclusion_1","code":{"coding":[{"system":"http://terminology.hl7.org/CodeSystem/measure-population","code":"denominator-exclusion","display":"Denominator Exclusion"}]},"count":0},{"id":"Numerator_1","code":{"coding":[{"system":"http://terminology.hl7.org/CodeSystem/measure-population","code":"numerator","display":"Numerator"}]},"count":1},{"id":"DenominatorException_1","code":{"coding":[{"system":"http://terminology.hl7.org/CodeSystem/measure-population","code":"denominator-exception","display":"Denominator Exception"}]},"count":0}],"measureScore":{"value":1.0}}],"evaluatedResource":[{"reference":"Patient/75a5223a-3a62-418a-bcc6-4522cfe71726"},{"reference":"Encounter/c3bf6144-3d36-4339-a8a6-88d7cdc10dc0"},{"reference":"Observation/8703ffa2-6fa2-45fe-b938-1ab256deaad6"},{"reference":"MedicationRequest/40bc32eb-cdc5-4495-a323-de5bceaf7743"},{"reference":"Coverage/7cf5f047-823c-4742-8dea-7432b16957ff"},{"reference":"Organization/714eae6a-b897-4a73-b80d-f7aea91272a0"},{"reference":"Practitioner/586ff6a2-a9b4-4f69-9aae-16bc5f76d9fb"}]},"request":{"method":"PUT","url":"MeasureReport/2703d5b6-dd3b-431f-9a87-659fd95f38f6"}},{"resource":{"resourceType":"Practitioner","id":"586ff6a2-a9b4-4f69-9aae-16bc5f76d9fb","meta":{"profile":["http://hl7.org/fhir/us/qicore/StructureDefinition/qicore-practitioner"]},"identifier":[{"system":"http://hl7.org/fhir/sid/us-npi","value":"1234567893"}],"name":[{"family":"Evil","prefix":["Dr"]}]},"request":{"method":"PUT","url":"Practitioner/586ff6a2-a9b4-4f69-9aae-16bc5f76d9fb"}},{"resource":{"resourceType":"Observation","id":"8703ffa2-6fa2-45fe-b938-1ab256deaad6","meta":{"profile":["http://hl7.org/fhir/us/qicore/StructureDefinition/qicore-observation-screening-assessment"]},"status":"final","category":[{"coding":[{"system":"http://terminology.hl7.org/CodeSystem/observation-category","code":"procedure","display":"Procedure"}]},{"coding":[{"system":"http://terminology.hl7.org/CodeSystem/observation-category","code":"survey","display":"Survey"}]}],"code":{"coding":[{"system":"http://loinc.org","code":"73832-8","display":"Adult depression screening assessment","userSelected":true}]},"subject":{"reference":"Patient/75a5223a-3a62-418a-bcc6-4522cfe71726"},"effectiveDateTime":"2026-06-15T08:00:00Z","valueCodeableConcept":{"coding":[{"system":"http://snomed.info/sct","code":"428181000124104","display":"Depression screening positive (finding)","userSelected":true}]}},"request":{"method":"PUT","url":"Observation/8703ffa2-6fa2-45fe-b938-1ab256deaad6"}},{"resource":{"resourceType":"Encounter","id":"c3bf6144-3d36-4339-a8a6-88d7cdc10dc0","meta":{"profile":["http://hl7.org/fhir/us/qicore/StructureDefinition/qicore-encounter"]},"status":"finished","class":{"system":"http://terminology.hl7.org/CodeSystem/v3-ActCode","code":"AMB","display":"ambulatory"},"type":[{"coding":[{"system":"http://snomed.info/sct","code":"10197000","display":"Psychiatric interview and evaluation (procedure)","userSelected":true}]}],"subject":{"reference":"Patient/75a5223a-3a62-418a-bcc6-4522cfe71726"},"period":{"start":"2026-06-21T08:00:00Z","end":"2026-06-21T08:15:00Z"}},"request":{"method":"PUT","url":"Encounter/c3bf6144-3d36-4339-a8a6-88d7cdc10dc0"}},{"resource":{"resourceType":"Bundle","id":"62f684febc6a474306a95b43","type":"transaction","entry":[{"fullUrl":"https://madie.cms.gov/Patient/75a5223a-3a62-418a-bcc6-4522cfe71726","resource":{"resourceType":"Patient","id":"75a5223a-3a62-418a-bcc6-4522cfe71726","meta":{"profile":["http://hl7.org/fhir/us/qicore/StructureDefinition/qicore-patient"]},"extension":[{"url":"http://hl7.org/fhir/us/core/StructureDefinition/us-core-race","extension":[{"url":"ombCategory","valueCoding":{"system":"urn:oid:2.16.840.1.113883.6.238","code":"1002-5","display":"American Indian or Alaska Native","userSelected":true}},{"url":"text","valueString":"American Indian or Alaska Native"}]},{"url":"http://hl7.org/fhir/us/core/StructureDefinition/us-core-ethnicity","extension":[{"url":"ombCategory","valueCoding":{"system":"urn:oid:2.16.840.1.113883.6.238","code":"2135-2","display":"Hispanic or Latino","userSelected":true}},{"url":"text","valueString":"Hispanic or Latino"}]}],"identifier":[{"type":{"coding":[{"system":"http://terminology.hl7.org/CodeSystem/v2-0203","code":"MR"}]},"system":"https://bonnie-fhir.healthit.gov/","value":"62f684febc6a474306a95b43"}],"name":[{"family":"NUMERPass","given":["PosAdultDepScreenandFUWI2DAfterEndOfEnc"]}],"gender":"male","birthDate":"2008-01-01"},"request":{"method":"PUT","url":"Patient/75a5223a-3a62-418a-bcc6-4522cfe71726"}},{"fullUrl":"https://madie.cms.gov/Encounter/c3bf6144-3d36-4339-a8a6-88d7cdc10dc0","resource":{"resourceType":"Encounter","id":"c3bf6144-3d36-4339-a8a6-88d7cdc10dc0","meta":{"profile":["http://hl7.org/fhir/us/qicore/StructureDefinition/qicore-encounter"]},"status":"finished","class":{"system":"http://terminology.hl7.org/CodeSystem/v3-ActCode","code":"AMB","display":"ambulatory"},"type":[{"coding":[{"system":"http://snomed.info/sct","code":"10197000","display":"Psychiatric interview and evaluation (procedure)","userSelected":true}]}],"subject":{"reference":"Patient/75a5223a-3a62-418a-bcc6-4522cfe71726"},"period":{"start":"2026-06-21T08:00:00Z","end":"2026-06-21T08:15:00Z"}},"request":{"method":"PUT","url":"Encounter/c3bf6144-3d36-4339-a8a6-88d7cdc10dc0"}},{"fullUrl":"https://madie.cms.gov/Observation/8703ffa2-6fa2-45fe-b938-1ab256deaad6","resource":{"resourceType":"Observation","id":"8703ffa2-6fa2-45fe-b938-1ab256deaad6","meta":{"profile":["http://hl7.org/fhir/us/qicore/StructureDefinition/qicore-observation-screening-assessment"]},"status":"final","category":[{"coding":[{"system":"http://terminology.hl7.org/CodeSystem/observation-category","code":"procedure","display":"Procedure"}]},{"coding":[{"system":"http://terminology.hl7.org/CodeSystem/observation-category","code":"survey","display":"Survey"}]}],"code":{"coding":[{"system":"http://loinc.org","code":"73832-8","display":"Adult depression screening assessment","userSelected":true}]},"subject":{"reference":"Patient/75a5223a-3a62-418a-bcc6-4522cfe71726"},"effectiveDateTime":"2026-06-15T08:00:00Z","valueCodeableConcept":{"coding":[{"system":"http://snomed.info/sct","code":"428181000124104","display":"Depression screening positive (finding)","userSelected":true}]}},"request":{"method":"PUT","url":"Observation/8703ffa2-6fa2-45fe-b938-1ab256deaad6"}},{"fullUrl":"https://madie.cms.gov/MedicationRequest/40bc32eb-cdc5-4495-a323-de5bceaf7743","resource":{"resourceType":"MedicationRequest","id":"40bc32eb-cdc5-4495-a323-de5bceaf7743","meta":{"profile":["http://hl7.org/fhir/us/qicore/StructureDefinition/qicore-medicationrequest"]},"status":"active","intent":"order","doNotPerform":false,"medicationCodeableConcept":{"coding":[{"system":"http://www.nlm.nih.gov/research/umls/rxnorm","code":"1000048","display":"doxepin 10 MG Oral Capsule","userSelected":true}]},"subject":{"reference":"Patient/75a5223a-3a62-418a-bcc6-4522cfe71726"},"authoredOn":"2026-06-21T08:00:00Z","requester":{"reference":"Practitioner/123456"},"dispenseRequest":{"expectedSupplyDuration":{"value":30,"system":"http://unitsofmeasure.org","code":"days"}}},"request":{"method":"PUT","url":"MedicationRequest/40bc32eb-cdc5-4495-a323-de5bceaf7743"}},{"fullUrl":"https://madie.cms.gov/Coverage/7cf5f047-823c-4742-8dea-7432b16957ff","resource":{"resourceType":"Coverage","id":"7cf5f047-823c-4742-8dea-7432b16957ff","meta":{"profile":["http://hl7.org/fhir/us/qicore/StructureDefinition/qicore-coverage"]},"status":"active","subscriberId":"123456789","beneficiary":{"reference":"Patient/75a5223a-3a62-418a-bcc6-4522cfe71726"},"relationship":{"coding":[{"system":"http://terminology.hl7.org/CodeSystem/subscriber-relationship","code":"self","display":"Self","userSelected":true}]},"payor":[{"reference":"Organization/714eae6a-b897-4a73-b80d-f7aea91272a0"}]},"request":{"method":"PUT","url":"Coverage/7cf5f047-823c-4742-8dea-7432b16957ff"}},{"fullUrl":"https://madie.cms.gov/Organization/714eae6a-b897-4a73-b80d-f7aea91272a0","resource":{"resourceType":"Organization","id":"714eae6a-b897-4a73-b80d-f7aea91272a0","meta":{"profile":["http://hl7.org/fhir/us/qicore/StructureDefinition/qicore-organization"]},"identifier":[{"use":"temp","system":"urn:oid:2.16.840.1.113883.4.4","value":"21-3259825"}],"active":true,"type":[{"coding":[{"system":"http://terminology.hl7.org/CodeSystem/organization-type","code":"pay","display":"Payer"}]}],"name":"Blue Cross Blue Shield of Texas","telecom":[{"system":"phone","value":"(+1) 972-766-6900"}],"address":[{"use":"billing","type":"postal","line":["P.O. Box 660044"],"city":"Dallas","state":"TX","postalCode":"75266-0044","country":"USA"}]},"request":{"method":"PUT","url":"Organization/714eae6a-b897-4a73-b80d-f7aea91272a0"}},{"fullUrl":"https://madie.cms.gov/Practitioner/586ff6a2-a9b4-4f69-9aae-16bc5f76d9fb","resource":{"resourceType":"Practitioner","id":"586ff6a2-a9b4-4f69-9aae-16bc5f76d9fb","meta":{"profile":["http://hl7.org/fhir/us/qicore/StructureDefinition/qicore-practitioner"]},"identifier":[{"system":"http://hl7.org/fhir/sid/us-npi","value":"1234567893"}],"name":[{"family":"Evil","prefix":["Dr"]}]},"request":{"method":"PUT","url":"Practitioner/586ff6a2-a9b4-4f69-9aae-16bc5f76d9fb"}},{"fullUrl":"https://madie.cms.gov/MeasureReport/2703d5b6-dd3b-431f-9a87-659fd95f38f6","resource":{"resourceType":"MeasureReport","id":"2703d5b6-dd3b-431f-9a87-659fd95f38f6","meta":{"profile":["http://hl7.org/fhir/us/cqfmeasures/StructureDefinition/test-case-cqfm"]},"contained":[{"resourceType":"Parameters","id":"8d12f697-0e90-48af-98a8-4038b8f49208-parameters","parameter":[{"name":"subject","valueString":"75a5223a-3a62-418a-bcc6-4522cfe71726"}]}],"extension":[{"url":"http://hl7.org/fhir/StructureDefinition/cqf-inputParameters","valueReference":{"reference":"#8d12f697-0e90-48af-98a8-4038b8f49208-parameters"}},{"url":"http://hl7.org/fhir/us/cqfmeasures/StructureDefinition/cqfm-testCaseDescription","valueMarkdown":"Adult with previous positive adult depression screening and medication request follow up within 2 days after end of encounter"}],"modifierExtension":[{"url":"http://hl7.org/fhir/us/cqfmeasures/StructureDefinition/cqfm-isTestCase","valueBoolean":true}],"status":"complete","type":"individual","measure":"https://madie.cms.gov/Measure/CMS2FHIRPCSDepressionScreenAndFollowUp","period":{"start":"2026-01-01","end":"2026-12-31"},"group":[{"id":"Group_1","population":[{"id":"InitialPopulation_1","code":{"coding":[{"system":"http://terminology.hl7.org/CodeSystem/measure-population","code":"initial-population","display":"Initial Population"}]},"count":1},{"id":"Denominator_1","code":{"coding":[{"system":"http://terminology.hl7.org/CodeSystem/measure-population","code":"denominator","display":"Denominator"}]},"count":1},{"id":"DenominatorExclusion_1","code":{"coding":[{"system":"http://terminology.hl7.org/CodeSystem/measure-population","code":"denominator-exclusion","display":"Denominator Exclusion"}]},"count":0},{"id":"Numerator_1","code":{"coding":[{"system":"http://terminology.hl7.org/CodeSystem/measure-population","code":"numerator","display":"Numerator"}]},"count":1},{"id":"DenominatorException_1","code":{"coding":[{"system":"http://terminology.hl7.org/CodeSystem/measure-population","code":"denominator-exception","display":"Denominator Exception"}]},"count":0}],"measureScore":{"value":1.0}}],"evaluatedResource":[{"reference":"Patient/75a5223a-3a62-418a-bcc6-4522cfe71726"},{"reference":"Encounter/c3bf6144-3d36-4339-a8a6-88d7cdc10dc0"},{"reference":"Observation/8703ffa2-6fa2-45fe-b938-1ab256deaad6"},{"reference":"MedicationRequest/40bc32eb-cdc5-4495-a323-de5bceaf7743"},{"reference":"Coverage/7cf5f047-823c-4742-8dea-7432b16957ff"},{"reference":"Organization/714eae6a-b897-4a73-b80d-f7aea91272a0"},{"reference":"Practitioner/586ff6a2-a9b4-4f69-9aae-16bc5f76d9fb"}]},"request":{"method":"PUT","url":"MeasureReport/2703d5b6-dd3b-431f-9a87-659fd95f38f6"}}]},"request":{"method":"PUT","url":"Bundle/62f684febc6a474306a95b43"}}]}