{"resourceType":"Bundle","id":"tests-25c753a7-b6b4-4335-bd7c-05b68b0324a4-bundle","type":"transaction","entry":[{"resource":{"resourceType":"Claim","id":"bf537035-622a-44e4-b7f3-7cc4fa510e78","meta":{"profile":["http://hl7.org/fhir/us/qicore/StructureDefinition/qicore-claim"]},"status":"active","type":{"coding":[{"system":"http://terminology.hl7.org/CodeSystem/claim-type","code":"institutional","display":"Institutional"}]},"use":"claim","patient":{"reference":"Patient/25c753a7-b6b4-4335-bd7c-05b68b0324a4"},"created":"2026-10-22","priority":{"coding":[{"system":"http://terminology.hl7.org/CodeSystem/processpriority","code":"normal"}]},"diagnosis":[{"sequence":1,"diagnosisCodeableConcept":{"coding":[{"system":"http://snomed.info/sct","code":"14047009"}]}}],"item":[{"sequence":1,"diagnosisSequence":[1,2],"encounter":[{"reference":"Encounter/891d5a3a-9c91-4bc3-8172-6f751c0c1363"}]}]},"request":{"method":"PUT","url":"Claim/bf537035-622a-44e4-b7f3-7cc4fa510e78"}},{"resource":{"resourceType":"MeasureReport","id":"257656ae-523f-4f03-8b5f-8294b0332588","meta":{"profile":["http://hl7.org/fhir/us/cqfmeasures/StructureDefinition/test-case-cqfm"]},"contained":[{"resourceType":"Parameters","id":"cce6ad8a-0ea8-4796-b9a5-c0b75bc1f5ad-parameters","parameter":[{"name":"subject","valueString":"25c753a7-b6b4-4335-bd7c-05b68b0324a4"}]}],"extension":[{"url":"http://hl7.org/fhir/StructureDefinition/cqf-inputParameters","valueReference":{"reference":"#cce6ad8a-0ea8-4796-b9a5-c0b75bc1f5ad-parameters"}},{"url":"http://hl7.org/fhir/us/cqfmeasures/StructureDefinition/cqfm-testCaseDescription","valueMarkdown":"RVariable Encounter With Anticoagulant Plan At Admission"}],"modifierExtension":[{"url":"http://hl7.org/fhir/us/cqfmeasures/StructureDefinition/cqfm-isTestCase","valueBoolean":true}],"status":"complete","type":"individual","measure":"https://madie.cms.gov/Measure/CMS1017FHIRHHFI","period":{"start":"2026-01-01","end":"2026-12-31"},"group":[{"id":"Group_1","population":[{"id":"InitialPopulation_1","code":{"coding":[{"system":"http://terminology.hl7.org/CodeSystem/measure-population","code":"initial-population","display":"Initial Population"}]},"count":1},{"id":"Denominator_1","code":{"coding":[{"system":"http://terminology.hl7.org/CodeSystem/measure-population","code":"denominator","display":"Denominator"}]},"count":1},{"id":"DenominatorExclusion_1","code":{"coding":[{"system":"http://terminology.hl7.org/CodeSystem/measure-population","code":"denominator-exclusion","display":"Denominator Exclusion"}]},"count":0},{"id":"Numerator_1","code":{"coding":[{"system":"http://terminology.hl7.org/CodeSystem/measure-population","code":"numerator","display":"Numerator"}]},"count":1},{"id":"NumeratorExclusion_1","code":{"coding":[{"system":"http://terminology.hl7.org/CodeSystem/measure-population","code":"numerator-exclusion","display":"Numerator Exclusion"}]},"count":0},{"id":"MeasureObservation_1_1_1","code":{"coding":[{"system":"http://terminology.hl7.org/CodeSystem/measure-population","code":"measure-observation","display":"Measure Observation"}]},"count":2},{"id":"MeasureObservation_1_2_1","code":{"coding":[{"system":"http://terminology.hl7.org/CodeSystem/measure-population","code":"measure-observation","display":"Measure Observation"}]},"count":1}],"measureScore":{"value":0.0}}],"evaluatedResource":[{"reference":"Encounter/891d5a3a-9c91-4bc3-8172-6f751c0c1363"},{"reference":"Encounter/e1aa0d0c-bab5-43be-bad2-8bde8b531ee9"},{"reference":"Patient/25c753a7-b6b4-4335-bd7c-05b68b0324a4"},{"reference":"Claim/bf537035-622a-44e4-b7f3-7cc4fa510e78"},{"reference":"Claim/80c3c4cb-296f-4ed7-8682-9c974466ef2a"},{"reference":"MedicationRequest/c57eb59b-2ecf-430a-8c2c-febeaded6240"},{"reference":"Observation/94c82fd8-a99b-4125-95d7-6f011964ffed"}]},"request":{"method":"PUT","url":"MeasureReport/257656ae-523f-4f03-8b5f-8294b0332588"}},{"resource":{"resourceType":"Bundle","id":"tests-NumerPass-RVwithAnticoagulantPlanAtAdmission-bundle","type":"transaction","entry":[{"fullUrl":"https://madie.cms.gov/Encounter/891d5a3a-9c91-4bc3-8172-6f751c0c1363","resource":{"resourceType":"Encounter","id":"891d5a3a-9c91-4bc3-8172-6f751c0c1363","meta":{"profile":["http://hl7.org/fhir/us/qicore/StructureDefinition/qicore-encounter"]},"status":"finished","class":{"system":"http://terminology.hl7.org/CodeSystem/v3-ActCode","code":"IMP","display":"inpatient encounter"},"type":[{"coding":[{"system":"http://snomed.info/sct","code":"183452005","display":"Inpatient encounter"}]}],"subject":{"reference":"Patient/25c753a7-b6b4-4335-bd7c-05b68b0324a4"},"period":{"start":"2026-10-19T08:30:00.000+00:00","end":"2026-10-21T08:15:00.000+00:00"},"reasonCode":[{"coding":[{"system":"http://snomed.info/sct","code":"14047009"}]},{"coding":[{"system":"http://snomed.info/sct","code":"64859006"}]}]},"request":{"method":"PUT","url":"Encounter/891d5a3a-9c91-4bc3-8172-6f751c0c1363"}},{"fullUrl":"https://madie.cms.gov/Encounter/e1aa0d0c-bab5-43be-bad2-8bde8b531ee9","resource":{"resourceType":"Encounter","id":"e1aa0d0c-bab5-43be-bad2-8bde8b531ee9","meta":{"profile":["http://hl7.org/fhir/us/qicore/StructureDefinition/qicore-encounter"]},"status":"finished","class":{"system":"http://terminology.hl7.org/CodeSystem/v3-ActCode","code":"EMER","display":"emergency encounter"},"type":[{"coding":[{"system":"http://snomed.info/sct","code":"4525004","display":"Emergency Department Visit"}]}],"subject":{"reference":"Patient/25c753a7-b6b4-4335-bd7c-05b68b0324a4"},"period":{"start":"2026-10-18T09:15:00.000+00:00","end":"2026-10-19T08:15:00.000+00:00"}},"request":{"method":"PUT","url":"Encounter/e1aa0d0c-bab5-43be-bad2-8bde8b531ee9"}},{"fullUrl":"https://madie.cms.gov/Patient/25c753a7-b6b4-4335-bd7c-05b68b0324a4","resource":{"resourceType":"Patient","id":"25c753a7-b6b4-4335-bd7c-05b68b0324a4","meta":{"profile":["http://hl7.org/fhir/us/qicore/StructureDefinition/qicore-patient"]},"extension":[{"url":"http://hl7.org/fhir/us/core/StructureDefinition/us-core-race","extension":[{"url":"ombCategory","valueCoding":{"system":"urn:oid:2.16.840.1.113883.6.238","code":"2106-3","display":"White"}},{"url":"text","valueString":"White"}]},{"url":"http://hl7.org/fhir/us/core/StructureDefinition/us-core-ethnicity","extension":[{"url":"ombCategory","valueCoding":{"system":"urn:oid:2.16.840.1.113883.6.238","code":"2135-2","display":"Hispanic or Latino"}},{"url":"text","valueString":"Hispanic or Latino"}]},{"url":"http://hl7.org/fhir/us/core/StructureDefinition/us-core-sex","valueCode":"248153007"}],"identifier":[{"system":"http://hospital.smarthealthit.org","value":"999999999"}],"name":[{"family":"Example","given":["Patient"]}],"gender":"female","birthDate":"1956-01-01"},"request":{"method":"PUT","url":"Patient/25c753a7-b6b4-4335-bd7c-05b68b0324a4"}},{"fullUrl":"https://madie.cms.gov/Claim/bf537035-622a-44e4-b7f3-7cc4fa510e78","resource":{"resourceType":"Claim","id":"bf537035-622a-44e4-b7f3-7cc4fa510e78","meta":{"profile":["http://hl7.org/fhir/us/qicore/StructureDefinition/qicore-claim"]},"status":"active","type":{"coding":[{"system":"http://terminology.hl7.org/CodeSystem/claim-type","code":"institutional","display":"Institutional"}]},"use":"claim","patient":{"reference":"Patient/25c753a7-b6b4-4335-bd7c-05b68b0324a4"},"created":"2026-10-22","priority":{"coding":[{"system":"http://terminology.hl7.org/CodeSystem/processpriority","code":"normal"}]},"diagnosis":[{"sequence":1,"diagnosisCodeableConcept":{"coding":[{"system":"http://snomed.info/sct","code":"14047009"}]}}],"item":[{"sequence":1,"diagnosisSequence":[1,2],"encounter":[{"reference":"Encounter/891d5a3a-9c91-4bc3-8172-6f751c0c1363"}]}]},"request":{"method":"PUT","url":"Claim/bf537035-622a-44e4-b7f3-7cc4fa510e78"}},{"fullUrl":"https://madie.cms.gov/Claim/80c3c4cb-296f-4ed7-8682-9c974466ef2a","resource":{"resourceType":"Claim","id":"80c3c4cb-296f-4ed7-8682-9c974466ef2a","meta":{"profile":["http://hl7.org/fhir/us/qicore/StructureDefinition/qicore-claim"]},"status":"active","type":{"coding":[{"system":"http://terminology.hl7.org/CodeSystem/claim-type","code":"institutional","display":"Institutional"}]},"use":"claim","patient":{"reference":"Patient/25c753a7-b6b4-4335-bd7c-05b68b0324a4"},"created":"2026-11-01","provider":{"reference":"Organization/Organization-1"},"priority":{"coding":[{"system":"http://terminology.hl7.org/CodeSystem/processpriority","code":"normal"}]},"diagnosis":[{"sequence":1,"diagnosisCodeableConcept":{"coding":[{"system":"http://hl7.org/fhir/sid/icd-10-cm","code":"M80.00XA","display":"Age-related osteoporosis with current pathological fracture, unspecified site, initial encounter for fracture"}]}}],"item":[{"sequence":1,"diagnosisSequence":[1,2],"encounter":[{"reference":"Encounter/891d5a3a-9c91-4bc3-8172-6f751c0c1363"}]}]},"request":{"method":"PUT","url":"Claim/80c3c4cb-296f-4ed7-8682-9c974466ef2a"}},{"fullUrl":"https://madie.cms.gov/MedicationRequest/c57eb59b-2ecf-430a-8c2c-febeaded6240","resource":{"resourceType":"MedicationRequest","id":"c57eb59b-2ecf-430a-8c2c-febeaded6240","meta":{"profile":["http://hl7.org/fhir/us/qicore/StructureDefinition/qicore-medicationrequest"]},"status":"active","intent":"plan","category":[{"coding":[{"system":"http://terminology.hl7.org/CodeSystem/medicationrequest-category","code":"community","display":"Community"}]}],"reportedReference":{"reference":"Patient/25c753a7-b6b4-4335-bd7c-05b68b0324a4"},"medicationCodeableConcept":{"coding":[{"system":"http://www.nlm.nih.gov/research/umls/rxnorm","code":"1364435","display":"apixaban 2.5 mg oral tablet"}]},"subject":{"reference":"Patient/25c753a7-b6b4-4335-bd7c-05b68b0324a4"},"authoredOn":"2026-10-15","requester":{"reference":"Practitioner/Practitioner-1"},"dispenseRequest":{"quantity":{"value":14,"unit":"tablet","system":"http://unitsofmeasure.org","code":"{tablet}"},"expectedSupplyDuration":{"value":14,"unit":"days","system":"http://unitsofmeasure.org","code":"d"}}},"request":{"method":"PUT","url":"MedicationRequest/c57eb59b-2ecf-430a-8c2c-febeaded6240"}},{"fullUrl":"https://madie.cms.gov/Observation/94c82fd8-a99b-4125-95d7-6f011964ffed","resource":{"resourceType":"Observation","id":"94c82fd8-a99b-4125-95d7-6f011964ffed","meta":{"profile":["http://hl7.org/fhir/us/core/StructureDefinition/us-core-bmi"]},"status":"final","category":[{"coding":[{"system":"http://terminology.hl7.org/CodeSystem/observation-category","code":"vital-signs","display":"Vital Signs"}]}],"code":{"coding":[{"system":"http://loinc.org","code":"39156-5","display":"Body mass index (BMI) [Ratio]"}],"text":"BMI"},"subject":{"reference":"Patient/25c753a7-b6b4-4335-bd7c-05b68b0324a4"},"effectiveDateTime":"2026-10-20T08:00:00.000+00:00","valueQuantity":{"value":28.3,"unit":"kg/m2","system":"http://unitsofmeasure.org","code":"kg/m2"}},"request":{"method":"PUT","url":"Observation/94c82fd8-a99b-4125-95d7-6f011964ffed"}},{"fullUrl":"https://madie.cms.gov/MeasureReport/257656ae-523f-4f03-8b5f-8294b0332588","resource":{"resourceType":"MeasureReport","id":"257656ae-523f-4f03-8b5f-8294b0332588","meta":{"profile":["http://hl7.org/fhir/us/cqfmeasures/StructureDefinition/test-case-cqfm"]},"contained":[{"resourceType":"Parameters","id":"cce6ad8a-0ea8-4796-b9a5-c0b75bc1f5ad-parameters","parameter":[{"name":"subject","valueString":"25c753a7-b6b4-4335-bd7c-05b68b0324a4"}]}],"extension":[{"url":"http://hl7.org/fhir/StructureDefinition/cqf-inputParameters","valueReference":{"reference":"#cce6ad8a-0ea8-4796-b9a5-c0b75bc1f5ad-parameters"}},{"url":"http://hl7.org/fhir/us/cqfmeasures/StructureDefinition/cqfm-testCaseDescription","valueMarkdown":"RVariable Encounter With Anticoagulant Plan At Admission"}],"modifierExtension":[{"url":"http://hl7.org/fhir/us/cqfmeasures/StructureDefinition/cqfm-isTestCase","valueBoolean":true}],"status":"complete","type":"individual","measure":"https://madie.cms.gov/Measure/CMS1017FHIRHHFI","period":{"start":"2026-01-01","end":"2026-12-31"},"group":[{"id":"Group_1","population":[{"id":"InitialPopulation_1","code":{"coding":[{"system":"http://terminology.hl7.org/CodeSystem/measure-population","code":"initial-population","display":"Initial Population"}]},"count":1},{"id":"Denominator_1","code":{"coding":[{"system":"http://terminology.hl7.org/CodeSystem/measure-population","code":"denominator","display":"Denominator"}]},"count":1},{"id":"DenominatorExclusion_1","code":{"coding":[{"system":"http://terminology.hl7.org/CodeSystem/measure-population","code":"denominator-exclusion","display":"Denominator Exclusion"}]},"count":0},{"id":"Numerator_1","code":{"coding":[{"system":"http://terminology.hl7.org/CodeSystem/measure-population","code":"numerator","display":"Numerator"}]},"count":1},{"id":"NumeratorExclusion_1","code":{"coding":[{"system":"http://terminology.hl7.org/CodeSystem/measure-population","code":"numerator-exclusion","display":"Numerator Exclusion"}]},"count":0},{"id":"MeasureObservation_1_1_1","code":{"coding":[{"system":"http://terminology.hl7.org/CodeSystem/measure-population","code":"measure-observation","display":"Measure Observation"}]},"count":2},{"id":"MeasureObservation_1_2_1","code":{"coding":[{"system":"http://terminology.hl7.org/CodeSystem/measure-population","code":"measure-observation","display":"Measure Observation"}]},"count":1}],"measureScore":{"value":0.0}}],"evaluatedResource":[{"reference":"Encounter/891d5a3a-9c91-4bc3-8172-6f751c0c1363"},{"reference":"Encounter/e1aa0d0c-bab5-43be-bad2-8bde8b531ee9"},{"reference":"Patient/25c753a7-b6b4-4335-bd7c-05b68b0324a4"},{"reference":"Claim/bf537035-622a-44e4-b7f3-7cc4fa510e78"},{"reference":"Claim/80c3c4cb-296f-4ed7-8682-9c974466ef2a"},{"reference":"MedicationRequest/c57eb59b-2ecf-430a-8c2c-febeaded6240"},{"reference":"Observation/94c82fd8-a99b-4125-95d7-6f011964ffed"}]},"request":{"method":"PUT","url":"MeasureReport/257656ae-523f-4f03-8b5f-8294b0332588"}}]},"request":{"method":"PUT","url":"Bundle/tests-NumerPass-RVwithAnticoagulantPlanAtAdmission-bundle"}},{"resource":{"resourceType":"MedicationRequest","id":"c57eb59b-2ecf-430a-8c2c-febeaded6240","meta":{"profile":["http://hl7.org/fhir/us/qicore/StructureDefinition/qicore-medicationrequest"]},"status":"active","intent":"plan","category":[{"coding":[{"system":"http://terminology.hl7.org/CodeSystem/medicationrequest-category","code":"community","display":"Community"}]}],"reportedReference":{"reference":"Patient/25c753a7-b6b4-4335-bd7c-05b68b0324a4"},"medicationCodeableConcept":{"coding":[{"system":"http://www.nlm.nih.gov/research/umls/rxnorm","code":"1364435","display":"apixaban 2.5 mg oral tablet"}]},"subject":{"reference":"Patient/25c753a7-b6b4-4335-bd7c-05b68b0324a4"},"authoredOn":"2026-10-15","requester":{"reference":"Practitioner/Practitioner-1"},"dispenseRequest":{"quantity":{"value":14,"unit":"tablet","system":"http://unitsofmeasure.org","code":"{tablet}"},"expectedSupplyDuration":{"value":14,"unit":"days","system":"http://unitsofmeasure.org","code":"d"}}},"request":{"method":"PUT","url":"MedicationRequest/c57eb59b-2ecf-430a-8c2c-febeaded6240"}},{"resource":{"resourceType":"Observation","id":"94c82fd8-a99b-4125-95d7-6f011964ffed","meta":{"profile":["http://hl7.org/fhir/us/core/StructureDefinition/us-core-bmi"]},"status":"final","category":[{"coding":[{"system":"http://terminology.hl7.org/CodeSystem/observation-category","code":"vital-signs","display":"Vital Signs"}]}],"code":{"coding":[{"system":"http://loinc.org","code":"39156-5","display":"Body mass index (BMI) [Ratio]"}],"text":"BMI"},"subject":{"reference":"Patient/25c753a7-b6b4-4335-bd7c-05b68b0324a4"},"effectiveDateTime":"2026-10-20T08:00:00.000+00:00","valueQuantity":{"value":28.3,"unit":"kg/m2","system":"http://unitsofmeasure.org","code":"kg/m2"}},"request":{"method":"PUT","url":"Observation/94c82fd8-a99b-4125-95d7-6f011964ffed"}},{"resource":{"resourceType":"Encounter","id":"e1aa0d0c-bab5-43be-bad2-8bde8b531ee9","meta":{"profile":["http://hl7.org/fhir/us/qicore/StructureDefinition/qicore-encounter"]},"status":"finished","class":{"system":"http://terminology.hl7.org/CodeSystem/v3-ActCode","code":"EMER","display":"emergency encounter"},"type":[{"coding":[{"system":"http://snomed.info/sct","code":"4525004","display":"Emergency Department Visit"}]}],"subject":{"reference":"Patient/25c753a7-b6b4-4335-bd7c-05b68b0324a4"},"period":{"start":"2026-10-18T09:15:00.000+00:00","end":"2026-10-19T08:15:00.000+00:00"}},"request":{"method":"PUT","url":"Encounter/e1aa0d0c-bab5-43be-bad2-8bde8b531ee9"}},{"resource":{"resourceType":"Patient","id":"25c753a7-b6b4-4335-bd7c-05b68b0324a4","meta":{"profile":["http://hl7.org/fhir/us/qicore/StructureDefinition/qicore-patient"]},"extension":[{"url":"http://hl7.org/fhir/us/core/StructureDefinition/us-core-race","extension":[{"url":"ombCategory","valueCoding":{"system":"urn:oid:2.16.840.1.113883.6.238","code":"2106-3","display":"White"}},{"url":"text","valueString":"White"}]},{"url":"http://hl7.org/fhir/us/core/StructureDefinition/us-core-ethnicity","extension":[{"url":"ombCategory","valueCoding":{"system":"urn:oid:2.16.840.1.113883.6.238","code":"2135-2","display":"Hispanic or Latino"}},{"url":"text","valueString":"Hispanic or Latino"}]},{"url":"http://hl7.org/fhir/us/core/StructureDefinition/us-core-sex","valueCode":"248153007"}],"identifier":[{"system":"http://hospital.smarthealthit.org","value":"999999999"}],"name":[{"family":"Example","given":["Patient"]}],"gender":"female","birthDate":"1956-01-01"},"request":{"method":"PUT","url":"Patient/25c753a7-b6b4-4335-bd7c-05b68b0324a4"}},{"resource":{"resourceType":"Encounter","id":"891d5a3a-9c91-4bc3-8172-6f751c0c1363","meta":{"profile":["http://hl7.org/fhir/us/qicore/StructureDefinition/qicore-encounter"]},"status":"finished","class":{"system":"http://terminology.hl7.org/CodeSystem/v3-ActCode","code":"IMP","display":"inpatient encounter"},"type":[{"coding":[{"system":"http://snomed.info/sct","code":"183452005","display":"Inpatient encounter"}]}],"subject":{"reference":"Patient/25c753a7-b6b4-4335-bd7c-05b68b0324a4"},"period":{"start":"2026-10-19T08:30:00.000+00:00","end":"2026-10-21T08:15:00.000+00:00"},"reasonCode":[{"coding":[{"system":"http://snomed.info/sct","code":"14047009"}]},{"coding":[{"system":"http://snomed.info/sct","code":"64859006"}]}]},"request":{"method":"PUT","url":"Encounter/891d5a3a-9c91-4bc3-8172-6f751c0c1363"}},{"resource":{"resourceType":"Claim","id":"80c3c4cb-296f-4ed7-8682-9c974466ef2a","meta":{"profile":["http://hl7.org/fhir/us/qicore/StructureDefinition/qicore-claim"]},"status":"active","type":{"coding":[{"system":"http://terminology.hl7.org/CodeSystem/claim-type","code":"institutional","display":"Institutional"}]},"use":"claim","patient":{"reference":"Patient/25c753a7-b6b4-4335-bd7c-05b68b0324a4"},"created":"2026-11-01","provider":{"reference":"Organization/Organization-1"},"priority":{"coding":[{"system":"http://terminology.hl7.org/CodeSystem/processpriority","code":"normal"}]},"diagnosis":[{"sequence":1,"diagnosisCodeableConcept":{"coding":[{"system":"http://hl7.org/fhir/sid/icd-10-cm","code":"M80.00XA","display":"Age-related osteoporosis with current pathological fracture, unspecified site, initial encounter for fracture"}]}}],"item":[{"sequence":1,"diagnosisSequence":[1,2],"encounter":[{"reference":"Encounter/891d5a3a-9c91-4bc3-8172-6f751c0c1363"}]}]},"request":{"method":"PUT","url":"Claim/80c3c4cb-296f-4ed7-8682-9c974466ef2a"}}]}