{"resourceType":"Bundle","id":"tests-1e2ddc95-76d4-4be7-8273-2b35371a727b-bundle","type":"transaction","entry":[{"resource":{"resourceType":"Encounter","id":"cb538fc2-931e-44a6-aae7-fbcd3885e716","meta":{"profile":["http://hl7.org/fhir/us/qicore/StructureDefinition/qicore-encounter"]},"status":"finished","class":{"system":"http://terminology.hl7.org/CodeSystem/v3-ActCode","code":"IMP","display":"inpatient encounter"},"type":[{"coding":[{"system":"http://snomed.info/sct","code":"183452005","display":"Emergency hospital admission"}]}],"subject":{"reference":"Patient/1e2ddc95-76d4-4be7-8273-2b35371a727b"},"period":{"start":"2026-11-12T08:00:00.000+00:00","end":"2026-11-18T08:01:00.000+00:00"},"diagnosis":[{"extension":[{"url":"http://hl7.org/fhir/us/qicore/StructureDefinition/qicore-encounter-diagnosisPresentOnAdmission","valueCodeableConcept":{"coding":[{"system":"https://www.cms.gov/Medicare/Medicare-Fee-for-Service-Payment/HospitalAcqCond/Coding","code":"Y"}]}}],"condition":{"reference":"Condition/21ea3cba-7c56-449b-b6bf-2c267ac0f13c"}}]},"request":{"method":"PUT","url":"Encounter/cb538fc2-931e-44a6-aae7-fbcd3885e716"}},{"resource":{"resourceType":"Patient","id":"1e2ddc95-76d4-4be7-8273-2b35371a727b","meta":{"profile":["http://hl7.org/fhir/us/qicore/StructureDefinition/qicore-patient"]},"extension":[{"url":"http://hl7.org/fhir/us/core/StructureDefinition/us-core-race","extension":[{"url":"ombCategory","valueCoding":{"system":"urn:oid:2.16.840.1.113883.6.238","code":"1002-5","display":"American Indian or Alaska Native","userSelected":true}},{"url":"text","valueString":"American Indian or Alaska Native"}]},{"url":"http://hl7.org/fhir/us/core/StructureDefinition/us-core-ethnicity","extension":[{"url":"ombCategory","valueCoding":{"system":"urn:oid:2.16.840.1.113883.6.238","code":"2135-2","display":"Hispanic or Latino","userSelected":true}},{"url":"text","valueString":"Hispanic or Latino"}]}],"identifier":[{"type":{"coding":[{"system":"http://terminology.hl7.org/CodeSystem/v2-0203","code":"MR"}]},"system":"https://bonnie-fhir.healthit.gov/","value":"61152a3b98086b7a79cbd7c1"}],"active":true,"name":[{"use":"usual","family":"DENOMPass","given":["RVOsteoporosisPOA"]}],"gender":"female","birthDate":"1964-12-11"},"request":{"method":"PUT","url":"Patient/1e2ddc95-76d4-4be7-8273-2b35371a727b"}},{"resource":{"resourceType":"Bundle","id":"DENOMPass-RVOsteoporosisPOA","type":"transaction","entry":[{"fullUrl":"https://madie.cms.gov/Encounter/cb538fc2-931e-44a6-aae7-fbcd3885e716","resource":{"resourceType":"Encounter","id":"cb538fc2-931e-44a6-aae7-fbcd3885e716","meta":{"profile":["http://hl7.org/fhir/us/qicore/StructureDefinition/qicore-encounter"]},"status":"finished","class":{"system":"http://terminology.hl7.org/CodeSystem/v3-ActCode","code":"IMP","display":"inpatient encounter"},"type":[{"coding":[{"system":"http://snomed.info/sct","code":"183452005","display":"Emergency hospital admission"}]}],"subject":{"reference":"Patient/1e2ddc95-76d4-4be7-8273-2b35371a727b"},"period":{"start":"2026-11-12T08:00:00.000+00:00","end":"2026-11-18T08:01:00.000+00:00"},"diagnosis":[{"extension":[{"url":"http://hl7.org/fhir/us/qicore/StructureDefinition/qicore-encounter-diagnosisPresentOnAdmission","valueCodeableConcept":{"coding":[{"system":"https://www.cms.gov/Medicare/Medicare-Fee-for-Service-Payment/HospitalAcqCond/Coding","code":"Y"}]}}],"condition":{"reference":"Condition/21ea3cba-7c56-449b-b6bf-2c267ac0f13c"}}]},"request":{"method":"PUT","url":"Encounter/cb538fc2-931e-44a6-aae7-fbcd3885e716"}},{"fullUrl":"https://madie.cms.gov/Condition/21ea3cba-7c56-449b-b6bf-2c267ac0f13c","resource":{"resourceType":"Condition","id":"21ea3cba-7c56-449b-b6bf-2c267ac0f13c","meta":{"profile":["http://hl7.org/fhir/us/qicore/StructureDefinition/qicore-condition"]},"clinicalStatus":{"coding":[{"system":"http://terminology.hl7.org/CodeSystem/condition-clinical","code":"active"}]},"verificationStatus":{"coding":[{"system":"http://terminology.hl7.org/CodeSystem/condition-ver-status","code":"confirmed"}]},"category":[{"coding":[{"system":"http://terminology.hl7.org/CodeSystem/condition-category","code":"encounter-diagnosis","display":"Encounter Diagnosis"}]}],"code":{"coding":[{"system":"http://hl7.org/fhir/sid/icd-10-cm","code":"M80.031G"}]},"subject":{"reference":"Patient/1e2ddc95-76d4-4be7-8273-2b35371a727b"},"encounter":{"reference":"Encounter/cb538fc2-931e-44a6-aae7-fbcd3885e716"}},"request":{"method":"PUT","url":"Condition/21ea3cba-7c56-449b-b6bf-2c267ac0f13c"}},{"fullUrl":"https://madie.cms.gov/Patient/1e2ddc95-76d4-4be7-8273-2b35371a727b","resource":{"resourceType":"Patient","id":"1e2ddc95-76d4-4be7-8273-2b35371a727b","meta":{"profile":["http://hl7.org/fhir/us/qicore/StructureDefinition/qicore-patient"]},"extension":[{"url":"http://hl7.org/fhir/us/core/StructureDefinition/us-core-race","extension":[{"url":"ombCategory","valueCoding":{"system":"urn:oid:2.16.840.1.113883.6.238","code":"1002-5","display":"American Indian or Alaska Native","userSelected":true}},{"url":"text","valueString":"American Indian or Alaska Native"}]},{"url":"http://hl7.org/fhir/us/core/StructureDefinition/us-core-ethnicity","extension":[{"url":"ombCategory","valueCoding":{"system":"urn:oid:2.16.840.1.113883.6.238","code":"2135-2","display":"Hispanic or Latino","userSelected":true}},{"url":"text","valueString":"Hispanic or Latino"}]}],"identifier":[{"type":{"coding":[{"system":"http://terminology.hl7.org/CodeSystem/v2-0203","code":"MR"}]},"system":"https://bonnie-fhir.healthit.gov/","value":"61152a3b98086b7a79cbd7c1"}],"active":true,"name":[{"use":"usual","family":"DENOMPass","given":["RVOsteoporosisPOA"]}],"gender":"female","birthDate":"1964-12-11"},"request":{"method":"PUT","url":"Patient/1e2ddc95-76d4-4be7-8273-2b35371a727b"}},{"fullUrl":"https://madie.cms.gov/MeasureReport/228a68b6-5fd8-4da8-8407-4fe857931849","resource":{"resourceType":"MeasureReport","id":"228a68b6-5fd8-4da8-8407-4fe857931849","meta":{"profile":["http://hl7.org/fhir/us/cqfmeasures/StructureDefinition/test-case-cqfm"]},"contained":[{"resourceType":"Parameters","id":"c44e072d-4617-45f2-a86f-d38751f3b854-parameters","parameter":[{"name":"subject","valueString":"1e2ddc95-76d4-4be7-8273-2b35371a727b"}]}],"extension":[{"url":"http://hl7.org/fhir/StructureDefinition/cqf-inputParameters","valueReference":{"reference":"#c44e072d-4617-45f2-a86f-d38751f3b854-parameters"}},{"url":"http://hl7.org/fhir/us/cqfmeasures/StructureDefinition/cqfm-testCaseDescription","valueMarkdown":"Encounter with Osteoporosis dx POA = Y. Meets RV logic"}],"modifierExtension":[{"url":"http://hl7.org/fhir/us/cqfmeasures/StructureDefinition/cqfm-isTestCase","valueBoolean":true}],"status":"complete","type":"individual","measure":"https://madie.cms.gov/Measure/CMS1017FHIRHHFI","period":{"start":"2026-01-01","end":"2026-12-31"},"group":[{"id":"Group_1","population":[{"id":"InitialPopulation_1","code":{"coding":[{"system":"http://terminology.hl7.org/CodeSystem/measure-population","code":"initial-population","display":"Initial Population"}]},"count":1},{"id":"Denominator_1","code":{"coding":[{"system":"http://terminology.hl7.org/CodeSystem/measure-population","code":"denominator","display":"Denominator"}]},"count":1},{"id":"DenominatorExclusion_1","code":{"coding":[{"system":"http://terminology.hl7.org/CodeSystem/measure-population","code":"denominator-exclusion","display":"Denominator Exclusion"}]},"count":0},{"id":"Numerator_1","code":{"coding":[{"system":"http://terminology.hl7.org/CodeSystem/measure-population","code":"numerator","display":"Numerator"}]},"count":0},{"id":"NumeratorExclusion_1","code":{"coding":[{"system":"http://terminology.hl7.org/CodeSystem/measure-population","code":"numerator-exclusion","display":"Numerator Exclusion"}]},"count":0},{"id":"MeasureObservation_1_1_1","code":{"coding":[{"system":"http://terminology.hl7.org/CodeSystem/measure-population","code":"measure-observation","display":"Measure Observation"}]},"count":6}],"measureScore":{"value":0.0}}],"evaluatedResource":[{"reference":"Encounter/cb538fc2-931e-44a6-aae7-fbcd3885e716"},{"reference":"Condition/21ea3cba-7c56-449b-b6bf-2c267ac0f13c"},{"reference":"Patient/1e2ddc95-76d4-4be7-8273-2b35371a727b"}]},"request":{"method":"PUT","url":"MeasureReport/228a68b6-5fd8-4da8-8407-4fe857931849"}}]},"request":{"method":"PUT","url":"Bundle/DENOMPass-RVOsteoporosisPOA"}},{"resource":{"resourceType":"MeasureReport","id":"228a68b6-5fd8-4da8-8407-4fe857931849","meta":{"profile":["http://hl7.org/fhir/us/cqfmeasures/StructureDefinition/test-case-cqfm"]},"contained":[{"resourceType":"Parameters","id":"c44e072d-4617-45f2-a86f-d38751f3b854-parameters","parameter":[{"name":"subject","valueString":"1e2ddc95-76d4-4be7-8273-2b35371a727b"}]}],"extension":[{"url":"http://hl7.org/fhir/StructureDefinition/cqf-inputParameters","valueReference":{"reference":"#c44e072d-4617-45f2-a86f-d38751f3b854-parameters"}},{"url":"http://hl7.org/fhir/us/cqfmeasures/StructureDefinition/cqfm-testCaseDescription","valueMarkdown":"Encounter with Osteoporosis dx POA = Y. Meets RV logic"}],"modifierExtension":[{"url":"http://hl7.org/fhir/us/cqfmeasures/StructureDefinition/cqfm-isTestCase","valueBoolean":true}],"status":"complete","type":"individual","measure":"https://madie.cms.gov/Measure/CMS1017FHIRHHFI","period":{"start":"2026-01-01","end":"2026-12-31"},"group":[{"id":"Group_1","population":[{"id":"InitialPopulation_1","code":{"coding":[{"system":"http://terminology.hl7.org/CodeSystem/measure-population","code":"initial-population","display":"Initial Population"}]},"count":1},{"id":"Denominator_1","code":{"coding":[{"system":"http://terminology.hl7.org/CodeSystem/measure-population","code":"denominator","display":"Denominator"}]},"count":1},{"id":"DenominatorExclusion_1","code":{"coding":[{"system":"http://terminology.hl7.org/CodeSystem/measure-population","code":"denominator-exclusion","display":"Denominator Exclusion"}]},"count":0},{"id":"Numerator_1","code":{"coding":[{"system":"http://terminology.hl7.org/CodeSystem/measure-population","code":"numerator","display":"Numerator"}]},"count":0},{"id":"NumeratorExclusion_1","code":{"coding":[{"system":"http://terminology.hl7.org/CodeSystem/measure-population","code":"numerator-exclusion","display":"Numerator Exclusion"}]},"count":0},{"id":"MeasureObservation_1_1_1","code":{"coding":[{"system":"http://terminology.hl7.org/CodeSystem/measure-population","code":"measure-observation","display":"Measure Observation"}]},"count":6}],"measureScore":{"value":0.0}}],"evaluatedResource":[{"reference":"Encounter/cb538fc2-931e-44a6-aae7-fbcd3885e716"},{"reference":"Condition/21ea3cba-7c56-449b-b6bf-2c267ac0f13c"},{"reference":"Patient/1e2ddc95-76d4-4be7-8273-2b35371a727b"}]},"request":{"method":"PUT","url":"MeasureReport/228a68b6-5fd8-4da8-8407-4fe857931849"}},{"resource":{"resourceType":"Condition","id":"21ea3cba-7c56-449b-b6bf-2c267ac0f13c","meta":{"profile":["http://hl7.org/fhir/us/qicore/StructureDefinition/qicore-condition"]},"clinicalStatus":{"coding":[{"system":"http://terminology.hl7.org/CodeSystem/condition-clinical","code":"active"}]},"verificationStatus":{"coding":[{"system":"http://terminology.hl7.org/CodeSystem/condition-ver-status","code":"confirmed"}]},"category":[{"coding":[{"system":"http://terminology.hl7.org/CodeSystem/condition-category","code":"encounter-diagnosis","display":"Encounter Diagnosis"}]}],"code":{"coding":[{"system":"http://hl7.org/fhir/sid/icd-10-cm","code":"M80.031G"}]},"subject":{"reference":"Patient/1e2ddc95-76d4-4be7-8273-2b35371a727b"},"encounter":{"reference":"Encounter/cb538fc2-931e-44a6-aae7-fbcd3885e716"}},"request":{"method":"PUT","url":"Condition/21ea3cba-7c56-449b-b6bf-2c267ac0f13c"}}]}