{"resourceType":"Bundle","id":"tests-559b63eb-fb48-45f5-bf6c-4f7c2901007d-bundle","type":"transaction","entry":[{"resource":{"resourceType":"Encounter","id":"88d90632-2e65-47c7-a78e-f8772ec348c8","meta":{"profile":["http://hl7.org/fhir/us/qicore/StructureDefinition/qicore-encounter"]},"status":"finished","class":{"system":"http://terminology.hl7.org/CodeSystem/v3-ActCode","code":"EMER","display":"emergency encounter"},"type":[{"coding":[{"system":"http://snomed.info/sct","code":"4525004","display":"Emergency Department Visit"}]}],"subject":{"reference":"Patient/559b63eb-fb48-45f5-bf6c-4f7c2901007d"},"period":{"start":"2026-10-18T09:15:00.000+00:00","end":"2026-10-19T08:15:00.000+00:00"}},"request":{"method":"PUT","url":"Encounter/88d90632-2e65-47c7-a78e-f8772ec348c8"}},{"resource":{"resourceType":"Claim","id":"4cb3a749-30d4-4afb-946b-e09db52c0ac9","meta":{"profile":["http://hl7.org/fhir/us/qicore/StructureDefinition/qicore-claim"]},"status":"active","type":{"coding":[{"system":"http://terminology.hl7.org/CodeSystem/claim-type","code":"institutional","display":"Institutional"}]},"use":"claim","patient":{"reference":"Patient/559b63eb-fb48-45f5-bf6c-4f7c2901007d"},"created":"2026-11-01","provider":{"reference":"Organization/Organization-1"},"priority":{"coding":[{"system":"http://terminology.hl7.org/CodeSystem/processpriority","code":"normal"}]},"diagnosis":[{"sequence":1,"diagnosisCodeableConcept":{"coding":[{"system":"http://hl7.org/fhir/sid/icd-10-cm","code":"M80.00XA","display":"Age-related osteoporosis with current pathological fracture, unspecified site, initial encounter for fracture"}]},"onAdmission":{"coding":[{"system":"https://www.cms.gov/Medicare/Medicare-Fee-for-Service-Payment/HospitalAcqCond/Coding","code":"N"}]}}],"item":[{"sequence":1,"diagnosisSequence":[1,2],"encounter":[{"reference":"Encounter/3f2cbb08-2b1d-4f36-9263-727889966205"}]}]},"request":{"method":"PUT","url":"Claim/4cb3a749-30d4-4afb-946b-e09db52c0ac9"}},{"resource":{"resourceType":"Encounter","id":"3f2cbb08-2b1d-4f36-9263-727889966205","meta":{"profile":["http://hl7.org/fhir/us/qicore/StructureDefinition/qicore-encounter"]},"status":"finished","class":{"system":"http://terminology.hl7.org/CodeSystem/v3-ActCode","code":"IMP","display":"inpatient encounter"},"type":[{"coding":[{"system":"http://snomed.info/sct","code":"183452005","display":"Inpatient encounter"}]}],"subject":{"reference":"Patient/559b63eb-fb48-45f5-bf6c-4f7c2901007d"},"period":{"start":"2026-10-19T08:30:00.000+00:00","end":"2026-10-21T08:15:00.000+00:00"},"reasonCode":[{"coding":[{"system":"http://snomed.info/sct","code":"14047009"}]},{"coding":[{"system":"http://snomed.info/sct","code":"64859006"}]}]},"request":{"method":"PUT","url":"Encounter/3f2cbb08-2b1d-4f36-9263-727889966205"}},{"resource":{"resourceType":"Bundle","id":"tests-NumerPass-OneHospitalizationTwoClaimsWithFallPOA-bundle","type":"transaction","entry":[{"fullUrl":"https://madie.cms.gov/Encounter/3f2cbb08-2b1d-4f36-9263-727889966205","resource":{"resourceType":"Encounter","id":"3f2cbb08-2b1d-4f36-9263-727889966205","meta":{"profile":["http://hl7.org/fhir/us/qicore/StructureDefinition/qicore-encounter"]},"status":"finished","class":{"system":"http://terminology.hl7.org/CodeSystem/v3-ActCode","code":"IMP","display":"inpatient encounter"},"type":[{"coding":[{"system":"http://snomed.info/sct","code":"183452005","display":"Inpatient encounter"}]}],"subject":{"reference":"Patient/559b63eb-fb48-45f5-bf6c-4f7c2901007d"},"period":{"start":"2026-10-19T08:30:00.000+00:00","end":"2026-10-21T08:15:00.000+00:00"},"reasonCode":[{"coding":[{"system":"http://snomed.info/sct","code":"14047009"}]},{"coding":[{"system":"http://snomed.info/sct","code":"64859006"}]}]},"request":{"method":"PUT","url":"Encounter/3f2cbb08-2b1d-4f36-9263-727889966205"}},{"fullUrl":"https://madie.cms.gov/Encounter/88d90632-2e65-47c7-a78e-f8772ec348c8","resource":{"resourceType":"Encounter","id":"88d90632-2e65-47c7-a78e-f8772ec348c8","meta":{"profile":["http://hl7.org/fhir/us/qicore/StructureDefinition/qicore-encounter"]},"status":"finished","class":{"system":"http://terminology.hl7.org/CodeSystem/v3-ActCode","code":"EMER","display":"emergency encounter"},"type":[{"coding":[{"system":"http://snomed.info/sct","code":"4525004","display":"Emergency Department Visit"}]}],"subject":{"reference":"Patient/559b63eb-fb48-45f5-bf6c-4f7c2901007d"},"period":{"start":"2026-10-18T09:15:00.000+00:00","end":"2026-10-19T08:15:00.000+00:00"}},"request":{"method":"PUT","url":"Encounter/88d90632-2e65-47c7-a78e-f8772ec348c8"}},{"fullUrl":"https://madie.cms.gov/Patient/559b63eb-fb48-45f5-bf6c-4f7c2901007d","resource":{"resourceType":"Patient","id":"559b63eb-fb48-45f5-bf6c-4f7c2901007d","meta":{"profile":["http://hl7.org/fhir/us/qicore/StructureDefinition/qicore-patient"]},"extension":[{"url":"http://hl7.org/fhir/us/core/StructureDefinition/us-core-race","extension":[{"url":"ombCategory","valueCoding":{"system":"urn:oid:2.16.840.1.113883.6.238","code":"2106-3","display":"White"}},{"url":"text","valueString":"White"}]},{"url":"http://hl7.org/fhir/us/core/StructureDefinition/us-core-ethnicity","extension":[{"url":"ombCategory","valueCoding":{"system":"urn:oid:2.16.840.1.113883.6.238","code":"2135-2","display":"Hispanic or Latino"}},{"url":"text","valueString":"Hispanic or Latino"}]},{"url":"http://hl7.org/fhir/us/core/StructureDefinition/us-core-sex","valueCode":"248153007"}],"identifier":[{"system":"http://hospital.smarthealthit.org","value":"999999999"}],"name":[{"family":"Example","given":["Patient"]}],"gender":"female","birthDate":"1956-01-01"},"request":{"method":"PUT","url":"Patient/559b63eb-fb48-45f5-bf6c-4f7c2901007d"}},{"fullUrl":"https://madie.cms.gov/Claim/19dd9b93-99a9-41d0-82e0-ed3510e9d803","resource":{"resourceType":"Claim","id":"19dd9b93-99a9-41d0-82e0-ed3510e9d803","meta":{"profile":["http://hl7.org/fhir/us/qicore/StructureDefinition/qicore-claim"]},"status":"active","type":{"coding":[{"system":"http://terminology.hl7.org/CodeSystem/claim-type","code":"institutional","display":"Institutional"}]},"use":"claim","patient":{"reference":"Patient/559b63eb-fb48-45f5-bf6c-4f7c2901007d"},"created":"2026-10-22","priority":{"coding":[{"system":"http://terminology.hl7.org/CodeSystem/processpriority","code":"normal"}]},"diagnosis":[{"sequence":1,"diagnosisCodeableConcept":{"coding":[{"system":"http://snomed.info/sct","code":"14047009"}]},"onAdmission":{"coding":[{"system":"https://www.cms.gov/Medicare/Medicare-Fee-for-Service-Payment/HospitalAcqCond/Coding","code":"Y"}]}}],"item":[{"sequence":1,"diagnosisSequence":[1,2],"encounter":[{"reference":"Encounter/3f2cbb08-2b1d-4f36-9263-727889966205"}]}]},"request":{"method":"PUT","url":"Claim/19dd9b93-99a9-41d0-82e0-ed3510e9d803"}},{"fullUrl":"https://madie.cms.gov/Claim/4cb3a749-30d4-4afb-946b-e09db52c0ac9","resource":{"resourceType":"Claim","id":"4cb3a749-30d4-4afb-946b-e09db52c0ac9","meta":{"profile":["http://hl7.org/fhir/us/qicore/StructureDefinition/qicore-claim"]},"status":"active","type":{"coding":[{"system":"http://terminology.hl7.org/CodeSystem/claim-type","code":"institutional","display":"Institutional"}]},"use":"claim","patient":{"reference":"Patient/559b63eb-fb48-45f5-bf6c-4f7c2901007d"},"created":"2026-11-01","provider":{"reference":"Organization/Organization-1"},"priority":{"coding":[{"system":"http://terminology.hl7.org/CodeSystem/processpriority","code":"normal"}]},"diagnosis":[{"sequence":1,"diagnosisCodeableConcept":{"coding":[{"system":"http://hl7.org/fhir/sid/icd-10-cm","code":"M80.00XA","display":"Age-related osteoporosis with current pathological fracture, unspecified site, initial encounter for fracture"}]},"onAdmission":{"coding":[{"system":"https://www.cms.gov/Medicare/Medicare-Fee-for-Service-Payment/HospitalAcqCond/Coding","code":"N"}]}}],"item":[{"sequence":1,"diagnosisSequence":[1,2],"encounter":[{"reference":"Encounter/3f2cbb08-2b1d-4f36-9263-727889966205"}]}]},"request":{"method":"PUT","url":"Claim/4cb3a749-30d4-4afb-946b-e09db52c0ac9"}},{"fullUrl":"https://madie.cms.gov/MeasureReport/1d194a14-fa49-4b18-a4c7-f5c0ac890c1b","resource":{"resourceType":"MeasureReport","id":"1d194a14-fa49-4b18-a4c7-f5c0ac890c1b","meta":{"profile":["http://hl7.org/fhir/us/cqfmeasures/StructureDefinition/test-case-cqfm"]},"contained":[{"resourceType":"Parameters","id":"efdb5305-60b5-42c3-8b8f-5f847f21c9d4-parameters","parameter":[{"name":"subject","valueString":"559b63eb-fb48-45f5-bf6c-4f7c2901007d"}]}],"extension":[{"url":"http://hl7.org/fhir/StructureDefinition/cqf-inputParameters","valueReference":{"reference":"#efdb5305-60b5-42c3-8b8f-5f847f21c9d4-parameters"}},{"url":"http://hl7.org/fhir/us/cqfmeasures/StructureDefinition/cqfm-testCaseDescription","valueMarkdown":"Test Case - Claim 1 - Fall with POA\n Claim 2 - Injury with no POA\n\nExpected result that DENOM and DENEX = 1"}],"modifierExtension":[{"url":"http://hl7.org/fhir/us/cqfmeasures/StructureDefinition/cqfm-isTestCase","valueBoolean":true}],"status":"complete","type":"individual","measure":"https://madie.cms.gov/Measure/CMS1017FHIRHHFI","period":{"start":"2026-01-01","end":"2026-12-31"},"group":[{"id":"Group_1","population":[{"id":"InitialPopulation_1","code":{"coding":[{"system":"http://terminology.hl7.org/CodeSystem/measure-population","code":"initial-population","display":"Initial Population"}]},"count":1},{"id":"Denominator_1","code":{"coding":[{"system":"http://terminology.hl7.org/CodeSystem/measure-population","code":"denominator","display":"Denominator"}]},"count":1},{"id":"DenominatorExclusion_1","code":{"coding":[{"system":"http://terminology.hl7.org/CodeSystem/measure-population","code":"denominator-exclusion","display":"Denominator Exclusion"}]},"count":1},{"id":"Numerator_1","code":{"coding":[{"system":"http://terminology.hl7.org/CodeSystem/measure-population","code":"numerator","display":"Numerator"}]},"count":0},{"id":"NumeratorExclusion_1","code":{"coding":[{"system":"http://terminology.hl7.org/CodeSystem/measure-population","code":"numerator-exclusion","display":"Numerator Exclusion"}]},"count":0}],"measureScore":{"value":0.0}}],"evaluatedResource":[{"reference":"Encounter/3f2cbb08-2b1d-4f36-9263-727889966205"},{"reference":"Encounter/88d90632-2e65-47c7-a78e-f8772ec348c8"},{"reference":"Patient/559b63eb-fb48-45f5-bf6c-4f7c2901007d"},{"reference":"Claim/19dd9b93-99a9-41d0-82e0-ed3510e9d803"},{"reference":"Claim/4cb3a749-30d4-4afb-946b-e09db52c0ac9"}]},"request":{"method":"PUT","url":"MeasureReport/1d194a14-fa49-4b18-a4c7-f5c0ac890c1b"}}]},"request":{"method":"PUT","url":"Bundle/tests-NumerPass-OneHospitalizationTwoClaimsWithFallPOA-bundle"}},{"resource":{"resourceType":"Claim","id":"19dd9b93-99a9-41d0-82e0-ed3510e9d803","meta":{"profile":["http://hl7.org/fhir/us/qicore/StructureDefinition/qicore-claim"]},"status":"active","type":{"coding":[{"system":"http://terminology.hl7.org/CodeSystem/claim-type","code":"institutional","display":"Institutional"}]},"use":"claim","patient":{"reference":"Patient/559b63eb-fb48-45f5-bf6c-4f7c2901007d"},"created":"2026-10-22","priority":{"coding":[{"system":"http://terminology.hl7.org/CodeSystem/processpriority","code":"normal"}]},"diagnosis":[{"sequence":1,"diagnosisCodeableConcept":{"coding":[{"system":"http://snomed.info/sct","code":"14047009"}]},"onAdmission":{"coding":[{"system":"https://www.cms.gov/Medicare/Medicare-Fee-for-Service-Payment/HospitalAcqCond/Coding","code":"Y"}]}}],"item":[{"sequence":1,"diagnosisSequence":[1,2],"encounter":[{"reference":"Encounter/3f2cbb08-2b1d-4f36-9263-727889966205"}]}]},"request":{"method":"PUT","url":"Claim/19dd9b93-99a9-41d0-82e0-ed3510e9d803"}},{"resource":{"resourceType":"Patient","id":"559b63eb-fb48-45f5-bf6c-4f7c2901007d","meta":{"profile":["http://hl7.org/fhir/us/qicore/StructureDefinition/qicore-patient"]},"extension":[{"url":"http://hl7.org/fhir/us/core/StructureDefinition/us-core-race","extension":[{"url":"ombCategory","valueCoding":{"system":"urn:oid:2.16.840.1.113883.6.238","code":"2106-3","display":"White"}},{"url":"text","valueString":"White"}]},{"url":"http://hl7.org/fhir/us/core/StructureDefinition/us-core-ethnicity","extension":[{"url":"ombCategory","valueCoding":{"system":"urn:oid:2.16.840.1.113883.6.238","code":"2135-2","display":"Hispanic or Latino"}},{"url":"text","valueString":"Hispanic or Latino"}]},{"url":"http://hl7.org/fhir/us/core/StructureDefinition/us-core-sex","valueCode":"248153007"}],"identifier":[{"system":"http://hospital.smarthealthit.org","value":"999999999"}],"name":[{"family":"Example","given":["Patient"]}],"gender":"female","birthDate":"1956-01-01"},"request":{"method":"PUT","url":"Patient/559b63eb-fb48-45f5-bf6c-4f7c2901007d"}},{"resource":{"resourceType":"MeasureReport","id":"1d194a14-fa49-4b18-a4c7-f5c0ac890c1b","meta":{"profile":["http://hl7.org/fhir/us/cqfmeasures/StructureDefinition/test-case-cqfm"]},"contained":[{"resourceType":"Parameters","id":"efdb5305-60b5-42c3-8b8f-5f847f21c9d4-parameters","parameter":[{"name":"subject","valueString":"559b63eb-fb48-45f5-bf6c-4f7c2901007d"}]}],"extension":[{"url":"http://hl7.org/fhir/StructureDefinition/cqf-inputParameters","valueReference":{"reference":"#efdb5305-60b5-42c3-8b8f-5f847f21c9d4-parameters"}},{"url":"http://hl7.org/fhir/us/cqfmeasures/StructureDefinition/cqfm-testCaseDescription","valueMarkdown":"Test Case - Claim 1 - Fall with POA\n Claim 2 - Injury with no POA\n\nExpected result that DENOM and DENEX = 1"}],"modifierExtension":[{"url":"http://hl7.org/fhir/us/cqfmeasures/StructureDefinition/cqfm-isTestCase","valueBoolean":true}],"status":"complete","type":"individual","measure":"https://madie.cms.gov/Measure/CMS1017FHIRHHFI","period":{"start":"2026-01-01","end":"2026-12-31"},"group":[{"id":"Group_1","population":[{"id":"InitialPopulation_1","code":{"coding":[{"system":"http://terminology.hl7.org/CodeSystem/measure-population","code":"initial-population","display":"Initial Population"}]},"count":1},{"id":"Denominator_1","code":{"coding":[{"system":"http://terminology.hl7.org/CodeSystem/measure-population","code":"denominator","display":"Denominator"}]},"count":1},{"id":"DenominatorExclusion_1","code":{"coding":[{"system":"http://terminology.hl7.org/CodeSystem/measure-population","code":"denominator-exclusion","display":"Denominator Exclusion"}]},"count":1},{"id":"Numerator_1","code":{"coding":[{"system":"http://terminology.hl7.org/CodeSystem/measure-population","code":"numerator","display":"Numerator"}]},"count":0},{"id":"NumeratorExclusion_1","code":{"coding":[{"system":"http://terminology.hl7.org/CodeSystem/measure-population","code":"numerator-exclusion","display":"Numerator Exclusion"}]},"count":0}],"measureScore":{"value":0.0}}],"evaluatedResource":[{"reference":"Encounter/3f2cbb08-2b1d-4f36-9263-727889966205"},{"reference":"Encounter/88d90632-2e65-47c7-a78e-f8772ec348c8"},{"reference":"Patient/559b63eb-fb48-45f5-bf6c-4f7c2901007d"},{"reference":"Claim/19dd9b93-99a9-41d0-82e0-ed3510e9d803"},{"reference":"Claim/4cb3a749-30d4-4afb-946b-e09db52c0ac9"}]},"request":{"method":"PUT","url":"MeasureReport/1d194a14-fa49-4b18-a4c7-f5c0ac890c1b"}}]}