{"resourceType":"Bundle","id":"tests-966cc666-8f6e-4d6e-93a9-0c4b6345e966-bundle","type":"transaction","entry":[{"resource":{"resourceType":"Patient","id":"966cc666-8f6e-4d6e-93a9-0c4b6345e966","meta":{"profile":["http://hl7.org/fhir/us/qicore/StructureDefinition/qicore-patient"]},"extension":[{"url":"http://hl7.org/fhir/us/core/StructureDefinition/us-core-race","extension":[{"url":"ombCategory","valueCoding":{"system":"urn:oid:2.16.840.1.113883.6.238","code":"2028-9","display":"Asian","userSelected":true}},{"url":"text","valueString":"Asian"}]},{"url":"http://hl7.org/fhir/us/core/StructureDefinition/us-core-ethnicity","extension":[{"url":"ombCategory","valueCoding":{"system":"urn:oid:2.16.840.1.113883.6.238","code":"2186-5","display":"Not Hispanic or Latino","userSelected":true}},{"url":"text","valueString":"Not Hispanic or Latino"}]}],"identifier":[{"type":{"coding":[{"system":"http://terminology.hl7.org/CodeSystem/v2-0203","code":"MR"}]},"system":"https://bonnie-fhir.healthit.gov/","value":"61152a3b98086b7a79cbd7c1"}],"active":true,"name":[{"use":"usual","family":"NUMERPass","given":["FallNullPOAInjuryNullPOA"]}],"gender":"male","birthDate":"2000-09-09"},"request":{"method":"PUT","url":"Patient/966cc666-8f6e-4d6e-93a9-0c4b6345e966"}},{"resource":{"resourceType":"MeasureReport","id":"bf46e1c3-671a-438c-a60f-ef956ac1da46","meta":{"profile":["http://hl7.org/fhir/us/cqfmeasures/StructureDefinition/test-case-cqfm"]},"contained":[{"resourceType":"Parameters","id":"01da3cce-4f05-4aab-a93f-867165ef984f-parameters","parameter":[{"name":"subject","valueString":"966cc666-8f6e-4d6e-93a9-0c4b6345e966"}]}],"extension":[{"url":"http://hl7.org/fhir/StructureDefinition/cqf-inputParameters","valueReference":{"reference":"#01da3cce-4f05-4aab-a93f-867165ef984f-parameters"}},{"url":"http://hl7.org/fhir/us/cqfmeasures/StructureDefinition/cqfm-testCaseDescription","valueMarkdown":"Encounter with Fall diag and injury diag both w/null POA flags. Unless POA flags explicitly indicate POA (e.g., N or U) then diagnosis is assumed to be not present on admission. \nMeets Numerator. "}],"modifierExtension":[{"url":"http://hl7.org/fhir/us/cqfmeasures/StructureDefinition/cqfm-isTestCase","valueBoolean":true}],"status":"complete","type":"individual","measure":"https://madie.cms.gov/Measure/CMS1017FHIRHHFI","period":{"start":"2026-01-01","end":"2026-12-31"},"group":[{"id":"Group_1","population":[{"id":"InitialPopulation_1","code":{"coding":[{"system":"http://terminology.hl7.org/CodeSystem/measure-population","code":"initial-population","display":"Initial Population"}]},"count":1},{"id":"Denominator_1","code":{"coding":[{"system":"http://terminology.hl7.org/CodeSystem/measure-population","code":"denominator","display":"Denominator"}]},"count":1},{"id":"DenominatorExclusion_1","code":{"coding":[{"system":"http://terminology.hl7.org/CodeSystem/measure-population","code":"denominator-exclusion","display":"Denominator Exclusion"}]},"count":0},{"id":"Numerator_1","code":{"coding":[{"system":"http://terminology.hl7.org/CodeSystem/measure-population","code":"numerator","display":"Numerator"}]},"count":1},{"id":"NumeratorExclusion_1","code":{"coding":[{"system":"http://terminology.hl7.org/CodeSystem/measure-population","code":"numerator-exclusion","display":"Numerator Exclusion"}]},"count":0},{"id":"MeasureObservation_1_1_1","code":{"coding":[{"system":"http://terminology.hl7.org/CodeSystem/measure-population","code":"measure-observation","display":"Measure Observation"}]},"count":4},{"id":"MeasureObservation_1_2_1","code":{"coding":[{"system":"http://terminology.hl7.org/CodeSystem/measure-population","code":"measure-observation","display":"Measure Observation"}]},"count":1}],"measureScore":{"value":0.0}}],"evaluatedResource":[{"reference":"Claim/7787f034-5046-4807-8e72-b23ac09199d6"},{"reference":"Claim/aff9b30b-6581-445a-93ce-93f01e9e6133"},{"reference":"Encounter/230b93eb-ad95-4ee9-8510-175571928023"},{"reference":"Encounter/e189c905-60a8-4eb3-ae94-349cebcb1e42"},{"reference":"Condition/80b403ee-d382-4182-be73-5c8875342854"},{"reference":"Condition/000e2209-7689-4308-8508-f97eb1898a03"},{"reference":"Patient/966cc666-8f6e-4d6e-93a9-0c4b6345e966"}]},"request":{"method":"PUT","url":"MeasureReport/bf46e1c3-671a-438c-a60f-ef956ac1da46"}},{"resource":{"resourceType":"Bundle","id":"NUMERPass-FallNullPOAInjuryNullPOA","type":"transaction","entry":[{"fullUrl":"https://madie.cms.gov/Claim/7787f034-5046-4807-8e72-b23ac09199d6","resource":{"resourceType":"Claim","id":"7787f034-5046-4807-8e72-b23ac09199d6","meta":{"profile":["http://hl7.org/fhir/us/qicore/StructureDefinition/qicore-claim"]},"status":"active","type":{"coding":[{"system":"http://terminology.hl7.org/CodeSystem/claim-type","code":"professional","display":"Professional"}]},"use":"claim","patient":{"reference":"Patient/966cc666-8f6e-4d6e-93a9-0c4b6345e966"},"created":"2026-11-12","priority":{"coding":[{"system":"http://terminology.hl7.org/CodeSystem/processpriority","code":"normal"}]},"diagnosis":[{"sequence":1,"diagnosisReference":{"reference":"Condition/000e2209-7689-4308-8508-f97eb1898a03"}}],"item":[{"sequence":1,"diagnosisSequence":[1,2],"encounter":[{"reference":"Encounter/230b93eb-ad95-4ee9-8510-175571928023"}]}]},"request":{"method":"PUT","url":"Claim/7787f034-5046-4807-8e72-b23ac09199d6"}},{"fullUrl":"https://madie.cms.gov/Claim/aff9b30b-6581-445a-93ce-93f01e9e6133","resource":{"resourceType":"Claim","id":"aff9b30b-6581-445a-93ce-93f01e9e6133","meta":{"profile":["http://hl7.org/fhir/us/qicore/StructureDefinition/qicore-claim"]},"status":"active","type":{"coding":[{"system":"http://terminology.hl7.org/CodeSystem/claim-type","code":"professional","display":"Professional"}]},"use":"claim","patient":{"reference":"Patient/966cc666-8f6e-4d6e-93a9-0c4b6345e966"},"created":"2026-11-12","priority":{"coding":[{"system":"http://terminology.hl7.org/CodeSystem/processpriority","code":"normal"}]},"diagnosis":[{"sequence":2,"diagnosisReference":{"reference":"Condition/80b403ee-d382-4182-be73-5c8875342854"}}],"item":[{"sequence":1,"diagnosisSequence":[1,2],"encounter":[{"reference":"Encounter/230b93eb-ad95-4ee9-8510-175571928023"}]}]},"request":{"method":"PUT","url":"Claim/aff9b30b-6581-445a-93ce-93f01e9e6133"}},{"fullUrl":"https://madie.cms.gov/Encounter/230b93eb-ad95-4ee9-8510-175571928023","resource":{"resourceType":"Encounter","id":"230b93eb-ad95-4ee9-8510-175571928023","meta":{"profile":["http://hl7.org/fhir/us/qicore/StructureDefinition/qicore-encounter"]},"status":"finished","class":{"system":"http://terminology.hl7.org/CodeSystem/v3-ActCode","code":"IMP","display":"inpatient encounter"},"type":[{"coding":[{"system":"http://snomed.info/sct","code":"183452005"}]}],"subject":{"reference":"Patient/966cc666-8f6e-4d6e-93a9-0c4b6345e966"},"period":{"start":"2026-11-09T11:00:00.000+00:00","end":"2026-11-13T08:15:00.000+00:00"},"reasonReference":[{"reference":"Condition/000e2209-7689-4308-8508-f97eb1898a03"},{"reference":"Condition/80b403ee-d382-4182-be73-5c8875342854"}]},"request":{"method":"PUT","url":"Encounter/230b93eb-ad95-4ee9-8510-175571928023"}},{"fullUrl":"https://madie.cms.gov/Encounter/e189c905-60a8-4eb3-ae94-349cebcb1e42","resource":{"resourceType":"Encounter","id":"e189c905-60a8-4eb3-ae94-349cebcb1e42","meta":{"profile":["http://hl7.org/fhir/us/qicore/StructureDefinition/qicore-encounter"]},"status":"finished","class":{"system":"http://terminology.hl7.org/CodeSystem/v3-ActCode","code":"IMP","display":"inpatient encounter"},"type":[{"coding":[{"system":"http://snomed.info/sct","code":"4525004"}]}],"subject":{"reference":"Patient/966cc666-8f6e-4d6e-93a9-0c4b6345e966"},"period":{"start":"2026-11-09T08:00:00.000+00:00","end":"2026-11-09T10:15:00.000+00:00"}},"request":{"method":"PUT","url":"Encounter/e189c905-60a8-4eb3-ae94-349cebcb1e42"}},{"fullUrl":"https://madie.cms.gov/Condition/80b403ee-d382-4182-be73-5c8875342854","resource":{"resourceType":"Condition","id":"80b403ee-d382-4182-be73-5c8875342854","meta":{"profile":["http://hl7.org/fhir/us/qicore/StructureDefinition/qicore-condition-encounter-diagnosis"]},"clinicalStatus":{"coding":[{"system":"http://terminology.hl7.org/CodeSystem/condition-clinical","code":"active"}]},"verificationStatus":{"coding":[{"system":"http://terminology.hl7.org/CodeSystem/condition-ver-status","code":"confirmed"}]},"category":[{"coding":[{"system":"http://terminology.hl7.org/CodeSystem/condition-category","code":"encounter-diagnosis","display":"Encounter Diagnosis"}]}],"code":{"coding":[{"system":"http://hl7.org/fhir/sid/icd-10-cm","code":"W19.XXXA"}]},"subject":{"reference":"Patient/966cc666-8f6e-4d6e-93a9-0c4b6345e966"},"encounter":{"reference":"Encounter/230b93eb-ad95-4ee9-8510-175571928023"}},"request":{"method":"PUT","url":"Condition/80b403ee-d382-4182-be73-5c8875342854"}},{"fullUrl":"https://madie.cms.gov/Condition/000e2209-7689-4308-8508-f97eb1898a03","resource":{"resourceType":"Condition","id":"000e2209-7689-4308-8508-f97eb1898a03","meta":{"profile":["http://hl7.org/fhir/us/qicore/StructureDefinition/qicore-condition-encounter-diagnosis"]},"clinicalStatus":{"coding":[{"system":"http://terminology.hl7.org/CodeSystem/condition-clinical","code":"active"}]},"verificationStatus":{"coding":[{"system":"http://terminology.hl7.org/CodeSystem/condition-ver-status","code":"confirmed"}]},"category":[{"coding":[{"system":"http://terminology.hl7.org/CodeSystem/condition-category","code":"encounter-diagnosis","display":"Encounter Diagnosis"}]}],"code":{"coding":[{"system":"http://hl7.org/fhir/sid/icd-10-cm","code":"M80.00XA"}]},"subject":{"reference":"Patient/966cc666-8f6e-4d6e-93a9-0c4b6345e966"},"encounter":{"reference":"Encounter/230b93eb-ad95-4ee9-8510-175571928023"}},"request":{"method":"PUT","url":"Condition/000e2209-7689-4308-8508-f97eb1898a03"}},{"fullUrl":"https://madie.cms.gov/Patient/966cc666-8f6e-4d6e-93a9-0c4b6345e966","resource":{"resourceType":"Patient","id":"966cc666-8f6e-4d6e-93a9-0c4b6345e966","meta":{"profile":["http://hl7.org/fhir/us/qicore/StructureDefinition/qicore-patient"]},"extension":[{"url":"http://hl7.org/fhir/us/core/StructureDefinition/us-core-race","extension":[{"url":"ombCategory","valueCoding":{"system":"urn:oid:2.16.840.1.113883.6.238","code":"2028-9","display":"Asian","userSelected":true}},{"url":"text","valueString":"Asian"}]},{"url":"http://hl7.org/fhir/us/core/StructureDefinition/us-core-ethnicity","extension":[{"url":"ombCategory","valueCoding":{"system":"urn:oid:2.16.840.1.113883.6.238","code":"2186-5","display":"Not Hispanic or Latino","userSelected":true}},{"url":"text","valueString":"Not Hispanic or Latino"}]}],"identifier":[{"type":{"coding":[{"system":"http://terminology.hl7.org/CodeSystem/v2-0203","code":"MR"}]},"system":"https://bonnie-fhir.healthit.gov/","value":"61152a3b98086b7a79cbd7c1"}],"active":true,"name":[{"use":"usual","family":"NUMERPass","given":["FallNullPOAInjuryNullPOA"]}],"gender":"male","birthDate":"2000-09-09"},"request":{"method":"PUT","url":"Patient/966cc666-8f6e-4d6e-93a9-0c4b6345e966"}},{"fullUrl":"https://madie.cms.gov/MeasureReport/bf46e1c3-671a-438c-a60f-ef956ac1da46","resource":{"resourceType":"MeasureReport","id":"bf46e1c3-671a-438c-a60f-ef956ac1da46","meta":{"profile":["http://hl7.org/fhir/us/cqfmeasures/StructureDefinition/test-case-cqfm"]},"contained":[{"resourceType":"Parameters","id":"01da3cce-4f05-4aab-a93f-867165ef984f-parameters","parameter":[{"name":"subject","valueString":"966cc666-8f6e-4d6e-93a9-0c4b6345e966"}]}],"extension":[{"url":"http://hl7.org/fhir/StructureDefinition/cqf-inputParameters","valueReference":{"reference":"#01da3cce-4f05-4aab-a93f-867165ef984f-parameters"}},{"url":"http://hl7.org/fhir/us/cqfmeasures/StructureDefinition/cqfm-testCaseDescription","valueMarkdown":"Encounter with Fall diag and injury diag both w/null POA flags. Unless POA flags explicitly indicate POA (e.g., N or U) then diagnosis is assumed to be not present on admission. \nMeets Numerator. "}],"modifierExtension":[{"url":"http://hl7.org/fhir/us/cqfmeasures/StructureDefinition/cqfm-isTestCase","valueBoolean":true}],"status":"complete","type":"individual","measure":"https://madie.cms.gov/Measure/CMS1017FHIRHHFI","period":{"start":"2026-01-01","end":"2026-12-31"},"group":[{"id":"Group_1","population":[{"id":"InitialPopulation_1","code":{"coding":[{"system":"http://terminology.hl7.org/CodeSystem/measure-population","code":"initial-population","display":"Initial Population"}]},"count":1},{"id":"Denominator_1","code":{"coding":[{"system":"http://terminology.hl7.org/CodeSystem/measure-population","code":"denominator","display":"Denominator"}]},"count":1},{"id":"DenominatorExclusion_1","code":{"coding":[{"system":"http://terminology.hl7.org/CodeSystem/measure-population","code":"denominator-exclusion","display":"Denominator Exclusion"}]},"count":0},{"id":"Numerator_1","code":{"coding":[{"system":"http://terminology.hl7.org/CodeSystem/measure-population","code":"numerator","display":"Numerator"}]},"count":1},{"id":"NumeratorExclusion_1","code":{"coding":[{"system":"http://terminology.hl7.org/CodeSystem/measure-population","code":"numerator-exclusion","display":"Numerator Exclusion"}]},"count":0},{"id":"MeasureObservation_1_1_1","code":{"coding":[{"system":"http://terminology.hl7.org/CodeSystem/measure-population","code":"measure-observation","display":"Measure Observation"}]},"count":4},{"id":"MeasureObservation_1_2_1","code":{"coding":[{"system":"http://terminology.hl7.org/CodeSystem/measure-population","code":"measure-observation","display":"Measure Observation"}]},"count":1}],"measureScore":{"value":0.0}}],"evaluatedResource":[{"reference":"Claim/7787f034-5046-4807-8e72-b23ac09199d6"},{"reference":"Claim/aff9b30b-6581-445a-93ce-93f01e9e6133"},{"reference":"Encounter/230b93eb-ad95-4ee9-8510-175571928023"},{"reference":"Encounter/e189c905-60a8-4eb3-ae94-349cebcb1e42"},{"reference":"Condition/80b403ee-d382-4182-be73-5c8875342854"},{"reference":"Condition/000e2209-7689-4308-8508-f97eb1898a03"},{"reference":"Patient/966cc666-8f6e-4d6e-93a9-0c4b6345e966"}]},"request":{"method":"PUT","url":"MeasureReport/bf46e1c3-671a-438c-a60f-ef956ac1da46"}}]},"request":{"method":"PUT","url":"Bundle/NUMERPass-FallNullPOAInjuryNullPOA"}},{"resource":{"resourceType":"Encounter","id":"230b93eb-ad95-4ee9-8510-175571928023","meta":{"profile":["http://hl7.org/fhir/us/qicore/StructureDefinition/qicore-encounter"]},"status":"finished","class":{"system":"http://terminology.hl7.org/CodeSystem/v3-ActCode","code":"IMP","display":"inpatient encounter"},"type":[{"coding":[{"system":"http://snomed.info/sct","code":"183452005"}]}],"subject":{"reference":"Patient/966cc666-8f6e-4d6e-93a9-0c4b6345e966"},"period":{"start":"2026-11-09T11:00:00.000+00:00","end":"2026-11-13T08:15:00.000+00:00"},"reasonReference":[{"reference":"Condition/000e2209-7689-4308-8508-f97eb1898a03"},{"reference":"Condition/80b403ee-d382-4182-be73-5c8875342854"}]},"request":{"method":"PUT","url":"Encounter/230b93eb-ad95-4ee9-8510-175571928023"}},{"resource":{"resourceType":"Encounter","id":"e189c905-60a8-4eb3-ae94-349cebcb1e42","meta":{"profile":["http://hl7.org/fhir/us/qicore/StructureDefinition/qicore-encounter"]},"status":"finished","class":{"system":"http://terminology.hl7.org/CodeSystem/v3-ActCode","code":"IMP","display":"inpatient encounter"},"type":[{"coding":[{"system":"http://snomed.info/sct","code":"4525004"}]}],"subject":{"reference":"Patient/966cc666-8f6e-4d6e-93a9-0c4b6345e966"},"period":{"start":"2026-11-09T08:00:00.000+00:00","end":"2026-11-09T10:15:00.000+00:00"}},"request":{"method":"PUT","url":"Encounter/e189c905-60a8-4eb3-ae94-349cebcb1e42"}},{"resource":{"resourceType":"Condition","id":"000e2209-7689-4308-8508-f97eb1898a03","meta":{"profile":["http://hl7.org/fhir/us/qicore/StructureDefinition/qicore-condition-encounter-diagnosis"]},"clinicalStatus":{"coding":[{"system":"http://terminology.hl7.org/CodeSystem/condition-clinical","code":"active"}]},"verificationStatus":{"coding":[{"system":"http://terminology.hl7.org/CodeSystem/condition-ver-status","code":"confirmed"}]},"category":[{"coding":[{"system":"http://terminology.hl7.org/CodeSystem/condition-category","code":"encounter-diagnosis","display":"Encounter Diagnosis"}]}],"code":{"coding":[{"system":"http://hl7.org/fhir/sid/icd-10-cm","code":"M80.00XA"}]},"subject":{"reference":"Patient/966cc666-8f6e-4d6e-93a9-0c4b6345e966"},"encounter":{"reference":"Encounter/230b93eb-ad95-4ee9-8510-175571928023"}},"request":{"method":"PUT","url":"Condition/000e2209-7689-4308-8508-f97eb1898a03"}},{"resource":{"resourceType":"Claim","id":"aff9b30b-6581-445a-93ce-93f01e9e6133","meta":{"profile":["http://hl7.org/fhir/us/qicore/StructureDefinition/qicore-claim"]},"status":"active","type":{"coding":[{"system":"http://terminology.hl7.org/CodeSystem/claim-type","code":"professional","display":"Professional"}]},"use":"claim","patient":{"reference":"Patient/966cc666-8f6e-4d6e-93a9-0c4b6345e966"},"created":"2026-11-12","priority":{"coding":[{"system":"http://terminology.hl7.org/CodeSystem/processpriority","code":"normal"}]},"diagnosis":[{"sequence":2,"diagnosisReference":{"reference":"Condition/80b403ee-d382-4182-be73-5c8875342854"}}],"item":[{"sequence":1,"diagnosisSequence":[1,2],"encounter":[{"reference":"Encounter/230b93eb-ad95-4ee9-8510-175571928023"}]}]},"request":{"method":"PUT","url":"Claim/aff9b30b-6581-445a-93ce-93f01e9e6133"}},{"resource":{"resourceType":"Claim","id":"7787f034-5046-4807-8e72-b23ac09199d6","meta":{"profile":["http://hl7.org/fhir/us/qicore/StructureDefinition/qicore-claim"]},"status":"active","type":{"coding":[{"system":"http://terminology.hl7.org/CodeSystem/claim-type","code":"professional","display":"Professional"}]},"use":"claim","patient":{"reference":"Patient/966cc666-8f6e-4d6e-93a9-0c4b6345e966"},"created":"2026-11-12","priority":{"coding":[{"system":"http://terminology.hl7.org/CodeSystem/processpriority","code":"normal"}]},"diagnosis":[{"sequence":1,"diagnosisReference":{"reference":"Condition/000e2209-7689-4308-8508-f97eb1898a03"}}],"item":[{"sequence":1,"diagnosisSequence":[1,2],"encounter":[{"reference":"Encounter/230b93eb-ad95-4ee9-8510-175571928023"}]}]},"request":{"method":"PUT","url":"Claim/7787f034-5046-4807-8e72-b23ac09199d6"}},{"resource":{"resourceType":"Condition","id":"80b403ee-d382-4182-be73-5c8875342854","meta":{"profile":["http://hl7.org/fhir/us/qicore/StructureDefinition/qicore-condition-encounter-diagnosis"]},"clinicalStatus":{"coding":[{"system":"http://terminology.hl7.org/CodeSystem/condition-clinical","code":"active"}]},"verificationStatus":{"coding":[{"system":"http://terminology.hl7.org/CodeSystem/condition-ver-status","code":"confirmed"}]},"category":[{"coding":[{"system":"http://terminology.hl7.org/CodeSystem/condition-category","code":"encounter-diagnosis","display":"Encounter Diagnosis"}]}],"code":{"coding":[{"system":"http://hl7.org/fhir/sid/icd-10-cm","code":"W19.XXXA"}]},"subject":{"reference":"Patient/966cc666-8f6e-4d6e-93a9-0c4b6345e966"},"encounter":{"reference":"Encounter/230b93eb-ad95-4ee9-8510-175571928023"}},"request":{"method":"PUT","url":"Condition/80b403ee-d382-4182-be73-5c8875342854"}}]}