{"resourceType":"Bundle","id":"tests-4402a9b9-3d48-4472-a000-579b7baa88fa-bundle","type":"transaction","entry":[{"resource":{"resourceType":"Claim","id":"6cc7d923-38bd-48a4-a678-7e8dc89c621f","meta":{"profile":["http://hl7.org/fhir/us/qicore/StructureDefinition/qicore-claim"]},"status":"active","type":{"coding":[{"system":"http://terminology.hl7.org/CodeSystem/claim-type","code":"institutional","display":"Institutional"}]},"use":"claim","patient":{"reference":"Patient/4402a9b9-3d48-4472-a000-579b7baa88fa"},"created":"2026-10-22","priority":{"coding":[{"system":"http://terminology.hl7.org/CodeSystem/processpriority","code":"normal"}]},"diagnosis":[{"sequence":1,"diagnosisCodeableConcept":{"coding":[{"system":"http://snomed.info/sct","code":"14047009"}]}}],"item":[{"sequence":1,"diagnosisSequence":[1,2],"encounter":[{"reference":"Encounter/09fbd478-f9b6-42ed-a75b-0d7e69981f9a"}]}]},"request":{"method":"PUT","url":"Claim/6cc7d923-38bd-48a4-a678-7e8dc89c621f"}},{"resource":{"resourceType":"Bundle","id":"tests-NumerPass-RVwithOpioidPlanAtAdmission-bundle","type":"transaction","entry":[{"fullUrl":"https://madie.cms.gov/Encounter/09fbd478-f9b6-42ed-a75b-0d7e69981f9a","resource":{"resourceType":"Encounter","id":"09fbd478-f9b6-42ed-a75b-0d7e69981f9a","meta":{"profile":["http://hl7.org/fhir/us/qicore/StructureDefinition/qicore-encounter"]},"status":"finished","class":{"system":"http://terminology.hl7.org/CodeSystem/v3-ActCode","code":"IMP","display":"inpatient encounter"},"type":[{"coding":[{"system":"http://snomed.info/sct","code":"183452005","display":"Inpatient encounter"}]}],"subject":{"reference":"Patient/4402a9b9-3d48-4472-a000-579b7baa88fa"},"period":{"start":"2026-10-19T08:30:00.000+00:00","end":"2026-10-21T08:15:00.000+00:00"},"reasonCode":[{"coding":[{"system":"http://snomed.info/sct","code":"14047009"}]},{"coding":[{"system":"http://snomed.info/sct","code":"64859006"}]}]},"request":{"method":"PUT","url":"Encounter/09fbd478-f9b6-42ed-a75b-0d7e69981f9a"}},{"fullUrl":"https://madie.cms.gov/Encounter/b8db88d1-2ed3-4fcb-bddd-86f6f384799a","resource":{"resourceType":"Encounter","id":"b8db88d1-2ed3-4fcb-bddd-86f6f384799a","meta":{"profile":["http://hl7.org/fhir/us/qicore/StructureDefinition/qicore-encounter"]},"status":"finished","class":{"system":"http://terminology.hl7.org/CodeSystem/v3-ActCode","code":"EMER","display":"emergency encounter"},"type":[{"coding":[{"system":"http://snomed.info/sct","code":"4525004","display":"Emergency Department Visit"}]}],"subject":{"reference":"Patient/4402a9b9-3d48-4472-a000-579b7baa88fa"},"period":{"start":"2026-10-18T09:15:00.000+00:00","end":"2026-10-19T08:15:00.000+00:00"}},"request":{"method":"PUT","url":"Encounter/b8db88d1-2ed3-4fcb-bddd-86f6f384799a"}},{"fullUrl":"https://madie.cms.gov/Patient/4402a9b9-3d48-4472-a000-579b7baa88fa","resource":{"resourceType":"Patient","id":"4402a9b9-3d48-4472-a000-579b7baa88fa","meta":{"profile":["http://hl7.org/fhir/us/qicore/StructureDefinition/qicore-patient"]},"extension":[{"url":"http://hl7.org/fhir/us/core/StructureDefinition/us-core-race","extension":[{"url":"ombCategory","valueCoding":{"system":"urn:oid:2.16.840.1.113883.6.238","code":"2106-3","display":"White"}},{"url":"text","valueString":"White"}]},{"url":"http://hl7.org/fhir/us/core/StructureDefinition/us-core-ethnicity","extension":[{"url":"ombCategory","valueCoding":{"system":"urn:oid:2.16.840.1.113883.6.238","code":"2135-2","display":"Hispanic or Latino"}},{"url":"text","valueString":"Hispanic or Latino"}]},{"url":"http://hl7.org/fhir/us/core/StructureDefinition/us-core-sex","valueCode":"248153007"}],"identifier":[{"system":"http://hospital.smarthealthit.org","value":"999999999"}],"name":[{"family":"Example","given":["Patient"]}],"gender":"female","birthDate":"1956-01-01"},"request":{"method":"PUT","url":"Patient/4402a9b9-3d48-4472-a000-579b7baa88fa"}},{"fullUrl":"https://madie.cms.gov/Claim/6cc7d923-38bd-48a4-a678-7e8dc89c621f","resource":{"resourceType":"Claim","id":"6cc7d923-38bd-48a4-a678-7e8dc89c621f","meta":{"profile":["http://hl7.org/fhir/us/qicore/StructureDefinition/qicore-claim"]},"status":"active","type":{"coding":[{"system":"http://terminology.hl7.org/CodeSystem/claim-type","code":"institutional","display":"Institutional"}]},"use":"claim","patient":{"reference":"Patient/4402a9b9-3d48-4472-a000-579b7baa88fa"},"created":"2026-10-22","priority":{"coding":[{"system":"http://terminology.hl7.org/CodeSystem/processpriority","code":"normal"}]},"diagnosis":[{"sequence":1,"diagnosisCodeableConcept":{"coding":[{"system":"http://snomed.info/sct","code":"14047009"}]}}],"item":[{"sequence":1,"diagnosisSequence":[1,2],"encounter":[{"reference":"Encounter/09fbd478-f9b6-42ed-a75b-0d7e69981f9a"}]}]},"request":{"method":"PUT","url":"Claim/6cc7d923-38bd-48a4-a678-7e8dc89c621f"}},{"fullUrl":"https://madie.cms.gov/Claim/aab3ca21-7e1f-435e-a327-0bd39e7b13a2","resource":{"resourceType":"Claim","id":"aab3ca21-7e1f-435e-a327-0bd39e7b13a2","meta":{"profile":["http://hl7.org/fhir/us/qicore/StructureDefinition/qicore-claim"]},"status":"active","type":{"coding":[{"system":"http://terminology.hl7.org/CodeSystem/claim-type","code":"institutional","display":"Institutional"}]},"use":"claim","patient":{"reference":"Patient/4402a9b9-3d48-4472-a000-579b7baa88fa"},"created":"2026-11-01","provider":{"reference":"Organization/Organization-1"},"priority":{"coding":[{"system":"http://terminology.hl7.org/CodeSystem/processpriority","code":"normal"}]},"diagnosis":[{"sequence":1,"diagnosisCodeableConcept":{"coding":[{"system":"http://hl7.org/fhir/sid/icd-10-cm","code":"M80.00XA","display":"Age-related osteoporosis with current pathological fracture, unspecified site, initial encounter for fracture"}]}}],"item":[{"sequence":1,"diagnosisSequence":[1,2],"encounter":[{"reference":"Encounter/09fbd478-f9b6-42ed-a75b-0d7e69981f9a"}]}]},"request":{"method":"PUT","url":"Claim/aab3ca21-7e1f-435e-a327-0bd39e7b13a2"}},{"fullUrl":"https://madie.cms.gov/MedicationRequest/dfc766ad-ea42-4b43-9c93-9f6641065d26","resource":{"resourceType":"MedicationRequest","id":"dfc766ad-ea42-4b43-9c93-9f6641065d26","meta":{"profile":["http://hl7.org/fhir/us/qicore/StructureDefinition/qicore-medicationrequest"]},"status":"active","intent":"plan","category":[{"coding":[{"system":"http://terminology.hl7.org/CodeSystem/medicationrequest-category","code":"community","display":"Community"}]}],"reportedReference":{"reference":"Patient/4402a9b9-3d48-4472-a000-579b7baa88fa"},"medicationCodeableConcept":{"coding":[{"system":"http://www.nlm.nih.gov/research/umls/rxnorm","code":"1010600"}]},"subject":{"reference":"Patient/4402a9b9-3d48-4472-a000-579b7baa88fa"},"authoredOn":"2026-10-15","requester":{"reference":"Practitioner/Practitioner-1"},"dispenseRequest":{"quantity":{"value":14,"unit":"tablet","system":"http://unitsofmeasure.org","code":"{tablet}"},"expectedSupplyDuration":{"value":14,"unit":"days","system":"http://unitsofmeasure.org","code":"d"}}},"request":{"method":"PUT","url":"MedicationRequest/dfc766ad-ea42-4b43-9c93-9f6641065d26"}},{"fullUrl":"https://madie.cms.gov/Observation/fa4df8ec-acad-4882-91ac-bd02873d1254","resource":{"resourceType":"Observation","id":"fa4df8ec-acad-4882-91ac-bd02873d1254","meta":{"profile":["http://hl7.org/fhir/us/core/StructureDefinition/us-core-bmi"]},"status":"final","category":[{"coding":[{"system":"http://terminology.hl7.org/CodeSystem/observation-category","code":"vital-signs","display":"Vital Signs"}]}],"code":{"coding":[{"system":"http://loinc.org","code":"39156-5","display":"Body mass index (BMI) [Ratio]"}],"text":"BMI"},"subject":{"reference":"Patient/4402a9b9-3d48-4472-a000-579b7baa88fa"},"effectiveDateTime":"2026-10-20T08:00:00.000+00:00","valueQuantity":{"value":28.3,"unit":"kg/m2","system":"http://unitsofmeasure.org","code":"kg/m2"}},"request":{"method":"PUT","url":"Observation/fa4df8ec-acad-4882-91ac-bd02873d1254"}},{"fullUrl":"https://madie.cms.gov/MeasureReport/3ca785cf-4da9-46f2-ad1d-0ee2862af363","resource":{"resourceType":"MeasureReport","id":"3ca785cf-4da9-46f2-ad1d-0ee2862af363","meta":{"profile":["http://hl7.org/fhir/us/cqfmeasures/StructureDefinition/test-case-cqfm"]},"contained":[{"resourceType":"Parameters","id":"6f06f30c-a042-4214-b580-b8bb26e55f44-parameters","parameter":[{"name":"subject","valueString":"4402a9b9-3d48-4472-a000-579b7baa88fa"}]}],"extension":[{"url":"http://hl7.org/fhir/StructureDefinition/cqf-inputParameters","valueReference":{"reference":"#6f06f30c-a042-4214-b580-b8bb26e55f44-parameters"}},{"url":"http://hl7.org/fhir/us/cqfmeasures/StructureDefinition/cqfm-testCaseDescription","valueMarkdown":"RVariable Encounter With Opioid Plan At Admission"}],"modifierExtension":[{"url":"http://hl7.org/fhir/us/cqfmeasures/StructureDefinition/cqfm-isTestCase","valueBoolean":true}],"status":"complete","type":"individual","measure":"https://madie.cms.gov/Measure/CMS1017FHIRHHFI","period":{"start":"2026-01-01","end":"2026-12-31"},"group":[{"id":"Group_1","population":[{"id":"InitialPopulation_1","code":{"coding":[{"system":"http://terminology.hl7.org/CodeSystem/measure-population","code":"initial-population","display":"Initial Population"}]},"count":1},{"id":"Denominator_1","code":{"coding":[{"system":"http://terminology.hl7.org/CodeSystem/measure-population","code":"denominator","display":"Denominator"}]},"count":1},{"id":"DenominatorExclusion_1","code":{"coding":[{"system":"http://terminology.hl7.org/CodeSystem/measure-population","code":"denominator-exclusion","display":"Denominator Exclusion"}]},"count":0},{"id":"Numerator_1","code":{"coding":[{"system":"http://terminology.hl7.org/CodeSystem/measure-population","code":"numerator","display":"Numerator"}]},"count":1},{"id":"NumeratorExclusion_1","code":{"coding":[{"system":"http://terminology.hl7.org/CodeSystem/measure-population","code":"numerator-exclusion","display":"Numerator Exclusion"}]},"count":0},{"id":"MeasureObservation_1_1_1","code":{"coding":[{"system":"http://terminology.hl7.org/CodeSystem/measure-population","code":"measure-observation","display":"Measure Observation"}]},"count":2},{"id":"MeasureObservation_1_2_1","code":{"coding":[{"system":"http://terminology.hl7.org/CodeSystem/measure-population","code":"measure-observation","display":"Measure Observation"}]},"count":1}],"measureScore":{"value":0.0}}],"evaluatedResource":[{"reference":"Encounter/09fbd478-f9b6-42ed-a75b-0d7e69981f9a"},{"reference":"Encounter/b8db88d1-2ed3-4fcb-bddd-86f6f384799a"},{"reference":"Patient/4402a9b9-3d48-4472-a000-579b7baa88fa"},{"reference":"Claim/6cc7d923-38bd-48a4-a678-7e8dc89c621f"},{"reference":"Claim/aab3ca21-7e1f-435e-a327-0bd39e7b13a2"},{"reference":"MedicationRequest/dfc766ad-ea42-4b43-9c93-9f6641065d26"},{"reference":"Observation/fa4df8ec-acad-4882-91ac-bd02873d1254"}]},"request":{"method":"PUT","url":"MeasureReport/3ca785cf-4da9-46f2-ad1d-0ee2862af363"}}]},"request":{"method":"PUT","url":"Bundle/tests-NumerPass-RVwithOpioidPlanAtAdmission-bundle"}},{"resource":{"resourceType":"Patient","id":"4402a9b9-3d48-4472-a000-579b7baa88fa","meta":{"profile":["http://hl7.org/fhir/us/qicore/StructureDefinition/qicore-patient"]},"extension":[{"url":"http://hl7.org/fhir/us/core/StructureDefinition/us-core-race","extension":[{"url":"ombCategory","valueCoding":{"system":"urn:oid:2.16.840.1.113883.6.238","code":"2106-3","display":"White"}},{"url":"text","valueString":"White"}]},{"url":"http://hl7.org/fhir/us/core/StructureDefinition/us-core-ethnicity","extension":[{"url":"ombCategory","valueCoding":{"system":"urn:oid:2.16.840.1.113883.6.238","code":"2135-2","display":"Hispanic or Latino"}},{"url":"text","valueString":"Hispanic or Latino"}]},{"url":"http://hl7.org/fhir/us/core/StructureDefinition/us-core-sex","valueCode":"248153007"}],"identifier":[{"system":"http://hospital.smarthealthit.org","value":"999999999"}],"name":[{"family":"Example","given":["Patient"]}],"gender":"female","birthDate":"1956-01-01"},"request":{"method":"PUT","url":"Patient/4402a9b9-3d48-4472-a000-579b7baa88fa"}},{"resource":{"resourceType":"Observation","id":"fa4df8ec-acad-4882-91ac-bd02873d1254","meta":{"profile":["http://hl7.org/fhir/us/core/StructureDefinition/us-core-bmi"]},"status":"final","category":[{"coding":[{"system":"http://terminology.hl7.org/CodeSystem/observation-category","code":"vital-signs","display":"Vital Signs"}]}],"code":{"coding":[{"system":"http://loinc.org","code":"39156-5","display":"Body mass index (BMI) [Ratio]"}],"text":"BMI"},"subject":{"reference":"Patient/4402a9b9-3d48-4472-a000-579b7baa88fa"},"effectiveDateTime":"2026-10-20T08:00:00.000+00:00","valueQuantity":{"value":28.3,"unit":"kg/m2","system":"http://unitsofmeasure.org","code":"kg/m2"}},"request":{"method":"PUT","url":"Observation/fa4df8ec-acad-4882-91ac-bd02873d1254"}},{"resource":{"resourceType":"Claim","id":"aab3ca21-7e1f-435e-a327-0bd39e7b13a2","meta":{"profile":["http://hl7.org/fhir/us/qicore/StructureDefinition/qicore-claim"]},"status":"active","type":{"coding":[{"system":"http://terminology.hl7.org/CodeSystem/claim-type","code":"institutional","display":"Institutional"}]},"use":"claim","patient":{"reference":"Patient/4402a9b9-3d48-4472-a000-579b7baa88fa"},"created":"2026-11-01","provider":{"reference":"Organization/Organization-1"},"priority":{"coding":[{"system":"http://terminology.hl7.org/CodeSystem/processpriority","code":"normal"}]},"diagnosis":[{"sequence":1,"diagnosisCodeableConcept":{"coding":[{"system":"http://hl7.org/fhir/sid/icd-10-cm","code":"M80.00XA","display":"Age-related osteoporosis with current pathological fracture, unspecified site, initial encounter for fracture"}]}}],"item":[{"sequence":1,"diagnosisSequence":[1,2],"encounter":[{"reference":"Encounter/09fbd478-f9b6-42ed-a75b-0d7e69981f9a"}]}]},"request":{"method":"PUT","url":"Claim/aab3ca21-7e1f-435e-a327-0bd39e7b13a2"}},{"resource":{"resourceType":"Encounter","id":"b8db88d1-2ed3-4fcb-bddd-86f6f384799a","meta":{"profile":["http://hl7.org/fhir/us/qicore/StructureDefinition/qicore-encounter"]},"status":"finished","class":{"system":"http://terminology.hl7.org/CodeSystem/v3-ActCode","code":"EMER","display":"emergency encounter"},"type":[{"coding":[{"system":"http://snomed.info/sct","code":"4525004","display":"Emergency Department Visit"}]}],"subject":{"reference":"Patient/4402a9b9-3d48-4472-a000-579b7baa88fa"},"period":{"start":"2026-10-18T09:15:00.000+00:00","end":"2026-10-19T08:15:00.000+00:00"}},"request":{"method":"PUT","url":"Encounter/b8db88d1-2ed3-4fcb-bddd-86f6f384799a"}},{"resource":{"resourceType":"Encounter","id":"09fbd478-f9b6-42ed-a75b-0d7e69981f9a","meta":{"profile":["http://hl7.org/fhir/us/qicore/StructureDefinition/qicore-encounter"]},"status":"finished","class":{"system":"http://terminology.hl7.org/CodeSystem/v3-ActCode","code":"IMP","display":"inpatient encounter"},"type":[{"coding":[{"system":"http://snomed.info/sct","code":"183452005","display":"Inpatient encounter"}]}],"subject":{"reference":"Patient/4402a9b9-3d48-4472-a000-579b7baa88fa"},"period":{"start":"2026-10-19T08:30:00.000+00:00","end":"2026-10-21T08:15:00.000+00:00"},"reasonCode":[{"coding":[{"system":"http://snomed.info/sct","code":"14047009"}]},{"coding":[{"system":"http://snomed.info/sct","code":"64859006"}]}]},"request":{"method":"PUT","url":"Encounter/09fbd478-f9b6-42ed-a75b-0d7e69981f9a"}},{"resource":{"resourceType":"MeasureReport","id":"3ca785cf-4da9-46f2-ad1d-0ee2862af363","meta":{"profile":["http://hl7.org/fhir/us/cqfmeasures/StructureDefinition/test-case-cqfm"]},"contained":[{"resourceType":"Parameters","id":"6f06f30c-a042-4214-b580-b8bb26e55f44-parameters","parameter":[{"name":"subject","valueString":"4402a9b9-3d48-4472-a000-579b7baa88fa"}]}],"extension":[{"url":"http://hl7.org/fhir/StructureDefinition/cqf-inputParameters","valueReference":{"reference":"#6f06f30c-a042-4214-b580-b8bb26e55f44-parameters"}},{"url":"http://hl7.org/fhir/us/cqfmeasures/StructureDefinition/cqfm-testCaseDescription","valueMarkdown":"RVariable Encounter With Opioid Plan At Admission"}],"modifierExtension":[{"url":"http://hl7.org/fhir/us/cqfmeasures/StructureDefinition/cqfm-isTestCase","valueBoolean":true}],"status":"complete","type":"individual","measure":"https://madie.cms.gov/Measure/CMS1017FHIRHHFI","period":{"start":"2026-01-01","end":"2026-12-31"},"group":[{"id":"Group_1","population":[{"id":"InitialPopulation_1","code":{"coding":[{"system":"http://terminology.hl7.org/CodeSystem/measure-population","code":"initial-population","display":"Initial Population"}]},"count":1},{"id":"Denominator_1","code":{"coding":[{"system":"http://terminology.hl7.org/CodeSystem/measure-population","code":"denominator","display":"Denominator"}]},"count":1},{"id":"DenominatorExclusion_1","code":{"coding":[{"system":"http://terminology.hl7.org/CodeSystem/measure-population","code":"denominator-exclusion","display":"Denominator Exclusion"}]},"count":0},{"id":"Numerator_1","code":{"coding":[{"system":"http://terminology.hl7.org/CodeSystem/measure-population","code":"numerator","display":"Numerator"}]},"count":1},{"id":"NumeratorExclusion_1","code":{"coding":[{"system":"http://terminology.hl7.org/CodeSystem/measure-population","code":"numerator-exclusion","display":"Numerator Exclusion"}]},"count":0},{"id":"MeasureObservation_1_1_1","code":{"coding":[{"system":"http://terminology.hl7.org/CodeSystem/measure-population","code":"measure-observation","display":"Measure Observation"}]},"count":2},{"id":"MeasureObservation_1_2_1","code":{"coding":[{"system":"http://terminology.hl7.org/CodeSystem/measure-population","code":"measure-observation","display":"Measure Observation"}]},"count":1}],"measureScore":{"value":0.0}}],"evaluatedResource":[{"reference":"Encounter/09fbd478-f9b6-42ed-a75b-0d7e69981f9a"},{"reference":"Encounter/b8db88d1-2ed3-4fcb-bddd-86f6f384799a"},{"reference":"Patient/4402a9b9-3d48-4472-a000-579b7baa88fa"},{"reference":"Claim/6cc7d923-38bd-48a4-a678-7e8dc89c621f"},{"reference":"Claim/aab3ca21-7e1f-435e-a327-0bd39e7b13a2"},{"reference":"MedicationRequest/dfc766ad-ea42-4b43-9c93-9f6641065d26"},{"reference":"Observation/fa4df8ec-acad-4882-91ac-bd02873d1254"}]},"request":{"method":"PUT","url":"MeasureReport/3ca785cf-4da9-46f2-ad1d-0ee2862af363"}},{"resource":{"resourceType":"MedicationRequest","id":"dfc766ad-ea42-4b43-9c93-9f6641065d26","meta":{"profile":["http://hl7.org/fhir/us/qicore/StructureDefinition/qicore-medicationrequest"]},"status":"active","intent":"plan","category":[{"coding":[{"system":"http://terminology.hl7.org/CodeSystem/medicationrequest-category","code":"community","display":"Community"}]}],"reportedReference":{"reference":"Patient/4402a9b9-3d48-4472-a000-579b7baa88fa"},"medicationCodeableConcept":{"coding":[{"system":"http://www.nlm.nih.gov/research/umls/rxnorm","code":"1010600"}]},"subject":{"reference":"Patient/4402a9b9-3d48-4472-a000-579b7baa88fa"},"authoredOn":"2026-10-15","requester":{"reference":"Practitioner/Practitioner-1"},"dispenseRequest":{"quantity":{"value":14,"unit":"tablet","system":"http://unitsofmeasure.org","code":"{tablet}"},"expectedSupplyDuration":{"value":14,"unit":"days","system":"http://unitsofmeasure.org","code":"d"}}},"request":{"method":"PUT","url":"MedicationRequest/dfc766ad-ea42-4b43-9c93-9f6641065d26"}}]}