{"resourceType":"Bundle","id":"tests-6916a60d-ffa4-4d2c-8d96-73a31aa18854-bundle","type":"transaction","entry":[{"resource":{"resourceType":"Claim","id":"c24f48b8-3420-479f-9681-bdc397ab0cab","meta":{"profile":["http://hl7.org/fhir/us/qicore/StructureDefinition/qicore-claim"]},"status":"active","type":{"coding":[{"system":"http://terminology.hl7.org/CodeSystem/claim-type","code":"professional","display":"Professional"}]},"use":"claim","patient":{"reference":"Patient/6916a60d-ffa4-4d2c-8d96-73a31aa18854"},"created":"2026-12-12","priority":{"coding":[{"system":"http://terminology.hl7.org/CodeSystem/processpriority","code":"normal"}]},"diagnosis":[{"sequence":1,"diagnosisCodeableConcept":{"coding":[{"system":"http://hl7.org/fhir/sid/icd-10-cm","code":"T14.91XA"}]},"onAdmission":{"coding":[{"system":"https://www.cms.gov/Medicare/Medicare-Fee-for-Service-Payment/HospitalAcqCond/Coding","code":"Y"}]}}],"item":[{"sequence":1,"diagnosisSequence":[1,2],"encounter":[{"reference":"Encounter/a52c52f0-b2b9-4bf8-b1be-9561408fd524"}]}]},"request":{"method":"PUT","url":"Claim/c24f48b8-3420-479f-9681-bdc397ab0cab"}},{"resource":{"resourceType":"Encounter","id":"a52c52f0-b2b9-4bf8-b1be-9561408fd524","meta":{"profile":["http://hl7.org/fhir/us/qicore/StructureDefinition/qicore-encounter"]},"status":"finished","class":{"system":"http://terminology.hl7.org/CodeSystem/v3-ActCode","code":"IMP","display":"inpatient encounter"},"type":[{"coding":[{"system":"http://snomed.info/sct","code":"183452005","display":"Emergency hospital admission"}]}],"subject":{"reference":"Patient/6916a60d-ffa4-4d2c-8d96-73a31aa18854"},"period":{"start":"2026-11-12T08:00:00.000+00:00","end":"2026-11-18T08:01:00.000+00:00"},"reasonReference":[{"reference":"Condition/7e455217-28c5-40f6-8632-66ed4765a373"}]},"request":{"method":"PUT","url":"Encounter/a52c52f0-b2b9-4bf8-b1be-9561408fd524"}},{"resource":{"resourceType":"MeasureReport","id":"b8ee2cc5-4c0c-41e0-b7ce-f396575c3103","meta":{"profile":["http://hl7.org/fhir/us/cqfmeasures/StructureDefinition/test-case-cqfm"]},"contained":[{"resourceType":"Parameters","id":"2bf52d75-047f-4254-8ad1-337dac5b81b0-parameters","parameter":[{"name":"subject","valueString":"6916a60d-ffa4-4d2c-8d96-73a31aa18854"}]}],"extension":[{"url":"http://hl7.org/fhir/StructureDefinition/cqf-inputParameters","valueReference":{"reference":"#2bf52d75-047f-4254-8ad1-337dac5b81b0-parameters"}},{"url":"http://hl7.org/fhir/us/cqfmeasures/StructureDefinition/cqfm-testCaseDescription","valueMarkdown":"Encounter with Suicide Attempt dx POA = Y. Meets RV"}],"modifierExtension":[{"url":"http://hl7.org/fhir/us/cqfmeasures/StructureDefinition/cqfm-isTestCase","valueBoolean":true}],"status":"complete","type":"individual","measure":"https://madie.cms.gov/Measure/CMS1017FHIRHHFI","period":{"start":"2026-01-01","end":"2026-12-31"},"group":[{"id":"Group_1","population":[{"id":"InitialPopulation_1","code":{"coding":[{"system":"http://terminology.hl7.org/CodeSystem/measure-population","code":"initial-population","display":"Initial Population"}]},"count":1},{"id":"Denominator_1","code":{"coding":[{"system":"http://terminology.hl7.org/CodeSystem/measure-population","code":"denominator","display":"Denominator"}]},"count":1},{"id":"DenominatorExclusion_1","code":{"coding":[{"system":"http://terminology.hl7.org/CodeSystem/measure-population","code":"denominator-exclusion","display":"Denominator Exclusion"}]},"count":0},{"id":"Numerator_1","code":{"coding":[{"system":"http://terminology.hl7.org/CodeSystem/measure-population","code":"numerator","display":"Numerator"}]},"count":0},{"id":"NumeratorExclusion_1","code":{"coding":[{"system":"http://terminology.hl7.org/CodeSystem/measure-population","code":"numerator-exclusion","display":"Numerator Exclusion"}]},"count":0},{"id":"MeasureObservation_1_1_1","code":{"coding":[{"system":"http://terminology.hl7.org/CodeSystem/measure-population","code":"measure-observation","display":"Measure Observation"}]},"count":6}],"measureScore":{"value":0.0}}],"evaluatedResource":[{"reference":"Claim/c24f48b8-3420-479f-9681-bdc397ab0cab"},{"reference":"Patient/6916a60d-ffa4-4d2c-8d96-73a31aa18854"},{"reference":"Condition/7e455217-28c5-40f6-8632-66ed4765a373"},{"reference":"Encounter/a52c52f0-b2b9-4bf8-b1be-9561408fd524"}]},"request":{"method":"PUT","url":"MeasureReport/b8ee2cc5-4c0c-41e0-b7ce-f396575c3103"}},{"resource":{"resourceType":"Patient","id":"6916a60d-ffa4-4d2c-8d96-73a31aa18854","meta":{"profile":["http://hl7.org/fhir/us/qicore/StructureDefinition/qicore-patient"]},"extension":[{"url":"http://hl7.org/fhir/us/core/StructureDefinition/us-core-race","extension":[{"url":"ombCategory","valueCoding":{"system":"urn:oid:2.16.840.1.113883.6.238","code":"1002-5","display":"American Indian or Alaska Native","userSelected":true}},{"url":"text","valueString":"American Indian or Alaska Native"}]},{"url":"http://hl7.org/fhir/us/core/StructureDefinition/us-core-ethnicity","extension":[{"url":"ombCategory","valueCoding":{"system":"urn:oid:2.16.840.1.113883.6.238","code":"2135-2","display":"Hispanic or Latino","userSelected":true}},{"url":"text","valueString":"Hispanic or Latino"}]}],"identifier":[{"type":{"coding":[{"system":"http://terminology.hl7.org/CodeSystem/v2-0203","code":"MR"}]},"system":"https://bonnie-fhir.healthit.gov/","value":"61152a3b98086b7a79cbd7c1"}],"active":true,"name":[{"use":"usual","family":"DENOMPass","given":["RVDeliriumDxPOA"]}],"gender":"female","birthDate":"1964-12-11"},"request":{"method":"PUT","url":"Patient/6916a60d-ffa4-4d2c-8d96-73a31aa18854"}},{"resource":{"resourceType":"Bundle","id":"DENOMPass-RVSuicideAttemptDxOnEncounter","type":"transaction","entry":[{"fullUrl":"https://madie.cms.gov/Claim/c24f48b8-3420-479f-9681-bdc397ab0cab","resource":{"resourceType":"Claim","id":"c24f48b8-3420-479f-9681-bdc397ab0cab","meta":{"profile":["http://hl7.org/fhir/us/qicore/StructureDefinition/qicore-claim"]},"status":"active","type":{"coding":[{"system":"http://terminology.hl7.org/CodeSystem/claim-type","code":"professional","display":"Professional"}]},"use":"claim","patient":{"reference":"Patient/6916a60d-ffa4-4d2c-8d96-73a31aa18854"},"created":"2026-12-12","priority":{"coding":[{"system":"http://terminology.hl7.org/CodeSystem/processpriority","code":"normal"}]},"diagnosis":[{"sequence":1,"diagnosisCodeableConcept":{"coding":[{"system":"http://hl7.org/fhir/sid/icd-10-cm","code":"T14.91XA"}]},"onAdmission":{"coding":[{"system":"https://www.cms.gov/Medicare/Medicare-Fee-for-Service-Payment/HospitalAcqCond/Coding","code":"Y"}]}}],"item":[{"sequence":1,"diagnosisSequence":[1,2],"encounter":[{"reference":"Encounter/a52c52f0-b2b9-4bf8-b1be-9561408fd524"}]}]},"request":{"method":"PUT","url":"Claim/c24f48b8-3420-479f-9681-bdc397ab0cab"}},{"fullUrl":"https://madie.cms.gov/Patient/6916a60d-ffa4-4d2c-8d96-73a31aa18854","resource":{"resourceType":"Patient","id":"6916a60d-ffa4-4d2c-8d96-73a31aa18854","meta":{"profile":["http://hl7.org/fhir/us/qicore/StructureDefinition/qicore-patient"]},"extension":[{"url":"http://hl7.org/fhir/us/core/StructureDefinition/us-core-race","extension":[{"url":"ombCategory","valueCoding":{"system":"urn:oid:2.16.840.1.113883.6.238","code":"1002-5","display":"American Indian or Alaska Native","userSelected":true}},{"url":"text","valueString":"American Indian or Alaska Native"}]},{"url":"http://hl7.org/fhir/us/core/StructureDefinition/us-core-ethnicity","extension":[{"url":"ombCategory","valueCoding":{"system":"urn:oid:2.16.840.1.113883.6.238","code":"2135-2","display":"Hispanic or Latino","userSelected":true}},{"url":"text","valueString":"Hispanic or Latino"}]}],"identifier":[{"type":{"coding":[{"system":"http://terminology.hl7.org/CodeSystem/v2-0203","code":"MR"}]},"system":"https://bonnie-fhir.healthit.gov/","value":"61152a3b98086b7a79cbd7c1"}],"active":true,"name":[{"use":"usual","family":"DENOMPass","given":["RVDeliriumDxPOA"]}],"gender":"female","birthDate":"1964-12-11"},"request":{"method":"PUT","url":"Patient/6916a60d-ffa4-4d2c-8d96-73a31aa18854"}},{"fullUrl":"https://madie.cms.gov/Condition/7e455217-28c5-40f6-8632-66ed4765a373","resource":{"resourceType":"Condition","id":"7e455217-28c5-40f6-8632-66ed4765a373","meta":{"profile":["http://hl7.org/fhir/us/qicore/StructureDefinition/qicore-condition-encounter-diagnosis"]},"clinicalStatus":{"coding":[{"system":"http://terminology.hl7.org/CodeSystem/condition-clinical","code":"active"}]},"verificationStatus":{"coding":[{"system":"http://terminology.hl7.org/CodeSystem/condition-ver-status","code":"confirmed"}]},"category":[{"coding":[{"system":"http://terminology.hl7.org/CodeSystem/condition-category","code":"encounter-diagnosis","display":"Encounter Diagnosis"}]}],"code":{"coding":[{"system":"http://hl7.org/fhir/sid/icd-10-cm","code":"T14.91XA","display":"Suicide attempt, initial encounter"}]},"subject":{"reference":"Patient/6916a60d-ffa4-4d2c-8d96-73a31aa18854"},"encounter":{"reference":"Encounter/a52c52f0-b2b9-4bf8-b1be-9561408fd524"}},"request":{"method":"PUT","url":"Condition/7e455217-28c5-40f6-8632-66ed4765a373"}},{"fullUrl":"https://madie.cms.gov/Encounter/a52c52f0-b2b9-4bf8-b1be-9561408fd524","resource":{"resourceType":"Encounter","id":"a52c52f0-b2b9-4bf8-b1be-9561408fd524","meta":{"profile":["http://hl7.org/fhir/us/qicore/StructureDefinition/qicore-encounter"]},"status":"finished","class":{"system":"http://terminology.hl7.org/CodeSystem/v3-ActCode","code":"IMP","display":"inpatient encounter"},"type":[{"coding":[{"system":"http://snomed.info/sct","code":"183452005","display":"Emergency hospital admission"}]}],"subject":{"reference":"Patient/6916a60d-ffa4-4d2c-8d96-73a31aa18854"},"period":{"start":"2026-11-12T08:00:00.000+00:00","end":"2026-11-18T08:01:00.000+00:00"},"reasonReference":[{"reference":"Condition/7e455217-28c5-40f6-8632-66ed4765a373"}]},"request":{"method":"PUT","url":"Encounter/a52c52f0-b2b9-4bf8-b1be-9561408fd524"}},{"fullUrl":"https://madie.cms.gov/MeasureReport/b8ee2cc5-4c0c-41e0-b7ce-f396575c3103","resource":{"resourceType":"MeasureReport","id":"b8ee2cc5-4c0c-41e0-b7ce-f396575c3103","meta":{"profile":["http://hl7.org/fhir/us/cqfmeasures/StructureDefinition/test-case-cqfm"]},"contained":[{"resourceType":"Parameters","id":"2bf52d75-047f-4254-8ad1-337dac5b81b0-parameters","parameter":[{"name":"subject","valueString":"6916a60d-ffa4-4d2c-8d96-73a31aa18854"}]}],"extension":[{"url":"http://hl7.org/fhir/StructureDefinition/cqf-inputParameters","valueReference":{"reference":"#2bf52d75-047f-4254-8ad1-337dac5b81b0-parameters"}},{"url":"http://hl7.org/fhir/us/cqfmeasures/StructureDefinition/cqfm-testCaseDescription","valueMarkdown":"Encounter with Suicide Attempt dx POA = Y. Meets RV"}],"modifierExtension":[{"url":"http://hl7.org/fhir/us/cqfmeasures/StructureDefinition/cqfm-isTestCase","valueBoolean":true}],"status":"complete","type":"individual","measure":"https://madie.cms.gov/Measure/CMS1017FHIRHHFI","period":{"start":"2026-01-01","end":"2026-12-31"},"group":[{"id":"Group_1","population":[{"id":"InitialPopulation_1","code":{"coding":[{"system":"http://terminology.hl7.org/CodeSystem/measure-population","code":"initial-population","display":"Initial Population"}]},"count":1},{"id":"Denominator_1","code":{"coding":[{"system":"http://terminology.hl7.org/CodeSystem/measure-population","code":"denominator","display":"Denominator"}]},"count":1},{"id":"DenominatorExclusion_1","code":{"coding":[{"system":"http://terminology.hl7.org/CodeSystem/measure-population","code":"denominator-exclusion","display":"Denominator Exclusion"}]},"count":0},{"id":"Numerator_1","code":{"coding":[{"system":"http://terminology.hl7.org/CodeSystem/measure-population","code":"numerator","display":"Numerator"}]},"count":0},{"id":"NumeratorExclusion_1","code":{"coding":[{"system":"http://terminology.hl7.org/CodeSystem/measure-population","code":"numerator-exclusion","display":"Numerator Exclusion"}]},"count":0},{"id":"MeasureObservation_1_1_1","code":{"coding":[{"system":"http://terminology.hl7.org/CodeSystem/measure-population","code":"measure-observation","display":"Measure Observation"}]},"count":6}],"measureScore":{"value":0.0}}],"evaluatedResource":[{"reference":"Claim/c24f48b8-3420-479f-9681-bdc397ab0cab"},{"reference":"Patient/6916a60d-ffa4-4d2c-8d96-73a31aa18854"},{"reference":"Condition/7e455217-28c5-40f6-8632-66ed4765a373"},{"reference":"Encounter/a52c52f0-b2b9-4bf8-b1be-9561408fd524"}]},"request":{"method":"PUT","url":"MeasureReport/b8ee2cc5-4c0c-41e0-b7ce-f396575c3103"}}]},"request":{"method":"PUT","url":"Bundle/DENOMPass-RVSuicideAttemptDxOnEncounter"}},{"resource":{"resourceType":"Condition","id":"7e455217-28c5-40f6-8632-66ed4765a373","meta":{"profile":["http://hl7.org/fhir/us/qicore/StructureDefinition/qicore-condition-encounter-diagnosis"]},"clinicalStatus":{"coding":[{"system":"http://terminology.hl7.org/CodeSystem/condition-clinical","code":"active"}]},"verificationStatus":{"coding":[{"system":"http://terminology.hl7.org/CodeSystem/condition-ver-status","code":"confirmed"}]},"category":[{"coding":[{"system":"http://terminology.hl7.org/CodeSystem/condition-category","code":"encounter-diagnosis","display":"Encounter Diagnosis"}]}],"code":{"coding":[{"system":"http://hl7.org/fhir/sid/icd-10-cm","code":"T14.91XA","display":"Suicide attempt, initial encounter"}]},"subject":{"reference":"Patient/6916a60d-ffa4-4d2c-8d96-73a31aa18854"},"encounter":{"reference":"Encounter/a52c52f0-b2b9-4bf8-b1be-9561408fd524"}},"request":{"method":"PUT","url":"Condition/7e455217-28c5-40f6-8632-66ed4765a373"}}]}