{"resourceType":"Bundle","id":"tests-ea6b3f44-c6cd-4417-ae60-e97564bf24f9-bundle","type":"transaction","entry":[{"resource":{"resourceType":"Bundle","id":"OBSERVPass-DenomObsPassDueTo1DayPlus23Hrs59M","type":"transaction","entry":[{"fullUrl":"https://madie.cms.gov/Encounter/207472ed-4904-4b34-9873-0995d52d9f35","resource":{"resourceType":"Encounter","id":"207472ed-4904-4b34-9873-0995d52d9f35","meta":{"profile":["http://hl7.org/fhir/us/qicore/StructureDefinition/qicore-encounter"]},"status":"finished","class":{"system":"http://terminology.hl7.org/CodeSystem/v3-ActCode","code":"IMP","display":"inpatient encounter"},"type":[{"coding":[{"system":"http://snomed.info/sct","code":"183452005"}]}],"subject":{"reference":"Patient/ea6b3f44-c6cd-4417-ae60-e97564bf24f9"},"period":{"start":"2026-11-08T08:00:00.000+00:00","end":"2026-11-13T23:59:00.000+00:00"}},"request":{"method":"PUT","url":"Encounter/207472ed-4904-4b34-9873-0995d52d9f35"}},{"fullUrl":"https://madie.cms.gov/Patient/ea6b3f44-c6cd-4417-ae60-e97564bf24f9","resource":{"resourceType":"Patient","id":"ea6b3f44-c6cd-4417-ae60-e97564bf24f9","meta":{"profile":["http://hl7.org/fhir/us/qicore/StructureDefinition/qicore-patient"]},"extension":[{"url":"http://hl7.org/fhir/us/core/StructureDefinition/us-core-race","extension":[{"url":"ombCategory","valueCoding":{"system":"urn:oid:2.16.840.1.113883.6.238","code":"2054-5","display":"Black or African American","userSelected":true}},{"url":"text","valueString":"Black or African American"}]},{"url":"http://hl7.org/fhir/us/core/StructureDefinition/us-core-ethnicity","extension":[{"url":"ombCategory","valueCoding":{"system":"urn:oid:2.16.840.1.113883.6.238","code":"2186-5","display":"Not Hispanic or Latino","userSelected":true}},{"url":"text","valueString":"Not Hispanic or Latino"}]}],"identifier":[{"type":{"coding":[{"system":"http://terminology.hl7.org/CodeSystem/v2-0203","code":"MR"}]},"system":"https://bonnie-fhir.healthit.gov/","value":"61152a3b98086b7a79cbd7c1"}],"active":true,"name":[{"use":"usual","family":"OBSERVPass","given":["DenomObsPassDueTo1DayPlus23Hrs59M"]}],"gender":"male","birthDate":"1964-12-11"},"request":{"method":"PUT","url":"Patient/ea6b3f44-c6cd-4417-ae60-e97564bf24f9"}},{"fullUrl":"https://madie.cms.gov/MeasureReport/4711a742-10f8-4e68-9f06-31257611fd1b","resource":{"resourceType":"MeasureReport","id":"4711a742-10f8-4e68-9f06-31257611fd1b","meta":{"profile":["http://hl7.org/fhir/us/cqfmeasures/StructureDefinition/test-case-cqfm"]},"contained":[{"resourceType":"Parameters","id":"014d4d18-8045-4f91-91f8-7118f9aaa8af-parameters","parameter":[{"name":"subject","valueString":"ea6b3f44-c6cd-4417-ae60-e97564bf24f9"}]}],"extension":[{"url":"http://hl7.org/fhir/StructureDefinition/cqf-inputParameters","valueReference":{"reference":"#014d4d18-8045-4f91-91f8-7118f9aaa8af-parameters"}},{"url":"http://hl7.org/fhir/us/cqfmeasures/StructureDefinition/cqfm-testCaseDescription","valueMarkdown":"Encounter with LOS = 1 day + 23 hours + 59 minutes. \nDenom MO day count = 1 as expected. Day 2 is not counted as it is <24 hours."}],"modifierExtension":[{"url":"http://hl7.org/fhir/us/cqfmeasures/StructureDefinition/cqfm-isTestCase","valueBoolean":true}],"status":"complete","type":"individual","measure":"https://madie.cms.gov/Measure/CMS1017FHIRHHFI","period":{"start":"2026-01-01","end":"2026-12-31"},"group":[{"id":"Group_1","population":[{"id":"InitialPopulation_1","code":{"coding":[{"system":"http://terminology.hl7.org/CodeSystem/measure-population","code":"initial-population","display":"Initial Population"}]},"count":1},{"id":"Denominator_1","code":{"coding":[{"system":"http://terminology.hl7.org/CodeSystem/measure-population","code":"denominator","display":"Denominator"}]},"count":1},{"id":"DenominatorExclusion_1","code":{"coding":[{"system":"http://terminology.hl7.org/CodeSystem/measure-population","code":"denominator-exclusion","display":"Denominator Exclusion"}]},"count":0},{"id":"Numerator_1","code":{"coding":[{"system":"http://terminology.hl7.org/CodeSystem/measure-population","code":"numerator","display":"Numerator"}]},"count":0},{"id":"NumeratorExclusion_1","code":{"coding":[{"system":"http://terminology.hl7.org/CodeSystem/measure-population","code":"numerator-exclusion","display":"Numerator Exclusion"}]},"count":0},{"id":"MeasureObservation_1_1_1","code":{"coding":[{"system":"http://terminology.hl7.org/CodeSystem/measure-population","code":"measure-observation","display":"Measure Observation"}]},"count":5}],"measureScore":{"value":0.0}}],"evaluatedResource":[{"reference":"Encounter/207472ed-4904-4b34-9873-0995d52d9f35"},{"reference":"Patient/ea6b3f44-c6cd-4417-ae60-e97564bf24f9"}]},"request":{"method":"PUT","url":"MeasureReport/4711a742-10f8-4e68-9f06-31257611fd1b"}}]},"request":{"method":"PUT","url":"Bundle/OBSERVPass-DenomObsPassDueTo1DayPlus23Hrs59M"}},{"resource":{"resourceType":"MeasureReport","id":"4711a742-10f8-4e68-9f06-31257611fd1b","meta":{"profile":["http://hl7.org/fhir/us/cqfmeasures/StructureDefinition/test-case-cqfm"]},"contained":[{"resourceType":"Parameters","id":"014d4d18-8045-4f91-91f8-7118f9aaa8af-parameters","parameter":[{"name":"subject","valueString":"ea6b3f44-c6cd-4417-ae60-e97564bf24f9"}]}],"extension":[{"url":"http://hl7.org/fhir/StructureDefinition/cqf-inputParameters","valueReference":{"reference":"#014d4d18-8045-4f91-91f8-7118f9aaa8af-parameters"}},{"url":"http://hl7.org/fhir/us/cqfmeasures/StructureDefinition/cqfm-testCaseDescription","valueMarkdown":"Encounter with LOS = 1 day + 23 hours + 59 minutes. \nDenom MO day count = 1 as expected. Day 2 is not counted as it is <24 hours."}],"modifierExtension":[{"url":"http://hl7.org/fhir/us/cqfmeasures/StructureDefinition/cqfm-isTestCase","valueBoolean":true}],"status":"complete","type":"individual","measure":"https://madie.cms.gov/Measure/CMS1017FHIRHHFI","period":{"start":"2026-01-01","end":"2026-12-31"},"group":[{"id":"Group_1","population":[{"id":"InitialPopulation_1","code":{"coding":[{"system":"http://terminology.hl7.org/CodeSystem/measure-population","code":"initial-population","display":"Initial Population"}]},"count":1},{"id":"Denominator_1","code":{"coding":[{"system":"http://terminology.hl7.org/CodeSystem/measure-population","code":"denominator","display":"Denominator"}]},"count":1},{"id":"DenominatorExclusion_1","code":{"coding":[{"system":"http://terminology.hl7.org/CodeSystem/measure-population","code":"denominator-exclusion","display":"Denominator Exclusion"}]},"count":0},{"id":"Numerator_1","code":{"coding":[{"system":"http://terminology.hl7.org/CodeSystem/measure-population","code":"numerator","display":"Numerator"}]},"count":0},{"id":"NumeratorExclusion_1","code":{"coding":[{"system":"http://terminology.hl7.org/CodeSystem/measure-population","code":"numerator-exclusion","display":"Numerator Exclusion"}]},"count":0},{"id":"MeasureObservation_1_1_1","code":{"coding":[{"system":"http://terminology.hl7.org/CodeSystem/measure-population","code":"measure-observation","display":"Measure Observation"}]},"count":5}],"measureScore":{"value":0.0}}],"evaluatedResource":[{"reference":"Encounter/207472ed-4904-4b34-9873-0995d52d9f35"},{"reference":"Patient/ea6b3f44-c6cd-4417-ae60-e97564bf24f9"}]},"request":{"method":"PUT","url":"MeasureReport/4711a742-10f8-4e68-9f06-31257611fd1b"}},{"resource":{"resourceType":"Patient","id":"ea6b3f44-c6cd-4417-ae60-e97564bf24f9","meta":{"profile":["http://hl7.org/fhir/us/qicore/StructureDefinition/qicore-patient"]},"extension":[{"url":"http://hl7.org/fhir/us/core/StructureDefinition/us-core-race","extension":[{"url":"ombCategory","valueCoding":{"system":"urn:oid:2.16.840.1.113883.6.238","code":"2054-5","display":"Black or African American","userSelected":true}},{"url":"text","valueString":"Black or African American"}]},{"url":"http://hl7.org/fhir/us/core/StructureDefinition/us-core-ethnicity","extension":[{"url":"ombCategory","valueCoding":{"system":"urn:oid:2.16.840.1.113883.6.238","code":"2186-5","display":"Not Hispanic or Latino","userSelected":true}},{"url":"text","valueString":"Not Hispanic or Latino"}]}],"identifier":[{"type":{"coding":[{"system":"http://terminology.hl7.org/CodeSystem/v2-0203","code":"MR"}]},"system":"https://bonnie-fhir.healthit.gov/","value":"61152a3b98086b7a79cbd7c1"}],"active":true,"name":[{"use":"usual","family":"OBSERVPass","given":["DenomObsPassDueTo1DayPlus23Hrs59M"]}],"gender":"male","birthDate":"1964-12-11"},"request":{"method":"PUT","url":"Patient/ea6b3f44-c6cd-4417-ae60-e97564bf24f9"}},{"resource":{"resourceType":"Encounter","id":"207472ed-4904-4b34-9873-0995d52d9f35","meta":{"profile":["http://hl7.org/fhir/us/qicore/StructureDefinition/qicore-encounter"]},"status":"finished","class":{"system":"http://terminology.hl7.org/CodeSystem/v3-ActCode","code":"IMP","display":"inpatient encounter"},"type":[{"coding":[{"system":"http://snomed.info/sct","code":"183452005"}]}],"subject":{"reference":"Patient/ea6b3f44-c6cd-4417-ae60-e97564bf24f9"},"period":{"start":"2026-11-08T08:00:00.000+00:00","end":"2026-11-13T23:59:00.000+00:00"}},"request":{"method":"PUT","url":"Encounter/207472ed-4904-4b34-9873-0995d52d9f35"}}]}