{"resourceType":"Bundle","id":"tests-55b18e1a-c949-4d85-b1c5-caa91fc6ac4b-bundle","type":"transaction","entry":[{"resource":{"resourceType":"Encounter","id":"ce941431-e24e-4f1d-8d78-68c7ea0f1e1f","meta":{"profile":["http://hl7.org/fhir/us/qicore/StructureDefinition/qicore-encounter"]},"status":"finished","class":{"system":"http://terminology.hl7.org/CodeSystem/v3-ActCode","code":"EMER","display":"emergency encounter"},"type":[{"coding":[{"system":"http://snomed.info/sct","code":"4525004","display":"Emergency department patient visit (procedure)"}]}],"subject":{"reference":"Patient/55b18e1a-c949-4d85-b1c5-caa91fc6ac4b"},"period":{"start":"2026-10-18T09:15:00.000+00:00","end":"2026-10-19T08:15:00.000+00:00"}},"request":{"method":"PUT","url":"Encounter/ce941431-e24e-4f1d-8d78-68c7ea0f1e1f"}},{"resource":{"resourceType":"MeasureReport","id":"3bd0081c-667e-4404-ae65-517d4a1bf53f","meta":{"profile":["http://hl7.org/fhir/us/cqfmeasures/StructureDefinition/test-case-cqfm"]},"contained":[{"resourceType":"Parameters","id":"429fa3c7-5086-48d5-a53a-86bd1e0d93aa-parameters","parameter":[{"name":"subject","valueString":"55b18e1a-c949-4d85-b1c5-caa91fc6ac4b"}]}],"extension":[{"url":"http://hl7.org/fhir/StructureDefinition/cqf-inputParameters","valueReference":{"reference":"#429fa3c7-5086-48d5-a53a-86bd1e0d93aa-parameters"}},{"url":"http://hl7.org/fhir/us/cqfmeasures/StructureDefinition/cqfm-testCaseDescription","valueMarkdown":"RVariable Encounter With Antihypertensive Plan At Admission"}],"modifierExtension":[{"url":"http://hl7.org/fhir/us/cqfmeasures/StructureDefinition/cqfm-isTestCase","valueBoolean":true}],"status":"complete","type":"individual","measure":"https://madie.cms.gov/Measure/CMS1017FHIRHHFI","period":{"start":"2026-01-01","end":"2026-12-31"},"group":[{"id":"Group_1","population":[{"id":"InitialPopulation_1","code":{"coding":[{"system":"http://terminology.hl7.org/CodeSystem/measure-population","code":"initial-population","display":"Initial Population"}]},"count":1},{"id":"Denominator_1","code":{"coding":[{"system":"http://terminology.hl7.org/CodeSystem/measure-population","code":"denominator","display":"Denominator"}]},"count":1},{"id":"DenominatorExclusion_1","code":{"coding":[{"system":"http://terminology.hl7.org/CodeSystem/measure-population","code":"denominator-exclusion","display":"Denominator Exclusion"}]},"count":0},{"id":"Numerator_1","code":{"coding":[{"system":"http://terminology.hl7.org/CodeSystem/measure-population","code":"numerator","display":"Numerator"}]},"count":1},{"id":"NumeratorExclusion_1","code":{"coding":[{"system":"http://terminology.hl7.org/CodeSystem/measure-population","code":"numerator-exclusion","display":"Numerator Exclusion"}]},"count":0},{"id":"MeasureObservation_1_1_1","code":{"coding":[{"system":"http://terminology.hl7.org/CodeSystem/measure-population","code":"measure-observation","display":"Measure Observation"}]},"count":2},{"id":"MeasureObservation_1_2_1","code":{"coding":[{"system":"http://terminology.hl7.org/CodeSystem/measure-population","code":"measure-observation","display":"Measure Observation"}]},"count":1}],"measureScore":{"value":0.0}}],"evaluatedResource":[{"reference":"Encounter/cd4f4a89-2643-4a70-bbff-8d9644a90d4c"},{"reference":"Encounter/ce941431-e24e-4f1d-8d78-68c7ea0f1e1f"},{"reference":"Patient/55b18e1a-c949-4d85-b1c5-caa91fc6ac4b"},{"reference":"Claim/910613b0-59e8-4a92-a42d-38c2b9ebdaeb"},{"reference":"Claim/dccb7019-b3dd-444b-a3c5-1dbc0ab1ff04"},{"reference":"MedicationRequest/964f9f77-ddde-4721-abb1-e0aa99486772"},{"reference":"Observation/b93fde60-77e7-4c1b-b028-71cf7faf3e36"}]},"request":{"method":"PUT","url":"MeasureReport/3bd0081c-667e-4404-ae65-517d4a1bf53f"}},{"resource":{"resourceType":"MedicationRequest","id":"964f9f77-ddde-4721-abb1-e0aa99486772","meta":{"profile":["http://hl7.org/fhir/us/qicore/StructureDefinition/qicore-medicationrequest"]},"status":"active","intent":"plan","category":[{"coding":[{"system":"http://terminology.hl7.org/CodeSystem/medicationrequest-category","code":"community","display":"Community"}]}],"reportedReference":{"reference":"Patient/55b18e1a-c949-4d85-b1c5-caa91fc6ac4b"},"medicationCodeableConcept":{"coding":[{"system":"http://www.nlm.nih.gov/research/umls/rxnorm","code":"1000001"}]},"subject":{"reference":"Patient/55b18e1a-c949-4d85-b1c5-caa91fc6ac4b"},"authoredOn":"2026-10-15","requester":{"reference":"Practitioner/Practitioner-1"},"dispenseRequest":{"quantity":{"value":14,"unit":"tablet","system":"http://unitsofmeasure.org","code":"{tablet}"},"expectedSupplyDuration":{"value":14,"unit":"days","system":"http://unitsofmeasure.org","code":"d"}}},"request":{"method":"PUT","url":"MedicationRequest/964f9f77-ddde-4721-abb1-e0aa99486772"}},{"resource":{"resourceType":"Bundle","id":"tests-NumerPass-RVwithAntihypertensivePlanAtAdmission-bundle","type":"transaction","entry":[{"fullUrl":"https://madie.cms.gov/Encounter/cd4f4a89-2643-4a70-bbff-8d9644a90d4c","resource":{"resourceType":"Encounter","id":"cd4f4a89-2643-4a70-bbff-8d9644a90d4c","meta":{"profile":["http://hl7.org/fhir/us/qicore/StructureDefinition/qicore-encounter"]},"status":"finished","class":{"system":"http://terminology.hl7.org/CodeSystem/v3-ActCode","code":"IMP","display":"inpatient encounter"},"type":[{"coding":[{"system":"http://snomed.info/sct","code":"183452005","display":"Emergency hospital admission"}]}],"subject":{"reference":"Patient/55b18e1a-c949-4d85-b1c5-caa91fc6ac4b"},"period":{"start":"2026-10-19T08:30:00.000+00:00","end":"2026-10-21T08:15:00.000+00:00"},"reasonCode":[{"coding":[{"system":"http://snomed.info/sct","code":"14047009"}]},{"coding":[{"system":"http://snomed.info/sct","code":"64859006"}]}]},"request":{"method":"PUT","url":"Encounter/cd4f4a89-2643-4a70-bbff-8d9644a90d4c"}},{"fullUrl":"https://madie.cms.gov/Encounter/ce941431-e24e-4f1d-8d78-68c7ea0f1e1f","resource":{"resourceType":"Encounter","id":"ce941431-e24e-4f1d-8d78-68c7ea0f1e1f","meta":{"profile":["http://hl7.org/fhir/us/qicore/StructureDefinition/qicore-encounter"]},"status":"finished","class":{"system":"http://terminology.hl7.org/CodeSystem/v3-ActCode","code":"EMER","display":"emergency encounter"},"type":[{"coding":[{"system":"http://snomed.info/sct","code":"4525004","display":"Emergency department patient visit (procedure)"}]}],"subject":{"reference":"Patient/55b18e1a-c949-4d85-b1c5-caa91fc6ac4b"},"period":{"start":"2026-10-18T09:15:00.000+00:00","end":"2026-10-19T08:15:00.000+00:00"}},"request":{"method":"PUT","url":"Encounter/ce941431-e24e-4f1d-8d78-68c7ea0f1e1f"}},{"fullUrl":"https://madie.cms.gov/Patient/55b18e1a-c949-4d85-b1c5-caa91fc6ac4b","resource":{"resourceType":"Patient","id":"55b18e1a-c949-4d85-b1c5-caa91fc6ac4b","meta":{"profile":["http://hl7.org/fhir/us/qicore/StructureDefinition/qicore-patient"]},"extension":[{"url":"http://hl7.org/fhir/us/core/StructureDefinition/us-core-race","extension":[{"url":"ombCategory","valueCoding":{"system":"urn:oid:2.16.840.1.113883.6.238","code":"2106-3","display":"White"}},{"url":"text","valueString":"White"}]},{"url":"http://hl7.org/fhir/us/core/StructureDefinition/us-core-ethnicity","extension":[{"url":"ombCategory","valueCoding":{"system":"urn:oid:2.16.840.1.113883.6.238","code":"2135-2","display":"Hispanic or Latino"}},{"url":"text","valueString":"Hispanic or Latino"}]},{"url":"http://hl7.org/fhir/us/core/StructureDefinition/us-core-sex","valueCode":"248153007"}],"identifier":[{"system":"http://hospital.smarthealthit.org","value":"999999999"}],"name":[{"family":"Example","given":["Patient"]}],"gender":"female","birthDate":"1956-01-01"},"request":{"method":"PUT","url":"Patient/55b18e1a-c949-4d85-b1c5-caa91fc6ac4b"}},{"fullUrl":"https://madie.cms.gov/Claim/910613b0-59e8-4a92-a42d-38c2b9ebdaeb","resource":{"resourceType":"Claim","id":"910613b0-59e8-4a92-a42d-38c2b9ebdaeb","meta":{"profile":["http://hl7.org/fhir/us/qicore/StructureDefinition/qicore-claim"]},"status":"active","type":{"coding":[{"system":"http://terminology.hl7.org/CodeSystem/claim-type","code":"institutional","display":"Institutional"}]},"use":"claim","patient":{"reference":"Patient/55b18e1a-c949-4d85-b1c5-caa91fc6ac4b"},"created":"2026-10-22","priority":{"coding":[{"system":"http://terminology.hl7.org/CodeSystem/processpriority","code":"normal"}]},"diagnosis":[{"sequence":1,"diagnosisCodeableConcept":{"coding":[{"system":"http://snomed.info/sct","code":"14047009"}]}}],"item":[{"sequence":1,"diagnosisSequence":[1,2],"encounter":[{"reference":"Encounter/cd4f4a89-2643-4a70-bbff-8d9644a90d4c"}]}]},"request":{"method":"PUT","url":"Claim/910613b0-59e8-4a92-a42d-38c2b9ebdaeb"}},{"fullUrl":"https://madie.cms.gov/Claim/dccb7019-b3dd-444b-a3c5-1dbc0ab1ff04","resource":{"resourceType":"Claim","id":"dccb7019-b3dd-444b-a3c5-1dbc0ab1ff04","meta":{"profile":["http://hl7.org/fhir/us/qicore/StructureDefinition/qicore-claim"]},"status":"active","type":{"coding":[{"system":"http://terminology.hl7.org/CodeSystem/claim-type","code":"institutional","display":"Institutional"}]},"use":"claim","patient":{"reference":"Patient/55b18e1a-c949-4d85-b1c5-caa91fc6ac4b"},"created":"2026-11-01","provider":{"reference":"Organization/Organization-1"},"priority":{"coding":[{"system":"http://terminology.hl7.org/CodeSystem/processpriority","code":"normal"}]},"diagnosis":[{"sequence":1,"diagnosisCodeableConcept":{"coding":[{"system":"http://hl7.org/fhir/sid/icd-10-cm","code":"M80.00XA","display":"Age-related osteoporosis with current pathological fracture, unspecified site, initial encounter for fracture"}]}}],"item":[{"sequence":1,"diagnosisSequence":[1,2],"encounter":[{"reference":"Encounter/cd4f4a89-2643-4a70-bbff-8d9644a90d4c"}]}]},"request":{"method":"PUT","url":"Claim/dccb7019-b3dd-444b-a3c5-1dbc0ab1ff04"}},{"fullUrl":"https://madie.cms.gov/MedicationRequest/964f9f77-ddde-4721-abb1-e0aa99486772","resource":{"resourceType":"MedicationRequest","id":"964f9f77-ddde-4721-abb1-e0aa99486772","meta":{"profile":["http://hl7.org/fhir/us/qicore/StructureDefinition/qicore-medicationrequest"]},"status":"active","intent":"plan","category":[{"coding":[{"system":"http://terminology.hl7.org/CodeSystem/medicationrequest-category","code":"community","display":"Community"}]}],"reportedReference":{"reference":"Patient/55b18e1a-c949-4d85-b1c5-caa91fc6ac4b"},"medicationCodeableConcept":{"coding":[{"system":"http://www.nlm.nih.gov/research/umls/rxnorm","code":"1000001"}]},"subject":{"reference":"Patient/55b18e1a-c949-4d85-b1c5-caa91fc6ac4b"},"authoredOn":"2026-10-15","requester":{"reference":"Practitioner/Practitioner-1"},"dispenseRequest":{"quantity":{"value":14,"unit":"tablet","system":"http://unitsofmeasure.org","code":"{tablet}"},"expectedSupplyDuration":{"value":14,"unit":"days","system":"http://unitsofmeasure.org","code":"d"}}},"request":{"method":"PUT","url":"MedicationRequest/964f9f77-ddde-4721-abb1-e0aa99486772"}},{"fullUrl":"https://madie.cms.gov/Observation/b93fde60-77e7-4c1b-b028-71cf7faf3e36","resource":{"resourceType":"Observation","id":"b93fde60-77e7-4c1b-b028-71cf7faf3e36","meta":{"profile":["http://hl7.org/fhir/us/core/StructureDefinition/us-core-bmi"]},"status":"final","category":[{"coding":[{"system":"http://terminology.hl7.org/CodeSystem/observation-category","code":"vital-signs","display":"Vital Signs"}]}],"code":{"coding":[{"system":"http://loinc.org","code":"39156-5","display":"Body mass index (BMI) [Ratio]"}],"text":"BMI"},"subject":{"reference":"Patient/55b18e1a-c949-4d85-b1c5-caa91fc6ac4b"},"effectiveDateTime":"2026-10-20T08:00:00.000+00:00","valueQuantity":{"value":28.3,"unit":"kg/m2","system":"http://unitsofmeasure.org","code":"kg/m2"}},"request":{"method":"PUT","url":"Observation/b93fde60-77e7-4c1b-b028-71cf7faf3e36"}},{"fullUrl":"https://madie.cms.gov/MeasureReport/3bd0081c-667e-4404-ae65-517d4a1bf53f","resource":{"resourceType":"MeasureReport","id":"3bd0081c-667e-4404-ae65-517d4a1bf53f","meta":{"profile":["http://hl7.org/fhir/us/cqfmeasures/StructureDefinition/test-case-cqfm"]},"contained":[{"resourceType":"Parameters","id":"429fa3c7-5086-48d5-a53a-86bd1e0d93aa-parameters","parameter":[{"name":"subject","valueString":"55b18e1a-c949-4d85-b1c5-caa91fc6ac4b"}]}],"extension":[{"url":"http://hl7.org/fhir/StructureDefinition/cqf-inputParameters","valueReference":{"reference":"#429fa3c7-5086-48d5-a53a-86bd1e0d93aa-parameters"}},{"url":"http://hl7.org/fhir/us/cqfmeasures/StructureDefinition/cqfm-testCaseDescription","valueMarkdown":"RVariable Encounter With Antihypertensive Plan At Admission"}],"modifierExtension":[{"url":"http://hl7.org/fhir/us/cqfmeasures/StructureDefinition/cqfm-isTestCase","valueBoolean":true}],"status":"complete","type":"individual","measure":"https://madie.cms.gov/Measure/CMS1017FHIRHHFI","period":{"start":"2026-01-01","end":"2026-12-31"},"group":[{"id":"Group_1","population":[{"id":"InitialPopulation_1","code":{"coding":[{"system":"http://terminology.hl7.org/CodeSystem/measure-population","code":"initial-population","display":"Initial Population"}]},"count":1},{"id":"Denominator_1","code":{"coding":[{"system":"http://terminology.hl7.org/CodeSystem/measure-population","code":"denominator","display":"Denominator"}]},"count":1},{"id":"DenominatorExclusion_1","code":{"coding":[{"system":"http://terminology.hl7.org/CodeSystem/measure-population","code":"denominator-exclusion","display":"Denominator Exclusion"}]},"count":0},{"id":"Numerator_1","code":{"coding":[{"system":"http://terminology.hl7.org/CodeSystem/measure-population","code":"numerator","display":"Numerator"}]},"count":1},{"id":"NumeratorExclusion_1","code":{"coding":[{"system":"http://terminology.hl7.org/CodeSystem/measure-population","code":"numerator-exclusion","display":"Numerator Exclusion"}]},"count":0},{"id":"MeasureObservation_1_1_1","code":{"coding":[{"system":"http://terminology.hl7.org/CodeSystem/measure-population","code":"measure-observation","display":"Measure Observation"}]},"count":2},{"id":"MeasureObservation_1_2_1","code":{"coding":[{"system":"http://terminology.hl7.org/CodeSystem/measure-population","code":"measure-observation","display":"Measure Observation"}]},"count":1}],"measureScore":{"value":0.0}}],"evaluatedResource":[{"reference":"Encounter/cd4f4a89-2643-4a70-bbff-8d9644a90d4c"},{"reference":"Encounter/ce941431-e24e-4f1d-8d78-68c7ea0f1e1f"},{"reference":"Patient/55b18e1a-c949-4d85-b1c5-caa91fc6ac4b"},{"reference":"Claim/910613b0-59e8-4a92-a42d-38c2b9ebdaeb"},{"reference":"Claim/dccb7019-b3dd-444b-a3c5-1dbc0ab1ff04"},{"reference":"MedicationRequest/964f9f77-ddde-4721-abb1-e0aa99486772"},{"reference":"Observation/b93fde60-77e7-4c1b-b028-71cf7faf3e36"}]},"request":{"method":"PUT","url":"MeasureReport/3bd0081c-667e-4404-ae65-517d4a1bf53f"}}]},"request":{"method":"PUT","url":"Bundle/tests-NumerPass-RVwithAntihypertensivePlanAtAdmission-bundle"}},{"resource":{"resourceType":"Patient","id":"55b18e1a-c949-4d85-b1c5-caa91fc6ac4b","meta":{"profile":["http://hl7.org/fhir/us/qicore/StructureDefinition/qicore-patient"]},"extension":[{"url":"http://hl7.org/fhir/us/core/StructureDefinition/us-core-race","extension":[{"url":"ombCategory","valueCoding":{"system":"urn:oid:2.16.840.1.113883.6.238","code":"2106-3","display":"White"}},{"url":"text","valueString":"White"}]},{"url":"http://hl7.org/fhir/us/core/StructureDefinition/us-core-ethnicity","extension":[{"url":"ombCategory","valueCoding":{"system":"urn:oid:2.16.840.1.113883.6.238","code":"2135-2","display":"Hispanic or Latino"}},{"url":"text","valueString":"Hispanic or Latino"}]},{"url":"http://hl7.org/fhir/us/core/StructureDefinition/us-core-sex","valueCode":"248153007"}],"identifier":[{"system":"http://hospital.smarthealthit.org","value":"999999999"}],"name":[{"family":"Example","given":["Patient"]}],"gender":"female","birthDate":"1956-01-01"},"request":{"method":"PUT","url":"Patient/55b18e1a-c949-4d85-b1c5-caa91fc6ac4b"}},{"resource":{"resourceType":"Claim","id":"910613b0-59e8-4a92-a42d-38c2b9ebdaeb","meta":{"profile":["http://hl7.org/fhir/us/qicore/StructureDefinition/qicore-claim"]},"status":"active","type":{"coding":[{"system":"http://terminology.hl7.org/CodeSystem/claim-type","code":"institutional","display":"Institutional"}]},"use":"claim","patient":{"reference":"Patient/55b18e1a-c949-4d85-b1c5-caa91fc6ac4b"},"created":"2026-10-22","priority":{"coding":[{"system":"http://terminology.hl7.org/CodeSystem/processpriority","code":"normal"}]},"diagnosis":[{"sequence":1,"diagnosisCodeableConcept":{"coding":[{"system":"http://snomed.info/sct","code":"14047009"}]}}],"item":[{"sequence":1,"diagnosisSequence":[1,2],"encounter":[{"reference":"Encounter/cd4f4a89-2643-4a70-bbff-8d9644a90d4c"}]}]},"request":{"method":"PUT","url":"Claim/910613b0-59e8-4a92-a42d-38c2b9ebdaeb"}},{"resource":{"resourceType":"Claim","id":"dccb7019-b3dd-444b-a3c5-1dbc0ab1ff04","meta":{"profile":["http://hl7.org/fhir/us/qicore/StructureDefinition/qicore-claim"]},"status":"active","type":{"coding":[{"system":"http://terminology.hl7.org/CodeSystem/claim-type","code":"institutional","display":"Institutional"}]},"use":"claim","patient":{"reference":"Patient/55b18e1a-c949-4d85-b1c5-caa91fc6ac4b"},"created":"2026-11-01","provider":{"reference":"Organization/Organization-1"},"priority":{"coding":[{"system":"http://terminology.hl7.org/CodeSystem/processpriority","code":"normal"}]},"diagnosis":[{"sequence":1,"diagnosisCodeableConcept":{"coding":[{"system":"http://hl7.org/fhir/sid/icd-10-cm","code":"M80.00XA","display":"Age-related osteoporosis with current pathological fracture, unspecified site, initial encounter for fracture"}]}}],"item":[{"sequence":1,"diagnosisSequence":[1,2],"encounter":[{"reference":"Encounter/cd4f4a89-2643-4a70-bbff-8d9644a90d4c"}]}]},"request":{"method":"PUT","url":"Claim/dccb7019-b3dd-444b-a3c5-1dbc0ab1ff04"}},{"resource":{"resourceType":"Observation","id":"b93fde60-77e7-4c1b-b028-71cf7faf3e36","meta":{"profile":["http://hl7.org/fhir/us/core/StructureDefinition/us-core-bmi"]},"status":"final","category":[{"coding":[{"system":"http://terminology.hl7.org/CodeSystem/observation-category","code":"vital-signs","display":"Vital Signs"}]}],"code":{"coding":[{"system":"http://loinc.org","code":"39156-5","display":"Body mass index (BMI) [Ratio]"}],"text":"BMI"},"subject":{"reference":"Patient/55b18e1a-c949-4d85-b1c5-caa91fc6ac4b"},"effectiveDateTime":"2026-10-20T08:00:00.000+00:00","valueQuantity":{"value":28.3,"unit":"kg/m2","system":"http://unitsofmeasure.org","code":"kg/m2"}},"request":{"method":"PUT","url":"Observation/b93fde60-77e7-4c1b-b028-71cf7faf3e36"}},{"resource":{"resourceType":"Encounter","id":"cd4f4a89-2643-4a70-bbff-8d9644a90d4c","meta":{"profile":["http://hl7.org/fhir/us/qicore/StructureDefinition/qicore-encounter"]},"status":"finished","class":{"system":"http://terminology.hl7.org/CodeSystem/v3-ActCode","code":"IMP","display":"inpatient encounter"},"type":[{"coding":[{"system":"http://snomed.info/sct","code":"183452005","display":"Emergency hospital admission"}]}],"subject":{"reference":"Patient/55b18e1a-c949-4d85-b1c5-caa91fc6ac4b"},"period":{"start":"2026-10-19T08:30:00.000+00:00","end":"2026-10-21T08:15:00.000+00:00"},"reasonCode":[{"coding":[{"system":"http://snomed.info/sct","code":"14047009"}]},{"coding":[{"system":"http://snomed.info/sct","code":"64859006"}]}]},"request":{"method":"PUT","url":"Encounter/cd4f4a89-2643-4a70-bbff-8d9644a90d4c"}}]}