{"resourceType":"Bundle","id":"tests-65163106-0b19-4548-a994-f44b35e162e0-bundle","type":"transaction","entry":[{"resource":{"resourceType":"Claim","id":"a371e82a-a077-43b1-ab71-f32ada069a84","meta":{"profile":["http://hl7.org/fhir/us/qicore/StructureDefinition/qicore-claim"]},"status":"active","type":{"coding":[{"system":"http://terminology.hl7.org/CodeSystem/claim-type","code":"institutional","display":"Institutional"}]},"use":"claim","patient":{"reference":"Patient/65163106-0b19-4548-a994-f44b35e162e0"},"created":"2026-11-01","provider":{"reference":"Organization/Organization-1"},"priority":{"coding":[{"system":"http://terminology.hl7.org/CodeSystem/processpriority","code":"normal"}]},"diagnosis":[{"sequence":1,"diagnosisCodeableConcept":{"coding":[{"system":"http://hl7.org/fhir/sid/icd-10-cm","code":"M80.00XA","display":"Age-related osteoporosis with current pathological fracture, unspecified site, initial encounter for fracture"}]}}],"item":[{"sequence":1,"diagnosisSequence":[1,2],"encounter":[{"reference":"Encounter/7fabe78f-381d-4e3d-ae09-9c3ec1b1ce8b"}]}]},"request":{"method":"PUT","url":"Claim/a371e82a-a077-43b1-ab71-f32ada069a84"}},{"resource":{"resourceType":"Patient","id":"65163106-0b19-4548-a994-f44b35e162e0","meta":{"profile":["http://hl7.org/fhir/us/qicore/StructureDefinition/qicore-patient"]},"extension":[{"url":"http://hl7.org/fhir/us/core/StructureDefinition/us-core-race","extension":[{"url":"ombCategory","valueCoding":{"system":"urn:oid:2.16.840.1.113883.6.238","code":"2106-3","display":"White"}},{"url":"text","valueString":"White"}]},{"url":"http://hl7.org/fhir/us/core/StructureDefinition/us-core-ethnicity","extension":[{"url":"ombCategory","valueCoding":{"system":"urn:oid:2.16.840.1.113883.6.238","code":"2135-2","display":"Hispanic or Latino"}},{"url":"text","valueString":"Hispanic or Latino"}]},{"url":"http://hl7.org/fhir/us/core/StructureDefinition/us-core-sex","valueCode":"248153007"}],"identifier":[{"system":"http://hospital.smarthealthit.org","value":"999999999"}],"name":[{"family":"Example","given":["Patient"]}],"gender":"female","birthDate":"1956-01-01"},"request":{"method":"PUT","url":"Patient/65163106-0b19-4548-a994-f44b35e162e0"}},{"resource":{"resourceType":"Encounter","id":"bf4464a5-b3a5-4f42-92b0-3b5e22d43088","meta":{"profile":["http://hl7.org/fhir/us/qicore/StructureDefinition/qicore-encounter"]},"status":"finished","class":{"system":"http://terminology.hl7.org/CodeSystem/v3-ActCode","code":"EMER","display":"emergency encounter"},"type":[{"coding":[{"system":"http://snomed.info/sct","code":"4525004","display":"Emergency Department Visit"}]}],"subject":{"reference":"Patient/65163106-0b19-4548-a994-f44b35e162e0"},"period":{"start":"2026-10-18T09:15:00.000+00:00","end":"2026-10-19T08:15:00.000+00:00"}},"request":{"method":"PUT","url":"Encounter/bf4464a5-b3a5-4f42-92b0-3b5e22d43088"}},{"resource":{"resourceType":"Encounter","id":"7fabe78f-381d-4e3d-ae09-9c3ec1b1ce8b","meta":{"profile":["http://hl7.org/fhir/us/qicore/StructureDefinition/qicore-encounter"]},"status":"finished","class":{"system":"http://terminology.hl7.org/CodeSystem/v3-ActCode","code":"IMP","display":"inpatient encounter"},"type":[{"coding":[{"system":"http://snomed.info/sct","code":"183452005","display":"Inpatient encounter"}]}],"subject":{"reference":"Patient/65163106-0b19-4548-a994-f44b35e162e0"},"period":{"start":"2026-10-19T08:30:00.000+00:00","end":"2026-10-21T08:15:00.000+00:00"},"reasonCode":[{"coding":[{"system":"http://snomed.info/sct","code":"14047009"}]},{"coding":[{"system":"http://snomed.info/sct","code":"64859006"}]}]},"request":{"method":"PUT","url":"Encounter/7fabe78f-381d-4e3d-ae09-9c3ec1b1ce8b"}},{"resource":{"resourceType":"Claim","id":"0309abcb-0845-402a-9762-18e614e40d4c","meta":{"profile":["http://hl7.org/fhir/us/qicore/StructureDefinition/qicore-claim"]},"status":"active","type":{"coding":[{"system":"http://terminology.hl7.org/CodeSystem/claim-type","code":"institutional","display":"Institutional"}]},"use":"claim","patient":{"reference":"Patient/65163106-0b19-4548-a994-f44b35e162e0"},"created":"2026-10-22","priority":{"coding":[{"system":"http://terminology.hl7.org/CodeSystem/processpriority","code":"normal"}]},"diagnosis":[{"sequence":1,"diagnosisCodeableConcept":{"coding":[{"system":"http://snomed.info/sct","code":"14047009"}]}}],"item":[{"sequence":1,"diagnosisSequence":[1,2],"encounter":[{"reference":"Encounter/7fabe78f-381d-4e3d-ae09-9c3ec1b1ce8b"}]}]},"request":{"method":"PUT","url":"Claim/0309abcb-0845-402a-9762-18e614e40d4c"}},{"resource":{"resourceType":"MeasureReport","id":"4bc12759-18e4-45d4-a398-ae9b164ed397","meta":{"profile":["http://hl7.org/fhir/us/cqfmeasures/StructureDefinition/test-case-cqfm"]},"contained":[{"resourceType":"Parameters","id":"affaf206-5d8e-4ce2-b2d5-86e259768f72-parameters","parameter":[{"name":"subject","valueString":"65163106-0b19-4548-a994-f44b35e162e0"}]}],"extension":[{"url":"http://hl7.org/fhir/StructureDefinition/cqf-inputParameters","valueReference":{"reference":"#affaf206-5d8e-4ce2-b2d5-86e259768f72-parameters"}},{"url":"http://hl7.org/fhir/us/cqfmeasures/StructureDefinition/cqfm-testCaseDescription","valueMarkdown":"Encounter with a BMI Risk Variable"}],"modifierExtension":[{"url":"http://hl7.org/fhir/us/cqfmeasures/StructureDefinition/cqfm-isTestCase","valueBoolean":true}],"status":"complete","type":"individual","measure":"https://madie.cms.gov/Measure/CMS1017FHIRHHFI","period":{"start":"2026-01-01","end":"2026-12-31"},"group":[{"id":"Group_1","population":[{"id":"InitialPopulation_1","code":{"coding":[{"system":"http://terminology.hl7.org/CodeSystem/measure-population","code":"initial-population","display":"Initial Population"}]},"count":1},{"id":"Denominator_1","code":{"coding":[{"system":"http://terminology.hl7.org/CodeSystem/measure-population","code":"denominator","display":"Denominator"}]},"count":1},{"id":"DenominatorExclusion_1","code":{"coding":[{"system":"http://terminology.hl7.org/CodeSystem/measure-population","code":"denominator-exclusion","display":"Denominator Exclusion"}]},"count":0},{"id":"Numerator_1","code":{"coding":[{"system":"http://terminology.hl7.org/CodeSystem/measure-population","code":"numerator","display":"Numerator"}]},"count":1},{"id":"NumeratorExclusion_1","code":{"coding":[{"system":"http://terminology.hl7.org/CodeSystem/measure-population","code":"numerator-exclusion","display":"Numerator Exclusion"}]},"count":0},{"id":"MeasureObservation_1_1_1","code":{"coding":[{"system":"http://terminology.hl7.org/CodeSystem/measure-population","code":"measure-observation","display":"Measure Observation"}]},"count":2},{"id":"MeasureObservation_1_2_1","code":{"coding":[{"system":"http://terminology.hl7.org/CodeSystem/measure-population","code":"measure-observation","display":"Measure Observation"}]},"count":1}],"measureScore":{"value":0.0}}],"evaluatedResource":[{"reference":"Encounter/7fabe78f-381d-4e3d-ae09-9c3ec1b1ce8b"},{"reference":"Encounter/bf4464a5-b3a5-4f42-92b0-3b5e22d43088"},{"reference":"Patient/65163106-0b19-4548-a994-f44b35e162e0"},{"reference":"Claim/0309abcb-0845-402a-9762-18e614e40d4c"},{"reference":"Claim/a371e82a-a077-43b1-ab71-f32ada069a84"},{"reference":"Observation/69546c2a-70c0-4294-a525-1f7eddf4d227"}]},"request":{"method":"PUT","url":"MeasureReport/4bc12759-18e4-45d4-a398-ae9b164ed397"}},{"resource":{"resourceType":"Observation","id":"69546c2a-70c0-4294-a525-1f7eddf4d227","meta":{"profile":["http://hl7.org/fhir/us/core/StructureDefinition/us-core-bmi"]},"status":"final","category":[{"coding":[{"system":"http://terminology.hl7.org/CodeSystem/observation-category","code":"vital-signs","display":"Vital Signs"}]}],"code":{"coding":[{"system":"http://loinc.org","code":"39156-5","display":"Body mass index (BMI) [Ratio]"}],"text":"BMI"},"subject":{"reference":"Patient/65163106-0b19-4548-a994-f44b35e162e0"},"effectiveDateTime":"2026-10-20T08:00:00.000+00:00","valueQuantity":{"value":28.3,"unit":"kg/m2","system":"http://unitsofmeasure.org","code":"kg/m2"}},"request":{"method":"PUT","url":"Observation/69546c2a-70c0-4294-a525-1f7eddf4d227"}},{"resource":{"resourceType":"Bundle","id":"tests-NumerPass-RVBMI-bundle","type":"transaction","entry":[{"fullUrl":"https://madie.cms.gov/Encounter/7fabe78f-381d-4e3d-ae09-9c3ec1b1ce8b","resource":{"resourceType":"Encounter","id":"7fabe78f-381d-4e3d-ae09-9c3ec1b1ce8b","meta":{"profile":["http://hl7.org/fhir/us/qicore/StructureDefinition/qicore-encounter"]},"status":"finished","class":{"system":"http://terminology.hl7.org/CodeSystem/v3-ActCode","code":"IMP","display":"inpatient encounter"},"type":[{"coding":[{"system":"http://snomed.info/sct","code":"183452005","display":"Inpatient encounter"}]}],"subject":{"reference":"Patient/65163106-0b19-4548-a994-f44b35e162e0"},"period":{"start":"2026-10-19T08:30:00.000+00:00","end":"2026-10-21T08:15:00.000+00:00"},"reasonCode":[{"coding":[{"system":"http://snomed.info/sct","code":"14047009"}]},{"coding":[{"system":"http://snomed.info/sct","code":"64859006"}]}]},"request":{"method":"PUT","url":"Encounter/7fabe78f-381d-4e3d-ae09-9c3ec1b1ce8b"}},{"fullUrl":"https://madie.cms.gov/Encounter/bf4464a5-b3a5-4f42-92b0-3b5e22d43088","resource":{"resourceType":"Encounter","id":"bf4464a5-b3a5-4f42-92b0-3b5e22d43088","meta":{"profile":["http://hl7.org/fhir/us/qicore/StructureDefinition/qicore-encounter"]},"status":"finished","class":{"system":"http://terminology.hl7.org/CodeSystem/v3-ActCode","code":"EMER","display":"emergency encounter"},"type":[{"coding":[{"system":"http://snomed.info/sct","code":"4525004","display":"Emergency Department Visit"}]}],"subject":{"reference":"Patient/65163106-0b19-4548-a994-f44b35e162e0"},"period":{"start":"2026-10-18T09:15:00.000+00:00","end":"2026-10-19T08:15:00.000+00:00"}},"request":{"method":"PUT","url":"Encounter/bf4464a5-b3a5-4f42-92b0-3b5e22d43088"}},{"fullUrl":"https://madie.cms.gov/Patient/65163106-0b19-4548-a994-f44b35e162e0","resource":{"resourceType":"Patient","id":"65163106-0b19-4548-a994-f44b35e162e0","meta":{"profile":["http://hl7.org/fhir/us/qicore/StructureDefinition/qicore-patient"]},"extension":[{"url":"http://hl7.org/fhir/us/core/StructureDefinition/us-core-race","extension":[{"url":"ombCategory","valueCoding":{"system":"urn:oid:2.16.840.1.113883.6.238","code":"2106-3","display":"White"}},{"url":"text","valueString":"White"}]},{"url":"http://hl7.org/fhir/us/core/StructureDefinition/us-core-ethnicity","extension":[{"url":"ombCategory","valueCoding":{"system":"urn:oid:2.16.840.1.113883.6.238","code":"2135-2","display":"Hispanic or Latino"}},{"url":"text","valueString":"Hispanic or Latino"}]},{"url":"http://hl7.org/fhir/us/core/StructureDefinition/us-core-sex","valueCode":"248153007"}],"identifier":[{"system":"http://hospital.smarthealthit.org","value":"999999999"}],"name":[{"family":"Example","given":["Patient"]}],"gender":"female","birthDate":"1956-01-01"},"request":{"method":"PUT","url":"Patient/65163106-0b19-4548-a994-f44b35e162e0"}},{"fullUrl":"https://madie.cms.gov/Claim/0309abcb-0845-402a-9762-18e614e40d4c","resource":{"resourceType":"Claim","id":"0309abcb-0845-402a-9762-18e614e40d4c","meta":{"profile":["http://hl7.org/fhir/us/qicore/StructureDefinition/qicore-claim"]},"status":"active","type":{"coding":[{"system":"http://terminology.hl7.org/CodeSystem/claim-type","code":"institutional","display":"Institutional"}]},"use":"claim","patient":{"reference":"Patient/65163106-0b19-4548-a994-f44b35e162e0"},"created":"2026-10-22","priority":{"coding":[{"system":"http://terminology.hl7.org/CodeSystem/processpriority","code":"normal"}]},"diagnosis":[{"sequence":1,"diagnosisCodeableConcept":{"coding":[{"system":"http://snomed.info/sct","code":"14047009"}]}}],"item":[{"sequence":1,"diagnosisSequence":[1,2],"encounter":[{"reference":"Encounter/7fabe78f-381d-4e3d-ae09-9c3ec1b1ce8b"}]}]},"request":{"method":"PUT","url":"Claim/0309abcb-0845-402a-9762-18e614e40d4c"}},{"fullUrl":"https://madie.cms.gov/Claim/a371e82a-a077-43b1-ab71-f32ada069a84","resource":{"resourceType":"Claim","id":"a371e82a-a077-43b1-ab71-f32ada069a84","meta":{"profile":["http://hl7.org/fhir/us/qicore/StructureDefinition/qicore-claim"]},"status":"active","type":{"coding":[{"system":"http://terminology.hl7.org/CodeSystem/claim-type","code":"institutional","display":"Institutional"}]},"use":"claim","patient":{"reference":"Patient/65163106-0b19-4548-a994-f44b35e162e0"},"created":"2026-11-01","provider":{"reference":"Organization/Organization-1"},"priority":{"coding":[{"system":"http://terminology.hl7.org/CodeSystem/processpriority","code":"normal"}]},"diagnosis":[{"sequence":1,"diagnosisCodeableConcept":{"coding":[{"system":"http://hl7.org/fhir/sid/icd-10-cm","code":"M80.00XA","display":"Age-related osteoporosis with current pathological fracture, unspecified site, initial encounter for fracture"}]}}],"item":[{"sequence":1,"diagnosisSequence":[1,2],"encounter":[{"reference":"Encounter/7fabe78f-381d-4e3d-ae09-9c3ec1b1ce8b"}]}]},"request":{"method":"PUT","url":"Claim/a371e82a-a077-43b1-ab71-f32ada069a84"}},{"fullUrl":"https://madie.cms.gov/Observation/69546c2a-70c0-4294-a525-1f7eddf4d227","resource":{"resourceType":"Observation","id":"69546c2a-70c0-4294-a525-1f7eddf4d227","meta":{"profile":["http://hl7.org/fhir/us/core/StructureDefinition/us-core-bmi"]},"status":"final","category":[{"coding":[{"system":"http://terminology.hl7.org/CodeSystem/observation-category","code":"vital-signs","display":"Vital Signs"}]}],"code":{"coding":[{"system":"http://loinc.org","code":"39156-5","display":"Body mass index (BMI) [Ratio]"}],"text":"BMI"},"subject":{"reference":"Patient/65163106-0b19-4548-a994-f44b35e162e0"},"effectiveDateTime":"2026-10-20T08:00:00.000+00:00","valueQuantity":{"value":28.3,"unit":"kg/m2","system":"http://unitsofmeasure.org","code":"kg/m2"}},"request":{"method":"PUT","url":"Observation/69546c2a-70c0-4294-a525-1f7eddf4d227"}},{"fullUrl":"https://madie.cms.gov/MeasureReport/4bc12759-18e4-45d4-a398-ae9b164ed397","resource":{"resourceType":"MeasureReport","id":"4bc12759-18e4-45d4-a398-ae9b164ed397","meta":{"profile":["http://hl7.org/fhir/us/cqfmeasures/StructureDefinition/test-case-cqfm"]},"contained":[{"resourceType":"Parameters","id":"affaf206-5d8e-4ce2-b2d5-86e259768f72-parameters","parameter":[{"name":"subject","valueString":"65163106-0b19-4548-a994-f44b35e162e0"}]}],"extension":[{"url":"http://hl7.org/fhir/StructureDefinition/cqf-inputParameters","valueReference":{"reference":"#affaf206-5d8e-4ce2-b2d5-86e259768f72-parameters"}},{"url":"http://hl7.org/fhir/us/cqfmeasures/StructureDefinition/cqfm-testCaseDescription","valueMarkdown":"Encounter with a BMI Risk Variable"}],"modifierExtension":[{"url":"http://hl7.org/fhir/us/cqfmeasures/StructureDefinition/cqfm-isTestCase","valueBoolean":true}],"status":"complete","type":"individual","measure":"https://madie.cms.gov/Measure/CMS1017FHIRHHFI","period":{"start":"2026-01-01","end":"2026-12-31"},"group":[{"id":"Group_1","population":[{"id":"InitialPopulation_1","code":{"coding":[{"system":"http://terminology.hl7.org/CodeSystem/measure-population","code":"initial-population","display":"Initial Population"}]},"count":1},{"id":"Denominator_1","code":{"coding":[{"system":"http://terminology.hl7.org/CodeSystem/measure-population","code":"denominator","display":"Denominator"}]},"count":1},{"id":"DenominatorExclusion_1","code":{"coding":[{"system":"http://terminology.hl7.org/CodeSystem/measure-population","code":"denominator-exclusion","display":"Denominator Exclusion"}]},"count":0},{"id":"Numerator_1","code":{"coding":[{"system":"http://terminology.hl7.org/CodeSystem/measure-population","code":"numerator","display":"Numerator"}]},"count":1},{"id":"NumeratorExclusion_1","code":{"coding":[{"system":"http://terminology.hl7.org/CodeSystem/measure-population","code":"numerator-exclusion","display":"Numerator Exclusion"}]},"count":0},{"id":"MeasureObservation_1_1_1","code":{"coding":[{"system":"http://terminology.hl7.org/CodeSystem/measure-population","code":"measure-observation","display":"Measure Observation"}]},"count":2},{"id":"MeasureObservation_1_2_1","code":{"coding":[{"system":"http://terminology.hl7.org/CodeSystem/measure-population","code":"measure-observation","display":"Measure Observation"}]},"count":1}],"measureScore":{"value":0.0}}],"evaluatedResource":[{"reference":"Encounter/7fabe78f-381d-4e3d-ae09-9c3ec1b1ce8b"},{"reference":"Encounter/bf4464a5-b3a5-4f42-92b0-3b5e22d43088"},{"reference":"Patient/65163106-0b19-4548-a994-f44b35e162e0"},{"reference":"Claim/0309abcb-0845-402a-9762-18e614e40d4c"},{"reference":"Claim/a371e82a-a077-43b1-ab71-f32ada069a84"},{"reference":"Observation/69546c2a-70c0-4294-a525-1f7eddf4d227"}]},"request":{"method":"PUT","url":"MeasureReport/4bc12759-18e4-45d4-a398-ae9b164ed397"}}]},"request":{"method":"PUT","url":"Bundle/tests-NumerPass-RVBMI-bundle"}}]}