{"resourceType":"Bundle","id":"tests-5829147b-0a83-464b-bc92-cebb96b4ae38-bundle","type":"transaction","entry":[{"resource":{"resourceType":"MeasureReport","id":"0f68aa4c-66f5-4fee-925e-f1faf9f0fc46","meta":{"profile":["http://hl7.org/fhir/us/cqfmeasures/StructureDefinition/test-case-cqfm"]},"contained":[{"resourceType":"Parameters","id":"797fe538-2433-4344-b7f2-d67ab8ebcf65-parameters","parameter":[{"name":"subject","valueString":"5829147b-0a83-464b-bc92-cebb96b4ae38"}]}],"extension":[{"url":"http://hl7.org/fhir/StructureDefinition/cqf-inputParameters","valueReference":{"reference":"#797fe538-2433-4344-b7f2-d67ab8ebcf65-parameters"}},{"url":"http://hl7.org/fhir/us/cqfmeasures/StructureDefinition/cqfm-testCaseDescription","valueMarkdown":"IP w/correct age, but LOS = 121 days. Must be LOS <=120 days to qualify for IPP. IPP Fails"}],"modifierExtension":[{"url":"http://hl7.org/fhir/us/cqfmeasures/StructureDefinition/cqfm-isTestCase","valueBoolean":true}],"status":"complete","type":"individual","measure":"https://madie.cms.gov/Measure/CMS1017FHIRHHFI","period":{"start":"2026-01-01","end":"2026-12-31"},"group":[{"id":"Group_1","population":[{"id":"InitialPopulation_1","code":{"coding":[{"system":"http://terminology.hl7.org/CodeSystem/measure-population","code":"initial-population","display":"Initial Population"}]},"count":0},{"id":"Denominator_1","code":{"coding":[{"system":"http://terminology.hl7.org/CodeSystem/measure-population","code":"denominator","display":"Denominator"}]},"count":0},{"id":"DenominatorExclusion_1","code":{"coding":[{"system":"http://terminology.hl7.org/CodeSystem/measure-population","code":"denominator-exclusion","display":"Denominator Exclusion"}]},"count":0},{"id":"Numerator_1","code":{"coding":[{"system":"http://terminology.hl7.org/CodeSystem/measure-population","code":"numerator","display":"Numerator"}]},"count":0},{"id":"NumeratorExclusion_1","code":{"coding":[{"system":"http://terminology.hl7.org/CodeSystem/measure-population","code":"numerator-exclusion","display":"Numerator Exclusion"}]},"count":0}],"measureScore":{"value":0.0}}],"evaluatedResource":[{"reference":"Encounter/6d1e809c-d1c9-40b5-965c-0c06488db1d7"},{"reference":"Patient/5829147b-0a83-464b-bc92-cebb96b4ae38"}]},"request":{"method":"PUT","url":"MeasureReport/0f68aa4c-66f5-4fee-925e-f1faf9f0fc46"}},{"resource":{"resourceType":"Bundle","id":"IPPFail-EncounterLOS121Days-bundle","type":"transaction","entry":[{"fullUrl":"https://madie.cms.gov/Encounter/6d1e809c-d1c9-40b5-965c-0c06488db1d7","resource":{"resourceType":"Encounter","id":"6d1e809c-d1c9-40b5-965c-0c06488db1d7","meta":{"profile":["http://hl7.org/fhir/us/qicore/StructureDefinition/qicore-encounter"]},"status":"finished","class":{"system":"http://terminology.hl7.org/CodeSystem/v3-ActCode","code":"IMP","display":"inpatient encounter"},"type":[{"coding":[{"system":"http://snomed.info/sct","code":"183452005"}]}],"subject":{"reference":"Patient/5829147b-0a83-464b-bc92-cebb96b4ae38"},"period":{"start":"2026-07-01T08:00:00.000+00:00","end":"2026-10-30T08:15:00.000+00:00"}},"request":{"method":"PUT","url":"Encounter/6d1e809c-d1c9-40b5-965c-0c06488db1d7"}},{"fullUrl":"https://madie.cms.gov/Patient/5829147b-0a83-464b-bc92-cebb96b4ae38","resource":{"resourceType":"Patient","id":"5829147b-0a83-464b-bc92-cebb96b4ae38","meta":{"profile":["http://hl7.org/fhir/us/qicore/StructureDefinition/qicore-patient"]},"extension":[{"url":"http://hl7.org/fhir/us/core/StructureDefinition/us-core-race","extension":[{"url":"ombCategory","valueCoding":{"system":"urn:oid:2.16.840.1.113883.6.238","code":"2054-5","display":"Black or African American","userSelected":true}},{"url":"text","valueString":"Black or African American"}]},{"url":"http://hl7.org/fhir/us/core/StructureDefinition/us-core-ethnicity","extension":[{"url":"ombCategory","valueCoding":{"system":"urn:oid:2.16.840.1.113883.6.238","code":"2186-5","display":"Not Hispanic or Latino","userSelected":true}},{"url":"text","valueString":"Not Hispanic or Latino"}]}],"identifier":[{"type":{"coding":[{"system":"http://terminology.hl7.org/CodeSystem/v2-0203","code":"MR"}]},"system":"https://bonnie-fhir.healthit.gov/","value":"61152a3b98086b7a79cbd7c1"}],"active":true,"name":[{"use":"usual","family":"IPPFail","given":["Enc1FallPOAEnc2FallNPOAAndInjuryNPOA"]}],"gender":"male","birthDate":"1994-11-30"},"request":{"method":"PUT","url":"Patient/5829147b-0a83-464b-bc92-cebb96b4ae38"}},{"fullUrl":"https://madie.cms.gov/MeasureReport/0f68aa4c-66f5-4fee-925e-f1faf9f0fc46","resource":{"resourceType":"MeasureReport","id":"0f68aa4c-66f5-4fee-925e-f1faf9f0fc46","meta":{"profile":["http://hl7.org/fhir/us/cqfmeasures/StructureDefinition/test-case-cqfm"]},"contained":[{"resourceType":"Parameters","id":"797fe538-2433-4344-b7f2-d67ab8ebcf65-parameters","parameter":[{"name":"subject","valueString":"5829147b-0a83-464b-bc92-cebb96b4ae38"}]}],"extension":[{"url":"http://hl7.org/fhir/StructureDefinition/cqf-inputParameters","valueReference":{"reference":"#797fe538-2433-4344-b7f2-d67ab8ebcf65-parameters"}},{"url":"http://hl7.org/fhir/us/cqfmeasures/StructureDefinition/cqfm-testCaseDescription","valueMarkdown":"IP w/correct age, but LOS = 121 days. Must be LOS <=120 days to qualify for IPP. IPP Fails"}],"modifierExtension":[{"url":"http://hl7.org/fhir/us/cqfmeasures/StructureDefinition/cqfm-isTestCase","valueBoolean":true}],"status":"complete","type":"individual","measure":"https://madie.cms.gov/Measure/CMS1017FHIRHHFI","period":{"start":"2026-01-01","end":"2026-12-31"},"group":[{"id":"Group_1","population":[{"id":"InitialPopulation_1","code":{"coding":[{"system":"http://terminology.hl7.org/CodeSystem/measure-population","code":"initial-population","display":"Initial Population"}]},"count":0},{"id":"Denominator_1","code":{"coding":[{"system":"http://terminology.hl7.org/CodeSystem/measure-population","code":"denominator","display":"Denominator"}]},"count":0},{"id":"DenominatorExclusion_1","code":{"coding":[{"system":"http://terminology.hl7.org/CodeSystem/measure-population","code":"denominator-exclusion","display":"Denominator Exclusion"}]},"count":0},{"id":"Numerator_1","code":{"coding":[{"system":"http://terminology.hl7.org/CodeSystem/measure-population","code":"numerator","display":"Numerator"}]},"count":0},{"id":"NumeratorExclusion_1","code":{"coding":[{"system":"http://terminology.hl7.org/CodeSystem/measure-population","code":"numerator-exclusion","display":"Numerator Exclusion"}]},"count":0}],"measureScore":{"value":0.0}}],"evaluatedResource":[{"reference":"Encounter/6d1e809c-d1c9-40b5-965c-0c06488db1d7"},{"reference":"Patient/5829147b-0a83-464b-bc92-cebb96b4ae38"}]},"request":{"method":"PUT","url":"MeasureReport/0f68aa4c-66f5-4fee-925e-f1faf9f0fc46"}}]},"request":{"method":"PUT","url":"Bundle/IPPFail-EncounterLOS121Days-bundle"}},{"resource":{"resourceType":"Encounter","id":"6d1e809c-d1c9-40b5-965c-0c06488db1d7","meta":{"profile":["http://hl7.org/fhir/us/qicore/StructureDefinition/qicore-encounter"]},"status":"finished","class":{"system":"http://terminology.hl7.org/CodeSystem/v3-ActCode","code":"IMP","display":"inpatient encounter"},"type":[{"coding":[{"system":"http://snomed.info/sct","code":"183452005"}]}],"subject":{"reference":"Patient/5829147b-0a83-464b-bc92-cebb96b4ae38"},"period":{"start":"2026-07-01T08:00:00.000+00:00","end":"2026-10-30T08:15:00.000+00:00"}},"request":{"method":"PUT","url":"Encounter/6d1e809c-d1c9-40b5-965c-0c06488db1d7"}},{"resource":{"resourceType":"Patient","id":"5829147b-0a83-464b-bc92-cebb96b4ae38","meta":{"profile":["http://hl7.org/fhir/us/qicore/StructureDefinition/qicore-patient"]},"extension":[{"url":"http://hl7.org/fhir/us/core/StructureDefinition/us-core-race","extension":[{"url":"ombCategory","valueCoding":{"system":"urn:oid:2.16.840.1.113883.6.238","code":"2054-5","display":"Black or African American","userSelected":true}},{"url":"text","valueString":"Black or African American"}]},{"url":"http://hl7.org/fhir/us/core/StructureDefinition/us-core-ethnicity","extension":[{"url":"ombCategory","valueCoding":{"system":"urn:oid:2.16.840.1.113883.6.238","code":"2186-5","display":"Not Hispanic or Latino","userSelected":true}},{"url":"text","valueString":"Not Hispanic or Latino"}]}],"identifier":[{"type":{"coding":[{"system":"http://terminology.hl7.org/CodeSystem/v2-0203","code":"MR"}]},"system":"https://bonnie-fhir.healthit.gov/","value":"61152a3b98086b7a79cbd7c1"}],"active":true,"name":[{"use":"usual","family":"IPPFail","given":["Enc1FallPOAEnc2FallNPOAAndInjuryNPOA"]}],"gender":"male","birthDate":"1994-11-30"},"request":{"method":"PUT","url":"Patient/5829147b-0a83-464b-bc92-cebb96b4ae38"}}]}