{"resourceType":"Bundle","id":"tests-77178177-d553-4bf3-8c92-65382bfbee73-bundle","type":"transaction","entry":[{"resource":{"resourceType":"Organization","id":"Organization-1","meta":{"profile":["http://hl7.org/fhir/us/qicore/StructureDefinition/qicore-organization"]},"identifier":[{"use":"temp","system":"urn:oid:2.16.840.1.113883.4.336","value":"APayer"}],"active":true,"type":[{"coding":[{"system":"http://terminology.hl7.org/CodeSystem/organization-type","code":"pay","display":"Payer"}],"text":"Healthcare Payer"}],"name":"Test Medical Center","telecom":[{"system":"phone","value":"(+1) 800-123-4567"},{"system":"email","value":"mypayer@test.org"}],"address":[{"line":["600 Maple Avenue"],"city":"Indianapolis","state":"IN","postalCode":"46237","country":"USA"}]},"request":{"method":"PUT","url":"Organization/Organization-1"}},{"resource":{"resourceType":"Bundle","id":"IPPFail-PtAgeNot18EncounterStart","type":"transaction","entry":[{"fullUrl":"https://madie.cms.gov/Encounter/191dee5c-cedb-44cd-bb5a-58d23c4c31e8","resource":{"resourceType":"Encounter","id":"191dee5c-cedb-44cd-bb5a-58d23c4c31e8","meta":{"profile":["http://hl7.org/fhir/us/qicore/StructureDefinition/qicore-encounter"]},"status":"finished","class":{"system":"http://terminology.hl7.org/CodeSystem/v3-ActCode","code":"IMP","display":"inpatient encounter"},"type":[{"coding":[{"system":"http://snomed.info/sct","code":"183452005"}]}],"subject":{"reference":"Patient/77178177-d553-4bf3-8c92-65382bfbee73"},"period":{"start":"2026-11-09T11:15:00.000+00:00","end":"2026-11-13T08:15:00.000+00:00"},"diagnosis":[{"extension":[{"url":"http://hl7.org/fhir/us/qicore/StructureDefinition/qicore-encounter-diagnosisPresentOnAdmission","valueCodeableConcept":{"coding":[{"system":"https://www.cms.gov/Medicare/Medicare-Fee-for-Service-Payment/HospitalAcqCond/Coding","code":"N"}]}}],"condition":{"reference":"Condition/PtAgeNot18EncounterStart-1"}},{"extension":[{"url":"http://hl7.org/fhir/us/qicore/StructureDefinition/qicore-encounter-diagnosisPresentOnAdmission","valueCodeableConcept":{"coding":[{"system":"https://www.cms.gov/Medicare/Medicare-Fee-for-Service-Payment/HospitalAcqCond/Coding","code":"N"}]}}],"condition":{"reference":"Condition/IPPFail-PtAgeNot18EncounterStart-2"}}]},"request":{"method":"PUT","url":"Encounter/191dee5c-cedb-44cd-bb5a-58d23c4c31e8"}},{"fullUrl":"https://madie.cms.gov/Encounter/7b7b1bff-e519-4e21-ae2c-dac6a74e4340","resource":{"resourceType":"Encounter","id":"7b7b1bff-e519-4e21-ae2c-dac6a74e4340","meta":{"profile":["http://hl7.org/fhir/us/qicore/StructureDefinition/qicore-encounter"]},"status":"finished","class":{"system":"http://terminology.hl7.org/CodeSystem/v3-ActCode","code":"IMP","display":"inpatient encounter"},"type":[{"coding":[{"system":"http://snomed.info/sct","code":"4525004"}]}],"subject":{"reference":"Patient/77178177-d553-4bf3-8c92-65382bfbee73"},"period":{"start":"2026-11-09T08:00:00.000+00:00","end":"2026-11-09T10:15:00.000+00:00"}},"request":{"method":"PUT","url":"Encounter/7b7b1bff-e519-4e21-ae2c-dac6a74e4340"}},{"fullUrl":"https://madie.cms.gov/Condition/79687d2c-9d15-492a-a9ae-9be9e27f2351","resource":{"resourceType":"Condition","id":"79687d2c-9d15-492a-a9ae-9be9e27f2351","meta":{"profile":["http://hl7.org/fhir/us/qicore/StructureDefinition/qicore-condition"]},"clinicalStatus":{"coding":[{"system":"http://terminology.hl7.org/CodeSystem/condition-clinical","code":"active"}]},"verificationStatus":{"coding":[{"system":"http://terminology.hl7.org/CodeSystem/condition-ver-status","code":"confirmed"}]},"category":[{"coding":[{"system":"http://terminology.hl7.org/CodeSystem/condition-category","code":"encounter-diagnosis","display":"Encounter Diagnosis"}]}],"code":{"coding":[{"system":"http://hl7.org/fhir/sid/icd-10-cm","code":"M80.00XA"}]},"subject":{"reference":"Patient/77178177-d553-4bf3-8c92-65382bfbee73"},"encounter":{"reference":"Encounter/191dee5c-cedb-44cd-bb5a-58d23c4c31e8"}},"request":{"method":"PUT","url":"Condition/79687d2c-9d15-492a-a9ae-9be9e27f2351"}},{"fullUrl":"https://madie.cms.gov/Condition/ae6e5017-ddbc-46dc-aad4-16654bee7e6a","resource":{"resourceType":"Condition","id":"ae6e5017-ddbc-46dc-aad4-16654bee7e6a","meta":{"profile":["http://hl7.org/fhir/us/qicore/StructureDefinition/qicore-condition"]},"clinicalStatus":{"coding":[{"system":"http://terminology.hl7.org/CodeSystem/condition-clinical","code":"active"}]},"verificationStatus":{"coding":[{"system":"http://terminology.hl7.org/CodeSystem/condition-ver-status","code":"confirmed"}]},"category":[{"coding":[{"system":"http://terminology.hl7.org/CodeSystem/condition-category","code":"encounter-diagnosis","display":"Encounter Diagnosis"}]}],"code":{"coding":[{"system":"http://snomed.info/sct","code":"14047009"}]},"subject":{"reference":"Patient/77178177-d553-4bf3-8c92-65382bfbee73"},"encounter":{"reference":"Encounter/191dee5c-cedb-44cd-bb5a-58d23c4c31e8"}},"request":{"method":"PUT","url":"Condition/ae6e5017-ddbc-46dc-aad4-16654bee7e6a"}},{"fullUrl":"https://madie.cms.gov/Patient/77178177-d553-4bf3-8c92-65382bfbee73","resource":{"resourceType":"Patient","id":"77178177-d553-4bf3-8c92-65382bfbee73","meta":{"profile":["http://hl7.org/fhir/us/qicore/StructureDefinition/qicore-patient"]},"extension":[{"url":"http://hl7.org/fhir/us/core/StructureDefinition/us-core-race","extension":[{"url":"ombCategory","valueCoding":{"system":"urn:oid:2.16.840.1.113883.6.238","code":"1002-5","display":"American Indian or Alaska Native","userSelected":true}},{"url":"text","valueString":"American Indian or Alaska Native"},{"url":"detailed","valueCoding":{"system":"urn:oid:2.16.840.1.113883.6.238","code":"1653-5","display":"Tohono O'Odham"}}]},{"url":"http://hl7.org/fhir/us/core/StructureDefinition/us-core-ethnicity","extension":[{"url":"ombCategory","valueCoding":{"system":"urn:oid:2.16.840.1.113883.6.238","code":"2135-2","display":"Hispanic or Latino","userSelected":true}},{"url":"text","valueString":"Not Hispanic or Latino"},{"url":"detailed","valueCoding":{"system":"urn:oid:2.16.840.1.113883.6.238","code":"2153-5","display":"Mexican American Indian"}}]}],"identifier":[{"type":{"coding":[{"system":"http://terminology.hl7.org/CodeSystem/v2-0203","code":"MR"}]},"system":"https://bonnie-fhir.healthit.gov/","value":"61152a3b98086b7a79cbd7c1"}],"active":true,"name":[{"use":"usual","family":"IPPFail","given":["PtAgeNot18EncounterStart"]}],"gender":"male","birthDate":"2009-11-09"},"request":{"method":"PUT","url":"Patient/77178177-d553-4bf3-8c92-65382bfbee73"}},{"fullUrl":"https://madie.cms.gov/Organization/Organization-1","resource":{"resourceType":"Organization","id":"Organization-1","meta":{"profile":["http://hl7.org/fhir/us/qicore/StructureDefinition/qicore-organization"]},"identifier":[{"use":"temp","system":"urn:oid:2.16.840.1.113883.4.336","value":"APayer"}],"active":true,"type":[{"coding":[{"system":"http://terminology.hl7.org/CodeSystem/organization-type","code":"pay","display":"Payer"}],"text":"Healthcare Payer"}],"name":"Test Medical Center","telecom":[{"system":"phone","value":"(+1) 800-123-4567"},{"system":"email","value":"mypayer@test.org"}],"address":[{"line":["600 Maple Avenue"],"city":"Indianapolis","state":"IN","postalCode":"46237","country":"USA"}]},"request":{"method":"PUT","url":"Organization/Organization-1"}},{"fullUrl":"https://madie.cms.gov/Coverage/10986ffe-2f98-42a6-bc7c-5f4a0bbb90cb","resource":{"resourceType":"Coverage","id":"10986ffe-2f98-42a6-bc7c-5f4a0bbb90cb","meta":{"profile":["http://hl7.org/fhir/us/qicore/StructureDefinition/qicore-coverage"]},"identifier":[{"system":"http://benefitsinc.com/certificate","value":"12345"}],"status":"active","type":{"coding":[{"system":"https://nahdo.org/sopt","code":"59","display":"Other Private Insurance"}]},"policyHolder":{"reference":"Patient/77178177-d553-4bf3-8c92-65382bfbee73"},"subscriber":{"reference":"Patient/77178177-d553-4bf3-8c92-65382bfbee73"},"beneficiary":{"reference":"Patient/77178177-d553-4bf3-8c92-65382bfbee73"},"dependent":"0","relationship":{"coding":[{"system":"http://terminology.hl7.org/CodeSystem/subscriber-relationship","code":"self"}]},"period":{"start":"2026-01-01T06:00:00.000+00:00","end":"2022-12-31T11:06:01.000+00:00"},"payor":[{"reference":"Organization/Organization-1"}],"order":9},"request":{"method":"PUT","url":"Coverage/10986ffe-2f98-42a6-bc7c-5f4a0bbb90cb"}},{"fullUrl":"https://madie.cms.gov/MeasureReport/048a2490-9e38-4b97-ae5c-3330e3157499","resource":{"resourceType":"MeasureReport","id":"048a2490-9e38-4b97-ae5c-3330e3157499","meta":{"profile":["http://hl7.org/fhir/us/cqfmeasures/StructureDefinition/test-case-cqfm"]},"contained":[{"resourceType":"Parameters","id":"4b454e66-e68d-4354-8533-543264f959bd-parameters","parameter":[{"name":"subject","valueString":"77178177-d553-4bf3-8c92-65382bfbee73"}]}],"extension":[{"url":"http://hl7.org/fhir/StructureDefinition/cqf-inputParameters","valueReference":{"reference":"#4b454e66-e68d-4354-8533-543264f959bd-parameters"}},{"url":"http://hl7.org/fhir/us/cqfmeasures/StructureDefinition/cqfm-testCaseDescription","valueMarkdown":"Encounter diagnosis includes both fall and major injury NPOA, but patient 17 at encounter start. Must be 18. IPP Fails."}],"modifierExtension":[{"url":"http://hl7.org/fhir/us/cqfmeasures/StructureDefinition/cqfm-isTestCase","valueBoolean":true}],"status":"complete","type":"individual","measure":"https://madie.cms.gov/Measure/CMS1017FHIRHHFI","period":{"start":"2026-01-01","end":"2026-12-31"},"group":[{"id":"Group_1","population":[{"id":"InitialPopulation_1","code":{"coding":[{"system":"http://terminology.hl7.org/CodeSystem/measure-population","code":"initial-population","display":"Initial Population"}]},"count":0},{"id":"Denominator_1","code":{"coding":[{"system":"http://terminology.hl7.org/CodeSystem/measure-population","code":"denominator","display":"Denominator"}]},"count":0},{"id":"DenominatorExclusion_1","code":{"coding":[{"system":"http://terminology.hl7.org/CodeSystem/measure-population","code":"denominator-exclusion","display":"Denominator Exclusion"}]},"count":0},{"id":"Numerator_1","code":{"coding":[{"system":"http://terminology.hl7.org/CodeSystem/measure-population","code":"numerator","display":"Numerator"}]},"count":0},{"id":"NumeratorExclusion_1","code":{"coding":[{"system":"http://terminology.hl7.org/CodeSystem/measure-population","code":"numerator-exclusion","display":"Numerator Exclusion"}]},"count":0}],"measureScore":{"value":0.0}}],"evaluatedResource":[{"reference":"Encounter/191dee5c-cedb-44cd-bb5a-58d23c4c31e8"},{"reference":"Encounter/7b7b1bff-e519-4e21-ae2c-dac6a74e4340"},{"reference":"Condition/79687d2c-9d15-492a-a9ae-9be9e27f2351"},{"reference":"Condition/ae6e5017-ddbc-46dc-aad4-16654bee7e6a"},{"reference":"Patient/77178177-d553-4bf3-8c92-65382bfbee73"},{"reference":"Organization/Organization-1"},{"reference":"Coverage/10986ffe-2f98-42a6-bc7c-5f4a0bbb90cb"}]},"request":{"method":"PUT","url":"MeasureReport/048a2490-9e38-4b97-ae5c-3330e3157499"}}]},"request":{"method":"PUT","url":"Bundle/IPPFail-PtAgeNot18EncounterStart"}},{"resource":{"resourceType":"Encounter","id":"7b7b1bff-e519-4e21-ae2c-dac6a74e4340","meta":{"profile":["http://hl7.org/fhir/us/qicore/StructureDefinition/qicore-encounter"]},"status":"finished","class":{"system":"http://terminology.hl7.org/CodeSystem/v3-ActCode","code":"IMP","display":"inpatient encounter"},"type":[{"coding":[{"system":"http://snomed.info/sct","code":"4525004"}]}],"subject":{"reference":"Patient/77178177-d553-4bf3-8c92-65382bfbee73"},"period":{"start":"2026-11-09T08:00:00.000+00:00","end":"2026-11-09T10:15:00.000+00:00"}},"request":{"method":"PUT","url":"Encounter/7b7b1bff-e519-4e21-ae2c-dac6a74e4340"}},{"resource":{"resourceType":"Condition","id":"79687d2c-9d15-492a-a9ae-9be9e27f2351","meta":{"profile":["http://hl7.org/fhir/us/qicore/StructureDefinition/qicore-condition"]},"clinicalStatus":{"coding":[{"system":"http://terminology.hl7.org/CodeSystem/condition-clinical","code":"active"}]},"verificationStatus":{"coding":[{"system":"http://terminology.hl7.org/CodeSystem/condition-ver-status","code":"confirmed"}]},"category":[{"coding":[{"system":"http://terminology.hl7.org/CodeSystem/condition-category","code":"encounter-diagnosis","display":"Encounter Diagnosis"}]}],"code":{"coding":[{"system":"http://hl7.org/fhir/sid/icd-10-cm","code":"M80.00XA"}]},"subject":{"reference":"Patient/77178177-d553-4bf3-8c92-65382bfbee73"},"encounter":{"reference":"Encounter/191dee5c-cedb-44cd-bb5a-58d23c4c31e8"}},"request":{"method":"PUT","url":"Condition/79687d2c-9d15-492a-a9ae-9be9e27f2351"}},{"resource":{"resourceType":"Encounter","id":"191dee5c-cedb-44cd-bb5a-58d23c4c31e8","meta":{"profile":["http://hl7.org/fhir/us/qicore/StructureDefinition/qicore-encounter"]},"status":"finished","class":{"system":"http://terminology.hl7.org/CodeSystem/v3-ActCode","code":"IMP","display":"inpatient encounter"},"type":[{"coding":[{"system":"http://snomed.info/sct","code":"183452005"}]}],"subject":{"reference":"Patient/77178177-d553-4bf3-8c92-65382bfbee73"},"period":{"start":"2026-11-09T11:15:00.000+00:00","end":"2026-11-13T08:15:00.000+00:00"},"diagnosis":[{"extension":[{"url":"http://hl7.org/fhir/us/qicore/StructureDefinition/qicore-encounter-diagnosisPresentOnAdmission","valueCodeableConcept":{"coding":[{"system":"https://www.cms.gov/Medicare/Medicare-Fee-for-Service-Payment/HospitalAcqCond/Coding","code":"N"}]}}],"condition":{"reference":"Condition/PtAgeNot18EncounterStart-1"}},{"extension":[{"url":"http://hl7.org/fhir/us/qicore/StructureDefinition/qicore-encounter-diagnosisPresentOnAdmission","valueCodeableConcept":{"coding":[{"system":"https://www.cms.gov/Medicare/Medicare-Fee-for-Service-Payment/HospitalAcqCond/Coding","code":"N"}]}}],"condition":{"reference":"Condition/IPPFail-PtAgeNot18EncounterStart-2"}}]},"request":{"method":"PUT","url":"Encounter/191dee5c-cedb-44cd-bb5a-58d23c4c31e8"}},{"resource":{"resourceType":"MeasureReport","id":"048a2490-9e38-4b97-ae5c-3330e3157499","meta":{"profile":["http://hl7.org/fhir/us/cqfmeasures/StructureDefinition/test-case-cqfm"]},"contained":[{"resourceType":"Parameters","id":"4b454e66-e68d-4354-8533-543264f959bd-parameters","parameter":[{"name":"subject","valueString":"77178177-d553-4bf3-8c92-65382bfbee73"}]}],"extension":[{"url":"http://hl7.org/fhir/StructureDefinition/cqf-inputParameters","valueReference":{"reference":"#4b454e66-e68d-4354-8533-543264f959bd-parameters"}},{"url":"http://hl7.org/fhir/us/cqfmeasures/StructureDefinition/cqfm-testCaseDescription","valueMarkdown":"Encounter diagnosis includes both fall and major injury NPOA, but patient 17 at encounter start. Must be 18. IPP Fails."}],"modifierExtension":[{"url":"http://hl7.org/fhir/us/cqfmeasures/StructureDefinition/cqfm-isTestCase","valueBoolean":true}],"status":"complete","type":"individual","measure":"https://madie.cms.gov/Measure/CMS1017FHIRHHFI","period":{"start":"2026-01-01","end":"2026-12-31"},"group":[{"id":"Group_1","population":[{"id":"InitialPopulation_1","code":{"coding":[{"system":"http://terminology.hl7.org/CodeSystem/measure-population","code":"initial-population","display":"Initial Population"}]},"count":0},{"id":"Denominator_1","code":{"coding":[{"system":"http://terminology.hl7.org/CodeSystem/measure-population","code":"denominator","display":"Denominator"}]},"count":0},{"id":"DenominatorExclusion_1","code":{"coding":[{"system":"http://terminology.hl7.org/CodeSystem/measure-population","code":"denominator-exclusion","display":"Denominator Exclusion"}]},"count":0},{"id":"Numerator_1","code":{"coding":[{"system":"http://terminology.hl7.org/CodeSystem/measure-population","code":"numerator","display":"Numerator"}]},"count":0},{"id":"NumeratorExclusion_1","code":{"coding":[{"system":"http://terminology.hl7.org/CodeSystem/measure-population","code":"numerator-exclusion","display":"Numerator Exclusion"}]},"count":0}],"measureScore":{"value":0.0}}],"evaluatedResource":[{"reference":"Encounter/191dee5c-cedb-44cd-bb5a-58d23c4c31e8"},{"reference":"Encounter/7b7b1bff-e519-4e21-ae2c-dac6a74e4340"},{"reference":"Condition/79687d2c-9d15-492a-a9ae-9be9e27f2351"},{"reference":"Condition/ae6e5017-ddbc-46dc-aad4-16654bee7e6a"},{"reference":"Patient/77178177-d553-4bf3-8c92-65382bfbee73"},{"reference":"Organization/Organization-1"},{"reference":"Coverage/10986ffe-2f98-42a6-bc7c-5f4a0bbb90cb"}]},"request":{"method":"PUT","url":"MeasureReport/048a2490-9e38-4b97-ae5c-3330e3157499"}},{"resource":{"resourceType":"Condition","id":"ae6e5017-ddbc-46dc-aad4-16654bee7e6a","meta":{"profile":["http://hl7.org/fhir/us/qicore/StructureDefinition/qicore-condition"]},"clinicalStatus":{"coding":[{"system":"http://terminology.hl7.org/CodeSystem/condition-clinical","code":"active"}]},"verificationStatus":{"coding":[{"system":"http://terminology.hl7.org/CodeSystem/condition-ver-status","code":"confirmed"}]},"category":[{"coding":[{"system":"http://terminology.hl7.org/CodeSystem/condition-category","code":"encounter-diagnosis","display":"Encounter Diagnosis"}]}],"code":{"coding":[{"system":"http://snomed.info/sct","code":"14047009"}]},"subject":{"reference":"Patient/77178177-d553-4bf3-8c92-65382bfbee73"},"encounter":{"reference":"Encounter/191dee5c-cedb-44cd-bb5a-58d23c4c31e8"}},"request":{"method":"PUT","url":"Condition/ae6e5017-ddbc-46dc-aad4-16654bee7e6a"}},{"resource":{"resourceType":"Patient","id":"77178177-d553-4bf3-8c92-65382bfbee73","meta":{"profile":["http://hl7.org/fhir/us/qicore/StructureDefinition/qicore-patient"]},"extension":[{"url":"http://hl7.org/fhir/us/core/StructureDefinition/us-core-race","extension":[{"url":"ombCategory","valueCoding":{"system":"urn:oid:2.16.840.1.113883.6.238","code":"1002-5","display":"American Indian or Alaska Native","userSelected":true}},{"url":"text","valueString":"American Indian or Alaska Native"},{"url":"detailed","valueCoding":{"system":"urn:oid:2.16.840.1.113883.6.238","code":"1653-5","display":"Tohono O'Odham"}}]},{"url":"http://hl7.org/fhir/us/core/StructureDefinition/us-core-ethnicity","extension":[{"url":"ombCategory","valueCoding":{"system":"urn:oid:2.16.840.1.113883.6.238","code":"2135-2","display":"Hispanic or Latino","userSelected":true}},{"url":"text","valueString":"Not Hispanic or Latino"},{"url":"detailed","valueCoding":{"system":"urn:oid:2.16.840.1.113883.6.238","code":"2153-5","display":"Mexican American Indian"}}]}],"identifier":[{"type":{"coding":[{"system":"http://terminology.hl7.org/CodeSystem/v2-0203","code":"MR"}]},"system":"https://bonnie-fhir.healthit.gov/","value":"61152a3b98086b7a79cbd7c1"}],"active":true,"name":[{"use":"usual","family":"IPPFail","given":["PtAgeNot18EncounterStart"]}],"gender":"male","birthDate":"2009-11-09"},"request":{"method":"PUT","url":"Patient/77178177-d553-4bf3-8c92-65382bfbee73"}},{"resource":{"resourceType":"Coverage","id":"10986ffe-2f98-42a6-bc7c-5f4a0bbb90cb","meta":{"profile":["http://hl7.org/fhir/us/qicore/StructureDefinition/qicore-coverage"]},"identifier":[{"system":"http://benefitsinc.com/certificate","value":"12345"}],"status":"active","type":{"coding":[{"system":"https://nahdo.org/sopt","code":"59","display":"Other Private Insurance"}]},"policyHolder":{"reference":"Patient/77178177-d553-4bf3-8c92-65382bfbee73"},"subscriber":{"reference":"Patient/77178177-d553-4bf3-8c92-65382bfbee73"},"beneficiary":{"reference":"Patient/77178177-d553-4bf3-8c92-65382bfbee73"},"dependent":"0","relationship":{"coding":[{"system":"http://terminology.hl7.org/CodeSystem/subscriber-relationship","code":"self"}]},"period":{"start":"2026-01-01T06:00:00.000+00:00","end":"2022-12-31T11:06:01.000+00:00"},"payor":[{"reference":"Organization/Organization-1"}],"order":9},"request":{"method":"PUT","url":"Coverage/10986ffe-2f98-42a6-bc7c-5f4a0bbb90cb"}}]}