{"resourceType":"Bundle","id":"tests-404570c9-b21f-4fa2-be5d-6d02c910fea6-bundle","type":"transaction","entry":[{"resource":{"resourceType":"Encounter","id":"5266f928-dee1-48f8-845f-298459a3fd7b","meta":{"profile":["http://hl7.org/fhir/us/qicore/StructureDefinition/qicore-encounter"]},"status":"finished","class":{"system":"http://terminology.hl7.org/CodeSystem/v3-ActCode","code":"IMP","display":"inpatient encounter"},"type":[{"coding":[{"system":"http://snomed.info/sct","code":"183452005"}]}],"subject":{"reference":"Patient/404570c9-b21f-4fa2-be5d-6d02c910fea6"},"period":{"start":"2026-12-10T08:00:00.000+00:00","end":"2026-12-14T08:15:00.000+00:00"},"diagnosis":[{"extension":[{"url":"http://hl7.org/fhir/us/qicore/StructureDefinition/qicore-encounter-diagnosisPresentOnAdmission","valueCodeableConcept":{"coding":[{"system":"https://www.cms.gov/Medicare/Medicare-Fee-for-Service-Payment/HospitalAcqCond/Coding","code":"N"}]}}],"condition":{"reference":"Condition/351d6896-b729-400d-aba7-8ad9f280ddfc"}},{"extension":[{"url":"http://hl7.org/fhir/us/qicore/StructureDefinition/qicore-encounter-diagnosisPresentOnAdmission","valueCodeableConcept":{"coding":[{"system":"https://www.cms.gov/Medicare/Medicare-Fee-for-Service-Payment/HospitalAcqCond/Coding","code":"N"}]}}],"condition":{"reference":"Condition/e72680b3-334b-4088-bfd1-a92d50c9bf73"}}]},"request":{"method":"PUT","url":"Encounter/5266f928-dee1-48f8-845f-298459a3fd7b"}},{"resource":{"resourceType":"Condition","id":"e72680b3-334b-4088-bfd1-a92d50c9bf73","meta":{"profile":["http://hl7.org/fhir/us/qicore/StructureDefinition/qicore-condition"]},"clinicalStatus":{"coding":[{"system":"http://terminology.hl7.org/CodeSystem/condition-clinical","code":"active"}]},"verificationStatus":{"coding":[{"system":"http://terminology.hl7.org/CodeSystem/condition-ver-status","code":"confirmed"}]},"category":[{"coding":[{"system":"http://terminology.hl7.org/CodeSystem/condition-category","code":"encounter-diagnosis","display":"Encounter Diagnosis"}]}],"code":{"coding":[{"system":"http://hl7.org/fhir/sid/icd-10-cm","code":"S01.121A"}]},"subject":{"reference":"Patient/404570c9-b21f-4fa2-be5d-6d02c910fea6"},"encounter":{"reference":"Encounter/5266f928-dee1-48f8-845f-298459a3fd7b"}},"request":{"method":"PUT","url":"Condition/e72680b3-334b-4088-bfd1-a92d50c9bf73"}},{"resource":{"resourceType":"Claim","id":"c66277fb-7094-44b8-b02f-dea968831d38","meta":{"profile":["http://hl7.org/fhir/us/qicore/StructureDefinition/qicore-claim"]},"status":"active","type":{"coding":[{"system":"http://terminology.hl7.org/CodeSystem/claim-type","code":"professional","display":"Professional"}]},"use":"claim","patient":{"reference":"Patient/404570c9-b21f-4fa2-be5d-6d02c910fea6"},"created":"2026-11-12","priority":{"coding":[{"system":"http://terminology.hl7.org/CodeSystem/processpriority","code":"normal"}]},"diagnosis":[{"sequence":1,"diagnosisCodeableConcept":{"coding":[{"system":"http://snomed.info/sct","code":"S01.121A"}]},"onAdmission":{"coding":[{"system":"https://www.cms.gov/Medicare/Medicare-Fee-for-Service-Payment/HospitalAcqCond/Coding","code":"N"}]}}],"item":[{"sequence":1,"diagnosisSequence":[1,2],"encounter":[{"reference":"Encounter/DENEXPass-Enc1FallPOAEnc2FallNPOAAndInjuryNPOA-2"}]}]},"request":{"method":"PUT","url":"Claim/c66277fb-7094-44b8-b02f-dea968831d38"}},{"resource":{"resourceType":"Claim","id":"35d8bcd8-fcd7-43b2-817f-3902d0e2fe49","meta":{"profile":["http://hl7.org/fhir/us/qicore/StructureDefinition/qicore-claim"]},"status":"active","type":{"coding":[{"system":"http://terminology.hl7.org/CodeSystem/claim-type","code":"professional","display":"Professional"}]},"use":"claim","patient":{"reference":"Patient/404570c9-b21f-4fa2-be5d-6d02c910fea6"},"created":"2026-11-12","priority":{"coding":[{"system":"http://terminology.hl7.org/CodeSystem/processpriority","code":"normal"}]},"diagnosis":[{"sequence":1,"diagnosisCodeableConcept":{"coding":[{"system":"http://hl7.org/fhir/sid/icd-10-cm","code":"W01.0XXA"}]},"onAdmission":{"coding":[{"system":"https://www.cms.gov/Medicare/Medicare-Fee-for-Service-Payment/HospitalAcqCond/Coding","code":"N"}]}}],"item":[{"sequence":1,"diagnosisSequence":[1,2],"encounter":[{"reference":"Encounter/DENEXPass-Enc1FallPOAEnc2FallNPOAAndInjuryNPOA-2"}]}]},"request":{"method":"PUT","url":"Claim/35d8bcd8-fcd7-43b2-817f-3902d0e2fe49"}},{"resource":{"resourceType":"MeasureReport","id":"65b00c45-f915-48a6-9d0a-3e8829fb8343","meta":{"profile":["http://hl7.org/fhir/us/cqfmeasures/StructureDefinition/test-case-cqfm"]},"contained":[{"resourceType":"Parameters","id":"d4bdd0f7-e463-42f5-b2c9-84f563fbdd65-parameters","parameter":[{"name":"subject","valueString":"404570c9-b21f-4fa2-be5d-6d02c910fea6"}]}],"extension":[{"url":"http://hl7.org/fhir/StructureDefinition/cqf-inputParameters","valueReference":{"reference":"#d4bdd0f7-e463-42f5-b2c9-84f563fbdd65-parameters"}},{"url":"http://hl7.org/fhir/us/cqfmeasures/StructureDefinition/cqfm-testCaseDescription","valueMarkdown":"Enc 1: Fall POA = Y. Meets denom exclusion.\nEnc: 2 Fall POA = N and injury POA = N. Meets numerator."}],"modifierExtension":[{"url":"http://hl7.org/fhir/us/cqfmeasures/StructureDefinition/cqfm-isTestCase","valueBoolean":true}],"status":"complete","type":"individual","measure":"https://madie.cms.gov/Measure/CMS1017FHIRHHFI","period":{"start":"2026-01-01","end":"2026-12-31"},"group":[{"id":"Group_1","population":[{"id":"InitialPopulation_1","code":{"coding":[{"system":"http://terminology.hl7.org/CodeSystem/measure-population","code":"initial-population","display":"Initial Population"}]},"count":2},{"id":"Denominator_1","code":{"coding":[{"system":"http://terminology.hl7.org/CodeSystem/measure-population","code":"denominator","display":"Denominator"}]},"count":2},{"id":"DenominatorExclusion_1","code":{"coding":[{"system":"http://terminology.hl7.org/CodeSystem/measure-population","code":"denominator-exclusion","display":"Denominator Exclusion"}]},"count":1},{"id":"Numerator_1","code":{"coding":[{"system":"http://terminology.hl7.org/CodeSystem/measure-population","code":"numerator","display":"Numerator"}]},"count":1},{"id":"NumeratorExclusion_1","code":{"coding":[{"system":"http://terminology.hl7.org/CodeSystem/measure-population","code":"numerator-exclusion","display":"Numerator Exclusion"}]},"count":1},{"id":"MeasureObservation_1_1_1","code":{"coding":[{"system":"http://terminology.hl7.org/CodeSystem/measure-population","code":"measure-observation","display":"Measure Observation"}]},"count":4}],"measureScore":{"value":0.0}}],"evaluatedResource":[{"reference":"Claim/916697f5-cc35-41f9-80f3-48ef5417dcf0"},{"reference":"Claim/35d8bcd8-fcd7-43b2-817f-3902d0e2fe49"},{"reference":"Claim/c66277fb-7094-44b8-b02f-dea968831d38"},{"reference":"Encounter/5266f928-dee1-48f8-845f-298459a3fd7b"},{"reference":"Encounter/a76002e1-7c39-497a-adbd-832e5454a103"},{"reference":"Encounter/f8bc6f63-ede4-46c4-8bd2-31ad6d5e0433"},{"reference":"Condition/e72680b3-334b-4088-bfd1-a92d50c9bf73"},{"reference":"Condition/351d6896-b729-400d-aba7-8ad9f280ddfc"},{"reference":"Condition/3c03d85e-f076-4c9c-a807-cbb2346f2d02"},{"reference":"Patient/404570c9-b21f-4fa2-be5d-6d02c910fea6"}]},"request":{"method":"PUT","url":"MeasureReport/65b00c45-f915-48a6-9d0a-3e8829fb8343"}},{"resource":{"resourceType":"Patient","id":"404570c9-b21f-4fa2-be5d-6d02c910fea6","meta":{"profile":["http://hl7.org/fhir/us/qicore/StructureDefinition/qicore-patient"]},"extension":[{"url":"http://hl7.org/fhir/us/core/StructureDefinition/us-core-race","extension":[{"url":"ombCategory","valueCoding":{"system":"urn:oid:2.16.840.1.113883.6.238","code":"2054-5","display":"Black or African American","userSelected":true}},{"url":"text","valueString":"Black or African American"}]},{"url":"http://hl7.org/fhir/us/core/StructureDefinition/us-core-ethnicity","extension":[{"url":"ombCategory","valueCoding":{"system":"urn:oid:2.16.840.1.113883.6.238","code":"2186-5","display":"Not Hispanic or Latino","userSelected":true}},{"url":"text","valueString":"Not Hispanic or Latino"}]}],"identifier":[{"type":{"coding":[{"system":"http://terminology.hl7.org/CodeSystem/v2-0203","code":"MR"}]},"system":"https://bonnie-fhir.healthit.gov/","value":"61152a3b98086b7a79cbd7c1"}],"active":true,"name":[{"use":"usual","family":"DENEXPass","given":["Enc1FallPOAEnc2FallNPOAAndInjuryNPOA"]}],"gender":"male","birthDate":"1992-11-10"},"request":{"method":"PUT","url":"Patient/404570c9-b21f-4fa2-be5d-6d02c910fea6"}},{"resource":{"resourceType":"Condition","id":"351d6896-b729-400d-aba7-8ad9f280ddfc","meta":{"profile":["http://hl7.org/fhir/us/qicore/StructureDefinition/qicore-condition"]},"clinicalStatus":{"coding":[{"system":"http://terminology.hl7.org/CodeSystem/condition-clinical","code":"active"}]},"verificationStatus":{"coding":[{"system":"http://terminology.hl7.org/CodeSystem/condition-ver-status","code":"confirmed"}]},"category":[{"coding":[{"system":"http://terminology.hl7.org/CodeSystem/condition-category","code":"encounter-diagnosis","display":"Encounter Diagnosis"}]}],"code":{"coding":[{"system":"http://hl7.org/fhir/sid/icd-10-cm","code":"W01.0XXA"}]},"subject":{"reference":"Patient/404570c9-b21f-4fa2-be5d-6d02c910fea6"},"encounter":{"reference":"Encounter/5266f928-dee1-48f8-845f-298459a3fd7b"}},"request":{"method":"PUT","url":"Condition/351d6896-b729-400d-aba7-8ad9f280ddfc"}},{"resource":{"resourceType":"Bundle","id":"DENEXPass-Enc1FallPOAEnc2FallNPOAAndInjuryNPOA-bundle","type":"transaction","entry":[{"fullUrl":"https://madie.cms.gov/Claim/916697f5-cc35-41f9-80f3-48ef5417dcf0","resource":{"resourceType":"Claim","id":"916697f5-cc35-41f9-80f3-48ef5417dcf0","meta":{"profile":["http://hl7.org/fhir/us/qicore/StructureDefinition/qicore-claim"]},"status":"active","type":{"coding":[{"system":"http://terminology.hl7.org/CodeSystem/claim-type","code":"professional","display":"Professional"}]},"use":"claim","patient":{"reference":"Patient/404570c9-b21f-4fa2-be5d-6d02c910fea6"},"created":"2026-11-12","priority":{"coding":[{"system":"http://terminology.hl7.org/CodeSystem/processpriority","code":"normal"}]},"diagnosis":[{"sequence":1,"diagnosisCodeableConcept":{"coding":[{"system":"http://hl7.org/fhir/sid/icd-10-cm","code":"W01.0XXA"}]},"onAdmission":{"coding":[{"system":"https://www.cms.gov/Medicare/Medicare-Fee-for-Service-Payment/HospitalAcqCond/Coding","code":"Y"}]}}],"item":[{"sequence":1,"diagnosisSequence":[1,2],"encounter":[{"reference":"Encounter/DENEXPass-Enc1FallPOAEnc2FallNPOAAndInjuryNPOA-2"}]}]},"request":{"method":"PUT","url":"Claim/916697f5-cc35-41f9-80f3-48ef5417dcf0"}},{"fullUrl":"https://madie.cms.gov/Claim/35d8bcd8-fcd7-43b2-817f-3902d0e2fe49","resource":{"resourceType":"Claim","id":"35d8bcd8-fcd7-43b2-817f-3902d0e2fe49","meta":{"profile":["http://hl7.org/fhir/us/qicore/StructureDefinition/qicore-claim"]},"status":"active","type":{"coding":[{"system":"http://terminology.hl7.org/CodeSystem/claim-type","code":"professional","display":"Professional"}]},"use":"claim","patient":{"reference":"Patient/404570c9-b21f-4fa2-be5d-6d02c910fea6"},"created":"2026-11-12","priority":{"coding":[{"system":"http://terminology.hl7.org/CodeSystem/processpriority","code":"normal"}]},"diagnosis":[{"sequence":1,"diagnosisCodeableConcept":{"coding":[{"system":"http://hl7.org/fhir/sid/icd-10-cm","code":"W01.0XXA"}]},"onAdmission":{"coding":[{"system":"https://www.cms.gov/Medicare/Medicare-Fee-for-Service-Payment/HospitalAcqCond/Coding","code":"N"}]}}],"item":[{"sequence":1,"diagnosisSequence":[1,2],"encounter":[{"reference":"Encounter/DENEXPass-Enc1FallPOAEnc2FallNPOAAndInjuryNPOA-2"}]}]},"request":{"method":"PUT","url":"Claim/35d8bcd8-fcd7-43b2-817f-3902d0e2fe49"}},{"fullUrl":"https://madie.cms.gov/Claim/c66277fb-7094-44b8-b02f-dea968831d38","resource":{"resourceType":"Claim","id":"c66277fb-7094-44b8-b02f-dea968831d38","meta":{"profile":["http://hl7.org/fhir/us/qicore/StructureDefinition/qicore-claim"]},"status":"active","type":{"coding":[{"system":"http://terminology.hl7.org/CodeSystem/claim-type","code":"professional","display":"Professional"}]},"use":"claim","patient":{"reference":"Patient/404570c9-b21f-4fa2-be5d-6d02c910fea6"},"created":"2026-11-12","priority":{"coding":[{"system":"http://terminology.hl7.org/CodeSystem/processpriority","code":"normal"}]},"diagnosis":[{"sequence":1,"diagnosisCodeableConcept":{"coding":[{"system":"http://snomed.info/sct","code":"S01.121A"}]},"onAdmission":{"coding":[{"system":"https://www.cms.gov/Medicare/Medicare-Fee-for-Service-Payment/HospitalAcqCond/Coding","code":"N"}]}}],"item":[{"sequence":1,"diagnosisSequence":[1,2],"encounter":[{"reference":"Encounter/DENEXPass-Enc1FallPOAEnc2FallNPOAAndInjuryNPOA-2"}]}]},"request":{"method":"PUT","url":"Claim/c66277fb-7094-44b8-b02f-dea968831d38"}},{"fullUrl":"https://madie.cms.gov/Encounter/5266f928-dee1-48f8-845f-298459a3fd7b","resource":{"resourceType":"Encounter","id":"5266f928-dee1-48f8-845f-298459a3fd7b","meta":{"profile":["http://hl7.org/fhir/us/qicore/StructureDefinition/qicore-encounter"]},"status":"finished","class":{"system":"http://terminology.hl7.org/CodeSystem/v3-ActCode","code":"IMP","display":"inpatient encounter"},"type":[{"coding":[{"system":"http://snomed.info/sct","code":"183452005"}]}],"subject":{"reference":"Patient/404570c9-b21f-4fa2-be5d-6d02c910fea6"},"period":{"start":"2026-12-10T08:00:00.000+00:00","end":"2026-12-14T08:15:00.000+00:00"},"diagnosis":[{"extension":[{"url":"http://hl7.org/fhir/us/qicore/StructureDefinition/qicore-encounter-diagnosisPresentOnAdmission","valueCodeableConcept":{"coding":[{"system":"https://www.cms.gov/Medicare/Medicare-Fee-for-Service-Payment/HospitalAcqCond/Coding","code":"N"}]}}],"condition":{"reference":"Condition/351d6896-b729-400d-aba7-8ad9f280ddfc"}},{"extension":[{"url":"http://hl7.org/fhir/us/qicore/StructureDefinition/qicore-encounter-diagnosisPresentOnAdmission","valueCodeableConcept":{"coding":[{"system":"https://www.cms.gov/Medicare/Medicare-Fee-for-Service-Payment/HospitalAcqCond/Coding","code":"N"}]}}],"condition":{"reference":"Condition/e72680b3-334b-4088-bfd1-a92d50c9bf73"}}]},"request":{"method":"PUT","url":"Encounter/5266f928-dee1-48f8-845f-298459a3fd7b"}},{"fullUrl":"https://madie.cms.gov/Encounter/a76002e1-7c39-497a-adbd-832e5454a103","resource":{"resourceType":"Encounter","id":"a76002e1-7c39-497a-adbd-832e5454a103","meta":{"profile":["http://hl7.org/fhir/us/qicore/StructureDefinition/qicore-encounter"]},"status":"finished","class":{"system":"http://terminology.hl7.org/CodeSystem/v3-ActCode","code":"IMP","display":"inpatient encounter"},"type":[{"coding":[{"system":"http://snomed.info/sct","code":"183452005"}]}],"subject":{"reference":"Patient/404570c9-b21f-4fa2-be5d-6d02c910fea6"},"period":{"start":"2026-11-09T11:00:00.000+00:00","end":"2026-11-12T08:15:00.000+00:00"},"diagnosis":[{"extension":[{"url":"http://hl7.org/fhir/us/qicore/StructureDefinition/qicore-encounter-diagnosisPresentOnAdmission","valueCodeableConcept":{"coding":[{"system":"https://www.cms.gov/Medicare/Medicare-Fee-for-Service-Payment/HospitalAcqCond/Coding","code":"Y"}]}}],"condition":{"reference":"Condition/3c03d85e-f076-4c9c-a807-cbb2346f2d02"}}]},"request":{"method":"PUT","url":"Encounter/a76002e1-7c39-497a-adbd-832e5454a103"}},{"fullUrl":"https://madie.cms.gov/Encounter/f8bc6f63-ede4-46c4-8bd2-31ad6d5e0433","resource":{"resourceType":"Encounter","id":"f8bc6f63-ede4-46c4-8bd2-31ad6d5e0433","meta":{"profile":["http://hl7.org/fhir/us/qicore/StructureDefinition/qicore-encounter"]},"status":"finished","class":{"system":"http://terminology.hl7.org/CodeSystem/v3-ActCode","code":"IMP","display":"inpatient encounter"},"type":[{"coding":[{"system":"http://snomed.info/sct","code":"4525004"}]}],"subject":{"reference":"Patient/404570c9-b21f-4fa2-be5d-6d02c910fea6"},"period":{"start":"2026-11-09T08:00:00.000+00:00","end":"2026-11-09T10:15:00.000+00:00"}},"request":{"method":"PUT","url":"Encounter/f8bc6f63-ede4-46c4-8bd2-31ad6d5e0433"}},{"fullUrl":"https://madie.cms.gov/Condition/e72680b3-334b-4088-bfd1-a92d50c9bf73","resource":{"resourceType":"Condition","id":"e72680b3-334b-4088-bfd1-a92d50c9bf73","meta":{"profile":["http://hl7.org/fhir/us/qicore/StructureDefinition/qicore-condition"]},"clinicalStatus":{"coding":[{"system":"http://terminology.hl7.org/CodeSystem/condition-clinical","code":"active"}]},"verificationStatus":{"coding":[{"system":"http://terminology.hl7.org/CodeSystem/condition-ver-status","code":"confirmed"}]},"category":[{"coding":[{"system":"http://terminology.hl7.org/CodeSystem/condition-category","code":"encounter-diagnosis","display":"Encounter Diagnosis"}]}],"code":{"coding":[{"system":"http://hl7.org/fhir/sid/icd-10-cm","code":"S01.121A"}]},"subject":{"reference":"Patient/404570c9-b21f-4fa2-be5d-6d02c910fea6"},"encounter":{"reference":"Encounter/5266f928-dee1-48f8-845f-298459a3fd7b"}},"request":{"method":"PUT","url":"Condition/e72680b3-334b-4088-bfd1-a92d50c9bf73"}},{"fullUrl":"https://madie.cms.gov/Condition/351d6896-b729-400d-aba7-8ad9f280ddfc","resource":{"resourceType":"Condition","id":"351d6896-b729-400d-aba7-8ad9f280ddfc","meta":{"profile":["http://hl7.org/fhir/us/qicore/StructureDefinition/qicore-condition"]},"clinicalStatus":{"coding":[{"system":"http://terminology.hl7.org/CodeSystem/condition-clinical","code":"active"}]},"verificationStatus":{"coding":[{"system":"http://terminology.hl7.org/CodeSystem/condition-ver-status","code":"confirmed"}]},"category":[{"coding":[{"system":"http://terminology.hl7.org/CodeSystem/condition-category","code":"encounter-diagnosis","display":"Encounter Diagnosis"}]}],"code":{"coding":[{"system":"http://hl7.org/fhir/sid/icd-10-cm","code":"W01.0XXA"}]},"subject":{"reference":"Patient/404570c9-b21f-4fa2-be5d-6d02c910fea6"},"encounter":{"reference":"Encounter/5266f928-dee1-48f8-845f-298459a3fd7b"}},"request":{"method":"PUT","url":"Condition/351d6896-b729-400d-aba7-8ad9f280ddfc"}},{"fullUrl":"https://madie.cms.gov/Condition/3c03d85e-f076-4c9c-a807-cbb2346f2d02","resource":{"resourceType":"Condition","id":"3c03d85e-f076-4c9c-a807-cbb2346f2d02","meta":{"profile":["http://hl7.org/fhir/us/qicore/StructureDefinition/qicore-condition"]},"clinicalStatus":{"coding":[{"system":"http://terminology.hl7.org/CodeSystem/condition-clinical","code":"active"}]},"verificationStatus":{"coding":[{"system":"http://terminology.hl7.org/CodeSystem/condition-ver-status","code":"confirmed"}]},"category":[{"coding":[{"system":"http://terminology.hl7.org/CodeSystem/condition-category","code":"encounter-diagnosis","display":"Encounter Diagnosis"}]}],"code":{"coding":[{"system":"http://hl7.org/fhir/sid/icd-10-cm","code":"W01.0XXA"}]},"subject":{"reference":"Patient/404570c9-b21f-4fa2-be5d-6d02c910fea6"},"encounter":{"reference":"Encounter/a76002e1-7c39-497a-adbd-832e5454a103"}},"request":{"method":"PUT","url":"Condition/3c03d85e-f076-4c9c-a807-cbb2346f2d02"}},{"fullUrl":"https://madie.cms.gov/Patient/404570c9-b21f-4fa2-be5d-6d02c910fea6","resource":{"resourceType":"Patient","id":"404570c9-b21f-4fa2-be5d-6d02c910fea6","meta":{"profile":["http://hl7.org/fhir/us/qicore/StructureDefinition/qicore-patient"]},"extension":[{"url":"http://hl7.org/fhir/us/core/StructureDefinition/us-core-race","extension":[{"url":"ombCategory","valueCoding":{"system":"urn:oid:2.16.840.1.113883.6.238","code":"2054-5","display":"Black or African American","userSelected":true}},{"url":"text","valueString":"Black or African American"}]},{"url":"http://hl7.org/fhir/us/core/StructureDefinition/us-core-ethnicity","extension":[{"url":"ombCategory","valueCoding":{"system":"urn:oid:2.16.840.1.113883.6.238","code":"2186-5","display":"Not Hispanic or Latino","userSelected":true}},{"url":"text","valueString":"Not Hispanic or Latino"}]}],"identifier":[{"type":{"coding":[{"system":"http://terminology.hl7.org/CodeSystem/v2-0203","code":"MR"}]},"system":"https://bonnie-fhir.healthit.gov/","value":"61152a3b98086b7a79cbd7c1"}],"active":true,"name":[{"use":"usual","family":"DENEXPass","given":["Enc1FallPOAEnc2FallNPOAAndInjuryNPOA"]}],"gender":"male","birthDate":"1992-11-10"},"request":{"method":"PUT","url":"Patient/404570c9-b21f-4fa2-be5d-6d02c910fea6"}},{"fullUrl":"https://madie.cms.gov/MeasureReport/65b00c45-f915-48a6-9d0a-3e8829fb8343","resource":{"resourceType":"MeasureReport","id":"65b00c45-f915-48a6-9d0a-3e8829fb8343","meta":{"profile":["http://hl7.org/fhir/us/cqfmeasures/StructureDefinition/test-case-cqfm"]},"contained":[{"resourceType":"Parameters","id":"d4bdd0f7-e463-42f5-b2c9-84f563fbdd65-parameters","parameter":[{"name":"subject","valueString":"404570c9-b21f-4fa2-be5d-6d02c910fea6"}]}],"extension":[{"url":"http://hl7.org/fhir/StructureDefinition/cqf-inputParameters","valueReference":{"reference":"#d4bdd0f7-e463-42f5-b2c9-84f563fbdd65-parameters"}},{"url":"http://hl7.org/fhir/us/cqfmeasures/StructureDefinition/cqfm-testCaseDescription","valueMarkdown":"Enc 1: Fall POA = Y. Meets denom exclusion.\nEnc: 2 Fall POA = N and injury POA = N. Meets numerator."}],"modifierExtension":[{"url":"http://hl7.org/fhir/us/cqfmeasures/StructureDefinition/cqfm-isTestCase","valueBoolean":true}],"status":"complete","type":"individual","measure":"https://madie.cms.gov/Measure/CMS1017FHIRHHFI","period":{"start":"2026-01-01","end":"2026-12-31"},"group":[{"id":"Group_1","population":[{"id":"InitialPopulation_1","code":{"coding":[{"system":"http://terminology.hl7.org/CodeSystem/measure-population","code":"initial-population","display":"Initial Population"}]},"count":2},{"id":"Denominator_1","code":{"coding":[{"system":"http://terminology.hl7.org/CodeSystem/measure-population","code":"denominator","display":"Denominator"}]},"count":2},{"id":"DenominatorExclusion_1","code":{"coding":[{"system":"http://terminology.hl7.org/CodeSystem/measure-population","code":"denominator-exclusion","display":"Denominator Exclusion"}]},"count":1},{"id":"Numerator_1","code":{"coding":[{"system":"http://terminology.hl7.org/CodeSystem/measure-population","code":"numerator","display":"Numerator"}]},"count":1},{"id":"NumeratorExclusion_1","code":{"coding":[{"system":"http://terminology.hl7.org/CodeSystem/measure-population","code":"numerator-exclusion","display":"Numerator Exclusion"}]},"count":1},{"id":"MeasureObservation_1_1_1","code":{"coding":[{"system":"http://terminology.hl7.org/CodeSystem/measure-population","code":"measure-observation","display":"Measure Observation"}]},"count":4}],"measureScore":{"value":0.0}}],"evaluatedResource":[{"reference":"Claim/916697f5-cc35-41f9-80f3-48ef5417dcf0"},{"reference":"Claim/35d8bcd8-fcd7-43b2-817f-3902d0e2fe49"},{"reference":"Claim/c66277fb-7094-44b8-b02f-dea968831d38"},{"reference":"Encounter/5266f928-dee1-48f8-845f-298459a3fd7b"},{"reference":"Encounter/a76002e1-7c39-497a-adbd-832e5454a103"},{"reference":"Encounter/f8bc6f63-ede4-46c4-8bd2-31ad6d5e0433"},{"reference":"Condition/e72680b3-334b-4088-bfd1-a92d50c9bf73"},{"reference":"Condition/351d6896-b729-400d-aba7-8ad9f280ddfc"},{"reference":"Condition/3c03d85e-f076-4c9c-a807-cbb2346f2d02"},{"reference":"Patient/404570c9-b21f-4fa2-be5d-6d02c910fea6"}]},"request":{"method":"PUT","url":"MeasureReport/65b00c45-f915-48a6-9d0a-3e8829fb8343"}}]},"request":{"method":"PUT","url":"Bundle/DENEXPass-Enc1FallPOAEnc2FallNPOAAndInjuryNPOA-bundle"}},{"resource":{"resourceType":"Encounter","id":"f8bc6f63-ede4-46c4-8bd2-31ad6d5e0433","meta":{"profile":["http://hl7.org/fhir/us/qicore/StructureDefinition/qicore-encounter"]},"status":"finished","class":{"system":"http://terminology.hl7.org/CodeSystem/v3-ActCode","code":"IMP","display":"inpatient encounter"},"type":[{"coding":[{"system":"http://snomed.info/sct","code":"4525004"}]}],"subject":{"reference":"Patient/404570c9-b21f-4fa2-be5d-6d02c910fea6"},"period":{"start":"2026-11-09T08:00:00.000+00:00","end":"2026-11-09T10:15:00.000+00:00"}},"request":{"method":"PUT","url":"Encounter/f8bc6f63-ede4-46c4-8bd2-31ad6d5e0433"}},{"resource":{"resourceType":"Condition","id":"3c03d85e-f076-4c9c-a807-cbb2346f2d02","meta":{"profile":["http://hl7.org/fhir/us/qicore/StructureDefinition/qicore-condition"]},"clinicalStatus":{"coding":[{"system":"http://terminology.hl7.org/CodeSystem/condition-clinical","code":"active"}]},"verificationStatus":{"coding":[{"system":"http://terminology.hl7.org/CodeSystem/condition-ver-status","code":"confirmed"}]},"category":[{"coding":[{"system":"http://terminology.hl7.org/CodeSystem/condition-category","code":"encounter-diagnosis","display":"Encounter Diagnosis"}]}],"code":{"coding":[{"system":"http://hl7.org/fhir/sid/icd-10-cm","code":"W01.0XXA"}]},"subject":{"reference":"Patient/404570c9-b21f-4fa2-be5d-6d02c910fea6"},"encounter":{"reference":"Encounter/a76002e1-7c39-497a-adbd-832e5454a103"}},"request":{"method":"PUT","url":"Condition/3c03d85e-f076-4c9c-a807-cbb2346f2d02"}},{"resource":{"resourceType":"Encounter","id":"a76002e1-7c39-497a-adbd-832e5454a103","meta":{"profile":["http://hl7.org/fhir/us/qicore/StructureDefinition/qicore-encounter"]},"status":"finished","class":{"system":"http://terminology.hl7.org/CodeSystem/v3-ActCode","code":"IMP","display":"inpatient encounter"},"type":[{"coding":[{"system":"http://snomed.info/sct","code":"183452005"}]}],"subject":{"reference":"Patient/404570c9-b21f-4fa2-be5d-6d02c910fea6"},"period":{"start":"2026-11-09T11:00:00.000+00:00","end":"2026-11-12T08:15:00.000+00:00"},"diagnosis":[{"extension":[{"url":"http://hl7.org/fhir/us/qicore/StructureDefinition/qicore-encounter-diagnosisPresentOnAdmission","valueCodeableConcept":{"coding":[{"system":"https://www.cms.gov/Medicare/Medicare-Fee-for-Service-Payment/HospitalAcqCond/Coding","code":"Y"}]}}],"condition":{"reference":"Condition/3c03d85e-f076-4c9c-a807-cbb2346f2d02"}}]},"request":{"method":"PUT","url":"Encounter/a76002e1-7c39-497a-adbd-832e5454a103"}},{"resource":{"resourceType":"Claim","id":"916697f5-cc35-41f9-80f3-48ef5417dcf0","meta":{"profile":["http://hl7.org/fhir/us/qicore/StructureDefinition/qicore-claim"]},"status":"active","type":{"coding":[{"system":"http://terminology.hl7.org/CodeSystem/claim-type","code":"professional","display":"Professional"}]},"use":"claim","patient":{"reference":"Patient/404570c9-b21f-4fa2-be5d-6d02c910fea6"},"created":"2026-11-12","priority":{"coding":[{"system":"http://terminology.hl7.org/CodeSystem/processpriority","code":"normal"}]},"diagnosis":[{"sequence":1,"diagnosisCodeableConcept":{"coding":[{"system":"http://hl7.org/fhir/sid/icd-10-cm","code":"W01.0XXA"}]},"onAdmission":{"coding":[{"system":"https://www.cms.gov/Medicare/Medicare-Fee-for-Service-Payment/HospitalAcqCond/Coding","code":"Y"}]}}],"item":[{"sequence":1,"diagnosisSequence":[1,2],"encounter":[{"reference":"Encounter/DENEXPass-Enc1FallPOAEnc2FallNPOAAndInjuryNPOA-2"}]}]},"request":{"method":"PUT","url":"Claim/916697f5-cc35-41f9-80f3-48ef5417dcf0"}}]}