{"resourceType":"Bundle","id":"tests-113d43da-4cad-4907-804e-63afb7652b27-bundle","type":"transaction","entry":[{"resource":{"resourceType":"Condition","id":"7c948432-1023-4fa9-9fe0-cce0c6e7ba67","meta":{"profile":["http://hl7.org/fhir/us/qicore/StructureDefinition/qicore-condition-encounter-diagnosis"]},"clinicalStatus":{"coding":[{"system":"http://terminology.hl7.org/CodeSystem/condition-clinical","code":"active"}]},"verificationStatus":{"coding":[{"system":"http://terminology.hl7.org/CodeSystem/condition-ver-status","code":"confirmed"}]},"category":[{"coding":[{"system":"http://terminology.hl7.org/CodeSystem/condition-category","code":"encounter-diagnosis","display":"Encounter Diagnosis"}]}],"code":{"coding":[{"system":"http://hl7.org/fhir/sid/icd-10-cm","code":"S01.00XA"}]},"subject":{"reference":"Patient/113d43da-4cad-4907-804e-63afb7652b27"},"encounter":{"reference":"Encounter/88e133a9-10b5-42f0-8f7b-578a6eace416"}},"request":{"method":"PUT","url":"Condition/7c948432-1023-4fa9-9fe0-cce0c6e7ba67"}},{"resource":{"resourceType":"Encounter","id":"7d0cef71-d957-4c0f-b4eb-62dcbe976529","meta":{"profile":["http://hl7.org/fhir/us/qicore/StructureDefinition/qicore-encounter"]},"status":"finished","class":{"system":"http://terminology.hl7.org/CodeSystem/v3-ActCode","code":"IMP","display":"inpatient encounter"},"type":[{"coding":[{"system":"http://snomed.info/sct","code":"4525004"}]}],"subject":{"reference":"Patient/113d43da-4cad-4907-804e-63afb7652b27"},"period":{"start":"2026-11-09T08:00:00.000+00:00","end":"2026-11-09T10:15:00.000+00:00"}},"request":{"method":"PUT","url":"Encounter/7d0cef71-d957-4c0f-b4eb-62dcbe976529"}},{"resource":{"resourceType":"Bundle","id":"NUMERPass-ModerateInjuryPOAandModInjNPOA","type":"transaction","entry":[{"fullUrl":"https://madie.cms.gov/Encounter/88e133a9-10b5-42f0-8f7b-578a6eace416","resource":{"resourceType":"Encounter","id":"88e133a9-10b5-42f0-8f7b-578a6eace416","meta":{"profile":["http://hl7.org/fhir/us/qicore/StructureDefinition/qicore-encounter"]},"status":"finished","class":{"system":"http://terminology.hl7.org/CodeSystem/v3-ActCode","code":"IMP","display":"inpatient encounter"},"type":[{"coding":[{"system":"http://snomed.info/sct","code":"183452005"}]}],"subject":{"reference":"Patient/113d43da-4cad-4907-804e-63afb7652b27"},"period":{"start":"2026-11-09T11:00:00.000+00:00","end":"2026-11-13T08:15:00.000+00:00"},"reasonReference":[{"reference":"Condition/55078052-9238-4e32-9e7d-38881f638466"},{"reference":"Condition/20ab9712-b54d-4871-9bd9-b25a93c3a3e5"},{"reference":"Condition/7c948432-1023-4fa9-9fe0-cce0c6e7ba67"}]},"request":{"method":"PUT","url":"Encounter/88e133a9-10b5-42f0-8f7b-578a6eace416"}},{"fullUrl":"https://madie.cms.gov/Encounter/7d0cef71-d957-4c0f-b4eb-62dcbe976529","resource":{"resourceType":"Encounter","id":"7d0cef71-d957-4c0f-b4eb-62dcbe976529","meta":{"profile":["http://hl7.org/fhir/us/qicore/StructureDefinition/qicore-encounter"]},"status":"finished","class":{"system":"http://terminology.hl7.org/CodeSystem/v3-ActCode","code":"IMP","display":"inpatient encounter"},"type":[{"coding":[{"system":"http://snomed.info/sct","code":"4525004"}]}],"subject":{"reference":"Patient/113d43da-4cad-4907-804e-63afb7652b27"},"period":{"start":"2026-11-09T08:00:00.000+00:00","end":"2026-11-09T10:15:00.000+00:00"}},"request":{"method":"PUT","url":"Encounter/7d0cef71-d957-4c0f-b4eb-62dcbe976529"}},{"fullUrl":"https://madie.cms.gov/Condition/7c948432-1023-4fa9-9fe0-cce0c6e7ba67","resource":{"resourceType":"Condition","id":"7c948432-1023-4fa9-9fe0-cce0c6e7ba67","meta":{"profile":["http://hl7.org/fhir/us/qicore/StructureDefinition/qicore-condition-encounter-diagnosis"]},"clinicalStatus":{"coding":[{"system":"http://terminology.hl7.org/CodeSystem/condition-clinical","code":"active"}]},"verificationStatus":{"coding":[{"system":"http://terminology.hl7.org/CodeSystem/condition-ver-status","code":"confirmed"}]},"category":[{"coding":[{"system":"http://terminology.hl7.org/CodeSystem/condition-category","code":"encounter-diagnosis","display":"Encounter Diagnosis"}]}],"code":{"coding":[{"system":"http://hl7.org/fhir/sid/icd-10-cm","code":"S01.00XA"}]},"subject":{"reference":"Patient/113d43da-4cad-4907-804e-63afb7652b27"},"encounter":{"reference":"Encounter/88e133a9-10b5-42f0-8f7b-578a6eace416"}},"request":{"method":"PUT","url":"Condition/7c948432-1023-4fa9-9fe0-cce0c6e7ba67"}},{"fullUrl":"https://madie.cms.gov/Condition/20ab9712-b54d-4871-9bd9-b25a93c3a3e5","resource":{"resourceType":"Condition","id":"20ab9712-b54d-4871-9bd9-b25a93c3a3e5","meta":{"profile":["http://hl7.org/fhir/us/qicore/StructureDefinition/qicore-condition-encounter-diagnosis"]},"clinicalStatus":{"coding":[{"system":"http://terminology.hl7.org/CodeSystem/condition-clinical","code":"active"}]},"verificationStatus":{"coding":[{"system":"http://terminology.hl7.org/CodeSystem/condition-ver-status","code":"confirmed"}]},"category":[{"coding":[{"system":"http://terminology.hl7.org/CodeSystem/condition-category","code":"encounter-diagnosis","display":"Encounter Diagnosis"}]}],"code":{"coding":[{"system":"http://hl7.org/fhir/sid/icd-10-cm","code":"S01.02XA"}]},"subject":{"reference":"Patient/113d43da-4cad-4907-804e-63afb7652b27"},"encounter":{"reference":"Encounter/88e133a9-10b5-42f0-8f7b-578a6eace416"}},"request":{"method":"PUT","url":"Condition/20ab9712-b54d-4871-9bd9-b25a93c3a3e5"}},{"fullUrl":"https://madie.cms.gov/Condition/55078052-9238-4e32-9e7d-38881f638466","resource":{"resourceType":"Condition","id":"55078052-9238-4e32-9e7d-38881f638466","meta":{"profile":["http://hl7.org/fhir/us/qicore/StructureDefinition/qicore-condition-encounter-diagnosis"]},"clinicalStatus":{"coding":[{"system":"http://terminology.hl7.org/CodeSystem/condition-clinical","code":"active"}]},"verificationStatus":{"coding":[{"system":"http://terminology.hl7.org/CodeSystem/condition-ver-status","code":"confirmed"}]},"category":[{"coding":[{"system":"http://terminology.hl7.org/CodeSystem/condition-category","code":"encounter-diagnosis","display":"Encounter Diagnosis"}]}],"code":{"coding":[{"system":"http://hl7.org/fhir/sid/icd-10-cm","code":"W01.0XXA"}]},"subject":{"reference":"Patient/113d43da-4cad-4907-804e-63afb7652b27"},"encounter":{"reference":"Encounter/88e133a9-10b5-42f0-8f7b-578a6eace416"}},"request":{"method":"PUT","url":"Condition/55078052-9238-4e32-9e7d-38881f638466"}},{"fullUrl":"https://madie.cms.gov/Patient/113d43da-4cad-4907-804e-63afb7652b27","resource":{"resourceType":"Patient","id":"113d43da-4cad-4907-804e-63afb7652b27","meta":{"profile":["http://hl7.org/fhir/us/qicore/StructureDefinition/qicore-patient"]},"extension":[{"url":"http://hl7.org/fhir/us/core/StructureDefinition/us-core-race","extension":[{"url":"ombCategory","valueCoding":{"system":"urn:oid:2.16.840.1.113883.6.238","code":"2028-9","display":"Asian","userSelected":true}},{"url":"text","valueString":"Asian"}]},{"url":"http://hl7.org/fhir/us/core/StructureDefinition/us-core-ethnicity","extension":[{"url":"ombCategory","valueCoding":{"system":"urn:oid:2.16.840.1.113883.6.238","code":"2186-5","display":"Not Hispanic or Latino","userSelected":true}},{"url":"text","valueString":"Not Hispanic or Latino"}]}],"identifier":[{"type":{"coding":[{"system":"http://terminology.hl7.org/CodeSystem/v2-0203","code":"MR"}]},"system":"https://bonnie-fhir.healthit.gov/","value":"61152a3b98086b7a79cbd7c1"}],"active":true,"name":[{"use":"usual","family":"NUMERPass","given":["ModerateInjuryPOAandModInjNPOA"]}],"gender":"male","birthDate":"2000-09-09"},"request":{"method":"PUT","url":"Patient/113d43da-4cad-4907-804e-63afb7652b27"}},{"fullUrl":"https://madie.cms.gov/Claim/6590a196-6264-467b-9b10-c31572d60b94","resource":{"resourceType":"Claim","id":"6590a196-6264-467b-9b10-c31572d60b94","meta":{"profile":["http://hl7.org/fhir/us/qicore/StructureDefinition/qicore-claim"]},"status":"active","type":{"coding":[{"system":"http://terminology.hl7.org/CodeSystem/claim-type","code":"institutional"}]},"use":"claim","patient":{"reference":"Patient/113d43da-4cad-4907-804e-63afb7652b27"},"billablePeriod":{"start":"2026-11-09","end":"2026-11-13"},"created":"2026-11-13","priority":{"coding":[{"code":"normal"}]},"diagnosis":[{"sequence":1,"diagnosisCodeableConcept":{"coding":[{"system":"http://hl7.org/fhir/sid/icd-10-cm","code":"W01.0XXA"}]},"onAdmission":{"coding":[{"system":"https://www.cms.gov/Medicare/Medicare-Fee-for-Service-Payment/HospitalAcqCond/Coding","code":"N"}]}}],"item":[{"sequence":1,"diagnosisSequence":[1,2,3],"encounter":[{"reference":"Encounter/88e133a9-10b5-42f0-8f7b-578a6eace416"}]}]},"request":{"method":"PUT","url":"Claim/6590a196-6264-467b-9b10-c31572d60b94"}},{"fullUrl":"https://madie.cms.gov/Claim/fe63c623-1f68-4e89-9a7e-e70059525aa2","resource":{"resourceType":"Claim","id":"fe63c623-1f68-4e89-9a7e-e70059525aa2","meta":{"profile":["http://hl7.org/fhir/us/qicore/StructureDefinition/qicore-claim"]},"status":"active","type":{"coding":[{"system":"http://terminology.hl7.org/CodeSystem/claim-type","code":"institutional"}]},"use":"claim","patient":{"reference":"Patient/113d43da-4cad-4907-804e-63afb7652b27"},"billablePeriod":{"start":"2026-11-09","end":"2026-11-13"},"created":"2026-11-13","priority":{"coding":[{"code":"normal"}]},"diagnosis":[{"sequence":2,"diagnosisCodeableConcept":{"coding":[{"system":"http://hl7.org/fhir/sid/icd-10-cm","code":"S01.02XA"}]},"onAdmission":{"coding":[{"system":"https://www.cms.gov/Medicare/Medicare-Fee-for-Service-Payment/HospitalAcqCond/Coding","code":"W"}]}}],"item":[{"sequence":1,"diagnosisSequence":[1,2,3],"encounter":[{"reference":"Encounter/88e133a9-10b5-42f0-8f7b-578a6eace416"}]}]},"request":{"method":"PUT","url":"Claim/fe63c623-1f68-4e89-9a7e-e70059525aa2"}},{"fullUrl":"https://madie.cms.gov/Claim/fd736420-dc91-4d6a-a47a-91ae29e37640","resource":{"resourceType":"Claim","id":"fd736420-dc91-4d6a-a47a-91ae29e37640","meta":{"profile":["http://hl7.org/fhir/us/qicore/StructureDefinition/qicore-claim"]},"status":"active","type":{"coding":[{"system":"http://terminology.hl7.org/CodeSystem/claim-type","code":"institutional"}]},"use":"claim","patient":{"reference":"Patient/113d43da-4cad-4907-804e-63afb7652b27"},"billablePeriod":{"start":"2026-11-09","end":"2026-11-13"},"created":"2026-11-13","priority":{"coding":[{"code":"normal"}]},"diagnosis":[{"sequence":3,"diagnosisCodeableConcept":{"coding":[{"system":"http://hl7.org/fhir/sid/icd-10-cm","code":"S01.00XA"}]},"onAdmission":{"coding":[{"system":"https://www.cms.gov/Medicare/Medicare-Fee-for-Service-Payment/HospitalAcqCond/Coding","code":"N"}]}}],"item":[{"sequence":1,"diagnosisSequence":[1,2,3],"encounter":[{"reference":"Encounter/88e133a9-10b5-42f0-8f7b-578a6eace416"}]}]},"request":{"method":"PUT","url":"Claim/fd736420-dc91-4d6a-a47a-91ae29e37640"}},{"fullUrl":"https://madie.cms.gov/MeasureReport/9bde8b63-2b5f-46dc-ae2a-6a61c2455ffb","resource":{"resourceType":"MeasureReport","id":"9bde8b63-2b5f-46dc-ae2a-6a61c2455ffb","meta":{"profile":["http://hl7.org/fhir/us/cqfmeasures/StructureDefinition/test-case-cqfm"]},"contained":[{"resourceType":"Parameters","id":"ed4bf92b-0862-4294-bed3-01bf143bfb9c-parameters","parameter":[{"name":"subject","valueString":"113d43da-4cad-4907-804e-63afb7652b27"}]}],"extension":[{"url":"http://hl7.org/fhir/StructureDefinition/cqf-inputParameters","valueReference":{"reference":"#ed4bf92b-0862-4294-bed3-01bf143bfb9c-parameters"}},{"url":"http://hl7.org/fhir/us/cqfmeasures/StructureDefinition/cqfm-testCaseDescription","valueMarkdown":"Enc diag includes a moderate injury POA and another mod injury NPOA. Also includes a fall NPOA. Meets Numerator because having an injury POA should not remove them from potential of another injury NPOA from a fall NPOA that occurs during the enc."}],"modifierExtension":[{"url":"http://hl7.org/fhir/us/cqfmeasures/StructureDefinition/cqfm-isTestCase","valueBoolean":true}],"status":"complete","type":"individual","measure":"https://madie.cms.gov/Measure/CMS1017FHIRHHFI","period":{"start":"2026-01-01","end":"2026-12-31"},"group":[{"id":"Group_1","population":[{"id":"InitialPopulation_1","code":{"coding":[{"system":"http://terminology.hl7.org/CodeSystem/measure-population","code":"initial-population","display":"Initial Population"}]},"count":1},{"id":"Denominator_1","code":{"coding":[{"system":"http://terminology.hl7.org/CodeSystem/measure-population","code":"denominator","display":"Denominator"}]},"count":1},{"id":"DenominatorExclusion_1","code":{"coding":[{"system":"http://terminology.hl7.org/CodeSystem/measure-population","code":"denominator-exclusion","display":"Denominator Exclusion"}]},"count":0},{"id":"Numerator_1","code":{"coding":[{"system":"http://terminology.hl7.org/CodeSystem/measure-population","code":"numerator","display":"Numerator"}]},"count":1},{"id":"NumeratorExclusion_1","code":{"coding":[{"system":"http://terminology.hl7.org/CodeSystem/measure-population","code":"numerator-exclusion","display":"Numerator Exclusion"}]},"count":0},{"id":"MeasureObservation_1_1_1","code":{"coding":[{"system":"http://terminology.hl7.org/CodeSystem/measure-population","code":"measure-observation","display":"Measure Observation"}]},"count":4},{"id":"MeasureObservation_1_2_1","code":{"coding":[{"system":"http://terminology.hl7.org/CodeSystem/measure-population","code":"measure-observation","display":"Measure Observation"}]},"count":1}],"measureScore":{"value":0.0}}],"evaluatedResource":[{"reference":"Encounter/88e133a9-10b5-42f0-8f7b-578a6eace416"},{"reference":"Encounter/7d0cef71-d957-4c0f-b4eb-62dcbe976529"},{"reference":"Condition/7c948432-1023-4fa9-9fe0-cce0c6e7ba67"},{"reference":"Condition/20ab9712-b54d-4871-9bd9-b25a93c3a3e5"},{"reference":"Condition/55078052-9238-4e32-9e7d-38881f638466"},{"reference":"Patient/113d43da-4cad-4907-804e-63afb7652b27"},{"reference":"Claim/6590a196-6264-467b-9b10-c31572d60b94"},{"reference":"Claim/fe63c623-1f68-4e89-9a7e-e70059525aa2"},{"reference":"Claim/fd736420-dc91-4d6a-a47a-91ae29e37640"}]},"request":{"method":"PUT","url":"MeasureReport/9bde8b63-2b5f-46dc-ae2a-6a61c2455ffb"}}]},"request":{"method":"PUT","url":"Bundle/NUMERPass-ModerateInjuryPOAandModInjNPOA"}},{"resource":{"resourceType":"Condition","id":"20ab9712-b54d-4871-9bd9-b25a93c3a3e5","meta":{"profile":["http://hl7.org/fhir/us/qicore/StructureDefinition/qicore-condition-encounter-diagnosis"]},"clinicalStatus":{"coding":[{"system":"http://terminology.hl7.org/CodeSystem/condition-clinical","code":"active"}]},"verificationStatus":{"coding":[{"system":"http://terminology.hl7.org/CodeSystem/condition-ver-status","code":"confirmed"}]},"category":[{"coding":[{"system":"http://terminology.hl7.org/CodeSystem/condition-category","code":"encounter-diagnosis","display":"Encounter Diagnosis"}]}],"code":{"coding":[{"system":"http://hl7.org/fhir/sid/icd-10-cm","code":"S01.02XA"}]},"subject":{"reference":"Patient/113d43da-4cad-4907-804e-63afb7652b27"},"encounter":{"reference":"Encounter/88e133a9-10b5-42f0-8f7b-578a6eace416"}},"request":{"method":"PUT","url":"Condition/20ab9712-b54d-4871-9bd9-b25a93c3a3e5"}},{"resource":{"resourceType":"Claim","id":"fe63c623-1f68-4e89-9a7e-e70059525aa2","meta":{"profile":["http://hl7.org/fhir/us/qicore/StructureDefinition/qicore-claim"]},"status":"active","type":{"coding":[{"system":"http://terminology.hl7.org/CodeSystem/claim-type","code":"institutional"}]},"use":"claim","patient":{"reference":"Patient/113d43da-4cad-4907-804e-63afb7652b27"},"billablePeriod":{"start":"2026-11-09","end":"2026-11-13"},"created":"2026-11-13","priority":{"coding":[{"code":"normal"}]},"diagnosis":[{"sequence":2,"diagnosisCodeableConcept":{"coding":[{"system":"http://hl7.org/fhir/sid/icd-10-cm","code":"S01.02XA"}]},"onAdmission":{"coding":[{"system":"https://www.cms.gov/Medicare/Medicare-Fee-for-Service-Payment/HospitalAcqCond/Coding","code":"W"}]}}],"item":[{"sequence":1,"diagnosisSequence":[1,2,3],"encounter":[{"reference":"Encounter/88e133a9-10b5-42f0-8f7b-578a6eace416"}]}]},"request":{"method":"PUT","url":"Claim/fe63c623-1f68-4e89-9a7e-e70059525aa2"}},{"resource":{"resourceType":"MeasureReport","id":"9bde8b63-2b5f-46dc-ae2a-6a61c2455ffb","meta":{"profile":["http://hl7.org/fhir/us/cqfmeasures/StructureDefinition/test-case-cqfm"]},"contained":[{"resourceType":"Parameters","id":"ed4bf92b-0862-4294-bed3-01bf143bfb9c-parameters","parameter":[{"name":"subject","valueString":"113d43da-4cad-4907-804e-63afb7652b27"}]}],"extension":[{"url":"http://hl7.org/fhir/StructureDefinition/cqf-inputParameters","valueReference":{"reference":"#ed4bf92b-0862-4294-bed3-01bf143bfb9c-parameters"}},{"url":"http://hl7.org/fhir/us/cqfmeasures/StructureDefinition/cqfm-testCaseDescription","valueMarkdown":"Enc diag includes a moderate injury POA and another mod injury NPOA. Also includes a fall NPOA. Meets Numerator because having an injury POA should not remove them from potential of another injury NPOA from a fall NPOA that occurs during the enc."}],"modifierExtension":[{"url":"http://hl7.org/fhir/us/cqfmeasures/StructureDefinition/cqfm-isTestCase","valueBoolean":true}],"status":"complete","type":"individual","measure":"https://madie.cms.gov/Measure/CMS1017FHIRHHFI","period":{"start":"2026-01-01","end":"2026-12-31"},"group":[{"id":"Group_1","population":[{"id":"InitialPopulation_1","code":{"coding":[{"system":"http://terminology.hl7.org/CodeSystem/measure-population","code":"initial-population","display":"Initial Population"}]},"count":1},{"id":"Denominator_1","code":{"coding":[{"system":"http://terminology.hl7.org/CodeSystem/measure-population","code":"denominator","display":"Denominator"}]},"count":1},{"id":"DenominatorExclusion_1","code":{"coding":[{"system":"http://terminology.hl7.org/CodeSystem/measure-population","code":"denominator-exclusion","display":"Denominator Exclusion"}]},"count":0},{"id":"Numerator_1","code":{"coding":[{"system":"http://terminology.hl7.org/CodeSystem/measure-population","code":"numerator","display":"Numerator"}]},"count":1},{"id":"NumeratorExclusion_1","code":{"coding":[{"system":"http://terminology.hl7.org/CodeSystem/measure-population","code":"numerator-exclusion","display":"Numerator Exclusion"}]},"count":0},{"id":"MeasureObservation_1_1_1","code":{"coding":[{"system":"http://terminology.hl7.org/CodeSystem/measure-population","code":"measure-observation","display":"Measure Observation"}]},"count":4},{"id":"MeasureObservation_1_2_1","code":{"coding":[{"system":"http://terminology.hl7.org/CodeSystem/measure-population","code":"measure-observation","display":"Measure Observation"}]},"count":1}],"measureScore":{"value":0.0}}],"evaluatedResource":[{"reference":"Encounter/88e133a9-10b5-42f0-8f7b-578a6eace416"},{"reference":"Encounter/7d0cef71-d957-4c0f-b4eb-62dcbe976529"},{"reference":"Condition/7c948432-1023-4fa9-9fe0-cce0c6e7ba67"},{"reference":"Condition/20ab9712-b54d-4871-9bd9-b25a93c3a3e5"},{"reference":"Condition/55078052-9238-4e32-9e7d-38881f638466"},{"reference":"Patient/113d43da-4cad-4907-804e-63afb7652b27"},{"reference":"Claim/6590a196-6264-467b-9b10-c31572d60b94"},{"reference":"Claim/fe63c623-1f68-4e89-9a7e-e70059525aa2"},{"reference":"Claim/fd736420-dc91-4d6a-a47a-91ae29e37640"}]},"request":{"method":"PUT","url":"MeasureReport/9bde8b63-2b5f-46dc-ae2a-6a61c2455ffb"}},{"resource":{"resourceType":"Claim","id":"6590a196-6264-467b-9b10-c31572d60b94","meta":{"profile":["http://hl7.org/fhir/us/qicore/StructureDefinition/qicore-claim"]},"status":"active","type":{"coding":[{"system":"http://terminology.hl7.org/CodeSystem/claim-type","code":"institutional"}]},"use":"claim","patient":{"reference":"Patient/113d43da-4cad-4907-804e-63afb7652b27"},"billablePeriod":{"start":"2026-11-09","end":"2026-11-13"},"created":"2026-11-13","priority":{"coding":[{"code":"normal"}]},"diagnosis":[{"sequence":1,"diagnosisCodeableConcept":{"coding":[{"system":"http://hl7.org/fhir/sid/icd-10-cm","code":"W01.0XXA"}]},"onAdmission":{"coding":[{"system":"https://www.cms.gov/Medicare/Medicare-Fee-for-Service-Payment/HospitalAcqCond/Coding","code":"N"}]}}],"item":[{"sequence":1,"diagnosisSequence":[1,2,3],"encounter":[{"reference":"Encounter/88e133a9-10b5-42f0-8f7b-578a6eace416"}]}]},"request":{"method":"PUT","url":"Claim/6590a196-6264-467b-9b10-c31572d60b94"}},{"resource":{"resourceType":"Claim","id":"fd736420-dc91-4d6a-a47a-91ae29e37640","meta":{"profile":["http://hl7.org/fhir/us/qicore/StructureDefinition/qicore-claim"]},"status":"active","type":{"coding":[{"system":"http://terminology.hl7.org/CodeSystem/claim-type","code":"institutional"}]},"use":"claim","patient":{"reference":"Patient/113d43da-4cad-4907-804e-63afb7652b27"},"billablePeriod":{"start":"2026-11-09","end":"2026-11-13"},"created":"2026-11-13","priority":{"coding":[{"code":"normal"}]},"diagnosis":[{"sequence":3,"diagnosisCodeableConcept":{"coding":[{"system":"http://hl7.org/fhir/sid/icd-10-cm","code":"S01.00XA"}]},"onAdmission":{"coding":[{"system":"https://www.cms.gov/Medicare/Medicare-Fee-for-Service-Payment/HospitalAcqCond/Coding","code":"N"}]}}],"item":[{"sequence":1,"diagnosisSequence":[1,2,3],"encounter":[{"reference":"Encounter/88e133a9-10b5-42f0-8f7b-578a6eace416"}]}]},"request":{"method":"PUT","url":"Claim/fd736420-dc91-4d6a-a47a-91ae29e37640"}},{"resource":{"resourceType":"Patient","id":"113d43da-4cad-4907-804e-63afb7652b27","meta":{"profile":["http://hl7.org/fhir/us/qicore/StructureDefinition/qicore-patient"]},"extension":[{"url":"http://hl7.org/fhir/us/core/StructureDefinition/us-core-race","extension":[{"url":"ombCategory","valueCoding":{"system":"urn:oid:2.16.840.1.113883.6.238","code":"2028-9","display":"Asian","userSelected":true}},{"url":"text","valueString":"Asian"}]},{"url":"http://hl7.org/fhir/us/core/StructureDefinition/us-core-ethnicity","extension":[{"url":"ombCategory","valueCoding":{"system":"urn:oid:2.16.840.1.113883.6.238","code":"2186-5","display":"Not Hispanic or Latino","userSelected":true}},{"url":"text","valueString":"Not Hispanic or Latino"}]}],"identifier":[{"type":{"coding":[{"system":"http://terminology.hl7.org/CodeSystem/v2-0203","code":"MR"}]},"system":"https://bonnie-fhir.healthit.gov/","value":"61152a3b98086b7a79cbd7c1"}],"active":true,"name":[{"use":"usual","family":"NUMERPass","given":["ModerateInjuryPOAandModInjNPOA"]}],"gender":"male","birthDate":"2000-09-09"},"request":{"method":"PUT","url":"Patient/113d43da-4cad-4907-804e-63afb7652b27"}},{"resource":{"resourceType":"Condition","id":"55078052-9238-4e32-9e7d-38881f638466","meta":{"profile":["http://hl7.org/fhir/us/qicore/StructureDefinition/qicore-condition-encounter-diagnosis"]},"clinicalStatus":{"coding":[{"system":"http://terminology.hl7.org/CodeSystem/condition-clinical","code":"active"}]},"verificationStatus":{"coding":[{"system":"http://terminology.hl7.org/CodeSystem/condition-ver-status","code":"confirmed"}]},"category":[{"coding":[{"system":"http://terminology.hl7.org/CodeSystem/condition-category","code":"encounter-diagnosis","display":"Encounter Diagnosis"}]}],"code":{"coding":[{"system":"http://hl7.org/fhir/sid/icd-10-cm","code":"W01.0XXA"}]},"subject":{"reference":"Patient/113d43da-4cad-4907-804e-63afb7652b27"},"encounter":{"reference":"Encounter/88e133a9-10b5-42f0-8f7b-578a6eace416"}},"request":{"method":"PUT","url":"Condition/55078052-9238-4e32-9e7d-38881f638466"}},{"resource":{"resourceType":"Encounter","id":"88e133a9-10b5-42f0-8f7b-578a6eace416","meta":{"profile":["http://hl7.org/fhir/us/qicore/StructureDefinition/qicore-encounter"]},"status":"finished","class":{"system":"http://terminology.hl7.org/CodeSystem/v3-ActCode","code":"IMP","display":"inpatient encounter"},"type":[{"coding":[{"system":"http://snomed.info/sct","code":"183452005"}]}],"subject":{"reference":"Patient/113d43da-4cad-4907-804e-63afb7652b27"},"period":{"start":"2026-11-09T11:00:00.000+00:00","end":"2026-11-13T08:15:00.000+00:00"},"reasonReference":[{"reference":"Condition/55078052-9238-4e32-9e7d-38881f638466"},{"reference":"Condition/20ab9712-b54d-4871-9bd9-b25a93c3a3e5"},{"reference":"Condition/7c948432-1023-4fa9-9fe0-cce0c6e7ba67"}]},"request":{"method":"PUT","url":"Encounter/88e133a9-10b5-42f0-8f7b-578a6eace416"}}]}