{
  "resourceType": "Bundle",
  "id": "633b3f9f0968f80122503cdb",
  "type": "transaction",
  "entry": [ {
    "fullUrl": "https://madie.cms.gov/Patient/81aff249-2af4-4a36-9b3b-c1255bb0a13d",
    "resource": {
      "resourceType": "Patient",
      "id": "81aff249-2af4-4a36-9b3b-c1255bb0a13d",
      "meta": {
        "profile": [ "http://hl7.org/fhir/us/qicore/StructureDefinition/qicore-patient" ]
      },
      "text": {
        "status": "generated",
        "div": "<div xmlns=\"http://www.w3.org/1999/xhtml\"><div class=\"hapiHeaderText\">AssPrfEGALastIsNullFirstIs20<b>DENOMPASS</b></div><table class=\"hapiPropertyTable\"><tbody><tr><td>Date of birth</td><td><span>01 February 2004</span></td></tr></tbody></table></div>"
      },
      "extension": [ {
        "url": "http://hl7.org/fhir/us/core/StructureDefinition/us-core-race",
        "extension": [ {
          "url": "ombCategory",
          "valueCoding": {
            "system": "urn:oid:2.16.840.1.113883.6.238",
            "code": "1002-5",
            "display": "American Indian or Alaska Native",
            "userSelected": true
          }
        }, {
          "url": "text",
          "valueString": "American Indian or Alaska Native"
        } ]
      }, {
        "url": "http://hl7.org/fhir/us/core/StructureDefinition/us-core-ethnicity",
        "extension": [ {
          "url": "ombCategory",
          "valueCoding": {
            "system": "urn:oid:2.16.840.1.113883.6.238",
            "code": "2135-2",
            "display": "Hispanic or Latino",
            "userSelected": true
          }
        }, {
          "url": "text",
          "valueString": "Hispanic or Latino"
        } ]
      } ],
      "identifier": [ {
        "type": {
          "coding": [ {
            "system": "http://terminology.hl7.org/CodeSystem/v2-0203",
            "code": "MR"
          } ]
        },
        "system": "https://bonnie-fhir.healthit.gov/",
        "value": "633b3f9f0968f80122503cdb"
      } ],
      "active": true,
      "name": [ {
        "use": "usual",
        "family": "DENOMPass",
        "given": [ "AssPrfEGALastIsNullFirstIs20" ]
      } ],
      "gender": "female",
      "birthDate": "2005-02-01"
    },
    "request": {
      "method": "PUT",
      "url": "Patient/81aff249-2af4-4a36-9b3b-c1255bb0a13d"
    }
  }, {
    "fullUrl": "https://madie.cms.gov/Observation/df3fc8da-39d2-46ed-9e28-b30d76b2a955",
    "resource": {
      "resourceType": "Observation",
      "id": "df3fc8da-39d2-46ed-9e28-b30d76b2a955",
      "meta": {
        "profile": [ "http://hl7.org/fhir/us/qicore/StructureDefinition/qicore-simple-observation" ]
      },
      "status": "final",
      "category": [ {
        "coding": [ {
          "system": "http://terminology.hl7.org/CodeSystem/observation-category",
          "code": "exam",
          "display": "exam",
          "userSelected": true
        } ]
      } ],
      "code": {
        "coding": [ {
          "system": "http://loinc.org",
          "code": "93857-1"
        } ]
      },
      "subject": {
        "reference": "Patient/81aff249-2af4-4a36-9b3b-c1255bb0a13d"
      },
      "effectiveDateTime": "2026-02-01T08:00:00Z",
      "performer": [ {
        "reference": "Organization/example1",
        "display": "Hendricks Country Hospital"
      } ],
      "valueDateTime": "2026-02-01T08:00:00.000+00:00"
    },
    "request": {
      "method": "PUT",
      "url": "Observation/df3fc8da-39d2-46ed-9e28-b30d76b2a955"
    }
  }, {
    "fullUrl": "https://madie.cms.gov/Observation/468e6d38-af0e-4447-a87e-8a33dde1cb3c",
    "resource": {
      "resourceType": "Observation",
      "id": "468e6d38-af0e-4447-a87e-8a33dde1cb3c",
      "meta": {
        "profile": [ "http://hl7.org/fhir/us/qicore/StructureDefinition/qicore-simple-observation" ]
      },
      "status": "final",
      "category": [ {
        "coding": [ {
          "system": "http://terminology.hl7.org/CodeSystem/observation-category",
          "code": "exam",
          "display": "exam",
          "userSelected": true
        } ]
      } ],
      "code": {
        "coding": [ {
          "system": "http://loinc.org",
          "code": "11884-4"
        } ]
      },
      "subject": {
        "reference": "Patient/81aff249-2af4-4a36-9b3b-c1255bb0a13d"
      },
      "effectiveDateTime": "2026-02-01T08:00:00Z",
      "performer": [ {
        "reference": "Organization/example1",
        "display": "Hendricks Country Hospital"
      } ],
      "valueQuantity": {
        "value": 20,
        "system": "http://unitsofmeasure.org",
        "code": "wk"
      }
    },
    "request": {
      "method": "PUT",
      "url": "Observation/468e6d38-af0e-4447-a87e-8a33dde1cb3c"
    }
  }, {
    "fullUrl": "https://madie.cms.gov/Observation/ce0cbc11-65b8-44aa-a048-a4473351c8d7",
    "resource": {
      "resourceType": "Observation",
      "id": "ce0cbc11-65b8-44aa-a048-a4473351c8d7",
      "meta": {
        "profile": [ "http://hl7.org/fhir/us/qicore/StructureDefinition/qicore-simple-observation" ]
      },
      "status": "final",
      "category": [ {
        "coding": [ {
          "system": "http://terminology.hl7.org/CodeSystem/observation-category",
          "code": "exam",
          "display": "exam",
          "userSelected": true
        } ]
      } ],
      "code": {
        "coding": [ {
          "system": "http://loinc.org",
          "code": "11884-4"
        } ]
      },
      "subject": {
        "reference": "Patient/81aff249-2af4-4a36-9b3b-c1255bb0a13d"
      },
      "effectiveDateTime": "2026-02-01T08:01:00Z",
      "performer": [ {
        "reference": "Organization/example1",
        "display": "Hendricks Country Hospital"
      } ]
    },
    "request": {
      "method": "PUT",
      "url": "Observation/ce0cbc11-65b8-44aa-a048-a4473351c8d7"
    }
  }, {
    "fullUrl": "https://madie.cms.gov/Encounter/416f2f7b-906c-43ab-85fc-aaa2a13940fa",
    "resource": {
      "resourceType": "Encounter",
      "id": "416f2f7b-906c-43ab-85fc-aaa2a13940fa",
      "meta": {
        "profile": [ "http://hl7.org/fhir/us/qicore/StructureDefinition/qicore-encounter" ]
      },
      "status": "finished",
      "class": {
        "system": "http://terminology.hl7.org/CodeSystem/v3-ActCode",
        "code": "IMP",
        "display": "inpatient encounter"
      },
      "type": [ {
        "coding": [ {
          "system": "http://snomed.info/sct",
          "code": "183452005"
        } ]
      } ],
      "subject": {
        "reference": "Patient/81aff249-2af4-4a36-9b3b-c1255bb0a13d"
      },
      "period": {
        "start": "2026-02-01T08:00:00Z",
        "end": "2026-02-05T08:15:00.000+00:00"
      }
    },
    "request": {
      "method": "PUT",
      "url": "Encounter/416f2f7b-906c-43ab-85fc-aaa2a13940fa"
    }
  }, {
    "fullUrl": "https://madie.cms.gov/Coverage/18367984-4673-4f62-b689-776f85268a5f",
    "resource": {
      "resourceType": "Coverage",
      "id": "18367984-4673-4f62-b689-776f85268a5f",
      "status": "active",
      "subscriberId": "523435",
      "beneficiary": {
        "reference": "Patient/81aff249-2af4-4a36-9b3b-c1255bb0a13d"
      },
      "relationship": {
        "coding": [ {
          "system": "http://terminology.hl7.org/CodeSystem/subscriber-relationship",
          "code": "self"
        } ]
      },
      "period": {
        "start": "2005-02-01T08:00:00Z"
      },
      "payor": [ {
        "reference": "Organization/607b6e0e-b72a-4b22-b0fe-a7c0a50bb23e"
      } ]
    },
    "request": {
      "method": "PUT",
      "url": "Coverage/18367984-4673-4f62-b689-776f85268a5f"
    }
  }, {
    "fullUrl": "https://madie.cms.gov/Procedure/aa4500cf-3951-4614-8696-aad8ad5a1442",
    "resource": {
      "resourceType": "Procedure",
      "id": "aa4500cf-3951-4614-8696-aad8ad5a1442",
      "meta": {
        "profile": [ "http://hl7.org/fhir/us/qicore/StructureDefinition/qicore-procedure" ]
      },
      "extension": [ {
        "url": "http://hl7.org/fhir/us/qicore/StructureDefinition/qicore-recorded",
        "valueDateTime": "2014-04-05T13:35:00Z"
      } ],
      "status": "completed",
      "code": {
        "coding": [ {
          "system": "http://snomed.info/sct",
          "code": "10745001"
        } ]
      },
      "subject": {
        "reference": "Patient/81aff249-2af4-4a36-9b3b-c1255bb0a13d"
      },
      "performedPeriod": {
        "start": "2026-02-01T08:00:00Z",
        "end": "2026-02-05T08:15:00.000+00:00"
      }
    },
    "request": {
      "method": "PUT",
      "url": "Procedure/aa4500cf-3951-4614-8696-aad8ad5a1442"
    }
  }, {
    "fullUrl": "https://madie.cms.gov/Organization/607b6e0e-b72a-4b22-b0fe-a7c0a50bb23e",
    "resource": {
      "resourceType": "Organization",
      "id": "607b6e0e-b72a-4b22-b0fe-a7c0a50bb23e",
      "meta": {
        "profile": [ "http://hl7.org/fhir/us/qicore/StructureDefinition/qicore-organization" ]
      },
      "identifier": [ {
        "use": "temp",
        "system": "urn:oid:2.16.840.1.113883.4.4",
        "value": "21-3259825"
      } ],
      "active": true,
      "type": [ {
        "coding": [ {
          "system": "http://terminology.hl7.org/CodeSystem/organization-type",
          "code": "pay",
          "display": "Payer"
        } ]
      } ],
      "name": "Blue Cross Blue Shield of Texas",
      "telecom": [ {
        "system": "phone",
        "value": "(+1) 972-766-6900"
      } ],
      "address": [ {
        "use": "billing",
        "type": "postal",
        "line": [ "P.O. Box 660044" ],
        "city": "Dallas",
        "state": "TX",
        "postalCode": "75266-0044",
        "country": "USA"
      } ]
    },
    "request": {
      "method": "PUT",
      "url": "Organization/607b6e0e-b72a-4b22-b0fe-a7c0a50bb23e"
    }
  }, {
    "fullUrl": "https://madie.cms.gov/Practitioner/97d24a18-be6c-4071-9962-012df7812e3f",
    "resource": {
      "resourceType": "Practitioner",
      "id": "97d24a18-be6c-4071-9962-012df7812e3f",
      "meta": {
        "profile": [ "http://hl7.org/fhir/us/qicore/StructureDefinition/qicore-practitioner" ]
      },
      "identifier": [ {
        "system": "http://hl7.org/fhir/sid/us-npi",
        "value": "1234567890"
      } ],
      "name": [ {
        "family": "Evil",
        "prefix": [ "Dr" ]
      } ]
    },
    "request": {
      "method": "PUT",
      "url": "Practitioner/97d24a18-be6c-4071-9962-012df7812e3f"
    }
  }, {
    "fullUrl": "https://madie.cms.gov/MeasureReport/c7964603-92e9-4ac8-9207-b11973153768",
    "resource": {
      "resourceType": "MeasureReport",
      "id": "c7964603-92e9-4ac8-9207-b11973153768",
      "meta": {
        "profile": [ "http://hl7.org/fhir/us/cqfmeasures/StructureDefinition/test-case-cqfm" ]
      },
      "contained": [ {
        "resourceType": "Parameters",
        "id": "618ef239-179c-440f-840e-d9189e77dab3-parameters",
        "parameter": [ {
          "name": "subject",
          "valueString": "81aff249-2af4-4a36-9b3b-c1255bb0a13d"
        } ]
      } ],
      "extension": [ {
        "url": "http://hl7.org/fhir/StructureDefinition/cqf-inputParameters",
        "valueReference": {
          "reference": "#618ef239-179c-440f-840e-d9189e77dab3-parameters"
        }
      }, {
        "url": "http://hl7.org/fhir/us/cqfmeasures/StructureDefinition/cqfm-testCaseDescription",
        "valueMarkdown": "Estimated Gestational Age is 20 on 1st assessment, null on last.\n"
      } ],
      "modifierExtension": [ {
        "url": "http://hl7.org/fhir/us/cqfmeasures/StructureDefinition/cqfm-isTestCase",
        "valueBoolean": true
      } ],
      "status": "complete",
      "type": "individual",
      "measure": "https://madie.cms.gov/Measure/CMS1028FHIRPCSevereOBComps",
      "period": {
        "start": "2026-01-01",
        "end": "2026-12-31"
      },
      "group": [ {
        "id": "Group_1",
        "population": [ {
          "id": "InitialPopulation_1",
          "code": {
            "coding": [ {
              "system": "http://terminology.hl7.org/CodeSystem/measure-population",
              "code": "initial-population",
              "display": "Initial Population"
            } ]
          },
          "count": 1
        }, {
          "id": "Denominator_1",
          "code": {
            "coding": [ {
              "system": "http://terminology.hl7.org/CodeSystem/measure-population",
              "code": "denominator",
              "display": "Denominator"
            } ]
          },
          "count": 1
        }, {
          "id": "Numerator_1",
          "code": {
            "coding": [ {
              "system": "http://terminology.hl7.org/CodeSystem/measure-population",
              "code": "numerator",
              "display": "Numerator"
            } ]
          },
          "count": 0
        }, {
          "id": "NumeratorExclusion_1",
          "code": {
            "coding": [ {
              "system": "http://terminology.hl7.org/CodeSystem/measure-population",
              "code": "numerator-exclusion",
              "display": "Numerator Exclusion"
            } ]
          },
          "count": 0
        } ],
        "measureScore": {
          "value": 0.0
        }
      }, {
        "id": "Group_2",
        "population": [ {
          "id": "InitialPopulation_2",
          "code": {
            "coding": [ {
              "system": "http://terminology.hl7.org/CodeSystem/measure-population",
              "code": "initial-population",
              "display": "Initial Population"
            } ]
          },
          "count": 1
        }, {
          "id": "Denominator_2",
          "code": {
            "coding": [ {
              "system": "http://terminology.hl7.org/CodeSystem/measure-population",
              "code": "denominator",
              "display": "Denominator"
            } ]
          },
          "count": 1
        }, {
          "id": "Numerator_2",
          "code": {
            "coding": [ {
              "system": "http://terminology.hl7.org/CodeSystem/measure-population",
              "code": "numerator",
              "display": "Numerator"
            } ]
          },
          "count": 0
        }, {
          "id": "NumeratorExclusion_2",
          "code": {
            "coding": [ {
              "system": "http://terminology.hl7.org/CodeSystem/measure-population",
              "code": "numerator-exclusion",
              "display": "Numerator Exclusion"
            } ]
          },
          "count": 0
        } ],
        "measureScore": {
          "value": 0.0
        }
      } ],
      "evaluatedResource": [ {
        "reference": "Patient/81aff249-2af4-4a36-9b3b-c1255bb0a13d"
      }, {
        "reference": "Observation/df3fc8da-39d2-46ed-9e28-b30d76b2a955"
      }, {
        "reference": "Observation/468e6d38-af0e-4447-a87e-8a33dde1cb3c"
      }, {
        "reference": "Observation/ce0cbc11-65b8-44aa-a048-a4473351c8d7"
      }, {
        "reference": "Encounter/416f2f7b-906c-43ab-85fc-aaa2a13940fa"
      }, {
        "reference": "Coverage/18367984-4673-4f62-b689-776f85268a5f"
      }, {
        "reference": "Procedure/aa4500cf-3951-4614-8696-aad8ad5a1442"
      }, {
        "reference": "Organization/607b6e0e-b72a-4b22-b0fe-a7c0a50bb23e"
      }, {
        "reference": "Practitioner/97d24a18-be6c-4071-9962-012df7812e3f"
      } ]
    },
    "request": {
      "method": "PUT",
      "url": "MeasureReport/c7964603-92e9-4ac8-9207-b11973153768"
    }
  } ]
}