{
  "resourceType": "Bundle",
  "id": "IPPPass-HypertensionDuringFirst6Months",
  "type": "transaction",
  "entry": [ {
    "fullUrl": "https://madie.cms.gov/Patient/4d50f3eb-f56f-4f13-8fcf-4d26e05b9a6a",
    "resource": {
      "resourceType": "Patient",
      "id": "4d50f3eb-f56f-4f13-8fcf-4d26e05b9a6a",
      "meta": {
        "profile": [ "http://hl7.org/fhir/us/qicore/StructureDefinition/qicore-patient" ]
      },
      "extension": [ {
        "url": "http://hl7.org/fhir/us/core/StructureDefinition/us-core-race",
        "extension": [ {
          "url": "ombCategory",
          "valueCoding": {
            "system": "urn:oid:2.16.840.1.113883.6.238",
            "code": "2028-9",
            "display": "Asian"
          }
        }, {
          "url": "text",
          "valueString": "Asian"
        } ]
      }, {
        "url": "http://hl7.org/fhir/us/core/StructureDefinition/us-core-ethnicity",
        "extension": [ {
          "url": "ombCategory",
          "valueCoding": {
            "system": "urn:oid:2.16.840.1.113883.6.238",
            "code": "2135-2",
            "display": "Hispanic or Latino"
          }
        }, {
          "url": "text",
          "valueString": "Hispanic or Latino"
        } ]
      } ],
      "identifier": [ {
        "system": "http://hospital.smarthealthit.org",
        "value": "999999995"
      } ],
      "name": [ {
        "family": "IPPass",
        "given": [ "HypertensionDuringFirst6Months" ]
      } ],
      "gender": "female",
      "birthDate": "2007-12-31"
    },
    "request": {
      "method": "PUT",
      "url": "Patient/4d50f3eb-f56f-4f13-8fcf-4d26e05b9a6a"
    }
  }, {
    "fullUrl": "https://madie.cms.gov/Encounter/fdda1a2f-b623-4a0a-83d6-8de1d85a7e79",
    "resource": {
      "resourceType": "Encounter",
      "id": "fdda1a2f-b623-4a0a-83d6-8de1d85a7e79",
      "meta": {
        "profile": [ "http://hl7.org/fhir/us/qicore/StructureDefinition/qicore-encounter" ]
      },
      "status": "finished",
      "class": {
        "system": "http://terminology.hl7.org/CodeSystem/v3-ActCode",
        "code": "AMB",
        "display": "ambulatory"
      },
      "type": [ {
        "coding": [ {
          "system": "http://snomed.info/sct",
          "code": "3391000175108",
          "display": "Office visit for pediatric care and assessment (procedure)"
        } ]
      } ],
      "subject": {
        "reference": "Patient/4d50f3eb-f56f-4f13-8fcf-4d26e05b9a6a"
      },
      "period": {
        "start": "2026-01-01T00:00:00.000Z",
        "end": "2026-01-01T01:00:00.000Z"
      }
    },
    "request": {
      "method": "PUT",
      "url": "Encounter/fdda1a2f-b623-4a0a-83d6-8de1d85a7e79"
    }
  }, {
    "fullUrl": "https://madie.cms.gov/Condition/a56a453f-a353-4f35-a66f-0a2a3538d364",
    "resource": {
      "resourceType": "Condition",
      "id": "a56a453f-a353-4f35-a66f-0a2a3538d364",
      "meta": {
        "profile": [ "http://hl7.org/fhir/us/qicore/StructureDefinition/qicore-condition-encounter-diagnosis" ]
      },
      "clinicalStatus": {
        "coding": [ {
          "system": "http://terminology.hl7.org/CodeSystem/condition-clinical",
          "code": "active"
        } ]
      },
      "category": [ {
        "coding": [ {
          "system": "http://terminology.hl7.org/CodeSystem/condition-category",
          "code": "problem-list-item",
          "display": "Problem List Item"
        } ]
      } ],
      "code": {
        "coding": [ {
          "system": "http://snomed.info/sct",
          "code": "371125006",
          "display": "Labile essential hypertension (disorder)"
        } ]
      },
      "subject": {
        "reference": "Patient/4d50f3eb-f56f-4f13-8fcf-4d26e05b9a6a"
      },
      "onsetDateTime": "2026-06-30T23:59:59.000Z"
    },
    "request": {
      "method": "PUT",
      "url": "Condition/a56a453f-a353-4f35-a66f-0a2a3538d364"
    }
  }, {
    "fullUrl": "https://madie.cms.gov/Coverage/1099e029-ea99-43b8-a502-03073f50cec6",
    "resource": {
      "resourceType": "Coverage",
      "id": "1099e029-ea99-43b8-a502-03073f50cec6",
      "meta": {
        "profile": [ "http://hl7.org/fhir/us/qicore/StructureDefinition/qicore-coverage" ]
      },
      "status": "active",
      "type": {
        "coding": [ {
          "system": "https://nahdo.org/sopt",
          "code": "99",
          "display": "No Typology Code available for payment source"
        } ]
      },
      "beneficiary": {
        "reference": "Patient/4d50f3eb-f56f-4f13-8fcf-4d26e05b9a6a"
      },
      "payor": [ {
        "reference": "Organization/example"
      } ]
    },
    "request": {
      "method": "PUT",
      "url": "Coverage/1099e029-ea99-43b8-a502-03073f50cec6"
    }
  }, {
    "fullUrl": "https://madie.cms.gov/MeasureReport/5fc403e7-122f-4e51-b881-ecf480bfdf41",
    "resource": {
      "resourceType": "MeasureReport",
      "id": "5fc403e7-122f-4e51-b881-ecf480bfdf41",
      "meta": {
        "profile": [ "http://hl7.org/fhir/us/cqfmeasures/StructureDefinition/test-case-cqfm" ]
      },
      "contained": [ {
        "resourceType": "Parameters",
        "id": "5ef4213f-75f3-47e7-aa77-dc1c5662c38d-parameters",
        "parameter": [ {
          "name": "subject",
          "valueString": "4d50f3eb-f56f-4f13-8fcf-4d26e05b9a6a"
        } ]
      } ],
      "extension": [ {
        "url": "http://hl7.org/fhir/StructureDefinition/cqf-inputParameters",
        "valueReference": {
          "reference": "#5ef4213f-75f3-47e7-aa77-dc1c5662c38d-parameters"
        }
      }, {
        "url": "http://hl7.org/fhir/us/cqfmeasures/StructureDefinition/cqfm-testCaseDescription",
        "valueMarkdown": "Hypertension onsets on 6/30"
      } ],
      "modifierExtension": [ {
        "url": "http://hl7.org/fhir/us/cqfmeasures/StructureDefinition/cqfm-isTestCase",
        "valueBoolean": true
      } ],
      "status": "complete",
      "type": "individual",
      "measure": "https://madie.cms.gov/Measure/CMS165FHIRControllingHighBloodPressure",
      "period": {
        "start": "2026-01-01",
        "end": "2026-12-31"
      },
      "group": [ {
        "id": "Group_1",
        "population": [ {
          "id": "InitialPopulation_1",
          "code": {
            "coding": [ {
              "system": "http://terminology.hl7.org/CodeSystem/measure-population",
              "code": "initial-population",
              "display": "Initial Population"
            } ]
          },
          "count": 1
        }, {
          "id": "Denominator_1",
          "code": {
            "coding": [ {
              "system": "http://terminology.hl7.org/CodeSystem/measure-population",
              "code": "denominator",
              "display": "Denominator"
            } ]
          },
          "count": 1
        }, {
          "id": "DenominatorExclusion_1",
          "code": {
            "coding": [ {
              "system": "http://terminology.hl7.org/CodeSystem/measure-population",
              "code": "denominator-exclusion",
              "display": "Denominator Exclusion"
            } ]
          },
          "count": 0
        }, {
          "id": "Numerator_1",
          "code": {
            "coding": [ {
              "system": "http://terminology.hl7.org/CodeSystem/measure-population",
              "code": "numerator",
              "display": "Numerator"
            } ]
          },
          "count": 0
        } ],
        "measureScore": {
          "value": 1.0
        }
      } ],
      "evaluatedResource": [ {
        "reference": "Patient/4d50f3eb-f56f-4f13-8fcf-4d26e05b9a6a"
      }, {
        "reference": "Encounter/fdda1a2f-b623-4a0a-83d6-8de1d85a7e79"
      }, {
        "reference": "Condition/a56a453f-a353-4f35-a66f-0a2a3538d364"
      }, {
        "reference": "Coverage/1099e029-ea99-43b8-a502-03073f50cec6"
      } ]
    },
    "request": {
      "method": "PUT",
      "url": "MeasureReport/5fc403e7-122f-4e51-b881-ecf480bfdf41"
    }
  } ]
}