{
  "resourceType": "Bundle",
  "id": "DENEXPass-PalliativeCareEncounterDuringMP",
  "type": "transaction",
  "entry": [ {
    "fullUrl": "https://madie.cms.gov/Patient/4b31dc2b-7867-4766-8a8c-e1971d1e570a",
    "resource": {
      "resourceType": "Patient",
      "id": "4b31dc2b-7867-4766-8a8c-e1971d1e570a",
      "meta": {
        "profile": [ "http://hl7.org/fhir/us/qicore/StructureDefinition/qicore-patient" ]
      },
      "extension": [ {
        "url": "http://hl7.org/fhir/us/core/StructureDefinition/us-core-race",
        "extension": [ {
          "url": "ombCategory",
          "valueCoding": {
            "system": "urn:oid:2.16.840.1.113883.6.238",
            "code": "2028-9",
            "display": "Asian"
          }
        }, {
          "url": "text",
          "valueString": "Asian"
        } ]
      }, {
        "url": "http://hl7.org/fhir/us/core/StructureDefinition/us-core-ethnicity",
        "extension": [ {
          "url": "ombCategory",
          "valueCoding": {
            "system": "urn:oid:2.16.840.1.113883.6.238",
            "code": "2135-2",
            "display": "Hispanic or Latino"
          }
        }, {
          "url": "text",
          "valueString": "Hispanic or Latino"
        } ]
      } ],
      "identifier": [ {
        "system": "http://hospital.smarthealthit.org",
        "value": "999999995"
      } ],
      "name": [ {
        "family": "DENEXPass",
        "given": [ "PalliativeCareEncounterDuringMP" ]
      } ],
      "gender": "female",
      "birthDate": "2007-12-31"
    },
    "request": {
      "method": "PUT",
      "url": "Patient/4b31dc2b-7867-4766-8a8c-e1971d1e570a"
    }
  }, {
    "fullUrl": "https://madie.cms.gov/Encounter/6f4ee41d-ff77-483e-b72d-a805c3d080a2",
    "resource": {
      "resourceType": "Encounter",
      "id": "6f4ee41d-ff77-483e-b72d-a805c3d080a2",
      "meta": {
        "profile": [ "http://hl7.org/fhir/us/qicore/StructureDefinition/qicore-encounter" ]
      },
      "status": "finished",
      "class": {
        "system": "http://terminology.hl7.org/CodeSystem/v3-ActCode",
        "code": "AMB",
        "display": "ambulatory"
      },
      "type": [ {
        "coding": [ {
          "system": "http://snomed.info/sct",
          "code": "3391000175108",
          "display": "Office visit for pediatric care and assessment (procedure)"
        } ]
      } ],
      "subject": {
        "reference": "Patient/4b31dc2b-7867-4766-8a8c-e1971d1e570a"
      },
      "period": {
        "start": "2026-01-01T00:00:00.000Z",
        "end": "2026-01-01T01:00:00.000Z"
      }
    },
    "request": {
      "method": "PUT",
      "url": "Encounter/6f4ee41d-ff77-483e-b72d-a805c3d080a2"
    }
  }, {
    "fullUrl": "https://madie.cms.gov/Condition/959c9067-e0ba-4b23-a55f-bf82f7138ce0",
    "resource": {
      "resourceType": "Condition",
      "id": "959c9067-e0ba-4b23-a55f-bf82f7138ce0",
      "meta": {
        "profile": [ "http://hl7.org/fhir/us/qicore/StructureDefinition/qicore-condition-encounter-diagnosis" ]
      },
      "clinicalStatus": {
        "coding": [ {
          "system": "http://terminology.hl7.org/CodeSystem/condition-clinical",
          "code": "active"
        } ]
      },
      "category": [ {
        "coding": [ {
          "system": "http://terminology.hl7.org/CodeSystem/condition-category",
          "code": "problem-list-item",
          "display": "Problem List Item"
        } ]
      } ],
      "code": {
        "coding": [ {
          "system": "http://snomed.info/sct",
          "code": "371125006",
          "display": "Labile essential hypertension (disorder)"
        } ]
      },
      "subject": {
        "reference": "Patient/4b31dc2b-7867-4766-8a8c-e1971d1e570a"
      },
      "onsetDateTime": "2026-06-30T23:59:59.000Z"
    },
    "request": {
      "method": "PUT",
      "url": "Condition/959c9067-e0ba-4b23-a55f-bf82f7138ce0"
    }
  }, {
    "fullUrl": "https://madie.cms.gov/Encounter/5e3e4ede-573c-433e-b273-bbd19bcffd04",
    "resource": {
      "resourceType": "Encounter",
      "id": "5e3e4ede-573c-433e-b273-bbd19bcffd04",
      "meta": {
        "profile": [ "http://hl7.org/fhir/us/qicore/StructureDefinition/qicore-encounter" ]
      },
      "status": "finished",
      "class": {
        "system": "http://terminology.hl7.org/CodeSystem/v3-ActCode",
        "code": "AMB",
        "display": "ambulatory"
      },
      "type": [ {
        "coding": [ {
          "system": "http://snomed.info/sct",
          "code": "305824005",
          "display": "Seen by palliative care medicine service (finding)"
        } ]
      } ],
      "subject": {
        "reference": "Patient/4b31dc2b-7867-4766-8a8c-e1971d1e570a"
      },
      "period": {
        "start": "2026-01-01T00:00:00.000Z",
        "end": "2026-01-01T01:00:00.000Z"
      }
    },
    "request": {
      "method": "PUT",
      "url": "Encounter/5e3e4ede-573c-433e-b273-bbd19bcffd04"
    }
  }, {
    "fullUrl": "https://madie.cms.gov/MeasureReport/4a89a647-2b2f-4c8f-ab89-13a9864cb4e2",
    "resource": {
      "resourceType": "MeasureReport",
      "id": "4a89a647-2b2f-4c8f-ab89-13a9864cb4e2",
      "meta": {
        "profile": [ "http://hl7.org/fhir/us/cqfmeasures/StructureDefinition/test-case-cqfm" ]
      },
      "contained": [ {
        "resourceType": "Parameters",
        "id": "d35880dc-7218-4ad4-89e7-e24246e20ca9-parameters",
        "parameter": [ {
          "name": "subject",
          "valueString": "4b31dc2b-7867-4766-8a8c-e1971d1e570a"
        } ]
      } ],
      "extension": [ {
        "url": "http://hl7.org/fhir/StructureDefinition/cqf-inputParameters",
        "valueReference": {
          "reference": "#d35880dc-7218-4ad4-89e7-e24246e20ca9-parameters"
        }
      }, {
        "url": "http://hl7.org/fhir/us/cqfmeasures/StructureDefinition/cqfm-testCaseDescription",
        "valueMarkdown": "Palliative care encounter during MP"
      } ],
      "modifierExtension": [ {
        "url": "http://hl7.org/fhir/us/cqfmeasures/StructureDefinition/cqfm-isTestCase",
        "valueBoolean": true
      } ],
      "status": "complete",
      "type": "individual",
      "measure": "https://madie.cms.gov/Measure/CMS165FHIRControllingHighBloodPressure",
      "period": {
        "start": "2026-01-01",
        "end": "2026-12-31"
      },
      "group": [ {
        "id": "Group_1",
        "population": [ {
          "id": "InitialPopulation_1",
          "code": {
            "coding": [ {
              "system": "http://terminology.hl7.org/CodeSystem/measure-population",
              "code": "initial-population",
              "display": "Initial Population"
            } ]
          },
          "count": 1
        }, {
          "id": "Denominator_1",
          "code": {
            "coding": [ {
              "system": "http://terminology.hl7.org/CodeSystem/measure-population",
              "code": "denominator",
              "display": "Denominator"
            } ]
          },
          "count": 1
        }, {
          "id": "DenominatorExclusion_1",
          "code": {
            "coding": [ {
              "system": "http://terminology.hl7.org/CodeSystem/measure-population",
              "code": "denominator-exclusion",
              "display": "Denominator Exclusion"
            } ]
          },
          "count": 1
        }, {
          "id": "Numerator_1",
          "code": {
            "coding": [ {
              "system": "http://terminology.hl7.org/CodeSystem/measure-population",
              "code": "numerator",
              "display": "Numerator"
            } ]
          },
          "count": 0
        } ],
        "measureScore": {
          "value": 1.0
        }
      } ],
      "evaluatedResource": [ {
        "reference": "Patient/4b31dc2b-7867-4766-8a8c-e1971d1e570a"
      }, {
        "reference": "Encounter/6f4ee41d-ff77-483e-b72d-a805c3d080a2"
      }, {
        "reference": "Condition/959c9067-e0ba-4b23-a55f-bf82f7138ce0"
      }, {
        "reference": "Encounter/5e3e4ede-573c-433e-b273-bbd19bcffd04"
      } ]
    },
    "request": {
      "method": "PUT",
      "url": "MeasureReport/4a89a647-2b2f-4c8f-ab89-13a9864cb4e2"
    }
  } ]
}