{"resourceType":"Bundle","id":"tests-0b9cb569-149a-4b47-a535-66b59a77bceb-bundle","type":"transaction","entry":[{"fullUrl":"Encounter/2f99e4fd-a8cb-478c-a3e1-576b99314292","resource":{"resourceType":"Encounter","id":"2f99e4fd-a8cb-478c-a3e1-576b99314292","meta":{"profile":["http://hl7.org/fhir/us/qicore/StructureDefinition/qicore-encounter"]},"status":"finished","class":{"system":"http://terminology.hl7.org/CodeSystem/v3-ActCode","code":"AMB","display":"ambulatory"},"type":[{"coding":[{"system":"http://snomed.info/sct","code":"3391000175108","display":"Office visit for pediatric care and assessment (procedure)"}]}],"subject":{"reference":"Patient/0b9cb569-149a-4b47-a535-66b59a77bceb"},"period":{"start":"2026-01-01T00:00:00.000Z","end":"2026-01-01T01:00:00.000Z"}},"request":{"method":"PUT","url":"Encounter/2f99e4fd-a8cb-478c-a3e1-576b99314292"}},{"fullUrl":"Condition/7b977aac-49fb-417f-a0e0-38d27ce66140","resource":{"resourceType":"Condition","id":"7b977aac-49fb-417f-a0e0-38d27ce66140","meta":{"profile":["http://hl7.org/fhir/us/qicore/StructureDefinition/qicore-condition-problems-health-concerns"]},"clinicalStatus":{"coding":[{"system":"http://terminology.hl7.org/CodeSystem/condition-clinical","code":"active"}]},"category":[{"coding":[{"system":"http://terminology.hl7.org/CodeSystem/condition-category","code":"problem-list-item","display":"Problem List Item"}]}],"code":{"coding":[{"system":"http://hl7.org/fhir/sid/icd-10-cm","code":"N18.5","display":"Chronic kidney disease, stage 5"}]},"subject":{"reference":"Patient/0b9cb569-149a-4b47-a535-66b59a77bceb"},"onsetDateTime":"2026-06-30T23:59:59.000Z"},"request":{"method":"PUT","url":"Condition/7b977aac-49fb-417f-a0e0-38d27ce66140"}},{"fullUrl":"MeasureReport/b7e24bc8-1a11-46fc-9793-afdf19fa949f","resource":{"resourceType":"MeasureReport","id":"b7e24bc8-1a11-46fc-9793-afdf19fa949f","meta":{"profile":["http://hl7.org/fhir/us/cqfmeasures/StructureDefinition/test-case-cqfm"]},"contained":[{"resourceType":"Parameters","id":"d6b161de-decf-4fe5-8106-542578f0b994-parameters","parameter":[{"name":"subject","valueString":"0b9cb569-149a-4b47-a535-66b59a77bceb"}]}],"extension":[{"url":"http://hl7.org/fhir/StructureDefinition/cqf-inputParameters","valueReference":{"reference":"#d6b161de-decf-4fe5-8106-542578f0b994-parameters"}},{"url":"http://hl7.org/fhir/us/cqfmeasures/StructureDefinition/cqfm-testCaseDescription","valueMarkdown":"Chronic kidney disease stage 5 during MP"}],"modifierExtension":[{"url":"http://hl7.org/fhir/us/cqfmeasures/StructureDefinition/cqfm-isTestCase","valueBoolean":true}],"status":"complete","type":"individual","measure":"https://madie.cms.gov/Measure/CMS165FHIRControllingHighBloodPressure","period":{"start":"2026-01-01","end":"2026-12-31"},"group":[{"id":"Group_1","population":[{"id":"InitialPopulation_1","code":{"coding":[{"system":"http://terminology.hl7.org/CodeSystem/measure-population","code":"initial-population","display":"Initial Population"}]},"count":1},{"id":"Denominator_1","code":{"coding":[{"system":"http://terminology.hl7.org/CodeSystem/measure-population","code":"denominator","display":"Denominator"}]},"count":1},{"id":"DenominatorExclusion_1","code":{"coding":[{"system":"http://terminology.hl7.org/CodeSystem/measure-population","code":"denominator-exclusion","display":"Denominator Exclusion"}]},"count":1},{"id":"Numerator_1","code":{"coding":[{"system":"http://terminology.hl7.org/CodeSystem/measure-population","code":"numerator","display":"Numerator"}]},"count":0}],"measureScore":{"value":1.0}}],"evaluatedResource":[{"reference":"Patient/0b9cb569-149a-4b47-a535-66b59a77bceb"},{"reference":"Encounter/2f99e4fd-a8cb-478c-a3e1-576b99314292"},{"reference":"Condition/f90968df-9eea-4e5b-b526-d8b3795d7f2a"},{"reference":"Condition/7b977aac-49fb-417f-a0e0-38d27ce66140"}]},"request":{"method":"PUT","url":"MeasureReport/b7e24bc8-1a11-46fc-9793-afdf19fa949f"}},{"fullUrl":"Bundle/DENEXPass-ChronicKidneyDiseaseStage5DuringMP","resource":{"resourceType":"Bundle","id":"DENEXPass-ChronicKidneyDiseaseStage5DuringMP","type":"transaction","entry":[{"fullUrl":"https://madie.cms.gov/Patient/0b9cb569-149a-4b47-a535-66b59a77bceb","resource":{"resourceType":"Patient","id":"0b9cb569-149a-4b47-a535-66b59a77bceb","meta":{"profile":["http://hl7.org/fhir/us/qicore/StructureDefinition/qicore-patient"]},"extension":[{"url":"http://hl7.org/fhir/us/core/StructureDefinition/us-core-race","extension":[{"url":"ombCategory","valueCoding":{"system":"urn:oid:2.16.840.1.113883.6.238","code":"2028-9","display":"Asian"}},{"url":"text","valueString":"Asian"}]},{"url":"http://hl7.org/fhir/us/core/StructureDefinition/us-core-ethnicity","extension":[{"url":"ombCategory","valueCoding":{"system":"urn:oid:2.16.840.1.113883.6.238","code":"2135-2","display":"Hispanic or Latino"}},{"url":"text","valueString":"Hispanic or Latino"}]}],"identifier":[{"system":"http://hospital.smarthealthit.org","value":"999999995"}],"name":[{"family":"DENEXPass","given":["ChronicKidneyDiseaseStage5DuringMP"]}],"gender":"female","birthDate":"2007-12-31"},"request":{"method":"PUT","url":"Patient/0b9cb569-149a-4b47-a535-66b59a77bceb"}},{"fullUrl":"https://madie.cms.gov/Encounter/2f99e4fd-a8cb-478c-a3e1-576b99314292","resource":{"resourceType":"Encounter","id":"2f99e4fd-a8cb-478c-a3e1-576b99314292","meta":{"profile":["http://hl7.org/fhir/us/qicore/StructureDefinition/qicore-encounter"]},"status":"finished","class":{"system":"http://terminology.hl7.org/CodeSystem/v3-ActCode","code":"AMB","display":"ambulatory"},"type":[{"coding":[{"system":"http://snomed.info/sct","code":"3391000175108","display":"Office visit for pediatric care and assessment (procedure)"}]}],"subject":{"reference":"Patient/0b9cb569-149a-4b47-a535-66b59a77bceb"},"period":{"start":"2026-01-01T00:00:00.000Z","end":"2026-01-01T01:00:00.000Z"}},"request":{"method":"PUT","url":"Encounter/2f99e4fd-a8cb-478c-a3e1-576b99314292"}},{"fullUrl":"https://madie.cms.gov/Condition/f90968df-9eea-4e5b-b526-d8b3795d7f2a","resource":{"resourceType":"Condition","id":"f90968df-9eea-4e5b-b526-d8b3795d7f2a","meta":{"profile":["http://hl7.org/fhir/us/qicore/StructureDefinition/qicore-condition-encounter-diagnosis"]},"clinicalStatus":{"coding":[{"system":"http://terminology.hl7.org/CodeSystem/condition-clinical","code":"active"}]},"category":[{"coding":[{"system":"http://terminology.hl7.org/CodeSystem/condition-category","code":"problem-list-item","display":"Problem List Item"}]}],"code":{"coding":[{"system":"http://snomed.info/sct","code":"371125006","display":"Labile essential hypertension (disorder)"}]},"subject":{"reference":"Patient/0b9cb569-149a-4b47-a535-66b59a77bceb"},"onsetDateTime":"2026-06-30T23:59:59.000Z"},"request":{"method":"PUT","url":"Condition/f90968df-9eea-4e5b-b526-d8b3795d7f2a"}},{"fullUrl":"https://madie.cms.gov/Condition/7b977aac-49fb-417f-a0e0-38d27ce66140","resource":{"resourceType":"Condition","id":"7b977aac-49fb-417f-a0e0-38d27ce66140","meta":{"profile":["http://hl7.org/fhir/us/qicore/StructureDefinition/qicore-condition-problems-health-concerns"]},"clinicalStatus":{"coding":[{"system":"http://terminology.hl7.org/CodeSystem/condition-clinical","code":"active"}]},"category":[{"coding":[{"system":"http://terminology.hl7.org/CodeSystem/condition-category","code":"problem-list-item","display":"Problem List Item"}]}],"code":{"coding":[{"system":"http://hl7.org/fhir/sid/icd-10-cm","code":"N18.5","display":"Chronic kidney disease, stage 5"}]},"subject":{"reference":"Patient/0b9cb569-149a-4b47-a535-66b59a77bceb"},"onsetDateTime":"2026-06-30T23:59:59.000Z"},"request":{"method":"PUT","url":"Condition/7b977aac-49fb-417f-a0e0-38d27ce66140"}},{"fullUrl":"https://madie.cms.gov/MeasureReport/b7e24bc8-1a11-46fc-9793-afdf19fa949f","resource":{"resourceType":"MeasureReport","id":"b7e24bc8-1a11-46fc-9793-afdf19fa949f","meta":{"profile":["http://hl7.org/fhir/us/cqfmeasures/StructureDefinition/test-case-cqfm"]},"contained":[{"resourceType":"Parameters","id":"d6b161de-decf-4fe5-8106-542578f0b994-parameters","parameter":[{"name":"subject","valueString":"0b9cb569-149a-4b47-a535-66b59a77bceb"}]}],"extension":[{"url":"http://hl7.org/fhir/StructureDefinition/cqf-inputParameters","valueReference":{"reference":"#d6b161de-decf-4fe5-8106-542578f0b994-parameters"}},{"url":"http://hl7.org/fhir/us/cqfmeasures/StructureDefinition/cqfm-testCaseDescription","valueMarkdown":"Chronic kidney disease stage 5 during MP"}],"modifierExtension":[{"url":"http://hl7.org/fhir/us/cqfmeasures/StructureDefinition/cqfm-isTestCase","valueBoolean":true}],"status":"complete","type":"individual","measure":"https://madie.cms.gov/Measure/CMS165FHIRControllingHighBloodPressure","period":{"start":"2026-01-01","end":"2026-12-31"},"group":[{"id":"Group_1","population":[{"id":"InitialPopulation_1","code":{"coding":[{"system":"http://terminology.hl7.org/CodeSystem/measure-population","code":"initial-population","display":"Initial Population"}]},"count":1},{"id":"Denominator_1","code":{"coding":[{"system":"http://terminology.hl7.org/CodeSystem/measure-population","code":"denominator","display":"Denominator"}]},"count":1},{"id":"DenominatorExclusion_1","code":{"coding":[{"system":"http://terminology.hl7.org/CodeSystem/measure-population","code":"denominator-exclusion","display":"Denominator Exclusion"}]},"count":1},{"id":"Numerator_1","code":{"coding":[{"system":"http://terminology.hl7.org/CodeSystem/measure-population","code":"numerator","display":"Numerator"}]},"count":0}],"measureScore":{"value":1.0}}],"evaluatedResource":[{"reference":"Patient/0b9cb569-149a-4b47-a535-66b59a77bceb"},{"reference":"Encounter/2f99e4fd-a8cb-478c-a3e1-576b99314292"},{"reference":"Condition/f90968df-9eea-4e5b-b526-d8b3795d7f2a"},{"reference":"Condition/7b977aac-49fb-417f-a0e0-38d27ce66140"}]},"request":{"method":"PUT","url":"MeasureReport/b7e24bc8-1a11-46fc-9793-afdf19fa949f"}}]},"request":{"method":"PUT","url":"Bundle/DENEXPass-ChronicKidneyDiseaseStage5DuringMP"}},{"fullUrl":"Patient/0b9cb569-149a-4b47-a535-66b59a77bceb","resource":{"resourceType":"Patient","id":"0b9cb569-149a-4b47-a535-66b59a77bceb","meta":{"profile":["http://hl7.org/fhir/us/qicore/StructureDefinition/qicore-patient"]},"extension":[{"url":"http://hl7.org/fhir/us/core/StructureDefinition/us-core-race","extension":[{"url":"ombCategory","valueCoding":{"system":"urn:oid:2.16.840.1.113883.6.238","code":"2028-9","display":"Asian"}},{"url":"text","valueString":"Asian"}]},{"url":"http://hl7.org/fhir/us/core/StructureDefinition/us-core-ethnicity","extension":[{"url":"ombCategory","valueCoding":{"system":"urn:oid:2.16.840.1.113883.6.238","code":"2135-2","display":"Hispanic or Latino"}},{"url":"text","valueString":"Hispanic or Latino"}]}],"identifier":[{"system":"http://hospital.smarthealthit.org","value":"999999995"}],"name":[{"family":"DENEXPass","given":["ChronicKidneyDiseaseStage5DuringMP"]}],"gender":"female","birthDate":"2007-12-31"},"request":{"method":"PUT","url":"Patient/0b9cb569-149a-4b47-a535-66b59a77bceb"}},{"fullUrl":"Condition/f90968df-9eea-4e5b-b526-d8b3795d7f2a","resource":{"resourceType":"Condition","id":"f90968df-9eea-4e5b-b526-d8b3795d7f2a","meta":{"profile":["http://hl7.org/fhir/us/qicore/StructureDefinition/qicore-condition-encounter-diagnosis"]},"clinicalStatus":{"coding":[{"system":"http://terminology.hl7.org/CodeSystem/condition-clinical","code":"active"}]},"category":[{"coding":[{"system":"http://terminology.hl7.org/CodeSystem/condition-category","code":"problem-list-item","display":"Problem List Item"}]}],"code":{"coding":[{"system":"http://snomed.info/sct","code":"371125006","display":"Labile essential hypertension (disorder)"}]},"subject":{"reference":"Patient/0b9cb569-149a-4b47-a535-66b59a77bceb"},"onsetDateTime":"2026-06-30T23:59:59.000Z"},"request":{"method":"PUT","url":"Condition/f90968df-9eea-4e5b-b526-d8b3795d7f2a"}}]}