{"resourceType":"Bundle","id":"tests-d150409f-0616-4565-ba60-7ca732a87288-bundle","type":"transaction","entry":[{"fullUrl":"Encounter/acfc5688-b80f-47b9-b01d-1531aeda07c1","resource":{"resourceType":"Encounter","id":"acfc5688-b80f-47b9-b01d-1531aeda07c1","meta":{"profile":["http://hl7.org/fhir/us/qicore/StructureDefinition/qicore-encounter"]},"status":"finished","class":{"system":"http://terminology.hl7.org/CodeSystem/v3-ActCode","code":"AMB","display":"ambulatory"},"type":[{"coding":[{"system":"http://snomed.info/sct","code":"3391000175108","display":"Office visit for pediatric care and assessment (procedure)"}]}],"subject":{"reference":"Patient/d150409f-0616-4565-ba60-7ca732a87288"},"period":{"start":"2026-01-01T00:00:00.000+00:00","end":"2026-01-01T01:00:00.000+00:00"}},"request":{"method":"PUT","url":"Encounter/acfc5688-b80f-47b9-b01d-1531aeda07c1"}},{"fullUrl":"Condition/2474cdb7-f353-4e35-857c-4f188e63747e","resource":{"resourceType":"Condition","id":"2474cdb7-f353-4e35-857c-4f188e63747e","meta":{"profile":["http://hl7.org/fhir/us/qicore/StructureDefinition/qicore-condition-encounter-diagnosis"]},"clinicalStatus":{"coding":[{"system":"http://terminology.hl7.org/CodeSystem/condition-clinical","code":"active"}]},"category":[{"coding":[{"system":"http://terminology.hl7.org/CodeSystem/condition-category","code":"encounter-diagnosis","display":"Encounter Diagnosis"}]}],"code":{"coding":[{"system":"http://snomed.info/sct","code":"371125006","display":"Labile essential hypertension (disorder)"}]},"subject":{"reference":"Patient/d150409f-0616-4565-ba60-7ca732a87288"},"onsetDateTime":"2026-06-30T23:59:59.000+00:00"},"request":{"method":"PUT","url":"Condition/2474cdb7-f353-4e35-857c-4f188e63747e"}},{"fullUrl":"Patient/d150409f-0616-4565-ba60-7ca732a87288","resource":{"resourceType":"Patient","id":"d150409f-0616-4565-ba60-7ca732a87288","meta":{"profile":["http://hl7.org/fhir/us/qicore/StructureDefinition/qicore-patient"]},"extension":[{"url":"http://hl7.org/fhir/us/core/StructureDefinition/us-core-race","extension":[{"url":"ombCategory","valueCoding":{"system":"urn:oid:2.16.840.1.113883.6.238","code":"2028-9","display":"Asian"}},{"url":"text","valueString":"Asian"}]},{"url":"http://hl7.org/fhir/us/core/StructureDefinition/us-core-ethnicity","extension":[{"url":"ombCategory","valueCoding":{"system":"urn:oid:2.16.840.1.113883.6.238","code":"2135-2","display":"Hispanic or Latino"}},{"url":"text","valueString":"Hispanic or Latino"}]}],"identifier":[{"system":"http://hospital.smarthealthit.org","value":"999999995"}],"name":[{"family":"IPPass","given":["HypertensionDuringFirst6Months"]}],"gender":"female","birthDate":"2007-12-31"},"request":{"method":"PUT","url":"Patient/d150409f-0616-4565-ba60-7ca732a87288"}},{"fullUrl":"Bundle/IPPPass-HypertensionDuringFirst6Months","resource":{"resourceType":"Bundle","id":"IPPPass-HypertensionDuringFirst6Months","type":"transaction","entry":[{"fullUrl":"https://madie.cms.gov/Patient/d150409f-0616-4565-ba60-7ca732a87288","resource":{"resourceType":"Patient","id":"d150409f-0616-4565-ba60-7ca732a87288","meta":{"profile":["http://hl7.org/fhir/us/qicore/StructureDefinition/qicore-patient"]},"extension":[{"url":"http://hl7.org/fhir/us/core/StructureDefinition/us-core-race","extension":[{"url":"ombCategory","valueCoding":{"system":"urn:oid:2.16.840.1.113883.6.238","code":"2028-9","display":"Asian"}},{"url":"text","valueString":"Asian"}]},{"url":"http://hl7.org/fhir/us/core/StructureDefinition/us-core-ethnicity","extension":[{"url":"ombCategory","valueCoding":{"system":"urn:oid:2.16.840.1.113883.6.238","code":"2135-2","display":"Hispanic or Latino"}},{"url":"text","valueString":"Hispanic or Latino"}]}],"identifier":[{"system":"http://hospital.smarthealthit.org","value":"999999995"}],"name":[{"family":"IPPass","given":["HypertensionDuringFirst6Months"]}],"gender":"female","birthDate":"2007-12-31"},"request":{"method":"PUT","url":"Patient/d150409f-0616-4565-ba60-7ca732a87288"}},{"fullUrl":"https://madie.cms.gov/Encounter/acfc5688-b80f-47b9-b01d-1531aeda07c1","resource":{"resourceType":"Encounter","id":"acfc5688-b80f-47b9-b01d-1531aeda07c1","meta":{"profile":["http://hl7.org/fhir/us/qicore/StructureDefinition/qicore-encounter"]},"status":"finished","class":{"system":"http://terminology.hl7.org/CodeSystem/v3-ActCode","code":"AMB","display":"ambulatory"},"type":[{"coding":[{"system":"http://snomed.info/sct","code":"3391000175108","display":"Office visit for pediatric care and assessment (procedure)"}]}],"subject":{"reference":"Patient/d150409f-0616-4565-ba60-7ca732a87288"},"period":{"start":"2026-01-01T00:00:00.000+00:00","end":"2026-01-01T01:00:00.000+00:00"}},"request":{"method":"PUT","url":"Encounter/acfc5688-b80f-47b9-b01d-1531aeda07c1"}},{"fullUrl":"https://madie.cms.gov/Condition/2474cdb7-f353-4e35-857c-4f188e63747e","resource":{"resourceType":"Condition","id":"2474cdb7-f353-4e35-857c-4f188e63747e","meta":{"profile":["http://hl7.org/fhir/us/qicore/StructureDefinition/qicore-condition-encounter-diagnosis"]},"clinicalStatus":{"coding":[{"system":"http://terminology.hl7.org/CodeSystem/condition-clinical","code":"active"}]},"category":[{"coding":[{"system":"http://terminology.hl7.org/CodeSystem/condition-category","code":"encounter-diagnosis","display":"Encounter Diagnosis"}]}],"code":{"coding":[{"system":"http://snomed.info/sct","code":"371125006","display":"Labile essential hypertension (disorder)"}]},"subject":{"reference":"Patient/d150409f-0616-4565-ba60-7ca732a87288"},"onsetDateTime":"2026-06-30T23:59:59.000+00:00"},"request":{"method":"PUT","url":"Condition/2474cdb7-f353-4e35-857c-4f188e63747e"}},{"fullUrl":"https://madie.cms.gov/Coverage/851f66cb-57f1-4384-841d-bf4b31a7a092","resource":{"resourceType":"Coverage","id":"851f66cb-57f1-4384-841d-bf4b31a7a092","meta":{"profile":["http://hl7.org/fhir/us/qicore/StructureDefinition/qicore-coverage"]},"status":"active","type":{"coding":[{"system":"https://nahdo.org/sopt","code":"99","display":"No Typology Code available for payment source"}]},"subscriberId":"12191","beneficiary":{"reference":"Patient/d150409f-0616-4565-ba60-7ca732a87288"},"relationship":{"coding":[{"system":"http://terminology.hl7.org/CodeSystem/subscriber-relationship","code":"self"}]},"payor":[{"reference":"Organization/example"}]},"request":{"method":"PUT","url":"Coverage/851f66cb-57f1-4384-841d-bf4b31a7a092"}},{"fullUrl":"https://madie.cms.gov/MeasureReport/b9c090bd-b2c4-49eb-8523-cd293b7da295","resource":{"resourceType":"MeasureReport","id":"b9c090bd-b2c4-49eb-8523-cd293b7da295","meta":{"profile":["http://hl7.org/fhir/us/cqfmeasures/StructureDefinition/test-case-cqfm"]},"contained":[{"resourceType":"Parameters","id":"b46d9263-3bb5-4afe-9a0c-f73dcfd2d751-parameters","parameter":[{"name":"subject","valueString":"d150409f-0616-4565-ba60-7ca732a87288"}]}],"extension":[{"url":"http://hl7.org/fhir/StructureDefinition/cqf-inputParameters","valueReference":{"reference":"#b46d9263-3bb5-4afe-9a0c-f73dcfd2d751-parameters"}},{"url":"http://hl7.org/fhir/us/cqfmeasures/StructureDefinition/cqfm-testCaseDescription","valueMarkdown":"Hypertension onsets on 6/30 - No Condition.verificationStatus"}],"modifierExtension":[{"url":"http://hl7.org/fhir/us/cqfmeasures/StructureDefinition/cqfm-isTestCase","valueBoolean":true}],"status":"complete","type":"individual","measure":"https://madie.cms.gov/Measure/CMS165FHIRControllingHighBloodPressure","period":{"start":"2026-01-01","end":"2026-12-31"},"group":[{"id":"Group_1","population":[{"id":"InitialPopulation_1","code":{"coding":[{"system":"http://terminology.hl7.org/CodeSystem/measure-population","code":"initial-population","display":"Initial Population"}]},"count":1},{"id":"Denominator_1","code":{"coding":[{"system":"http://terminology.hl7.org/CodeSystem/measure-population","code":"denominator","display":"Denominator"}]},"count":1},{"id":"DenominatorExclusion_1","code":{"coding":[{"system":"http://terminology.hl7.org/CodeSystem/measure-population","code":"denominator-exclusion","display":"Denominator Exclusion"}]},"count":0},{"id":"Numerator_1","code":{"coding":[{"system":"http://terminology.hl7.org/CodeSystem/measure-population","code":"numerator","display":"Numerator"}]},"count":0}],"measureScore":{"value":1.0}}],"evaluatedResource":[{"reference":"Patient/d150409f-0616-4565-ba60-7ca732a87288"},{"reference":"Encounter/acfc5688-b80f-47b9-b01d-1531aeda07c1"},{"reference":"Condition/2474cdb7-f353-4e35-857c-4f188e63747e"},{"reference":"Coverage/851f66cb-57f1-4384-841d-bf4b31a7a092"}]},"request":{"method":"PUT","url":"MeasureReport/b9c090bd-b2c4-49eb-8523-cd293b7da295"}}]},"request":{"method":"PUT","url":"Bundle/IPPPass-HypertensionDuringFirst6Months"}},{"fullUrl":"MeasureReport/b9c090bd-b2c4-49eb-8523-cd293b7da295","resource":{"resourceType":"MeasureReport","id":"b9c090bd-b2c4-49eb-8523-cd293b7da295","meta":{"profile":["http://hl7.org/fhir/us/cqfmeasures/StructureDefinition/test-case-cqfm"]},"contained":[{"resourceType":"Parameters","id":"b46d9263-3bb5-4afe-9a0c-f73dcfd2d751-parameters","parameter":[{"name":"subject","valueString":"d150409f-0616-4565-ba60-7ca732a87288"}]}],"extension":[{"url":"http://hl7.org/fhir/StructureDefinition/cqf-inputParameters","valueReference":{"reference":"#b46d9263-3bb5-4afe-9a0c-f73dcfd2d751-parameters"}},{"url":"http://hl7.org/fhir/us/cqfmeasures/StructureDefinition/cqfm-testCaseDescription","valueMarkdown":"Hypertension onsets on 6/30 - No Condition.verificationStatus"}],"modifierExtension":[{"url":"http://hl7.org/fhir/us/cqfmeasures/StructureDefinition/cqfm-isTestCase","valueBoolean":true}],"status":"complete","type":"individual","measure":"https://madie.cms.gov/Measure/CMS165FHIRControllingHighBloodPressure","period":{"start":"2026-01-01","end":"2026-12-31"},"group":[{"id":"Group_1","population":[{"id":"InitialPopulation_1","code":{"coding":[{"system":"http://terminology.hl7.org/CodeSystem/measure-population","code":"initial-population","display":"Initial Population"}]},"count":1},{"id":"Denominator_1","code":{"coding":[{"system":"http://terminology.hl7.org/CodeSystem/measure-population","code":"denominator","display":"Denominator"}]},"count":1},{"id":"DenominatorExclusion_1","code":{"coding":[{"system":"http://terminology.hl7.org/CodeSystem/measure-population","code":"denominator-exclusion","display":"Denominator Exclusion"}]},"count":0},{"id":"Numerator_1","code":{"coding":[{"system":"http://terminology.hl7.org/CodeSystem/measure-population","code":"numerator","display":"Numerator"}]},"count":0}],"measureScore":{"value":1.0}}],"evaluatedResource":[{"reference":"Patient/d150409f-0616-4565-ba60-7ca732a87288"},{"reference":"Encounter/acfc5688-b80f-47b9-b01d-1531aeda07c1"},{"reference":"Condition/2474cdb7-f353-4e35-857c-4f188e63747e"},{"reference":"Coverage/851f66cb-57f1-4384-841d-bf4b31a7a092"}]},"request":{"method":"PUT","url":"MeasureReport/b9c090bd-b2c4-49eb-8523-cd293b7da295"}},{"fullUrl":"Coverage/851f66cb-57f1-4384-841d-bf4b31a7a092","resource":{"resourceType":"Coverage","id":"851f66cb-57f1-4384-841d-bf4b31a7a092","meta":{"profile":["http://hl7.org/fhir/us/qicore/StructureDefinition/qicore-coverage"]},"status":"active","type":{"coding":[{"system":"https://nahdo.org/sopt","code":"99","display":"No Typology Code available for payment source"}]},"subscriberId":"12191","beneficiary":{"reference":"Patient/d150409f-0616-4565-ba60-7ca732a87288"},"relationship":{"coding":[{"system":"http://terminology.hl7.org/CodeSystem/subscriber-relationship","code":"self"}]},"payor":[{"reference":"Organization/example"}]},"request":{"method":"PUT","url":"Coverage/851f66cb-57f1-4384-841d-bf4b31a7a092"}}]}