{"resourceType":"Bundle","id":"tests-598f05e7-83b4-4609-9795-e9ac75f57f36-bundle","type":"transaction","entry":[{"fullUrl":"DeviceRequest/3b9c048d-d6a5-4fbf-86b8-b6062667e2ce","resource":{"resourceType":"DeviceRequest","id":"3b9c048d-d6a5-4fbf-86b8-b6062667e2ce","meta":{"profile":["http://hl7.org/fhir/us/qicore/StructureDefinition/qicore-devicerequest"]},"modifierExtension":[{"url":"http://hl7.org/fhir/5.0/StructureDefinition/extension-DeviceRequest.doNotPerform","valueBoolean":false}],"status":"completed","intent":"order","codeCodeableConcept":{"coding":[{"system":"http://snomed.info/sct","code":"183240000","display":"Self-propelled wheelchair (physical object)"}]},"subject":{"reference":"Patient/598f05e7-83b4-4609-9795-e9ac75f57f36"},"authoredOn":"2026-11-01T23:59:00.000+00:00"},"request":{"method":"PUT","url":"DeviceRequest/3b9c048d-d6a5-4fbf-86b8-b6062667e2ce"}},{"fullUrl":"Condition/a668e997-0250-47c1-903c-0d941380dcd4","resource":{"resourceType":"Condition","id":"a668e997-0250-47c1-903c-0d941380dcd4","meta":{"profile":["http://hl7.org/fhir/us/qicore/StructureDefinition/qicore-condition-problems-health-concerns"]},"clinicalStatus":{"coding":[{"system":"http://terminology.hl7.org/CodeSystem/condition-clinical","code":"active"}]},"category":[{"coding":[{"system":"http://terminology.hl7.org/CodeSystem/condition-category","code":"problem-list-item","display":"Problem List Item"}]}],"code":{"coding":[{"system":"http://snomed.info/sct","code":"101421000119107","display":"Dementia due to Parkinson's disease (disorder)"}]},"subject":{"reference":"Patient/598f05e7-83b4-4609-9795-e9ac75f57f36"},"onsetDateTime":"2024-12-31T23:59:59.000+00:00"},"request":{"method":"PUT","url":"Condition/a668e997-0250-47c1-903c-0d941380dcd4"}},{"fullUrl":"Encounter/6c7a3891-0ea5-4ff3-9ec4-63f785bae5ca","resource":{"resourceType":"Encounter","id":"6c7a3891-0ea5-4ff3-9ec4-63f785bae5ca","meta":{"profile":["http://hl7.org/fhir/us/qicore/StructureDefinition/qicore-encounter"]},"status":"finished","class":{"system":"http://terminology.hl7.org/CodeSystem/v3-ActCode","code":"AMB","display":"ambulatory"},"type":[{"coding":[{"system":"http://snomed.info/sct","code":"3391000175108","display":"Office visit for pediatric care and assessment (procedure)"}]}],"subject":{"reference":"Patient/598f05e7-83b4-4609-9795-e9ac75f57f36"},"period":{"start":"2026-01-01T00:00:00.000+00:00","end":"2026-01-01T01:00:00.000+00:00"}},"request":{"method":"PUT","url":"Encounter/6c7a3891-0ea5-4ff3-9ec4-63f785bae5ca"}},{"fullUrl":"Condition/9315f6cc-bcd1-47de-93d3-7db5e0fbe8d9","resource":{"resourceType":"Condition","id":"9315f6cc-bcd1-47de-93d3-7db5e0fbe8d9","meta":{"profile":["http://hl7.org/fhir/us/qicore/StructureDefinition/qicore-condition-problems-health-concerns"]},"clinicalStatus":{"coding":[{"system":"http://terminology.hl7.org/CodeSystem/condition-clinical","code":"active"}]},"category":[{"coding":[{"system":"http://terminology.hl7.org/CodeSystem/condition-category","code":"problem-list-item","display":"Problem List Item"}]}],"code":{"coding":[{"system":"http://snomed.info/sct","code":"371125006","display":"Labile essential hypertension (disorder)"}]},"subject":{"reference":"Patient/598f05e7-83b4-4609-9795-e9ac75f57f36"},"onsetDateTime":"2026-06-30T23:59:59.000+00:00"},"request":{"method":"PUT","url":"Condition/9315f6cc-bcd1-47de-93d3-7db5e0fbe8d9"}},{"fullUrl":"Patient/598f05e7-83b4-4609-9795-e9ac75f57f36","resource":{"resourceType":"Patient","id":"598f05e7-83b4-4609-9795-e9ac75f57f36","meta":{"profile":["http://hl7.org/fhir/us/qicore/StructureDefinition/qicore-patient"]},"extension":[{"url":"http://hl7.org/fhir/us/core/StructureDefinition/us-core-race","extension":[{"url":"ombCategory","valueCoding":{"system":"urn:oid:2.16.840.1.113883.6.238","code":"2028-9","display":"Asian"}},{"url":"text","valueString":"Asian"}]},{"url":"http://hl7.org/fhir/us/core/StructureDefinition/us-core-ethnicity","extension":[{"url":"ombCategory","valueCoding":{"system":"urn:oid:2.16.840.1.113883.6.238","code":"2135-2","display":"Hispanic or Latino"}},{"url":"text","valueString":"Hispanic or Latino"}]}],"identifier":[{"system":"http://hospital.smarthealthit.org","value":"999999995"}],"name":[{"family":"DENEXFail","given":["AdvIllnessDxBefore2Yrs"]}],"gender":"female","birthDate":"1959-12-31"},"request":{"method":"PUT","url":"Patient/598f05e7-83b4-4609-9795-e9ac75f57f36"}},{"fullUrl":"Bundle/DENEXFail-AdvIllnessDxBefore2Yrs","resource":{"resourceType":"Bundle","id":"DENEXFail-AdvIllnessDxBefore2Yrs","type":"transaction","entry":[{"fullUrl":"https://madie.cms.gov/Patient/598f05e7-83b4-4609-9795-e9ac75f57f36","resource":{"resourceType":"Patient","id":"598f05e7-83b4-4609-9795-e9ac75f57f36","meta":{"profile":["http://hl7.org/fhir/us/qicore/StructureDefinition/qicore-patient"]},"extension":[{"url":"http://hl7.org/fhir/us/core/StructureDefinition/us-core-race","extension":[{"url":"ombCategory","valueCoding":{"system":"urn:oid:2.16.840.1.113883.6.238","code":"2028-9","display":"Asian"}},{"url":"text","valueString":"Asian"}]},{"url":"http://hl7.org/fhir/us/core/StructureDefinition/us-core-ethnicity","extension":[{"url":"ombCategory","valueCoding":{"system":"urn:oid:2.16.840.1.113883.6.238","code":"2135-2","display":"Hispanic or Latino"}},{"url":"text","valueString":"Hispanic or Latino"}]}],"identifier":[{"system":"http://hospital.smarthealthit.org","value":"999999995"}],"name":[{"family":"DENEXFail","given":["AdvIllnessDxBefore2Yrs"]}],"gender":"female","birthDate":"1959-12-31"},"request":{"method":"PUT","url":"Patient/598f05e7-83b4-4609-9795-e9ac75f57f36"}},{"fullUrl":"https://madie.cms.gov/Encounter/6c7a3891-0ea5-4ff3-9ec4-63f785bae5ca","resource":{"resourceType":"Encounter","id":"6c7a3891-0ea5-4ff3-9ec4-63f785bae5ca","meta":{"profile":["http://hl7.org/fhir/us/qicore/StructureDefinition/qicore-encounter"]},"status":"finished","class":{"system":"http://terminology.hl7.org/CodeSystem/v3-ActCode","code":"AMB","display":"ambulatory"},"type":[{"coding":[{"system":"http://snomed.info/sct","code":"3391000175108","display":"Office visit for pediatric care and assessment (procedure)"}]}],"subject":{"reference":"Patient/598f05e7-83b4-4609-9795-e9ac75f57f36"},"period":{"start":"2026-01-01T00:00:00.000+00:00","end":"2026-01-01T01:00:00.000+00:00"}},"request":{"method":"PUT","url":"Encounter/6c7a3891-0ea5-4ff3-9ec4-63f785bae5ca"}},{"fullUrl":"https://madie.cms.gov/Condition/9315f6cc-bcd1-47de-93d3-7db5e0fbe8d9","resource":{"resourceType":"Condition","id":"9315f6cc-bcd1-47de-93d3-7db5e0fbe8d9","meta":{"profile":["http://hl7.org/fhir/us/qicore/StructureDefinition/qicore-condition-problems-health-concerns"]},"clinicalStatus":{"coding":[{"system":"http://terminology.hl7.org/CodeSystem/condition-clinical","code":"active"}]},"category":[{"coding":[{"system":"http://terminology.hl7.org/CodeSystem/condition-category","code":"problem-list-item","display":"Problem List Item"}]}],"code":{"coding":[{"system":"http://snomed.info/sct","code":"371125006","display":"Labile essential hypertension (disorder)"}]},"subject":{"reference":"Patient/598f05e7-83b4-4609-9795-e9ac75f57f36"},"onsetDateTime":"2026-06-30T23:59:59.000+00:00"},"request":{"method":"PUT","url":"Condition/9315f6cc-bcd1-47de-93d3-7db5e0fbe8d9"}},{"fullUrl":"https://madie.cms.gov/Condition/a668e997-0250-47c1-903c-0d941380dcd4","resource":{"resourceType":"Condition","id":"a668e997-0250-47c1-903c-0d941380dcd4","meta":{"profile":["http://hl7.org/fhir/us/qicore/StructureDefinition/qicore-condition-problems-health-concerns"]},"clinicalStatus":{"coding":[{"system":"http://terminology.hl7.org/CodeSystem/condition-clinical","code":"active"}]},"category":[{"coding":[{"system":"http://terminology.hl7.org/CodeSystem/condition-category","code":"problem-list-item","display":"Problem List Item"}]}],"code":{"coding":[{"system":"http://snomed.info/sct","code":"101421000119107","display":"Dementia due to Parkinson's disease (disorder)"}]},"subject":{"reference":"Patient/598f05e7-83b4-4609-9795-e9ac75f57f36"},"onsetDateTime":"2024-12-31T23:59:59.000+00:00"},"request":{"method":"PUT","url":"Condition/a668e997-0250-47c1-903c-0d941380dcd4"}},{"fullUrl":"https://madie.cms.gov/Encounter/61490ae4-bbe6-4444-b722-93596941138f","resource":{"resourceType":"Encounter","id":"61490ae4-bbe6-4444-b722-93596941138f","meta":{"profile":["http://hl7.org/fhir/us/qicore/StructureDefinition/qicore-encounter"]},"status":"finished","class":{"system":"http://terminology.hl7.org/CodeSystem/v3-ActCode","code":"AMB","display":"ambulatory"},"type":[{"coding":[{"system":"http://snomed.info/sct","code":"183450002","display":"Admission to burn unit (procedure)"}]}],"subject":{"reference":"Patient/598f05e7-83b4-4609-9795-e9ac75f57f36"},"period":{"start":"2026-05-01T00:00:00.000+00:00","end":"2026-05-01T01:00:00.000+00:00"},"diagnosis":[{"condition":{"reference":"Condition/a668e997-0250-47c1-903c-0d941380dcd4"}}]},"request":{"method":"PUT","url":"Encounter/61490ae4-bbe6-4444-b722-93596941138f"}},{"fullUrl":"https://madie.cms.gov/DeviceRequest/3b9c048d-d6a5-4fbf-86b8-b6062667e2ce","resource":{"resourceType":"DeviceRequest","id":"3b9c048d-d6a5-4fbf-86b8-b6062667e2ce","meta":{"profile":["http://hl7.org/fhir/us/qicore/StructureDefinition/qicore-devicerequest"]},"modifierExtension":[{"url":"http://hl7.org/fhir/5.0/StructureDefinition/extension-DeviceRequest.doNotPerform","valueBoolean":false}],"status":"completed","intent":"order","codeCodeableConcept":{"coding":[{"system":"http://snomed.info/sct","code":"183240000","display":"Self-propelled wheelchair (physical object)"}]},"subject":{"reference":"Patient/598f05e7-83b4-4609-9795-e9ac75f57f36"},"authoredOn":"2026-11-01T23:59:00.000+00:00"},"request":{"method":"PUT","url":"DeviceRequest/3b9c048d-d6a5-4fbf-86b8-b6062667e2ce"}},{"fullUrl":"https://madie.cms.gov/MeasureReport/13537f82-849e-450e-a777-cfaf39b5ca44","resource":{"resourceType":"MeasureReport","id":"13537f82-849e-450e-a777-cfaf39b5ca44","meta":{"profile":["http://hl7.org/fhir/us/cqfmeasures/StructureDefinition/test-case-cqfm"]},"contained":[{"resourceType":"Parameters","id":"e0469539-97f3-4f54-bed0-eca2bfd92747-parameters","parameter":[{"name":"subject","valueString":"598f05e7-83b4-4609-9795-e9ac75f57f36"}]}],"extension":[{"url":"http://hl7.org/fhir/StructureDefinition/cqf-inputParameters","valueReference":{"reference":"#e0469539-97f3-4f54-bed0-eca2bfd92747-parameters"}},{"url":"http://hl7.org/fhir/us/cqfmeasures/StructureDefinition/cqfm-testCaseDescription","valueMarkdown":"Advanced illness diagnosis before 2 years"}],"modifierExtension":[{"url":"http://hl7.org/fhir/us/cqfmeasures/StructureDefinition/cqfm-isTestCase","valueBoolean":true}],"status":"complete","type":"individual","measure":"https://madie.cms.gov/Measure/CMS165FHIRControllingHighBloodPressure","period":{"start":"2026-01-01","end":"2026-12-31"},"group":[{"id":"Group_1","population":[{"id":"InitialPopulation_1","code":{"coding":[{"system":"http://terminology.hl7.org/CodeSystem/measure-population","code":"initial-population","display":"Initial Population"}]},"count":1},{"id":"Denominator_1","code":{"coding":[{"system":"http://terminology.hl7.org/CodeSystem/measure-population","code":"denominator","display":"Denominator"}]},"count":1},{"id":"DenominatorExclusion_1","code":{"coding":[{"system":"http://terminology.hl7.org/CodeSystem/measure-population","code":"denominator-exclusion","display":"Denominator Exclusion"}]},"count":0},{"id":"Numerator_1","code":{"coding":[{"system":"http://terminology.hl7.org/CodeSystem/measure-population","code":"numerator","display":"Numerator"}]},"count":0}],"measureScore":{"value":1.0}}],"evaluatedResource":[{"reference":"Patient/598f05e7-83b4-4609-9795-e9ac75f57f36"},{"reference":"Encounter/6c7a3891-0ea5-4ff3-9ec4-63f785bae5ca"},{"reference":"Condition/9315f6cc-bcd1-47de-93d3-7db5e0fbe8d9"},{"reference":"Condition/a668e997-0250-47c1-903c-0d941380dcd4"},{"reference":"Encounter/61490ae4-bbe6-4444-b722-93596941138f"},{"reference":"DeviceRequest/3b9c048d-d6a5-4fbf-86b8-b6062667e2ce"}]},"request":{"method":"PUT","url":"MeasureReport/13537f82-849e-450e-a777-cfaf39b5ca44"}}]},"request":{"method":"PUT","url":"Bundle/DENEXFail-AdvIllnessDxBefore2Yrs"}},{"fullUrl":"MeasureReport/13537f82-849e-450e-a777-cfaf39b5ca44","resource":{"resourceType":"MeasureReport","id":"13537f82-849e-450e-a777-cfaf39b5ca44","meta":{"profile":["http://hl7.org/fhir/us/cqfmeasures/StructureDefinition/test-case-cqfm"]},"contained":[{"resourceType":"Parameters","id":"e0469539-97f3-4f54-bed0-eca2bfd92747-parameters","parameter":[{"name":"subject","valueString":"598f05e7-83b4-4609-9795-e9ac75f57f36"}]}],"extension":[{"url":"http://hl7.org/fhir/StructureDefinition/cqf-inputParameters","valueReference":{"reference":"#e0469539-97f3-4f54-bed0-eca2bfd92747-parameters"}},{"url":"http://hl7.org/fhir/us/cqfmeasures/StructureDefinition/cqfm-testCaseDescription","valueMarkdown":"Advanced illness diagnosis before 2 years"}],"modifierExtension":[{"url":"http://hl7.org/fhir/us/cqfmeasures/StructureDefinition/cqfm-isTestCase","valueBoolean":true}],"status":"complete","type":"individual","measure":"https://madie.cms.gov/Measure/CMS165FHIRControllingHighBloodPressure","period":{"start":"2026-01-01","end":"2026-12-31"},"group":[{"id":"Group_1","population":[{"id":"InitialPopulation_1","code":{"coding":[{"system":"http://terminology.hl7.org/CodeSystem/measure-population","code":"initial-population","display":"Initial Population"}]},"count":1},{"id":"Denominator_1","code":{"coding":[{"system":"http://terminology.hl7.org/CodeSystem/measure-population","code":"denominator","display":"Denominator"}]},"count":1},{"id":"DenominatorExclusion_1","code":{"coding":[{"system":"http://terminology.hl7.org/CodeSystem/measure-population","code":"denominator-exclusion","display":"Denominator Exclusion"}]},"count":0},{"id":"Numerator_1","code":{"coding":[{"system":"http://terminology.hl7.org/CodeSystem/measure-population","code":"numerator","display":"Numerator"}]},"count":0}],"measureScore":{"value":1.0}}],"evaluatedResource":[{"reference":"Patient/598f05e7-83b4-4609-9795-e9ac75f57f36"},{"reference":"Encounter/6c7a3891-0ea5-4ff3-9ec4-63f785bae5ca"},{"reference":"Condition/9315f6cc-bcd1-47de-93d3-7db5e0fbe8d9"},{"reference":"Condition/a668e997-0250-47c1-903c-0d941380dcd4"},{"reference":"Encounter/61490ae4-bbe6-4444-b722-93596941138f"},{"reference":"DeviceRequest/3b9c048d-d6a5-4fbf-86b8-b6062667e2ce"}]},"request":{"method":"PUT","url":"MeasureReport/13537f82-849e-450e-a777-cfaf39b5ca44"}},{"fullUrl":"Encounter/61490ae4-bbe6-4444-b722-93596941138f","resource":{"resourceType":"Encounter","id":"61490ae4-bbe6-4444-b722-93596941138f","meta":{"profile":["http://hl7.org/fhir/us/qicore/StructureDefinition/qicore-encounter"]},"status":"finished","class":{"system":"http://terminology.hl7.org/CodeSystem/v3-ActCode","code":"AMB","display":"ambulatory"},"type":[{"coding":[{"system":"http://snomed.info/sct","code":"183450002","display":"Admission to burn unit (procedure)"}]}],"subject":{"reference":"Patient/598f05e7-83b4-4609-9795-e9ac75f57f36"},"period":{"start":"2026-05-01T00:00:00.000+00:00","end":"2026-05-01T01:00:00.000+00:00"},"diagnosis":[{"condition":{"reference":"Condition/a668e997-0250-47c1-903c-0d941380dcd4"}}]},"request":{"method":"PUT","url":"Encounter/61490ae4-bbe6-4444-b722-93596941138f"}}]}