{"resourceType":"Bundle","id":"tests-85ae5a03-576b-4a32-93af-d1a241987a77-bundle","type":"transaction","entry":[{"fullUrl":"Encounter/4a0c872c-f7ad-41d2-9aa9-1a45c89e9530","resource":{"resourceType":"Encounter","id":"4a0c872c-f7ad-41d2-9aa9-1a45c89e9530","meta":{"profile":["http://hl7.org/fhir/us/qicore/StructureDefinition/qicore-encounter"]},"status":"finished","class":{"system":"http://terminology.hl7.org/CodeSystem/v3-ActCode","code":"AMB","display":"ambulatory"},"type":[{"coding":[{"system":"http://snomed.info/sct","code":"3391000175108","display":"Office visit for pediatric care and assessment (procedure)"}]}],"subject":{"reference":"Patient/85ae5a03-576b-4a32-93af-d1a241987a77"},"period":{"start":"2026-01-01T00:00:00.000+00:00","end":"2026-01-01T01:00:00.000+00:00"}},"request":{"method":"PUT","url":"Encounter/4a0c872c-f7ad-41d2-9aa9-1a45c89e9530"}},{"fullUrl":"MeasureReport/03ca8f3a-e308-49b3-aa9f-ab7f57c18eb5","resource":{"resourceType":"MeasureReport","id":"03ca8f3a-e308-49b3-aa9f-ab7f57c18eb5","meta":{"profile":["http://hl7.org/fhir/us/cqfmeasures/StructureDefinition/test-case-cqfm"]},"contained":[{"resourceType":"Parameters","id":"7b3a0269-8309-4d3a-af82-28dc7c75351b-parameters","parameter":[{"name":"subject","valueString":"85ae5a03-576b-4a32-93af-d1a241987a77"}]}],"extension":[{"url":"http://hl7.org/fhir/StructureDefinition/cqf-inputParameters","valueReference":{"reference":"#7b3a0269-8309-4d3a-af82-28dc7c75351b-parameters"}},{"url":"http://hl7.org/fhir/us/cqfmeasures/StructureDefinition/cqfm-testCaseDescription","valueMarkdown":"ESRD diagnosis during MP - ConditionEncounterDiagnosis"}],"modifierExtension":[{"url":"http://hl7.org/fhir/us/cqfmeasures/StructureDefinition/cqfm-isTestCase","valueBoolean":true}],"status":"complete","type":"individual","measure":"https://madie.cms.gov/Measure/CMS165FHIRControllingHighBloodPressure","period":{"start":"2026-01-01","end":"2026-12-31"},"group":[{"id":"Group_1","population":[{"id":"InitialPopulation_1","code":{"coding":[{"system":"http://terminology.hl7.org/CodeSystem/measure-population","code":"initial-population","display":"Initial Population"}]},"count":1},{"id":"Denominator_1","code":{"coding":[{"system":"http://terminology.hl7.org/CodeSystem/measure-population","code":"denominator","display":"Denominator"}]},"count":1},{"id":"DenominatorExclusion_1","code":{"coding":[{"system":"http://terminology.hl7.org/CodeSystem/measure-population","code":"denominator-exclusion","display":"Denominator Exclusion"}]},"count":1},{"id":"Numerator_1","code":{"coding":[{"system":"http://terminology.hl7.org/CodeSystem/measure-population","code":"numerator","display":"Numerator"}]},"count":0}],"measureScore":{"value":1.0}}],"evaluatedResource":[{"reference":"Patient/85ae5a03-576b-4a32-93af-d1a241987a77"},{"reference":"Encounter/4a0c872c-f7ad-41d2-9aa9-1a45c89e9530"},{"reference":"Condition/815c6ccb-f2cb-47f5-825c-48c08ec9a610"},{"reference":"Condition/2b2b9964-ce2f-4443-9580-55d5a196fe80"}]},"request":{"method":"PUT","url":"MeasureReport/03ca8f3a-e308-49b3-aa9f-ab7f57c18eb5"}},{"fullUrl":"Bundle/DENEXPass-ESRDDxDuringMP","resource":{"resourceType":"Bundle","id":"DENEXPass-ESRDDxDuringMP","type":"transaction","entry":[{"fullUrl":"https://madie.cms.gov/Patient/85ae5a03-576b-4a32-93af-d1a241987a77","resource":{"resourceType":"Patient","id":"85ae5a03-576b-4a32-93af-d1a241987a77","meta":{"profile":["http://hl7.org/fhir/us/qicore/StructureDefinition/qicore-patient"]},"extension":[{"url":"http://hl7.org/fhir/us/core/StructureDefinition/us-core-race","extension":[{"url":"ombCategory","valueCoding":{"system":"urn:oid:2.16.840.1.113883.6.238","code":"2028-9","display":"Asian"}},{"url":"text","valueString":"Asian"}]},{"url":"http://hl7.org/fhir/us/core/StructureDefinition/us-core-ethnicity","extension":[{"url":"ombCategory","valueCoding":{"system":"urn:oid:2.16.840.1.113883.6.238","code":"2135-2","display":"Hispanic or Latino"}},{"url":"text","valueString":"Hispanic or Latino"}]}],"identifier":[{"system":"http://hospital.smarthealthit.org","value":"999999995"}],"name":[{"family":"DENEXPass","given":["ESRDDxDuringMP"]}],"gender":"female","birthDate":"2007-12-31"},"request":{"method":"PUT","url":"Patient/85ae5a03-576b-4a32-93af-d1a241987a77"}},{"fullUrl":"https://madie.cms.gov/Encounter/4a0c872c-f7ad-41d2-9aa9-1a45c89e9530","resource":{"resourceType":"Encounter","id":"4a0c872c-f7ad-41d2-9aa9-1a45c89e9530","meta":{"profile":["http://hl7.org/fhir/us/qicore/StructureDefinition/qicore-encounter"]},"status":"finished","class":{"system":"http://terminology.hl7.org/CodeSystem/v3-ActCode","code":"AMB","display":"ambulatory"},"type":[{"coding":[{"system":"http://snomed.info/sct","code":"3391000175108","display":"Office visit for pediatric care and assessment (procedure)"}]}],"subject":{"reference":"Patient/85ae5a03-576b-4a32-93af-d1a241987a77"},"period":{"start":"2026-01-01T00:00:00.000+00:00","end":"2026-01-01T01:00:00.000+00:00"}},"request":{"method":"PUT","url":"Encounter/4a0c872c-f7ad-41d2-9aa9-1a45c89e9530"}},{"fullUrl":"https://madie.cms.gov/Condition/815c6ccb-f2cb-47f5-825c-48c08ec9a610","resource":{"resourceType":"Condition","id":"815c6ccb-f2cb-47f5-825c-48c08ec9a610","meta":{"profile":["http://hl7.org/fhir/us/qicore/StructureDefinition/qicore-condition-problems-health-concerns"]},"clinicalStatus":{"coding":[{"system":"http://terminology.hl7.org/CodeSystem/condition-clinical","code":"active"}]},"category":[{"coding":[{"system":"http://terminology.hl7.org/CodeSystem/condition-category","code":"problem-list-item","display":"Problem List Item"}]}],"code":{"coding":[{"system":"http://snomed.info/sct","code":"371125006","display":"Labile essential hypertension (disorder)"}]},"subject":{"reference":"Patient/85ae5a03-576b-4a32-93af-d1a241987a77"},"onsetDateTime":"2026-06-29T23:59:59.000+00:00"},"request":{"method":"PUT","url":"Condition/815c6ccb-f2cb-47f5-825c-48c08ec9a610"}},{"fullUrl":"https://madie.cms.gov/Condition/2b2b9964-ce2f-4443-9580-55d5a196fe80","resource":{"resourceType":"Condition","id":"2b2b9964-ce2f-4443-9580-55d5a196fe80","meta":{"profile":["http://hl7.org/fhir/us/qicore/StructureDefinition/qicore-condition-encounter-diagnosis"]},"clinicalStatus":{"coding":[{"system":"http://terminology.hl7.org/CodeSystem/condition-clinical","code":"active"}]},"category":[{"coding":[{"system":"http://terminology.hl7.org/CodeSystem/condition-category","code":"encounter-diagnosis","display":"Encounter Diagnosis"}]}],"code":{"coding":[{"system":"http://hl7.org/fhir/sid/icd-10-cm","code":"N18.6","display":"End stage renal disease"}]},"subject":{"reference":"Patient/85ae5a03-576b-4a32-93af-d1a241987a77"},"onsetDateTime":"2026-06-30T23:59:59.000+00:00"},"request":{"method":"PUT","url":"Condition/2b2b9964-ce2f-4443-9580-55d5a196fe80"}},{"fullUrl":"https://madie.cms.gov/MeasureReport/03ca8f3a-e308-49b3-aa9f-ab7f57c18eb5","resource":{"resourceType":"MeasureReport","id":"03ca8f3a-e308-49b3-aa9f-ab7f57c18eb5","meta":{"profile":["http://hl7.org/fhir/us/cqfmeasures/StructureDefinition/test-case-cqfm"]},"contained":[{"resourceType":"Parameters","id":"7b3a0269-8309-4d3a-af82-28dc7c75351b-parameters","parameter":[{"name":"subject","valueString":"85ae5a03-576b-4a32-93af-d1a241987a77"}]}],"extension":[{"url":"http://hl7.org/fhir/StructureDefinition/cqf-inputParameters","valueReference":{"reference":"#7b3a0269-8309-4d3a-af82-28dc7c75351b-parameters"}},{"url":"http://hl7.org/fhir/us/cqfmeasures/StructureDefinition/cqfm-testCaseDescription","valueMarkdown":"ESRD diagnosis during MP - ConditionEncounterDiagnosis"}],"modifierExtension":[{"url":"http://hl7.org/fhir/us/cqfmeasures/StructureDefinition/cqfm-isTestCase","valueBoolean":true}],"status":"complete","type":"individual","measure":"https://madie.cms.gov/Measure/CMS165FHIRControllingHighBloodPressure","period":{"start":"2026-01-01","end":"2026-12-31"},"group":[{"id":"Group_1","population":[{"id":"InitialPopulation_1","code":{"coding":[{"system":"http://terminology.hl7.org/CodeSystem/measure-population","code":"initial-population","display":"Initial Population"}]},"count":1},{"id":"Denominator_1","code":{"coding":[{"system":"http://terminology.hl7.org/CodeSystem/measure-population","code":"denominator","display":"Denominator"}]},"count":1},{"id":"DenominatorExclusion_1","code":{"coding":[{"system":"http://terminology.hl7.org/CodeSystem/measure-population","code":"denominator-exclusion","display":"Denominator Exclusion"}]},"count":1},{"id":"Numerator_1","code":{"coding":[{"system":"http://terminology.hl7.org/CodeSystem/measure-population","code":"numerator","display":"Numerator"}]},"count":0}],"measureScore":{"value":1.0}}],"evaluatedResource":[{"reference":"Patient/85ae5a03-576b-4a32-93af-d1a241987a77"},{"reference":"Encounter/4a0c872c-f7ad-41d2-9aa9-1a45c89e9530"},{"reference":"Condition/815c6ccb-f2cb-47f5-825c-48c08ec9a610"},{"reference":"Condition/2b2b9964-ce2f-4443-9580-55d5a196fe80"}]},"request":{"method":"PUT","url":"MeasureReport/03ca8f3a-e308-49b3-aa9f-ab7f57c18eb5"}}]},"request":{"method":"PUT","url":"Bundle/DENEXPass-ESRDDxDuringMP"}},{"fullUrl":"Condition/815c6ccb-f2cb-47f5-825c-48c08ec9a610","resource":{"resourceType":"Condition","id":"815c6ccb-f2cb-47f5-825c-48c08ec9a610","meta":{"profile":["http://hl7.org/fhir/us/qicore/StructureDefinition/qicore-condition-problems-health-concerns"]},"clinicalStatus":{"coding":[{"system":"http://terminology.hl7.org/CodeSystem/condition-clinical","code":"active"}]},"category":[{"coding":[{"system":"http://terminology.hl7.org/CodeSystem/condition-category","code":"problem-list-item","display":"Problem List Item"}]}],"code":{"coding":[{"system":"http://snomed.info/sct","code":"371125006","display":"Labile essential hypertension (disorder)"}]},"subject":{"reference":"Patient/85ae5a03-576b-4a32-93af-d1a241987a77"},"onsetDateTime":"2026-06-29T23:59:59.000+00:00"},"request":{"method":"PUT","url":"Condition/815c6ccb-f2cb-47f5-825c-48c08ec9a610"}},{"fullUrl":"Patient/85ae5a03-576b-4a32-93af-d1a241987a77","resource":{"resourceType":"Patient","id":"85ae5a03-576b-4a32-93af-d1a241987a77","meta":{"profile":["http://hl7.org/fhir/us/qicore/StructureDefinition/qicore-patient"]},"extension":[{"url":"http://hl7.org/fhir/us/core/StructureDefinition/us-core-race","extension":[{"url":"ombCategory","valueCoding":{"system":"urn:oid:2.16.840.1.113883.6.238","code":"2028-9","display":"Asian"}},{"url":"text","valueString":"Asian"}]},{"url":"http://hl7.org/fhir/us/core/StructureDefinition/us-core-ethnicity","extension":[{"url":"ombCategory","valueCoding":{"system":"urn:oid:2.16.840.1.113883.6.238","code":"2135-2","display":"Hispanic or Latino"}},{"url":"text","valueString":"Hispanic or Latino"}]}],"identifier":[{"system":"http://hospital.smarthealthit.org","value":"999999995"}],"name":[{"family":"DENEXPass","given":["ESRDDxDuringMP"]}],"gender":"female","birthDate":"2007-12-31"},"request":{"method":"PUT","url":"Patient/85ae5a03-576b-4a32-93af-d1a241987a77"}},{"fullUrl":"Condition/2b2b9964-ce2f-4443-9580-55d5a196fe80","resource":{"resourceType":"Condition","id":"2b2b9964-ce2f-4443-9580-55d5a196fe80","meta":{"profile":["http://hl7.org/fhir/us/qicore/StructureDefinition/qicore-condition-encounter-diagnosis"]},"clinicalStatus":{"coding":[{"system":"http://terminology.hl7.org/CodeSystem/condition-clinical","code":"active"}]},"category":[{"coding":[{"system":"http://terminology.hl7.org/CodeSystem/condition-category","code":"encounter-diagnosis","display":"Encounter Diagnosis"}]}],"code":{"coding":[{"system":"http://hl7.org/fhir/sid/icd-10-cm","code":"N18.6","display":"End stage renal disease"}]},"subject":{"reference":"Patient/85ae5a03-576b-4a32-93af-d1a241987a77"},"onsetDateTime":"2026-06-30T23:59:59.000+00:00"},"request":{"method":"PUT","url":"Condition/2b2b9964-ce2f-4443-9580-55d5a196fe80"}}]}