{"resourceType":"Bundle","id":"tests-d513ed00-6ea1-4522-ae7c-c3bc29082e92-bundle","type":"transaction","entry":[{"fullUrl":"Encounter/0f8059f9-2e73-43cc-b3aa-28fd8cf9b605","resource":{"resourceType":"Encounter","id":"0f8059f9-2e73-43cc-b3aa-28fd8cf9b605","meta":{"profile":["http://hl7.org/fhir/us/qicore/StructureDefinition/qicore-encounter"]},"status":"finished","class":{"system":"http://terminology.hl7.org/CodeSystem/v3-ActCode","code":"AMB","display":"ambulatory"},"type":[{"coding":[{"system":"http://snomed.info/sct","code":"3391000175108","display":"Office visit for pediatric care and assessment (procedure)"}]}],"subject":{"reference":"Patient/d513ed00-6ea1-4522-ae7c-c3bc29082e92"},"period":{"start":"2026-01-01T00:00:00.000+00:00","end":"2026-01-01T01:00:00.000+00:00"}},"request":{"method":"PUT","url":"Encounter/0f8059f9-2e73-43cc-b3aa-28fd8cf9b605"}},{"fullUrl":"Bundle/DENEXFail-PalliativeCareDiagnosisStartsAfterMP","resource":{"resourceType":"Bundle","id":"DENEXFail-PalliativeCareDiagnosisStartsAfterMP","type":"transaction","entry":[{"fullUrl":"https://madie.cms.gov/Patient/d513ed00-6ea1-4522-ae7c-c3bc29082e92","resource":{"resourceType":"Patient","id":"d513ed00-6ea1-4522-ae7c-c3bc29082e92","meta":{"profile":["http://hl7.org/fhir/us/qicore/StructureDefinition/qicore-patient"]},"extension":[{"url":"http://hl7.org/fhir/us/core/StructureDefinition/us-core-race","extension":[{"url":"ombCategory","valueCoding":{"system":"urn:oid:2.16.840.1.113883.6.238","code":"2028-9","display":"Asian"}},{"url":"text","valueString":"Asian"}]},{"url":"http://hl7.org/fhir/us/core/StructureDefinition/us-core-ethnicity","extension":[{"url":"ombCategory","valueCoding":{"system":"urn:oid:2.16.840.1.113883.6.238","code":"2135-2","display":"Hispanic or Latino"}},{"url":"text","valueString":"Hispanic or Latino"}]}],"identifier":[{"system":"http://hospital.smarthealthit.org","value":"999999995"}],"name":[{"family":"DENEXFail","given":["PalliativeCareDiagnosisStartsAfterMP"]}],"gender":"female","birthDate":"2007-12-31"},"request":{"method":"PUT","url":"Patient/d513ed00-6ea1-4522-ae7c-c3bc29082e92"}},{"fullUrl":"https://madie.cms.gov/Encounter/0f8059f9-2e73-43cc-b3aa-28fd8cf9b605","resource":{"resourceType":"Encounter","id":"0f8059f9-2e73-43cc-b3aa-28fd8cf9b605","meta":{"profile":["http://hl7.org/fhir/us/qicore/StructureDefinition/qicore-encounter"]},"status":"finished","class":{"system":"http://terminology.hl7.org/CodeSystem/v3-ActCode","code":"AMB","display":"ambulatory"},"type":[{"coding":[{"system":"http://snomed.info/sct","code":"3391000175108","display":"Office visit for pediatric care and assessment (procedure)"}]}],"subject":{"reference":"Patient/d513ed00-6ea1-4522-ae7c-c3bc29082e92"},"period":{"start":"2026-01-01T00:00:00.000+00:00","end":"2026-01-01T01:00:00.000+00:00"}},"request":{"method":"PUT","url":"Encounter/0f8059f9-2e73-43cc-b3aa-28fd8cf9b605"}},{"fullUrl":"https://madie.cms.gov/Condition/3598bf32-0af2-4cf1-bb5f-449139da88a8","resource":{"resourceType":"Condition","id":"3598bf32-0af2-4cf1-bb5f-449139da88a8","meta":{"profile":["http://hl7.org/fhir/us/qicore/StructureDefinition/qicore-condition-problems-health-concerns"]},"clinicalStatus":{"coding":[{"system":"http://terminology.hl7.org/CodeSystem/condition-clinical","code":"active"}]},"category":[{"coding":[{"system":"http://terminology.hl7.org/CodeSystem/condition-category","code":"problem-list-item","display":"Problem List Item"}]}],"code":{"coding":[{"system":"http://snomed.info/sct","code":"371125006","display":"Labile essential hypertension (disorder)"}]},"subject":{"reference":"Patient/d513ed00-6ea1-4522-ae7c-c3bc29082e92"},"onsetDateTime":"2026-06-30T23:59:59.000+00:00"},"request":{"method":"PUT","url":"Condition/3598bf32-0af2-4cf1-bb5f-449139da88a8"}},{"fullUrl":"https://madie.cms.gov/Condition/f90437ca-60e2-41d9-ab9e-0cc24253ea1b","resource":{"resourceType":"Condition","id":"f90437ca-60e2-41d9-ab9e-0cc24253ea1b","meta":{"profile":["http://hl7.org/fhir/us/qicore/StructureDefinition/qicore-condition-problems-health-concerns"]},"clinicalStatus":{"coding":[{"system":"http://terminology.hl7.org/CodeSystem/condition-clinical","code":"active"}]},"category":[{"coding":[{"system":"http://terminology.hl7.org/CodeSystem/condition-category","code":"problem-list-item","display":"Problem List Item"}]}],"code":{"coding":[{"system":"http://snomed.info/sct","code":"441874000","display":"Seen by palliative care service (finding)"}]},"subject":{"reference":"Patient/d513ed00-6ea1-4522-ae7c-c3bc29082e92"},"onsetDateTime":"2027-01-01T00:00:00.000+00:00"},"request":{"method":"PUT","url":"Condition/f90437ca-60e2-41d9-ab9e-0cc24253ea1b"}},{"fullUrl":"https://madie.cms.gov/MeasureReport/619a6e71-a283-4946-9c90-c18962cd5798","resource":{"resourceType":"MeasureReport","id":"619a6e71-a283-4946-9c90-c18962cd5798","meta":{"profile":["http://hl7.org/fhir/us/cqfmeasures/StructureDefinition/test-case-cqfm"]},"contained":[{"resourceType":"Parameters","id":"ac794464-2f5f-4440-8076-089c0265b028-parameters","parameter":[{"name":"subject","valueString":"d513ed00-6ea1-4522-ae7c-c3bc29082e92"}]}],"extension":[{"url":"http://hl7.org/fhir/StructureDefinition/cqf-inputParameters","valueReference":{"reference":"#ac794464-2f5f-4440-8076-089c0265b028-parameters"}},{"url":"http://hl7.org/fhir/us/cqfmeasures/StructureDefinition/cqfm-testCaseDescription","valueMarkdown":"Palliative care diagnosis starts after MP"}],"modifierExtension":[{"url":"http://hl7.org/fhir/us/cqfmeasures/StructureDefinition/cqfm-isTestCase","valueBoolean":true}],"status":"complete","type":"individual","measure":"https://madie.cms.gov/Measure/CMS165FHIRControllingHighBloodPressure","period":{"start":"2026-01-01","end":"2026-12-31"},"group":[{"id":"Group_1","population":[{"id":"InitialPopulation_1","code":{"coding":[{"system":"http://terminology.hl7.org/CodeSystem/measure-population","code":"initial-population","display":"Initial Population"}]},"count":1},{"id":"Denominator_1","code":{"coding":[{"system":"http://terminology.hl7.org/CodeSystem/measure-population","code":"denominator","display":"Denominator"}]},"count":1},{"id":"DenominatorExclusion_1","code":{"coding":[{"system":"http://terminology.hl7.org/CodeSystem/measure-population","code":"denominator-exclusion","display":"Denominator Exclusion"}]},"count":0},{"id":"Numerator_1","code":{"coding":[{"system":"http://terminology.hl7.org/CodeSystem/measure-population","code":"numerator","display":"Numerator"}]},"count":0}],"measureScore":{"value":1.0}}],"evaluatedResource":[{"reference":"Patient/d513ed00-6ea1-4522-ae7c-c3bc29082e92"},{"reference":"Encounter/0f8059f9-2e73-43cc-b3aa-28fd8cf9b605"},{"reference":"Condition/3598bf32-0af2-4cf1-bb5f-449139da88a8"},{"reference":"Condition/f90437ca-60e2-41d9-ab9e-0cc24253ea1b"}]},"request":{"method":"PUT","url":"MeasureReport/619a6e71-a283-4946-9c90-c18962cd5798"}}]},"request":{"method":"PUT","url":"Bundle/DENEXFail-PalliativeCareDiagnosisStartsAfterMP"}},{"fullUrl":"Condition/3598bf32-0af2-4cf1-bb5f-449139da88a8","resource":{"resourceType":"Condition","id":"3598bf32-0af2-4cf1-bb5f-449139da88a8","meta":{"profile":["http://hl7.org/fhir/us/qicore/StructureDefinition/qicore-condition-problems-health-concerns"]},"clinicalStatus":{"coding":[{"system":"http://terminology.hl7.org/CodeSystem/condition-clinical","code":"active"}]},"category":[{"coding":[{"system":"http://terminology.hl7.org/CodeSystem/condition-category","code":"problem-list-item","display":"Problem List Item"}]}],"code":{"coding":[{"system":"http://snomed.info/sct","code":"371125006","display":"Labile essential hypertension (disorder)"}]},"subject":{"reference":"Patient/d513ed00-6ea1-4522-ae7c-c3bc29082e92"},"onsetDateTime":"2026-06-30T23:59:59.000+00:00"},"request":{"method":"PUT","url":"Condition/3598bf32-0af2-4cf1-bb5f-449139da88a8"}},{"fullUrl":"Patient/d513ed00-6ea1-4522-ae7c-c3bc29082e92","resource":{"resourceType":"Patient","id":"d513ed00-6ea1-4522-ae7c-c3bc29082e92","meta":{"profile":["http://hl7.org/fhir/us/qicore/StructureDefinition/qicore-patient"]},"extension":[{"url":"http://hl7.org/fhir/us/core/StructureDefinition/us-core-race","extension":[{"url":"ombCategory","valueCoding":{"system":"urn:oid:2.16.840.1.113883.6.238","code":"2028-9","display":"Asian"}},{"url":"text","valueString":"Asian"}]},{"url":"http://hl7.org/fhir/us/core/StructureDefinition/us-core-ethnicity","extension":[{"url":"ombCategory","valueCoding":{"system":"urn:oid:2.16.840.1.113883.6.238","code":"2135-2","display":"Hispanic or Latino"}},{"url":"text","valueString":"Hispanic or Latino"}]}],"identifier":[{"system":"http://hospital.smarthealthit.org","value":"999999995"}],"name":[{"family":"DENEXFail","given":["PalliativeCareDiagnosisStartsAfterMP"]}],"gender":"female","birthDate":"2007-12-31"},"request":{"method":"PUT","url":"Patient/d513ed00-6ea1-4522-ae7c-c3bc29082e92"}},{"fullUrl":"Condition/f90437ca-60e2-41d9-ab9e-0cc24253ea1b","resource":{"resourceType":"Condition","id":"f90437ca-60e2-41d9-ab9e-0cc24253ea1b","meta":{"profile":["http://hl7.org/fhir/us/qicore/StructureDefinition/qicore-condition-problems-health-concerns"]},"clinicalStatus":{"coding":[{"system":"http://terminology.hl7.org/CodeSystem/condition-clinical","code":"active"}]},"category":[{"coding":[{"system":"http://terminology.hl7.org/CodeSystem/condition-category","code":"problem-list-item","display":"Problem List Item"}]}],"code":{"coding":[{"system":"http://snomed.info/sct","code":"441874000","display":"Seen by palliative care service (finding)"}]},"subject":{"reference":"Patient/d513ed00-6ea1-4522-ae7c-c3bc29082e92"},"onsetDateTime":"2027-01-01T00:00:00.000+00:00"},"request":{"method":"PUT","url":"Condition/f90437ca-60e2-41d9-ab9e-0cc24253ea1b"}},{"fullUrl":"MeasureReport/619a6e71-a283-4946-9c90-c18962cd5798","resource":{"resourceType":"MeasureReport","id":"619a6e71-a283-4946-9c90-c18962cd5798","meta":{"profile":["http://hl7.org/fhir/us/cqfmeasures/StructureDefinition/test-case-cqfm"]},"contained":[{"resourceType":"Parameters","id":"ac794464-2f5f-4440-8076-089c0265b028-parameters","parameter":[{"name":"subject","valueString":"d513ed00-6ea1-4522-ae7c-c3bc29082e92"}]}],"extension":[{"url":"http://hl7.org/fhir/StructureDefinition/cqf-inputParameters","valueReference":{"reference":"#ac794464-2f5f-4440-8076-089c0265b028-parameters"}},{"url":"http://hl7.org/fhir/us/cqfmeasures/StructureDefinition/cqfm-testCaseDescription","valueMarkdown":"Palliative care diagnosis starts after MP"}],"modifierExtension":[{"url":"http://hl7.org/fhir/us/cqfmeasures/StructureDefinition/cqfm-isTestCase","valueBoolean":true}],"status":"complete","type":"individual","measure":"https://madie.cms.gov/Measure/CMS165FHIRControllingHighBloodPressure","period":{"start":"2026-01-01","end":"2026-12-31"},"group":[{"id":"Group_1","population":[{"id":"InitialPopulation_1","code":{"coding":[{"system":"http://terminology.hl7.org/CodeSystem/measure-population","code":"initial-population","display":"Initial Population"}]},"count":1},{"id":"Denominator_1","code":{"coding":[{"system":"http://terminology.hl7.org/CodeSystem/measure-population","code":"denominator","display":"Denominator"}]},"count":1},{"id":"DenominatorExclusion_1","code":{"coding":[{"system":"http://terminology.hl7.org/CodeSystem/measure-population","code":"denominator-exclusion","display":"Denominator Exclusion"}]},"count":0},{"id":"Numerator_1","code":{"coding":[{"system":"http://terminology.hl7.org/CodeSystem/measure-population","code":"numerator","display":"Numerator"}]},"count":0}],"measureScore":{"value":1.0}}],"evaluatedResource":[{"reference":"Patient/d513ed00-6ea1-4522-ae7c-c3bc29082e92"},{"reference":"Encounter/0f8059f9-2e73-43cc-b3aa-28fd8cf9b605"},{"reference":"Condition/3598bf32-0af2-4cf1-bb5f-449139da88a8"},{"reference":"Condition/f90437ca-60e2-41d9-ab9e-0cc24253ea1b"}]},"request":{"method":"PUT","url":"MeasureReport/619a6e71-a283-4946-9c90-c18962cd5798"}}]}