{"resourceType":"Bundle","id":"tests-048a7212-c19c-4f9d-89e2-13727b23e585-bundle","type":"transaction","entry":[{"fullUrl":"MeasureReport/1b017483-93cc-4901-b2f3-91c762dbe9b1","resource":{"resourceType":"MeasureReport","id":"1b017483-93cc-4901-b2f3-91c762dbe9b1","meta":{"profile":["http://hl7.org/fhir/us/cqfmeasures/StructureDefinition/test-case-cqfm"]},"contained":[{"resourceType":"Parameters","id":"07378f67-c86c-441c-82fd-4b34596d6915-parameters","parameter":[{"name":"subject","valueString":"048a7212-c19c-4f9d-89e2-13727b23e585"}]}],"extension":[{"url":"http://hl7.org/fhir/StructureDefinition/cqf-inputParameters","valueReference":{"reference":"#07378f67-c86c-441c-82fd-4b34596d6915-parameters"}},{"url":"http://hl7.org/fhir/us/cqfmeasures/StructureDefinition/cqfm-testCaseDescription","valueMarkdown":"Initial office visit during MP"}],"modifierExtension":[{"url":"http://hl7.org/fhir/us/cqfmeasures/StructureDefinition/cqfm-isTestCase","valueBoolean":true}],"status":"complete","type":"individual","measure":"https://madie.cms.gov/Measure/CMS165FHIRControllingHighBloodPressure","period":{"start":"2026-01-01","end":"2026-12-31"},"group":[{"id":"Group_1","population":[{"id":"InitialPopulation_1","code":{"coding":[{"system":"http://terminology.hl7.org/CodeSystem/measure-population","code":"initial-population","display":"Initial Population"}]},"count":1},{"id":"Denominator_1","code":{"coding":[{"system":"http://terminology.hl7.org/CodeSystem/measure-population","code":"denominator","display":"Denominator"}]},"count":1},{"id":"DenominatorExclusion_1","code":{"coding":[{"system":"http://terminology.hl7.org/CodeSystem/measure-population","code":"denominator-exclusion","display":"Denominator Exclusion"}]},"count":0},{"id":"Numerator_1","code":{"coding":[{"system":"http://terminology.hl7.org/CodeSystem/measure-population","code":"numerator","display":"Numerator"}]},"count":0}],"measureScore":{"value":1.0}}],"evaluatedResource":[{"reference":"Patient/048a7212-c19c-4f9d-89e2-13727b23e585"},{"reference":"Encounter/5855ace9-88ac-4185-b223-1810a90acd24"},{"reference":"Condition/19f4ad68-cc39-489d-8f21-01f9ce7b7284"}]},"request":{"method":"PUT","url":"MeasureReport/1b017483-93cc-4901-b2f3-91c762dbe9b1"}},{"fullUrl":"Condition/19f4ad68-cc39-489d-8f21-01f9ce7b7284","resource":{"resourceType":"Condition","id":"19f4ad68-cc39-489d-8f21-01f9ce7b7284","meta":{"profile":["http://hl7.org/fhir/us/qicore/StructureDefinition/qicore-condition-encounter-diagnosis"]},"clinicalStatus":{"coding":[{"system":"http://terminology.hl7.org/CodeSystem/condition-clinical","code":"active"}]},"category":[{"coding":[{"system":"http://terminology.hl7.org/CodeSystem/condition-category","code":"encounter-diagnosis","display":"Encounter Diagnosis"}]}],"code":{"coding":[{"system":"http://snomed.info/sct","code":"371125006","display":"Labile essential hypertension (disorder)"}]},"subject":{"reference":"Patient/048a7212-c19c-4f9d-89e2-13727b23e585"},"onsetDateTime":"2026-06-30T23:59:59.000+00:00"},"request":{"method":"PUT","url":"Condition/19f4ad68-cc39-489d-8f21-01f9ce7b7284"}},{"fullUrl":"Patient/048a7212-c19c-4f9d-89e2-13727b23e585","resource":{"resourceType":"Patient","id":"048a7212-c19c-4f9d-89e2-13727b23e585","meta":{"profile":["http://hl7.org/fhir/us/qicore/StructureDefinition/qicore-patient"]},"extension":[{"url":"http://hl7.org/fhir/us/core/StructureDefinition/us-core-race","extension":[{"url":"ombCategory","valueCoding":{"system":"urn:oid:2.16.840.1.113883.6.238","code":"2028-9","display":"Asian"}},{"url":"text","valueString":"Asian"}]},{"url":"http://hl7.org/fhir/us/core/StructureDefinition/us-core-ethnicity","extension":[{"url":"ombCategory","valueCoding":{"system":"urn:oid:2.16.840.1.113883.6.238","code":"2135-2","display":"Hispanic or Latino"}},{"url":"text","valueString":"Hispanic or Latino"}]}],"identifier":[{"system":"http://hospital.smarthealthit.org","value":"999999995"}],"name":[{"family":"IPPass","given":["InitialOfficeVisit"]}],"gender":"female","birthDate":"2007-12-31"},"request":{"method":"PUT","url":"Patient/048a7212-c19c-4f9d-89e2-13727b23e585"}},{"fullUrl":"Encounter/5855ace9-88ac-4185-b223-1810a90acd24","resource":{"resourceType":"Encounter","id":"5855ace9-88ac-4185-b223-1810a90acd24","meta":{"profile":["http://hl7.org/fhir/us/qicore/StructureDefinition/qicore-encounter"]},"status":"finished","class":{"system":"http://terminology.hl7.org/CodeSystem/v3-ActCode","code":"AMB","display":"ambulatory"},"type":[{"coding":[{"system":"http://www.ama-assn.org/go/cpt","code":"99386","display":"Initial comprehensive preventive medicine evaluation and management of an individual including an age and gender appropriate history, examination, counseling/anticipatory guidance/risk factor reduction interventions, and the ordering of laboratory/diagnostic procedures, new patient; 40-64 years"}]}],"subject":{"reference":"Patient/048a7212-c19c-4f9d-89e2-13727b23e585"},"period":{"start":"2026-01-01T00:00:00.000+00:00","end":"2026-01-01T01:00:00.000+00:00"}},"request":{"method":"PUT","url":"Encounter/5855ace9-88ac-4185-b223-1810a90acd24"}},{"fullUrl":"Bundle/IPPPass-InitialOfficeVisit","resource":{"resourceType":"Bundle","id":"IPPPass-InitialOfficeVisit","type":"transaction","entry":[{"fullUrl":"https://madie.cms.gov/Patient/048a7212-c19c-4f9d-89e2-13727b23e585","resource":{"resourceType":"Patient","id":"048a7212-c19c-4f9d-89e2-13727b23e585","meta":{"profile":["http://hl7.org/fhir/us/qicore/StructureDefinition/qicore-patient"]},"extension":[{"url":"http://hl7.org/fhir/us/core/StructureDefinition/us-core-race","extension":[{"url":"ombCategory","valueCoding":{"system":"urn:oid:2.16.840.1.113883.6.238","code":"2028-9","display":"Asian"}},{"url":"text","valueString":"Asian"}]},{"url":"http://hl7.org/fhir/us/core/StructureDefinition/us-core-ethnicity","extension":[{"url":"ombCategory","valueCoding":{"system":"urn:oid:2.16.840.1.113883.6.238","code":"2135-2","display":"Hispanic or Latino"}},{"url":"text","valueString":"Hispanic or Latino"}]}],"identifier":[{"system":"http://hospital.smarthealthit.org","value":"999999995"}],"name":[{"family":"IPPass","given":["InitialOfficeVisit"]}],"gender":"female","birthDate":"2007-12-31"},"request":{"method":"PUT","url":"Patient/048a7212-c19c-4f9d-89e2-13727b23e585"}},{"fullUrl":"https://madie.cms.gov/Encounter/5855ace9-88ac-4185-b223-1810a90acd24","resource":{"resourceType":"Encounter","id":"5855ace9-88ac-4185-b223-1810a90acd24","meta":{"profile":["http://hl7.org/fhir/us/qicore/StructureDefinition/qicore-encounter"]},"status":"finished","class":{"system":"http://terminology.hl7.org/CodeSystem/v3-ActCode","code":"AMB","display":"ambulatory"},"type":[{"coding":[{"system":"http://www.ama-assn.org/go/cpt","code":"99386","display":"Initial comprehensive preventive medicine evaluation and management of an individual including an age and gender appropriate history, examination, counseling/anticipatory guidance/risk factor reduction interventions, and the ordering of laboratory/diagnostic procedures, new patient; 40-64 years"}]}],"subject":{"reference":"Patient/048a7212-c19c-4f9d-89e2-13727b23e585"},"period":{"start":"2026-01-01T00:00:00.000+00:00","end":"2026-01-01T01:00:00.000+00:00"}},"request":{"method":"PUT","url":"Encounter/5855ace9-88ac-4185-b223-1810a90acd24"}},{"fullUrl":"https://madie.cms.gov/Condition/19f4ad68-cc39-489d-8f21-01f9ce7b7284","resource":{"resourceType":"Condition","id":"19f4ad68-cc39-489d-8f21-01f9ce7b7284","meta":{"profile":["http://hl7.org/fhir/us/qicore/StructureDefinition/qicore-condition-encounter-diagnosis"]},"clinicalStatus":{"coding":[{"system":"http://terminology.hl7.org/CodeSystem/condition-clinical","code":"active"}]},"category":[{"coding":[{"system":"http://terminology.hl7.org/CodeSystem/condition-category","code":"encounter-diagnosis","display":"Encounter Diagnosis"}]}],"code":{"coding":[{"system":"http://snomed.info/sct","code":"371125006","display":"Labile essential hypertension (disorder)"}]},"subject":{"reference":"Patient/048a7212-c19c-4f9d-89e2-13727b23e585"},"onsetDateTime":"2026-06-30T23:59:59.000+00:00"},"request":{"method":"PUT","url":"Condition/19f4ad68-cc39-489d-8f21-01f9ce7b7284"}},{"fullUrl":"https://madie.cms.gov/MeasureReport/1b017483-93cc-4901-b2f3-91c762dbe9b1","resource":{"resourceType":"MeasureReport","id":"1b017483-93cc-4901-b2f3-91c762dbe9b1","meta":{"profile":["http://hl7.org/fhir/us/cqfmeasures/StructureDefinition/test-case-cqfm"]},"contained":[{"resourceType":"Parameters","id":"07378f67-c86c-441c-82fd-4b34596d6915-parameters","parameter":[{"name":"subject","valueString":"048a7212-c19c-4f9d-89e2-13727b23e585"}]}],"extension":[{"url":"http://hl7.org/fhir/StructureDefinition/cqf-inputParameters","valueReference":{"reference":"#07378f67-c86c-441c-82fd-4b34596d6915-parameters"}},{"url":"http://hl7.org/fhir/us/cqfmeasures/StructureDefinition/cqfm-testCaseDescription","valueMarkdown":"Initial office visit during MP"}],"modifierExtension":[{"url":"http://hl7.org/fhir/us/cqfmeasures/StructureDefinition/cqfm-isTestCase","valueBoolean":true}],"status":"complete","type":"individual","measure":"https://madie.cms.gov/Measure/CMS165FHIRControllingHighBloodPressure","period":{"start":"2026-01-01","end":"2026-12-31"},"group":[{"id":"Group_1","population":[{"id":"InitialPopulation_1","code":{"coding":[{"system":"http://terminology.hl7.org/CodeSystem/measure-population","code":"initial-population","display":"Initial Population"}]},"count":1},{"id":"Denominator_1","code":{"coding":[{"system":"http://terminology.hl7.org/CodeSystem/measure-population","code":"denominator","display":"Denominator"}]},"count":1},{"id":"DenominatorExclusion_1","code":{"coding":[{"system":"http://terminology.hl7.org/CodeSystem/measure-population","code":"denominator-exclusion","display":"Denominator Exclusion"}]},"count":0},{"id":"Numerator_1","code":{"coding":[{"system":"http://terminology.hl7.org/CodeSystem/measure-population","code":"numerator","display":"Numerator"}]},"count":0}],"measureScore":{"value":1.0}}],"evaluatedResource":[{"reference":"Patient/048a7212-c19c-4f9d-89e2-13727b23e585"},{"reference":"Encounter/5855ace9-88ac-4185-b223-1810a90acd24"},{"reference":"Condition/19f4ad68-cc39-489d-8f21-01f9ce7b7284"}]},"request":{"method":"PUT","url":"MeasureReport/1b017483-93cc-4901-b2f3-91c762dbe9b1"}}]},"request":{"method":"PUT","url":"Bundle/IPPPass-InitialOfficeVisit"}}]}