{"resourceType":"Bundle","id":"tests-75d880c8-4220-4907-b29a-f595dc0df2fb-bundle","type":"transaction","entry":[{"fullUrl":"Bundle/DENEXFail-DementiaStartsAfterMP","resource":{"resourceType":"Bundle","id":"DENEXFail-DementiaStartsAfterMP","type":"transaction","entry":[{"fullUrl":"https://madie.cms.gov/Patient/75d880c8-4220-4907-b29a-f595dc0df2fb","resource":{"resourceType":"Patient","id":"75d880c8-4220-4907-b29a-f595dc0df2fb","meta":{"profile":["http://hl7.org/fhir/us/qicore/StructureDefinition/qicore-patient"]},"extension":[{"url":"http://hl7.org/fhir/us/core/StructureDefinition/us-core-race","extension":[{"url":"ombCategory","valueCoding":{"system":"urn:oid:2.16.840.1.113883.6.238","code":"2028-9","display":"Asian"}},{"url":"text","valueString":"Asian"}]},{"url":"http://hl7.org/fhir/us/core/StructureDefinition/us-core-ethnicity","extension":[{"url":"ombCategory","valueCoding":{"system":"urn:oid:2.16.840.1.113883.6.238","code":"2135-2","display":"Hispanic or Latino"}},{"url":"text","valueString":"Hispanic or Latino"}]}],"identifier":[{"system":"http://hospital.smarthealthit.org","value":"999999995"}],"name":[{"family":"DENEXFail","given":["DementiaStartsAfterMP"]}],"gender":"female","birthDate":"1959-12-31"},"request":{"method":"PUT","url":"Patient/75d880c8-4220-4907-b29a-f595dc0df2fb"}},{"fullUrl":"https://madie.cms.gov/Encounter/3947740e-a1f0-4357-abe3-9ab96806b426","resource":{"resourceType":"Encounter","id":"3947740e-a1f0-4357-abe3-9ab96806b426","meta":{"profile":["http://hl7.org/fhir/us/qicore/StructureDefinition/qicore-encounter"]},"status":"finished","class":{"system":"http://terminology.hl7.org/CodeSystem/v3-ActCode","code":"AMB","display":"ambulatory"},"type":[{"coding":[{"system":"http://snomed.info/sct","code":"3391000175108","display":"Office visit for pediatric care and assessment (procedure)"}]}],"subject":{"reference":"Patient/75d880c8-4220-4907-b29a-f595dc0df2fb"},"period":{"start":"2026-01-01T00:00:00.000+00:00","end":"2026-01-01T01:00:00.000+00:00"}},"request":{"method":"PUT","url":"Encounter/3947740e-a1f0-4357-abe3-9ab96806b426"}},{"fullUrl":"https://madie.cms.gov/Condition/07143489-53cc-424b-9acc-d5a21a4fe3e6","resource":{"resourceType":"Condition","id":"07143489-53cc-424b-9acc-d5a21a4fe3e6","meta":{"profile":["http://hl7.org/fhir/us/qicore/StructureDefinition/qicore-condition-problems-health-concerns"]},"clinicalStatus":{"coding":[{"system":"http://terminology.hl7.org/CodeSystem/condition-clinical","code":"active"}]},"category":[{"coding":[{"system":"http://terminology.hl7.org/CodeSystem/condition-category","code":"problem-list-item","display":"Problem List Item"}]}],"code":{"coding":[{"system":"http://snomed.info/sct","code":"371125006","display":"Labile essential hypertension (disorder)"}]},"subject":{"reference":"Patient/75d880c8-4220-4907-b29a-f595dc0df2fb"},"onsetDateTime":"2026-06-30T23:59:59.000+00:00"},"request":{"method":"PUT","url":"Condition/07143489-53cc-424b-9acc-d5a21a4fe3e6"}},{"fullUrl":"https://madie.cms.gov/MedicationRequest/1441d46a-af65-4823-9ffd-1ad6cd17d1cd","resource":{"resourceType":"MedicationRequest","id":"1441d46a-af65-4823-9ffd-1ad6cd17d1cd","meta":{"profile":["http://hl7.org/fhir/us/qicore/StructureDefinition/qicore-medicationrequest"]},"status":"active","intent":"order","doNotPerform":false,"medicationCodeableConcept":{"coding":[{"system":"http://www.nlm.nih.gov/research/umls/rxnorm","code":"312836","display":"rivastigmine 6 MG Oral Capsule"}]},"subject":{"reference":"Patient/75d880c8-4220-4907-b29a-f595dc0df2fb"},"authoredOn":"2027-01-01T00:00:00.000+00:00","requester":{"reference":"Practitioner/example"},"dispenseRequest":{"expectedSupplyDuration":{"value":90,"system":"http://unitsofmeasure.org","code":"days"}}},"request":{"method":"PUT","url":"MedicationRequest/1441d46a-af65-4823-9ffd-1ad6cd17d1cd"}},{"fullUrl":"https://madie.cms.gov/DeviceRequest/58db3df5-cdf3-437a-8209-b3bef43e967a","resource":{"resourceType":"DeviceRequest","id":"58db3df5-cdf3-437a-8209-b3bef43e967a","meta":{"profile":["http://hl7.org/fhir/us/qicore/StructureDefinition/qicore-devicerequest"]},"modifierExtension":[{"url":"http://hl7.org/fhir/5.0/StructureDefinition/extension-DeviceRequest.doNotPerform","valueBoolean":false}],"status":"completed","intent":"order","codeCodeableConcept":{"coding":[{"system":"http://snomed.info/sct","code":"183240000","display":"Self-propelled wheelchair (physical object)"}]},"subject":{"reference":"Patient/75d880c8-4220-4907-b29a-f595dc0df2fb"},"authoredOn":"2026-11-01T23:59:00.000+00:00"},"request":{"method":"PUT","url":"DeviceRequest/58db3df5-cdf3-437a-8209-b3bef43e967a"}},{"fullUrl":"https://madie.cms.gov/MeasureReport/2c0be4e1-ccd7-475c-91ae-d88423dd16e3","resource":{"resourceType":"MeasureReport","id":"2c0be4e1-ccd7-475c-91ae-d88423dd16e3","meta":{"profile":["http://hl7.org/fhir/us/cqfmeasures/StructureDefinition/test-case-cqfm"]},"contained":[{"resourceType":"Parameters","id":"d7003cfd-1587-4be5-af8c-dc467fac4655-parameters","parameter":[{"name":"subject","valueString":"75d880c8-4220-4907-b29a-f595dc0df2fb"}]}],"extension":[{"url":"http://hl7.org/fhir/StructureDefinition/cqf-inputParameters","valueReference":{"reference":"#d7003cfd-1587-4be5-af8c-dc467fac4655-parameters"}},{"url":"http://hl7.org/fhir/us/cqfmeasures/StructureDefinition/cqfm-testCaseDescription","valueMarkdown":"Dementia starts after MP"}],"modifierExtension":[{"url":"http://hl7.org/fhir/us/cqfmeasures/StructureDefinition/cqfm-isTestCase","valueBoolean":true}],"status":"complete","type":"individual","measure":"https://madie.cms.gov/Measure/CMS165FHIRControllingHighBloodPressure","period":{"start":"2026-01-01","end":"2026-12-31"},"group":[{"id":"Group_1","population":[{"id":"InitialPopulation_1","code":{"coding":[{"system":"http://terminology.hl7.org/CodeSystem/measure-population","code":"initial-population","display":"Initial Population"}]},"count":1},{"id":"Denominator_1","code":{"coding":[{"system":"http://terminology.hl7.org/CodeSystem/measure-population","code":"denominator","display":"Denominator"}]},"count":1},{"id":"DenominatorExclusion_1","code":{"coding":[{"system":"http://terminology.hl7.org/CodeSystem/measure-population","code":"denominator-exclusion","display":"Denominator Exclusion"}]},"count":0},{"id":"Numerator_1","code":{"coding":[{"system":"http://terminology.hl7.org/CodeSystem/measure-population","code":"numerator","display":"Numerator"}]},"count":0}],"measureScore":{"value":1.0}}],"evaluatedResource":[{"reference":"Patient/75d880c8-4220-4907-b29a-f595dc0df2fb"},{"reference":"Encounter/3947740e-a1f0-4357-abe3-9ab96806b426"},{"reference":"Condition/07143489-53cc-424b-9acc-d5a21a4fe3e6"},{"reference":"MedicationRequest/1441d46a-af65-4823-9ffd-1ad6cd17d1cd"},{"reference":"DeviceRequest/58db3df5-cdf3-437a-8209-b3bef43e967a"}]},"request":{"method":"PUT","url":"MeasureReport/2c0be4e1-ccd7-475c-91ae-d88423dd16e3"}}]},"request":{"method":"PUT","url":"Bundle/DENEXFail-DementiaStartsAfterMP"}},{"fullUrl":"MedicationRequest/1441d46a-af65-4823-9ffd-1ad6cd17d1cd","resource":{"resourceType":"MedicationRequest","id":"1441d46a-af65-4823-9ffd-1ad6cd17d1cd","meta":{"profile":["http://hl7.org/fhir/us/qicore/StructureDefinition/qicore-medicationrequest"]},"status":"active","intent":"order","doNotPerform":false,"medicationCodeableConcept":{"coding":[{"system":"http://www.nlm.nih.gov/research/umls/rxnorm","code":"312836","display":"rivastigmine 6 MG Oral Capsule"}]},"subject":{"reference":"Patient/75d880c8-4220-4907-b29a-f595dc0df2fb"},"authoredOn":"2027-01-01T00:00:00.000+00:00","requester":{"reference":"Practitioner/example"},"dispenseRequest":{"expectedSupplyDuration":{"value":90,"system":"http://unitsofmeasure.org","code":"days"}}},"request":{"method":"PUT","url":"MedicationRequest/1441d46a-af65-4823-9ffd-1ad6cd17d1cd"}},{"fullUrl":"DeviceRequest/58db3df5-cdf3-437a-8209-b3bef43e967a","resource":{"resourceType":"DeviceRequest","id":"58db3df5-cdf3-437a-8209-b3bef43e967a","meta":{"profile":["http://hl7.org/fhir/us/qicore/StructureDefinition/qicore-devicerequest"]},"modifierExtension":[{"url":"http://hl7.org/fhir/5.0/StructureDefinition/extension-DeviceRequest.doNotPerform","valueBoolean":false}],"status":"completed","intent":"order","codeCodeableConcept":{"coding":[{"system":"http://snomed.info/sct","code":"183240000","display":"Self-propelled wheelchair (physical object)"}]},"subject":{"reference":"Patient/75d880c8-4220-4907-b29a-f595dc0df2fb"},"authoredOn":"2026-11-01T23:59:00.000+00:00"},"request":{"method":"PUT","url":"DeviceRequest/58db3df5-cdf3-437a-8209-b3bef43e967a"}},{"fullUrl":"Patient/75d880c8-4220-4907-b29a-f595dc0df2fb","resource":{"resourceType":"Patient","id":"75d880c8-4220-4907-b29a-f595dc0df2fb","meta":{"profile":["http://hl7.org/fhir/us/qicore/StructureDefinition/qicore-patient"]},"extension":[{"url":"http://hl7.org/fhir/us/core/StructureDefinition/us-core-race","extension":[{"url":"ombCategory","valueCoding":{"system":"urn:oid:2.16.840.1.113883.6.238","code":"2028-9","display":"Asian"}},{"url":"text","valueString":"Asian"}]},{"url":"http://hl7.org/fhir/us/core/StructureDefinition/us-core-ethnicity","extension":[{"url":"ombCategory","valueCoding":{"system":"urn:oid:2.16.840.1.113883.6.238","code":"2135-2","display":"Hispanic or Latino"}},{"url":"text","valueString":"Hispanic or Latino"}]}],"identifier":[{"system":"http://hospital.smarthealthit.org","value":"999999995"}],"name":[{"family":"DENEXFail","given":["DementiaStartsAfterMP"]}],"gender":"female","birthDate":"1959-12-31"},"request":{"method":"PUT","url":"Patient/75d880c8-4220-4907-b29a-f595dc0df2fb"}},{"fullUrl":"Encounter/3947740e-a1f0-4357-abe3-9ab96806b426","resource":{"resourceType":"Encounter","id":"3947740e-a1f0-4357-abe3-9ab96806b426","meta":{"profile":["http://hl7.org/fhir/us/qicore/StructureDefinition/qicore-encounter"]},"status":"finished","class":{"system":"http://terminology.hl7.org/CodeSystem/v3-ActCode","code":"AMB","display":"ambulatory"},"type":[{"coding":[{"system":"http://snomed.info/sct","code":"3391000175108","display":"Office visit for pediatric care and assessment (procedure)"}]}],"subject":{"reference":"Patient/75d880c8-4220-4907-b29a-f595dc0df2fb"},"period":{"start":"2026-01-01T00:00:00.000+00:00","end":"2026-01-01T01:00:00.000+00:00"}},"request":{"method":"PUT","url":"Encounter/3947740e-a1f0-4357-abe3-9ab96806b426"}},{"fullUrl":"Condition/07143489-53cc-424b-9acc-d5a21a4fe3e6","resource":{"resourceType":"Condition","id":"07143489-53cc-424b-9acc-d5a21a4fe3e6","meta":{"profile":["http://hl7.org/fhir/us/qicore/StructureDefinition/qicore-condition-problems-health-concerns"]},"clinicalStatus":{"coding":[{"system":"http://terminology.hl7.org/CodeSystem/condition-clinical","code":"active"}]},"category":[{"coding":[{"system":"http://terminology.hl7.org/CodeSystem/condition-category","code":"problem-list-item","display":"Problem List Item"}]}],"code":{"coding":[{"system":"http://snomed.info/sct","code":"371125006","display":"Labile essential hypertension (disorder)"}]},"subject":{"reference":"Patient/75d880c8-4220-4907-b29a-f595dc0df2fb"},"onsetDateTime":"2026-06-30T23:59:59.000+00:00"},"request":{"method":"PUT","url":"Condition/07143489-53cc-424b-9acc-d5a21a4fe3e6"}},{"fullUrl":"MeasureReport/2c0be4e1-ccd7-475c-91ae-d88423dd16e3","resource":{"resourceType":"MeasureReport","id":"2c0be4e1-ccd7-475c-91ae-d88423dd16e3","meta":{"profile":["http://hl7.org/fhir/us/cqfmeasures/StructureDefinition/test-case-cqfm"]},"contained":[{"resourceType":"Parameters","id":"d7003cfd-1587-4be5-af8c-dc467fac4655-parameters","parameter":[{"name":"subject","valueString":"75d880c8-4220-4907-b29a-f595dc0df2fb"}]}],"extension":[{"url":"http://hl7.org/fhir/StructureDefinition/cqf-inputParameters","valueReference":{"reference":"#d7003cfd-1587-4be5-af8c-dc467fac4655-parameters"}},{"url":"http://hl7.org/fhir/us/cqfmeasures/StructureDefinition/cqfm-testCaseDescription","valueMarkdown":"Dementia starts after MP"}],"modifierExtension":[{"url":"http://hl7.org/fhir/us/cqfmeasures/StructureDefinition/cqfm-isTestCase","valueBoolean":true}],"status":"complete","type":"individual","measure":"https://madie.cms.gov/Measure/CMS165FHIRControllingHighBloodPressure","period":{"start":"2026-01-01","end":"2026-12-31"},"group":[{"id":"Group_1","population":[{"id":"InitialPopulation_1","code":{"coding":[{"system":"http://terminology.hl7.org/CodeSystem/measure-population","code":"initial-population","display":"Initial Population"}]},"count":1},{"id":"Denominator_1","code":{"coding":[{"system":"http://terminology.hl7.org/CodeSystem/measure-population","code":"denominator","display":"Denominator"}]},"count":1},{"id":"DenominatorExclusion_1","code":{"coding":[{"system":"http://terminology.hl7.org/CodeSystem/measure-population","code":"denominator-exclusion","display":"Denominator Exclusion"}]},"count":0},{"id":"Numerator_1","code":{"coding":[{"system":"http://terminology.hl7.org/CodeSystem/measure-population","code":"numerator","display":"Numerator"}]},"count":0}],"measureScore":{"value":1.0}}],"evaluatedResource":[{"reference":"Patient/75d880c8-4220-4907-b29a-f595dc0df2fb"},{"reference":"Encounter/3947740e-a1f0-4357-abe3-9ab96806b426"},{"reference":"Condition/07143489-53cc-424b-9acc-d5a21a4fe3e6"},{"reference":"MedicationRequest/1441d46a-af65-4823-9ffd-1ad6cd17d1cd"},{"reference":"DeviceRequest/58db3df5-cdf3-437a-8209-b3bef43e967a"}]},"request":{"method":"PUT","url":"MeasureReport/2c0be4e1-ccd7-475c-91ae-d88423dd16e3"}}]}