{"resourceType":"Bundle","id":"tests-7c59efb5-56ab-4a25-af83-bd81daeee026-bundle","type":"transaction","entry":[{"fullUrl":"Observation/f9a2c380-bee8-4fe3-adda-d12d3c902731","resource":{"resourceType":"Observation","id":"f9a2c380-bee8-4fe3-adda-d12d3c902731","meta":{"profile":["http://hl7.org/fhir/us/qicore/StructureDefinition/qicore-observation-screening-assessment"]},"status":"final","category":[{"coding":[{"system":"http://terminology.hl7.org/CodeSystem/observation-category","code":"survey"}]}],"code":{"coding":[{"system":"http://loinc.org","code":"98181-1","display":"Medical equipment used"}]},"subject":{"reference":"Patient/7c59efb5-56ab-4a25-af83-bd81daeee026"},"effectivePeriod":{"start":"2026-01-01T00:00:00.000+00:00","end":"2026-01-01T01:00:00.000+00:00"},"valueCodeableConcept":{"coding":[{"system":"http://snomed.info/sct","code":"262177002","display":"Static oxygen cylinder (physical object)"}]}},"request":{"method":"PUT","url":"Observation/f9a2c380-bee8-4fe3-adda-d12d3c902731"}},{"fullUrl":"MedicationRequest/2d79264e-67b0-4dea-a26f-721a924d10b9","resource":{"resourceType":"MedicationRequest","id":"2d79264e-67b0-4dea-a26f-721a924d10b9","meta":{"profile":["http://hl7.org/fhir/us/qicore/StructureDefinition/qicore-medicationrequest"]},"status":"active","intent":"order","doNotPerform":false,"medicationCodeableConcept":{"coding":[{"system":"http://www.nlm.nih.gov/research/umls/rxnorm","code":"312836","display":"rivastigmine 6 MG Oral Capsule"}]},"subject":{"reference":"Patient/7c59efb5-56ab-4a25-af83-bd81daeee026"},"authoredOn":"2026-01-01T00:00:00.000+00:00","requester":{"reference":"Practitioner/example"},"dispenseRequest":{"expectedSupplyDuration":{"value":90,"system":"http://unitsofmeasure.org","code":"days"}}},"request":{"method":"PUT","url":"MedicationRequest/2d79264e-67b0-4dea-a26f-721a924d10b9"}},{"fullUrl":"Condition/728e9d12-63b1-4bea-818d-5a6f200302ed","resource":{"resourceType":"Condition","id":"728e9d12-63b1-4bea-818d-5a6f200302ed","meta":{"profile":["http://hl7.org/fhir/us/qicore/StructureDefinition/qicore-condition-problems-health-concerns"]},"clinicalStatus":{"coding":[{"system":"http://terminology.hl7.org/CodeSystem/condition-clinical","code":"active"}]},"category":[{"coding":[{"system":"http://terminology.hl7.org/CodeSystem/condition-category","code":"problem-list-item","display":"Problem List Item"}]}],"code":{"coding":[{"system":"http://snomed.info/sct","code":"371125006","display":"Labile essential hypertension (disorder)"}]},"subject":{"reference":"Patient/7c59efb5-56ab-4a25-af83-bd81daeee026"},"onsetDateTime":"2026-06-30T23:59:59.000+00:00"},"request":{"method":"PUT","url":"Condition/728e9d12-63b1-4bea-818d-5a6f200302ed"}},{"fullUrl":"Patient/7c59efb5-56ab-4a25-af83-bd81daeee026","resource":{"resourceType":"Patient","id":"7c59efb5-56ab-4a25-af83-bd81daeee026","meta":{"profile":["http://hl7.org/fhir/us/qicore/StructureDefinition/qicore-patient"]},"extension":[{"url":"http://hl7.org/fhir/us/core/StructureDefinition/us-core-race","extension":[{"url":"ombCategory","valueCoding":{"system":"urn:oid:2.16.840.1.113883.6.238","code":"2028-9","display":"Asian"}},{"url":"text","valueString":"Asian"}]},{"url":"http://hl7.org/fhir/us/core/StructureDefinition/us-core-ethnicity","extension":[{"url":"ombCategory","valueCoding":{"system":"urn:oid:2.16.840.1.113883.6.238","code":"2135-2","display":"Hispanic or Latino"}},{"url":"text","valueString":"Hispanic or Latino"}]}],"identifier":[{"system":"http://hospital.smarthealthit.org","value":"999999995"}],"name":[{"family":"DENEXPass","given":["FrailtyObsDuringMP"]}],"gender":"female","birthDate":"1959-12-31"},"request":{"method":"PUT","url":"Patient/7c59efb5-56ab-4a25-af83-bd81daeee026"}},{"fullUrl":"Bundle/DENEXPass-FrailtyObsDuringMP","resource":{"resourceType":"Bundle","id":"DENEXPass-FrailtyObsDuringMP","type":"transaction","entry":[{"fullUrl":"https://madie.cms.gov/Patient/7c59efb5-56ab-4a25-af83-bd81daeee026","resource":{"resourceType":"Patient","id":"7c59efb5-56ab-4a25-af83-bd81daeee026","meta":{"profile":["http://hl7.org/fhir/us/qicore/StructureDefinition/qicore-patient"]},"extension":[{"url":"http://hl7.org/fhir/us/core/StructureDefinition/us-core-race","extension":[{"url":"ombCategory","valueCoding":{"system":"urn:oid:2.16.840.1.113883.6.238","code":"2028-9","display":"Asian"}},{"url":"text","valueString":"Asian"}]},{"url":"http://hl7.org/fhir/us/core/StructureDefinition/us-core-ethnicity","extension":[{"url":"ombCategory","valueCoding":{"system":"urn:oid:2.16.840.1.113883.6.238","code":"2135-2","display":"Hispanic or Latino"}},{"url":"text","valueString":"Hispanic or Latino"}]}],"identifier":[{"system":"http://hospital.smarthealthit.org","value":"999999995"}],"name":[{"family":"DENEXPass","given":["FrailtyObsDuringMP"]}],"gender":"female","birthDate":"1959-12-31"},"request":{"method":"PUT","url":"Patient/7c59efb5-56ab-4a25-af83-bd81daeee026"}},{"fullUrl":"https://madie.cms.gov/Encounter/839f7f99-cd80-4025-9dd2-e34d15f419d3","resource":{"resourceType":"Encounter","id":"839f7f99-cd80-4025-9dd2-e34d15f419d3","meta":{"profile":["http://hl7.org/fhir/us/qicore/StructureDefinition/qicore-encounter"]},"status":"finished","class":{"system":"http://terminology.hl7.org/CodeSystem/v3-ActCode","code":"AMB","display":"ambulatory"},"type":[{"coding":[{"system":"http://snomed.info/sct","code":"3391000175108","display":"Office visit for pediatric care and assessment (procedure)"}]}],"subject":{"reference":"Patient/7c59efb5-56ab-4a25-af83-bd81daeee026"},"period":{"start":"2026-01-01T00:00:00.000+00:00","end":"2026-01-01T01:00:00.000+00:00"}},"request":{"method":"PUT","url":"Encounter/839f7f99-cd80-4025-9dd2-e34d15f419d3"}},{"fullUrl":"https://madie.cms.gov/Condition/728e9d12-63b1-4bea-818d-5a6f200302ed","resource":{"resourceType":"Condition","id":"728e9d12-63b1-4bea-818d-5a6f200302ed","meta":{"profile":["http://hl7.org/fhir/us/qicore/StructureDefinition/qicore-condition-problems-health-concerns"]},"clinicalStatus":{"coding":[{"system":"http://terminology.hl7.org/CodeSystem/condition-clinical","code":"active"}]},"category":[{"coding":[{"system":"http://terminology.hl7.org/CodeSystem/condition-category","code":"problem-list-item","display":"Problem List Item"}]}],"code":{"coding":[{"system":"http://snomed.info/sct","code":"371125006","display":"Labile essential hypertension (disorder)"}]},"subject":{"reference":"Patient/7c59efb5-56ab-4a25-af83-bd81daeee026"},"onsetDateTime":"2026-06-30T23:59:59.000+00:00"},"request":{"method":"PUT","url":"Condition/728e9d12-63b1-4bea-818d-5a6f200302ed"}},{"fullUrl":"https://madie.cms.gov/MedicationRequest/2d79264e-67b0-4dea-a26f-721a924d10b9","resource":{"resourceType":"MedicationRequest","id":"2d79264e-67b0-4dea-a26f-721a924d10b9","meta":{"profile":["http://hl7.org/fhir/us/qicore/StructureDefinition/qicore-medicationrequest"]},"status":"active","intent":"order","doNotPerform":false,"medicationCodeableConcept":{"coding":[{"system":"http://www.nlm.nih.gov/research/umls/rxnorm","code":"312836","display":"rivastigmine 6 MG Oral Capsule"}]},"subject":{"reference":"Patient/7c59efb5-56ab-4a25-af83-bd81daeee026"},"authoredOn":"2026-01-01T00:00:00.000+00:00","requester":{"reference":"Practitioner/example"},"dispenseRequest":{"expectedSupplyDuration":{"value":90,"system":"http://unitsofmeasure.org","code":"days"}}},"request":{"method":"PUT","url":"MedicationRequest/2d79264e-67b0-4dea-a26f-721a924d10b9"}},{"fullUrl":"https://madie.cms.gov/Observation/f9a2c380-bee8-4fe3-adda-d12d3c902731","resource":{"resourceType":"Observation","id":"f9a2c380-bee8-4fe3-adda-d12d3c902731","meta":{"profile":["http://hl7.org/fhir/us/qicore/StructureDefinition/qicore-observation-screening-assessment"]},"status":"final","category":[{"coding":[{"system":"http://terminology.hl7.org/CodeSystem/observation-category","code":"survey"}]}],"code":{"coding":[{"system":"http://loinc.org","code":"98181-1","display":"Medical equipment used"}]},"subject":{"reference":"Patient/7c59efb5-56ab-4a25-af83-bd81daeee026"},"effectivePeriod":{"start":"2026-01-01T00:00:00.000+00:00","end":"2026-01-01T01:00:00.000+00:00"},"valueCodeableConcept":{"coding":[{"system":"http://snomed.info/sct","code":"262177002","display":"Static oxygen cylinder (physical object)"}]}},"request":{"method":"PUT","url":"Observation/f9a2c380-bee8-4fe3-adda-d12d3c902731"}},{"fullUrl":"https://madie.cms.gov/MeasureReport/df857546-e6db-4d42-900c-e30b9f9fd65a","resource":{"resourceType":"MeasureReport","id":"df857546-e6db-4d42-900c-e30b9f9fd65a","meta":{"profile":["http://hl7.org/fhir/us/cqfmeasures/StructureDefinition/test-case-cqfm"]},"contained":[{"resourceType":"Parameters","id":"6b2f62c3-654a-4cc6-b7b5-be24f7d14f00-parameters","parameter":[{"name":"subject","valueString":"7c59efb5-56ab-4a25-af83-bd81daeee026"}]}],"extension":[{"url":"http://hl7.org/fhir/StructureDefinition/cqf-inputParameters","valueReference":{"reference":"#6b2f62c3-654a-4cc6-b7b5-be24f7d14f00-parameters"}},{"url":"http://hl7.org/fhir/us/cqfmeasures/StructureDefinition/cqfm-testCaseDescription","valueMarkdown":"Frailty observation during MP"}],"modifierExtension":[{"url":"http://hl7.org/fhir/us/cqfmeasures/StructureDefinition/cqfm-isTestCase","valueBoolean":true}],"status":"complete","type":"individual","measure":"https://madie.cms.gov/Measure/CMS165FHIRControllingHighBloodPressure","period":{"start":"2026-01-01","end":"2026-12-31"},"group":[{"id":"Group_1","population":[{"id":"InitialPopulation_1","code":{"coding":[{"system":"http://terminology.hl7.org/CodeSystem/measure-population","code":"initial-population","display":"Initial Population"}]},"count":1},{"id":"Denominator_1","code":{"coding":[{"system":"http://terminology.hl7.org/CodeSystem/measure-population","code":"denominator","display":"Denominator"}]},"count":1},{"id":"DenominatorExclusion_1","code":{"coding":[{"system":"http://terminology.hl7.org/CodeSystem/measure-population","code":"denominator-exclusion","display":"Denominator Exclusion"}]},"count":1},{"id":"Numerator_1","code":{"coding":[{"system":"http://terminology.hl7.org/CodeSystem/measure-population","code":"numerator","display":"Numerator"}]},"count":0}],"measureScore":{"value":1.0}}],"evaluatedResource":[{"reference":"Patient/7c59efb5-56ab-4a25-af83-bd81daeee026"},{"reference":"Encounter/839f7f99-cd80-4025-9dd2-e34d15f419d3"},{"reference":"Condition/728e9d12-63b1-4bea-818d-5a6f200302ed"},{"reference":"MedicationRequest/2d79264e-67b0-4dea-a26f-721a924d10b9"},{"reference":"Observation/f9a2c380-bee8-4fe3-adda-d12d3c902731"}]},"request":{"method":"PUT","url":"MeasureReport/df857546-e6db-4d42-900c-e30b9f9fd65a"}}]},"request":{"method":"PUT","url":"Bundle/DENEXPass-FrailtyObsDuringMP"}},{"fullUrl":"MeasureReport/df857546-e6db-4d42-900c-e30b9f9fd65a","resource":{"resourceType":"MeasureReport","id":"df857546-e6db-4d42-900c-e30b9f9fd65a","meta":{"profile":["http://hl7.org/fhir/us/cqfmeasures/StructureDefinition/test-case-cqfm"]},"contained":[{"resourceType":"Parameters","id":"6b2f62c3-654a-4cc6-b7b5-be24f7d14f00-parameters","parameter":[{"name":"subject","valueString":"7c59efb5-56ab-4a25-af83-bd81daeee026"}]}],"extension":[{"url":"http://hl7.org/fhir/StructureDefinition/cqf-inputParameters","valueReference":{"reference":"#6b2f62c3-654a-4cc6-b7b5-be24f7d14f00-parameters"}},{"url":"http://hl7.org/fhir/us/cqfmeasures/StructureDefinition/cqfm-testCaseDescription","valueMarkdown":"Frailty observation during MP"}],"modifierExtension":[{"url":"http://hl7.org/fhir/us/cqfmeasures/StructureDefinition/cqfm-isTestCase","valueBoolean":true}],"status":"complete","type":"individual","measure":"https://madie.cms.gov/Measure/CMS165FHIRControllingHighBloodPressure","period":{"start":"2026-01-01","end":"2026-12-31"},"group":[{"id":"Group_1","population":[{"id":"InitialPopulation_1","code":{"coding":[{"system":"http://terminology.hl7.org/CodeSystem/measure-population","code":"initial-population","display":"Initial Population"}]},"count":1},{"id":"Denominator_1","code":{"coding":[{"system":"http://terminology.hl7.org/CodeSystem/measure-population","code":"denominator","display":"Denominator"}]},"count":1},{"id":"DenominatorExclusion_1","code":{"coding":[{"system":"http://terminology.hl7.org/CodeSystem/measure-population","code":"denominator-exclusion","display":"Denominator Exclusion"}]},"count":1},{"id":"Numerator_1","code":{"coding":[{"system":"http://terminology.hl7.org/CodeSystem/measure-population","code":"numerator","display":"Numerator"}]},"count":0}],"measureScore":{"value":1.0}}],"evaluatedResource":[{"reference":"Patient/7c59efb5-56ab-4a25-af83-bd81daeee026"},{"reference":"Encounter/839f7f99-cd80-4025-9dd2-e34d15f419d3"},{"reference":"Condition/728e9d12-63b1-4bea-818d-5a6f200302ed"},{"reference":"MedicationRequest/2d79264e-67b0-4dea-a26f-721a924d10b9"},{"reference":"Observation/f9a2c380-bee8-4fe3-adda-d12d3c902731"}]},"request":{"method":"PUT","url":"MeasureReport/df857546-e6db-4d42-900c-e30b9f9fd65a"}},{"fullUrl":"Encounter/839f7f99-cd80-4025-9dd2-e34d15f419d3","resource":{"resourceType":"Encounter","id":"839f7f99-cd80-4025-9dd2-e34d15f419d3","meta":{"profile":["http://hl7.org/fhir/us/qicore/StructureDefinition/qicore-encounter"]},"status":"finished","class":{"system":"http://terminology.hl7.org/CodeSystem/v3-ActCode","code":"AMB","display":"ambulatory"},"type":[{"coding":[{"system":"http://snomed.info/sct","code":"3391000175108","display":"Office visit for pediatric care and assessment (procedure)"}]}],"subject":{"reference":"Patient/7c59efb5-56ab-4a25-af83-bd81daeee026"},"period":{"start":"2026-01-01T00:00:00.000+00:00","end":"2026-01-01T01:00:00.000+00:00"}},"request":{"method":"PUT","url":"Encounter/839f7f99-cd80-4025-9dd2-e34d15f419d3"}}]}