{"resourceType":"Bundle","id":"tests-1905549a-1783-4195-95b9-b0879cb81d96-bundle","type":"transaction","entry":[{"resource":{"resourceType":"Bundle","id":"DENEXPass-DementiaStartsDuringMP","type":"transaction","entry":[{"fullUrl":"https://madie.cms.gov/Patient/1905549a-1783-4195-95b9-b0879cb81d96","resource":{"resourceType":"Patient","id":"1905549a-1783-4195-95b9-b0879cb81d96","meta":{"profile":["http://hl7.org/fhir/us/qicore/StructureDefinition/qicore-patient"]},"extension":[{"url":"http://hl7.org/fhir/us/core/StructureDefinition/us-core-race","extension":[{"url":"ombCategory","valueCoding":{"system":"urn:oid:2.16.840.1.113883.6.238","code":"2028-9","display":"Asian"}},{"url":"text","valueString":"Asian"}]},{"url":"http://hl7.org/fhir/us/core/StructureDefinition/us-core-ethnicity","extension":[{"url":"ombCategory","valueCoding":{"system":"urn:oid:2.16.840.1.113883.6.238","code":"2135-2","display":"Hispanic or Latino"}},{"url":"text","valueString":"Hispanic or Latino"}]}],"identifier":[{"system":"http://hospital.smarthealthit.org","value":"999999995"}],"name":[{"family":"DENEXPass","given":["DementiaStartsDuringMP"]}],"gender":"female","birthDate":"1959-12-31"},"request":{"method":"PUT","url":"Patient/1905549a-1783-4195-95b9-b0879cb81d96"}},{"fullUrl":"https://madie.cms.gov/Encounter/6042d2a1-883a-4073-8389-379304dd783b","resource":{"resourceType":"Encounter","id":"6042d2a1-883a-4073-8389-379304dd783b","meta":{"profile":["http://hl7.org/fhir/us/qicore/StructureDefinition/qicore-encounter"]},"status":"finished","class":{"system":"http://terminology.hl7.org/CodeSystem/v3-ActCode","code":"AMB","display":"ambulatory"},"type":[{"coding":[{"system":"http://snomed.info/sct","code":"3391000175108","display":"Office visit for pediatric care and assessment (procedure)"}]}],"subject":{"reference":"Patient/1905549a-1783-4195-95b9-b0879cb81d96"},"period":{"start":"2026-01-01T00:00:00.000Z","end":"2026-01-01T01:00:00.000Z"}},"request":{"method":"PUT","url":"Encounter/6042d2a1-883a-4073-8389-379304dd783b"}},{"fullUrl":"https://madie.cms.gov/Condition/004fa403-5317-4541-a559-c12e10edc7de","resource":{"resourceType":"Condition","id":"004fa403-5317-4541-a559-c12e10edc7de","meta":{"profile":["http://hl7.org/fhir/us/qicore/StructureDefinition/qicore-condition-problems-health-concerns"]},"clinicalStatus":{"coding":[{"system":"http://terminology.hl7.org/CodeSystem/condition-clinical","code":"active"}]},"category":[{"coding":[{"system":"http://terminology.hl7.org/CodeSystem/condition-category","code":"problem-list-item","display":"Problem List Item"}]}],"code":{"coding":[{"system":"http://snomed.info/sct","code":"371125006","display":"Labile essential hypertension (disorder)"}]},"subject":{"reference":"Patient/1905549a-1783-4195-95b9-b0879cb81d96"},"onsetDateTime":"2026-06-30T23:59:59.000Z"},"request":{"method":"PUT","url":"Condition/004fa403-5317-4541-a559-c12e10edc7de"}},{"fullUrl":"https://madie.cms.gov/MedicationRequest/8e9bfcee-8565-4009-b90e-8deca9f82957","resource":{"resourceType":"MedicationRequest","id":"8e9bfcee-8565-4009-b90e-8deca9f82957","meta":{"profile":["http://hl7.org/fhir/us/qicore/StructureDefinition/qicore-medicationrequest"]},"status":"active","intent":"order","doNotPerform":false,"medicationCodeableConcept":{"coding":[{"system":"http://www.nlm.nih.gov/research/umls/rxnorm","code":"312836","display":"rivastigmine 6 MG Oral Capsule"}]},"subject":{"reference":"Patient/1905549a-1783-4195-95b9-b0879cb81d96"},"authoredOn":"2026-12-30T00:00:00.000Z","requester":{"reference":"Practitioner/example"},"dispenseRequest":{"expectedSupplyDuration":{"value":90,"system":"http://unitsofmeasure.org","code":"days"}}},"request":{"method":"PUT","url":"MedicationRequest/8e9bfcee-8565-4009-b90e-8deca9f82957"}},{"fullUrl":"https://madie.cms.gov/DeviceRequest/3849ca71-83d3-4453-9f36-b88f5134e924","resource":{"resourceType":"DeviceRequest","id":"3849ca71-83d3-4453-9f36-b88f5134e924","meta":{"profile":["http://hl7.org/fhir/us/qicore/StructureDefinition/qicore-devicerequest"]},"modifierExtension":[{"url":"http://hl7.org/fhir/us/qicore/StructureDefinition/qicore-doNotPeform","valueBoolean":false}],"status":"completed","intent":"order","codeCodeableConcept":{"coding":[{"system":"http://snomed.info/sct","code":"183240000","display":"Self-propelled wheelchair (physical object)"}]},"subject":{"reference":"Patient/1905549a-1783-4195-95b9-b0879cb81d96"},"authoredOn":"2026-11-01T23:59:00.000Z"},"request":{"method":"PUT","url":"DeviceRequest/3849ca71-83d3-4453-9f36-b88f5134e924"}},{"fullUrl":"https://madie.cms.gov/MeasureReport/de192271-9087-4e65-ad35-2768080be875","resource":{"resourceType":"MeasureReport","id":"de192271-9087-4e65-ad35-2768080be875","meta":{"profile":["http://hl7.org/fhir/us/cqfmeasures/StructureDefinition/test-case-cqfm"]},"contained":[{"resourceType":"Parameters","id":"fc6c0df5-4266-4b02-94cc-1a85a33d34e9-parameters","parameter":[{"name":"subject","valueString":"1905549a-1783-4195-95b9-b0879cb81d96"}]}],"extension":[{"url":"http://hl7.org/fhir/StructureDefinition/cqf-inputParameters","valueReference":{"reference":"#fc6c0df5-4266-4b02-94cc-1a85a33d34e9-parameters"}},{"url":"http://hl7.org/fhir/us/cqfmeasures/StructureDefinition/cqfm-testCaseDescription","valueMarkdown":"Dementia medication (as CodeableConcept) starts during MP"}],"modifierExtension":[{"url":"http://hl7.org/fhir/us/cqfmeasures/StructureDefinition/cqfm-isTestCase","valueBoolean":true}],"status":"complete","type":"individual","measure":"https://madie.cms.gov/Measure/CMS165FHIRControllingHighBloodPressure","period":{"start":"2026-01-01","end":"2026-12-31"},"group":[{"id":"Group_1","population":[{"id":"InitialPopulation_1","code":{"coding":[{"system":"http://terminology.hl7.org/CodeSystem/measure-population","code":"initial-population","display":"Initial Population"}]},"count":1},{"id":"Denominator_1","code":{"coding":[{"system":"http://terminology.hl7.org/CodeSystem/measure-population","code":"denominator","display":"Denominator"}]},"count":1},{"id":"DenominatorExclusion_1","code":{"coding":[{"system":"http://terminology.hl7.org/CodeSystem/measure-population","code":"denominator-exclusion","display":"Denominator Exclusion"}]},"count":1},{"id":"Numerator_1","code":{"coding":[{"system":"http://terminology.hl7.org/CodeSystem/measure-population","code":"numerator","display":"Numerator"}]},"count":0}],"measureScore":{"value":1.0}}],"evaluatedResource":[{"reference":"Patient/1905549a-1783-4195-95b9-b0879cb81d96"},{"reference":"Encounter/6042d2a1-883a-4073-8389-379304dd783b"},{"reference":"Condition/004fa403-5317-4541-a559-c12e10edc7de"},{"reference":"MedicationRequest/8e9bfcee-8565-4009-b90e-8deca9f82957"},{"reference":"DeviceRequest/3849ca71-83d3-4453-9f36-b88f5134e924"}]},"request":{"method":"PUT","url":"MeasureReport/de192271-9087-4e65-ad35-2768080be875"}}]},"request":{"method":"PUT","url":"Bundle/DENEXPass-DementiaStartsDuringMP"}},{"resource":{"resourceType":"Encounter","id":"6042d2a1-883a-4073-8389-379304dd783b","meta":{"profile":["http://hl7.org/fhir/us/qicore/StructureDefinition/qicore-encounter"]},"status":"finished","class":{"system":"http://terminology.hl7.org/CodeSystem/v3-ActCode","code":"AMB","display":"ambulatory"},"type":[{"coding":[{"system":"http://snomed.info/sct","code":"3391000175108","display":"Office visit for pediatric care and assessment (procedure)"}]}],"subject":{"reference":"Patient/1905549a-1783-4195-95b9-b0879cb81d96"},"period":{"start":"2026-01-01T00:00:00.000Z","end":"2026-01-01T01:00:00.000Z"}},"request":{"method":"PUT","url":"Encounter/6042d2a1-883a-4073-8389-379304dd783b"}},{"resource":{"resourceType":"MeasureReport","id":"de192271-9087-4e65-ad35-2768080be875","meta":{"profile":["http://hl7.org/fhir/us/cqfmeasures/StructureDefinition/test-case-cqfm"]},"contained":[{"resourceType":"Parameters","id":"fc6c0df5-4266-4b02-94cc-1a85a33d34e9-parameters","parameter":[{"name":"subject","valueString":"1905549a-1783-4195-95b9-b0879cb81d96"}]}],"extension":[{"url":"http://hl7.org/fhir/StructureDefinition/cqf-inputParameters","valueReference":{"reference":"#fc6c0df5-4266-4b02-94cc-1a85a33d34e9-parameters"}},{"url":"http://hl7.org/fhir/us/cqfmeasures/StructureDefinition/cqfm-testCaseDescription","valueMarkdown":"Dementia medication (as CodeableConcept) starts during MP"}],"modifierExtension":[{"url":"http://hl7.org/fhir/us/cqfmeasures/StructureDefinition/cqfm-isTestCase","valueBoolean":true}],"status":"complete","type":"individual","measure":"https://madie.cms.gov/Measure/CMS165FHIRControllingHighBloodPressure","period":{"start":"2026-01-01","end":"2026-12-31"},"group":[{"id":"Group_1","population":[{"id":"InitialPopulation_1","code":{"coding":[{"system":"http://terminology.hl7.org/CodeSystem/measure-population","code":"initial-population","display":"Initial Population"}]},"count":1},{"id":"Denominator_1","code":{"coding":[{"system":"http://terminology.hl7.org/CodeSystem/measure-population","code":"denominator","display":"Denominator"}]},"count":1},{"id":"DenominatorExclusion_1","code":{"coding":[{"system":"http://terminology.hl7.org/CodeSystem/measure-population","code":"denominator-exclusion","display":"Denominator Exclusion"}]},"count":1},{"id":"Numerator_1","code":{"coding":[{"system":"http://terminology.hl7.org/CodeSystem/measure-population","code":"numerator","display":"Numerator"}]},"count":0}],"measureScore":{"value":1.0}}],"evaluatedResource":[{"reference":"Patient/1905549a-1783-4195-95b9-b0879cb81d96"},{"reference":"Encounter/6042d2a1-883a-4073-8389-379304dd783b"},{"reference":"Condition/004fa403-5317-4541-a559-c12e10edc7de"},{"reference":"MedicationRequest/8e9bfcee-8565-4009-b90e-8deca9f82957"},{"reference":"DeviceRequest/3849ca71-83d3-4453-9f36-b88f5134e924"}]},"request":{"method":"PUT","url":"MeasureReport/de192271-9087-4e65-ad35-2768080be875"}},{"resource":{"resourceType":"Condition","id":"004fa403-5317-4541-a559-c12e10edc7de","meta":{"profile":["http://hl7.org/fhir/us/qicore/StructureDefinition/qicore-condition-problems-health-concerns"]},"clinicalStatus":{"coding":[{"system":"http://terminology.hl7.org/CodeSystem/condition-clinical","code":"active"}]},"category":[{"coding":[{"system":"http://terminology.hl7.org/CodeSystem/condition-category","code":"problem-list-item","display":"Problem List Item"}]}],"code":{"coding":[{"system":"http://snomed.info/sct","code":"371125006","display":"Labile essential hypertension (disorder)"}]},"subject":{"reference":"Patient/1905549a-1783-4195-95b9-b0879cb81d96"},"onsetDateTime":"2026-06-30T23:59:59.000Z"},"request":{"method":"PUT","url":"Condition/004fa403-5317-4541-a559-c12e10edc7de"}},{"resource":{"resourceType":"MedicationRequest","id":"8e9bfcee-8565-4009-b90e-8deca9f82957","meta":{"profile":["http://hl7.org/fhir/us/qicore/StructureDefinition/qicore-medicationrequest"]},"status":"active","intent":"order","doNotPerform":false,"medicationCodeableConcept":{"coding":[{"system":"http://www.nlm.nih.gov/research/umls/rxnorm","code":"312836","display":"rivastigmine 6 MG Oral Capsule"}]},"subject":{"reference":"Patient/1905549a-1783-4195-95b9-b0879cb81d96"},"authoredOn":"2026-12-30T00:00:00.000Z","requester":{"reference":"Practitioner/example"},"dispenseRequest":{"expectedSupplyDuration":{"value":90,"system":"http://unitsofmeasure.org","code":"days"}}},"request":{"method":"PUT","url":"MedicationRequest/8e9bfcee-8565-4009-b90e-8deca9f82957"}},{"resource":{"resourceType":"Patient","id":"1905549a-1783-4195-95b9-b0879cb81d96","meta":{"profile":["http://hl7.org/fhir/us/qicore/StructureDefinition/qicore-patient"]},"extension":[{"url":"http://hl7.org/fhir/us/core/StructureDefinition/us-core-race","extension":[{"url":"ombCategory","valueCoding":{"system":"urn:oid:2.16.840.1.113883.6.238","code":"2028-9","display":"Asian"}},{"url":"text","valueString":"Asian"}]},{"url":"http://hl7.org/fhir/us/core/StructureDefinition/us-core-ethnicity","extension":[{"url":"ombCategory","valueCoding":{"system":"urn:oid:2.16.840.1.113883.6.238","code":"2135-2","display":"Hispanic or Latino"}},{"url":"text","valueString":"Hispanic or Latino"}]}],"identifier":[{"system":"http://hospital.smarthealthit.org","value":"999999995"}],"name":[{"family":"DENEXPass","given":["DementiaStartsDuringMP"]}],"gender":"female","birthDate":"1959-12-31"},"request":{"method":"PUT","url":"Patient/1905549a-1783-4195-95b9-b0879cb81d96"}},{"resource":{"resourceType":"DeviceRequest","id":"3849ca71-83d3-4453-9f36-b88f5134e924","meta":{"profile":["http://hl7.org/fhir/us/qicore/StructureDefinition/qicore-devicerequest"]},"modifierExtension":[{"url":"http://hl7.org/fhir/us/qicore/StructureDefinition/qicore-doNotPeform","valueBoolean":false}],"status":"completed","intent":"order","codeCodeableConcept":{"coding":[{"system":"http://snomed.info/sct","code":"183240000","display":"Self-propelled wheelchair (physical object)"}]},"subject":{"reference":"Patient/1905549a-1783-4195-95b9-b0879cb81d96"},"authoredOn":"2026-11-01T23:59:00.000Z"},"request":{"method":"PUT","url":"DeviceRequest/3849ca71-83d3-4453-9f36-b88f5134e924"}}]}