{"resourceType":"Bundle","id":"tests-6d97c086-8776-45f4-898f-cece9e80990a-bundle","type":"transaction","entry":[{"fullUrl":"Encounter/44b509d1-dbda-497d-98eb-531c235044a5","resource":{"resourceType":"Encounter","id":"44b509d1-dbda-497d-98eb-531c235044a5","meta":{"profile":["http://hl7.org/fhir/us/qicore/StructureDefinition/qicore-encounter"]},"status":"finished","class":{"system":"http://terminology.hl7.org/CodeSystem/v3-ActCode","code":"AMB","display":"ambulatory"},"type":[{"coding":[{"system":"http://snomed.info/sct","code":"3391000175108","display":"Office visit for pediatric care and assessment (procedure)"}]}],"subject":{"reference":"Patient/6d97c086-8776-45f4-898f-cece9e80990a"},"period":{"start":"2026-01-01T00:00:00.000+00:00","end":"2026-01-01T01:00:00.000+00:00"}},"request":{"method":"PUT","url":"Encounter/44b509d1-dbda-497d-98eb-531c235044a5"}},{"fullUrl":"MeasureReport/941fac98-3e33-4138-93b9-d82a4a30b783","resource":{"resourceType":"MeasureReport","id":"941fac98-3e33-4138-93b9-d82a4a30b783","meta":{"profile":["http://hl7.org/fhir/us/cqfmeasures/StructureDefinition/test-case-cqfm"]},"contained":[{"resourceType":"Parameters","id":"1e275fc2-92e9-466c-99b6-85b1ab7a96a8-parameters","parameter":[{"name":"subject","valueString":"6d97c086-8776-45f4-898f-cece9e80990a"}]}],"extension":[{"url":"http://hl7.org/fhir/StructureDefinition/cqf-inputParameters","valueReference":{"reference":"#1e275fc2-92e9-466c-99b6-85b1ab7a96a8-parameters"}},{"url":"http://hl7.org/fhir/us/cqfmeasures/StructureDefinition/cqfm-testCaseDescription","valueMarkdown":"Age 80 with only frailty"}],"modifierExtension":[{"url":"http://hl7.org/fhir/us/cqfmeasures/StructureDefinition/cqfm-isTestCase","valueBoolean":true}],"status":"complete","type":"individual","measure":"https://madie.cms.gov/Measure/CMS165FHIRControllingHighBloodPressure","period":{"start":"2026-01-01","end":"2026-12-31"},"group":[{"id":"Group_1","population":[{"id":"InitialPopulation_1","code":{"coding":[{"system":"http://terminology.hl7.org/CodeSystem/measure-population","code":"initial-population","display":"Initial Population"}]},"count":1},{"id":"Denominator_1","code":{"coding":[{"system":"http://terminology.hl7.org/CodeSystem/measure-population","code":"denominator","display":"Denominator"}]},"count":1},{"id":"DenominatorExclusion_1","code":{"coding":[{"system":"http://terminology.hl7.org/CodeSystem/measure-population","code":"denominator-exclusion","display":"Denominator Exclusion"}]},"count":0},{"id":"Numerator_1","code":{"coding":[{"system":"http://terminology.hl7.org/CodeSystem/measure-population","code":"numerator","display":"Numerator"}]},"count":0}],"measureScore":{"value":1.0}}],"evaluatedResource":[{"reference":"Patient/6d97c086-8776-45f4-898f-cece9e80990a"},{"reference":"Encounter/44b509d1-dbda-497d-98eb-531c235044a5"},{"reference":"Condition/6c295ef1-3515-4398-9522-5dc92621b452"},{"reference":"DeviceRequest/785c96f4-eaea-4faa-99ce-6e06bc42a7e2"}]},"request":{"method":"PUT","url":"MeasureReport/941fac98-3e33-4138-93b9-d82a4a30b783"}},{"fullUrl":"Patient/6d97c086-8776-45f4-898f-cece9e80990a","resource":{"resourceType":"Patient","id":"6d97c086-8776-45f4-898f-cece9e80990a","meta":{"profile":["http://hl7.org/fhir/us/qicore/StructureDefinition/qicore-patient"]},"extension":[{"url":"http://hl7.org/fhir/us/core/StructureDefinition/us-core-race","extension":[{"url":"ombCategory","valueCoding":{"system":"urn:oid:2.16.840.1.113883.6.238","code":"2028-9","display":"Asian"}},{"url":"text","valueString":"Asian"}]},{"url":"http://hl7.org/fhir/us/core/StructureDefinition/us-core-ethnicity","extension":[{"url":"ombCategory","valueCoding":{"system":"urn:oid:2.16.840.1.113883.6.238","code":"2135-2","display":"Hispanic or Latino"}},{"url":"text","valueString":"Hispanic or Latino"}]}],"identifier":[{"system":"http://hospital.smarthealthit.org","value":"999999995"}],"name":[{"family":"DENEXFail","given":["Age80FrailtyOnly"]}],"gender":"female","birthDate":"1946-01-01"},"request":{"method":"PUT","url":"Patient/6d97c086-8776-45f4-898f-cece9e80990a"}},{"fullUrl":"Bundle/DENEXFail-Age80FrailtyOnly","resource":{"resourceType":"Bundle","id":"DENEXFail-Age80FrailtyOnly","type":"transaction","entry":[{"fullUrl":"https://madie.cms.gov/Patient/6d97c086-8776-45f4-898f-cece9e80990a","resource":{"resourceType":"Patient","id":"6d97c086-8776-45f4-898f-cece9e80990a","meta":{"profile":["http://hl7.org/fhir/us/qicore/StructureDefinition/qicore-patient"]},"extension":[{"url":"http://hl7.org/fhir/us/core/StructureDefinition/us-core-race","extension":[{"url":"ombCategory","valueCoding":{"system":"urn:oid:2.16.840.1.113883.6.238","code":"2028-9","display":"Asian"}},{"url":"text","valueString":"Asian"}]},{"url":"http://hl7.org/fhir/us/core/StructureDefinition/us-core-ethnicity","extension":[{"url":"ombCategory","valueCoding":{"system":"urn:oid:2.16.840.1.113883.6.238","code":"2135-2","display":"Hispanic or Latino"}},{"url":"text","valueString":"Hispanic or Latino"}]}],"identifier":[{"system":"http://hospital.smarthealthit.org","value":"999999995"}],"name":[{"family":"DENEXFail","given":["Age80FrailtyOnly"]}],"gender":"female","birthDate":"1946-01-01"},"request":{"method":"PUT","url":"Patient/6d97c086-8776-45f4-898f-cece9e80990a"}},{"fullUrl":"https://madie.cms.gov/Encounter/44b509d1-dbda-497d-98eb-531c235044a5","resource":{"resourceType":"Encounter","id":"44b509d1-dbda-497d-98eb-531c235044a5","meta":{"profile":["http://hl7.org/fhir/us/qicore/StructureDefinition/qicore-encounter"]},"status":"finished","class":{"system":"http://terminology.hl7.org/CodeSystem/v3-ActCode","code":"AMB","display":"ambulatory"},"type":[{"coding":[{"system":"http://snomed.info/sct","code":"3391000175108","display":"Office visit for pediatric care and assessment (procedure)"}]}],"subject":{"reference":"Patient/6d97c086-8776-45f4-898f-cece9e80990a"},"period":{"start":"2026-01-01T00:00:00.000+00:00","end":"2026-01-01T01:00:00.000+00:00"}},"request":{"method":"PUT","url":"Encounter/44b509d1-dbda-497d-98eb-531c235044a5"}},{"fullUrl":"https://madie.cms.gov/Condition/6c295ef1-3515-4398-9522-5dc92621b452","resource":{"resourceType":"Condition","id":"6c295ef1-3515-4398-9522-5dc92621b452","meta":{"profile":["http://hl7.org/fhir/us/qicore/StructureDefinition/qicore-condition-problems-health-concerns"]},"clinicalStatus":{"coding":[{"system":"http://terminology.hl7.org/CodeSystem/condition-clinical","code":"active"}]},"category":[{"coding":[{"system":"http://terminology.hl7.org/CodeSystem/condition-category","code":"problem-list-item","display":"Problem List Item"}]}],"code":{"coding":[{"system":"http://snomed.info/sct","code":"371125006","display":"Labile essential hypertension (disorder)"}]},"subject":{"reference":"Patient/6d97c086-8776-45f4-898f-cece9e80990a"},"onsetDateTime":"2026-06-30T23:59:59.000+00:00"},"request":{"method":"PUT","url":"Condition/6c295ef1-3515-4398-9522-5dc92621b452"}},{"fullUrl":"https://madie.cms.gov/DeviceRequest/785c96f4-eaea-4faa-99ce-6e06bc42a7e2","resource":{"resourceType":"DeviceRequest","id":"785c96f4-eaea-4faa-99ce-6e06bc42a7e2","meta":{"profile":["http://hl7.org/fhir/us/qicore/StructureDefinition/qicore-devicerequest"]},"modifierExtension":[{"url":"http://hl7.org/fhir/5.0/StructureDefinition/extension-DeviceRequest.doNotPerform","valueBoolean":false}],"status":"completed","intent":"order","codeCodeableConcept":{"coding":[{"system":"http://snomed.info/sct","code":"183240000","display":"Self-propelled wheelchair (physical object)"}]},"subject":{"reference":"Patient/6d97c086-8776-45f4-898f-cece9e80990a"},"authoredOn":"2026-11-01T23:59:00.000+00:00"},"request":{"method":"PUT","url":"DeviceRequest/785c96f4-eaea-4faa-99ce-6e06bc42a7e2"}},{"fullUrl":"https://madie.cms.gov/MeasureReport/941fac98-3e33-4138-93b9-d82a4a30b783","resource":{"resourceType":"MeasureReport","id":"941fac98-3e33-4138-93b9-d82a4a30b783","meta":{"profile":["http://hl7.org/fhir/us/cqfmeasures/StructureDefinition/test-case-cqfm"]},"contained":[{"resourceType":"Parameters","id":"1e275fc2-92e9-466c-99b6-85b1ab7a96a8-parameters","parameter":[{"name":"subject","valueString":"6d97c086-8776-45f4-898f-cece9e80990a"}]}],"extension":[{"url":"http://hl7.org/fhir/StructureDefinition/cqf-inputParameters","valueReference":{"reference":"#1e275fc2-92e9-466c-99b6-85b1ab7a96a8-parameters"}},{"url":"http://hl7.org/fhir/us/cqfmeasures/StructureDefinition/cqfm-testCaseDescription","valueMarkdown":"Age 80 with only frailty"}],"modifierExtension":[{"url":"http://hl7.org/fhir/us/cqfmeasures/StructureDefinition/cqfm-isTestCase","valueBoolean":true}],"status":"complete","type":"individual","measure":"https://madie.cms.gov/Measure/CMS165FHIRControllingHighBloodPressure","period":{"start":"2026-01-01","end":"2026-12-31"},"group":[{"id":"Group_1","population":[{"id":"InitialPopulation_1","code":{"coding":[{"system":"http://terminology.hl7.org/CodeSystem/measure-population","code":"initial-population","display":"Initial Population"}]},"count":1},{"id":"Denominator_1","code":{"coding":[{"system":"http://terminology.hl7.org/CodeSystem/measure-population","code":"denominator","display":"Denominator"}]},"count":1},{"id":"DenominatorExclusion_1","code":{"coding":[{"system":"http://terminology.hl7.org/CodeSystem/measure-population","code":"denominator-exclusion","display":"Denominator Exclusion"}]},"count":0},{"id":"Numerator_1","code":{"coding":[{"system":"http://terminology.hl7.org/CodeSystem/measure-population","code":"numerator","display":"Numerator"}]},"count":0}],"measureScore":{"value":1.0}}],"evaluatedResource":[{"reference":"Patient/6d97c086-8776-45f4-898f-cece9e80990a"},{"reference":"Encounter/44b509d1-dbda-497d-98eb-531c235044a5"},{"reference":"Condition/6c295ef1-3515-4398-9522-5dc92621b452"},{"reference":"DeviceRequest/785c96f4-eaea-4faa-99ce-6e06bc42a7e2"}]},"request":{"method":"PUT","url":"MeasureReport/941fac98-3e33-4138-93b9-d82a4a30b783"}}]},"request":{"method":"PUT","url":"Bundle/DENEXFail-Age80FrailtyOnly"}},{"fullUrl":"DeviceRequest/785c96f4-eaea-4faa-99ce-6e06bc42a7e2","resource":{"resourceType":"DeviceRequest","id":"785c96f4-eaea-4faa-99ce-6e06bc42a7e2","meta":{"profile":["http://hl7.org/fhir/us/qicore/StructureDefinition/qicore-devicerequest"]},"modifierExtension":[{"url":"http://hl7.org/fhir/5.0/StructureDefinition/extension-DeviceRequest.doNotPerform","valueBoolean":false}],"status":"completed","intent":"order","codeCodeableConcept":{"coding":[{"system":"http://snomed.info/sct","code":"183240000","display":"Self-propelled wheelchair (physical object)"}]},"subject":{"reference":"Patient/6d97c086-8776-45f4-898f-cece9e80990a"},"authoredOn":"2026-11-01T23:59:00.000+00:00"},"request":{"method":"PUT","url":"DeviceRequest/785c96f4-eaea-4faa-99ce-6e06bc42a7e2"}},{"fullUrl":"Condition/6c295ef1-3515-4398-9522-5dc92621b452","resource":{"resourceType":"Condition","id":"6c295ef1-3515-4398-9522-5dc92621b452","meta":{"profile":["http://hl7.org/fhir/us/qicore/StructureDefinition/qicore-condition-problems-health-concerns"]},"clinicalStatus":{"coding":[{"system":"http://terminology.hl7.org/CodeSystem/condition-clinical","code":"active"}]},"category":[{"coding":[{"system":"http://terminology.hl7.org/CodeSystem/condition-category","code":"problem-list-item","display":"Problem List Item"}]}],"code":{"coding":[{"system":"http://snomed.info/sct","code":"371125006","display":"Labile essential hypertension (disorder)"}]},"subject":{"reference":"Patient/6d97c086-8776-45f4-898f-cece9e80990a"},"onsetDateTime":"2026-06-30T23:59:59.000+00:00"},"request":{"method":"PUT","url":"Condition/6c295ef1-3515-4398-9522-5dc92621b452"}}]}