{"resourceType":"Bundle","id":"tests-23004f44-4848-4e62-8813-2a56d900613c-bundle","type":"transaction","entry":[{"fullUrl":"MeasureReport/37569f86-9c24-46d7-9f92-66f079c88295","resource":{"resourceType":"MeasureReport","id":"37569f86-9c24-46d7-9f92-66f079c88295","meta":{"profile":["http://hl7.org/fhir/us/cqfmeasures/StructureDefinition/test-case-cqfm"]},"contained":[{"resourceType":"Parameters","id":"c51e4d16-a4b7-41dc-bd42-3ef878bc7087-parameters","parameter":[{"name":"subject","valueString":"23004f44-4848-4e62-8813-2a56d900613c"}]}],"extension":[{"url":"http://hl7.org/fhir/StructureDefinition/cqf-inputParameters","valueReference":{"reference":"#c51e4d16-a4b7-41dc-bd42-3ef878bc7087-parameters"}},{"url":"http://hl7.org/fhir/us/cqfmeasures/StructureDefinition/cqfm-testCaseDescription","valueMarkdown":"Pregnancy starts 1/1 of next MP - ConditionProblemsHealthConcerns"}],"modifierExtension":[{"url":"http://hl7.org/fhir/us/cqfmeasures/StructureDefinition/cqfm-isTestCase","valueBoolean":true}],"status":"complete","type":"individual","measure":"https://madie.cms.gov/Measure/CMS165FHIRControllingHighBloodPressure","period":{"start":"2026-01-01","end":"2026-12-31"},"group":[{"id":"Group_1","population":[{"id":"InitialPopulation_1","code":{"coding":[{"system":"http://terminology.hl7.org/CodeSystem/measure-population","code":"initial-population","display":"Initial Population"}]},"count":1},{"id":"Denominator_1","code":{"coding":[{"system":"http://terminology.hl7.org/CodeSystem/measure-population","code":"denominator","display":"Denominator"}]},"count":1},{"id":"DenominatorExclusion_1","code":{"coding":[{"system":"http://terminology.hl7.org/CodeSystem/measure-population","code":"denominator-exclusion","display":"Denominator Exclusion"}]},"count":0},{"id":"Numerator_1","code":{"coding":[{"system":"http://terminology.hl7.org/CodeSystem/measure-population","code":"numerator","display":"Numerator"}]},"count":0}],"measureScore":{"value":1.0}}],"evaluatedResource":[{"reference":"Patient/23004f44-4848-4e62-8813-2a56d900613c"},{"reference":"Encounter/8963698e-7821-41d7-9fa4-c20bac113d85"},{"reference":"Condition/4698141d-d61b-40c4-8423-cd63547e876b"},{"reference":"Condition/8f48b5e4-a89b-4674-80e7-f120a7d0f961"}]},"request":{"method":"PUT","url":"MeasureReport/37569f86-9c24-46d7-9f92-66f079c88295"}},{"fullUrl":"Encounter/8963698e-7821-41d7-9fa4-c20bac113d85","resource":{"resourceType":"Encounter","id":"8963698e-7821-41d7-9fa4-c20bac113d85","meta":{"profile":["http://hl7.org/fhir/us/qicore/StructureDefinition/qicore-encounter"]},"status":"finished","class":{"system":"http://terminology.hl7.org/CodeSystem/v3-ActCode","code":"AMB","display":"ambulatory"},"type":[{"coding":[{"system":"http://snomed.info/sct","code":"3391000175108","display":"Office visit for pediatric care and assessment (procedure)"}]}],"subject":{"reference":"Patient/23004f44-4848-4e62-8813-2a56d900613c"},"period":{"start":"2026-01-01T00:00:00.000+00:00","end":"2026-01-01T01:00:00.000+00:00"}},"request":{"method":"PUT","url":"Encounter/8963698e-7821-41d7-9fa4-c20bac113d85"}},{"fullUrl":"Bundle/DENEXFail-PregnancyAfterMP","resource":{"resourceType":"Bundle","id":"DENEXFail-PregnancyAfterMP","type":"transaction","entry":[{"fullUrl":"https://madie.cms.gov/Patient/23004f44-4848-4e62-8813-2a56d900613c","resource":{"resourceType":"Patient","id":"23004f44-4848-4e62-8813-2a56d900613c","meta":{"profile":["http://hl7.org/fhir/us/qicore/StructureDefinition/qicore-patient"]},"extension":[{"url":"http://hl7.org/fhir/us/core/StructureDefinition/us-core-race","extension":[{"url":"ombCategory","valueCoding":{"system":"urn:oid:2.16.840.1.113883.6.238","code":"2028-9","display":"Asian"}},{"url":"text","valueString":"Asian"}]},{"url":"http://hl7.org/fhir/us/core/StructureDefinition/us-core-ethnicity","extension":[{"url":"ombCategory","valueCoding":{"system":"urn:oid:2.16.840.1.113883.6.238","code":"2135-2","display":"Hispanic or Latino"}},{"url":"text","valueString":"Hispanic or Latino"}]}],"identifier":[{"system":"http://hospital.smarthealthit.org","value":"999999995"}],"name":[{"family":"DENEXFail","given":["PregnancyAfterMP"]}],"gender":"female","birthDate":"2007-12-31"},"request":{"method":"PUT","url":"Patient/23004f44-4848-4e62-8813-2a56d900613c"}},{"fullUrl":"https://madie.cms.gov/Encounter/8963698e-7821-41d7-9fa4-c20bac113d85","resource":{"resourceType":"Encounter","id":"8963698e-7821-41d7-9fa4-c20bac113d85","meta":{"profile":["http://hl7.org/fhir/us/qicore/StructureDefinition/qicore-encounter"]},"status":"finished","class":{"system":"http://terminology.hl7.org/CodeSystem/v3-ActCode","code":"AMB","display":"ambulatory"},"type":[{"coding":[{"system":"http://snomed.info/sct","code":"3391000175108","display":"Office visit for pediatric care and assessment (procedure)"}]}],"subject":{"reference":"Patient/23004f44-4848-4e62-8813-2a56d900613c"},"period":{"start":"2026-01-01T00:00:00.000+00:00","end":"2026-01-01T01:00:00.000+00:00"}},"request":{"method":"PUT","url":"Encounter/8963698e-7821-41d7-9fa4-c20bac113d85"}},{"fullUrl":"https://madie.cms.gov/Condition/4698141d-d61b-40c4-8423-cd63547e876b","resource":{"resourceType":"Condition","id":"4698141d-d61b-40c4-8423-cd63547e876b","meta":{"profile":["http://hl7.org/fhir/us/qicore/StructureDefinition/qicore-condition-problems-health-concerns"]},"clinicalStatus":{"coding":[{"system":"http://terminology.hl7.org/CodeSystem/condition-clinical","code":"active"}]},"category":[{"coding":[{"system":"http://terminology.hl7.org/CodeSystem/condition-category","code":"problem-list-item","display":"Problem List Item"}]}],"code":{"coding":[{"system":"http://snomed.info/sct","code":"371125006","display":"Labile essential hypertension (disorder)"}]},"subject":{"reference":"Patient/23004f44-4848-4e62-8813-2a56d900613c"},"onsetDateTime":"2026-06-30T23:59:59.000+00:00"},"request":{"method":"PUT","url":"Condition/4698141d-d61b-40c4-8423-cd63547e876b"}},{"fullUrl":"https://madie.cms.gov/Condition/8f48b5e4-a89b-4674-80e7-f120a7d0f961","resource":{"resourceType":"Condition","id":"8f48b5e4-a89b-4674-80e7-f120a7d0f961","meta":{"profile":["http://hl7.org/fhir/us/qicore/StructureDefinition/qicore-condition-problems-health-concerns"]},"clinicalStatus":{"coding":[{"system":"http://terminology.hl7.org/CodeSystem/condition-clinical","code":"active"}]},"category":[{"coding":[{"system":"http://terminology.hl7.org/CodeSystem/condition-category","code":"problem-list-item","display":"Problem List Item"}]}],"code":{"coding":[{"system":"http://snomed.info/sct","code":"10231000132102","display":"In-vitro fertilization pregnancy (finding)"}]},"subject":{"reference":"Patient/23004f44-4848-4e62-8813-2a56d900613c"},"onsetDateTime":"2027-01-01T00:00:00.000+00:00"},"request":{"method":"PUT","url":"Condition/8f48b5e4-a89b-4674-80e7-f120a7d0f961"}},{"fullUrl":"https://madie.cms.gov/MeasureReport/37569f86-9c24-46d7-9f92-66f079c88295","resource":{"resourceType":"MeasureReport","id":"37569f86-9c24-46d7-9f92-66f079c88295","meta":{"profile":["http://hl7.org/fhir/us/cqfmeasures/StructureDefinition/test-case-cqfm"]},"contained":[{"resourceType":"Parameters","id":"c51e4d16-a4b7-41dc-bd42-3ef878bc7087-parameters","parameter":[{"name":"subject","valueString":"23004f44-4848-4e62-8813-2a56d900613c"}]}],"extension":[{"url":"http://hl7.org/fhir/StructureDefinition/cqf-inputParameters","valueReference":{"reference":"#c51e4d16-a4b7-41dc-bd42-3ef878bc7087-parameters"}},{"url":"http://hl7.org/fhir/us/cqfmeasures/StructureDefinition/cqfm-testCaseDescription","valueMarkdown":"Pregnancy starts 1/1 of next MP - ConditionProblemsHealthConcerns"}],"modifierExtension":[{"url":"http://hl7.org/fhir/us/cqfmeasures/StructureDefinition/cqfm-isTestCase","valueBoolean":true}],"status":"complete","type":"individual","measure":"https://madie.cms.gov/Measure/CMS165FHIRControllingHighBloodPressure","period":{"start":"2026-01-01","end":"2026-12-31"},"group":[{"id":"Group_1","population":[{"id":"InitialPopulation_1","code":{"coding":[{"system":"http://terminology.hl7.org/CodeSystem/measure-population","code":"initial-population","display":"Initial Population"}]},"count":1},{"id":"Denominator_1","code":{"coding":[{"system":"http://terminology.hl7.org/CodeSystem/measure-population","code":"denominator","display":"Denominator"}]},"count":1},{"id":"DenominatorExclusion_1","code":{"coding":[{"system":"http://terminology.hl7.org/CodeSystem/measure-population","code":"denominator-exclusion","display":"Denominator Exclusion"}]},"count":0},{"id":"Numerator_1","code":{"coding":[{"system":"http://terminology.hl7.org/CodeSystem/measure-population","code":"numerator","display":"Numerator"}]},"count":0}],"measureScore":{"value":1.0}}],"evaluatedResource":[{"reference":"Patient/23004f44-4848-4e62-8813-2a56d900613c"},{"reference":"Encounter/8963698e-7821-41d7-9fa4-c20bac113d85"},{"reference":"Condition/4698141d-d61b-40c4-8423-cd63547e876b"},{"reference":"Condition/8f48b5e4-a89b-4674-80e7-f120a7d0f961"}]},"request":{"method":"PUT","url":"MeasureReport/37569f86-9c24-46d7-9f92-66f079c88295"}}]},"request":{"method":"PUT","url":"Bundle/DENEXFail-PregnancyAfterMP"}},{"fullUrl":"Condition/8f48b5e4-a89b-4674-80e7-f120a7d0f961","resource":{"resourceType":"Condition","id":"8f48b5e4-a89b-4674-80e7-f120a7d0f961","meta":{"profile":["http://hl7.org/fhir/us/qicore/StructureDefinition/qicore-condition-problems-health-concerns"]},"clinicalStatus":{"coding":[{"system":"http://terminology.hl7.org/CodeSystem/condition-clinical","code":"active"}]},"category":[{"coding":[{"system":"http://terminology.hl7.org/CodeSystem/condition-category","code":"problem-list-item","display":"Problem List Item"}]}],"code":{"coding":[{"system":"http://snomed.info/sct","code":"10231000132102","display":"In-vitro fertilization pregnancy (finding)"}]},"subject":{"reference":"Patient/23004f44-4848-4e62-8813-2a56d900613c"},"onsetDateTime":"2027-01-01T00:00:00.000+00:00"},"request":{"method":"PUT","url":"Condition/8f48b5e4-a89b-4674-80e7-f120a7d0f961"}},{"fullUrl":"Condition/4698141d-d61b-40c4-8423-cd63547e876b","resource":{"resourceType":"Condition","id":"4698141d-d61b-40c4-8423-cd63547e876b","meta":{"profile":["http://hl7.org/fhir/us/qicore/StructureDefinition/qicore-condition-problems-health-concerns"]},"clinicalStatus":{"coding":[{"system":"http://terminology.hl7.org/CodeSystem/condition-clinical","code":"active"}]},"category":[{"coding":[{"system":"http://terminology.hl7.org/CodeSystem/condition-category","code":"problem-list-item","display":"Problem List Item"}]}],"code":{"coding":[{"system":"http://snomed.info/sct","code":"371125006","display":"Labile essential hypertension (disorder)"}]},"subject":{"reference":"Patient/23004f44-4848-4e62-8813-2a56d900613c"},"onsetDateTime":"2026-06-30T23:59:59.000+00:00"},"request":{"method":"PUT","url":"Condition/4698141d-d61b-40c4-8423-cd63547e876b"}},{"fullUrl":"Patient/23004f44-4848-4e62-8813-2a56d900613c","resource":{"resourceType":"Patient","id":"23004f44-4848-4e62-8813-2a56d900613c","meta":{"profile":["http://hl7.org/fhir/us/qicore/StructureDefinition/qicore-patient"]},"extension":[{"url":"http://hl7.org/fhir/us/core/StructureDefinition/us-core-race","extension":[{"url":"ombCategory","valueCoding":{"system":"urn:oid:2.16.840.1.113883.6.238","code":"2028-9","display":"Asian"}},{"url":"text","valueString":"Asian"}]},{"url":"http://hl7.org/fhir/us/core/StructureDefinition/us-core-ethnicity","extension":[{"url":"ombCategory","valueCoding":{"system":"urn:oid:2.16.840.1.113883.6.238","code":"2135-2","display":"Hispanic or Latino"}},{"url":"text","valueString":"Hispanic or Latino"}]}],"identifier":[{"system":"http://hospital.smarthealthit.org","value":"999999995"}],"name":[{"family":"DENEXFail","given":["PregnancyAfterMP"]}],"gender":"female","birthDate":"2007-12-31"},"request":{"method":"PUT","url":"Patient/23004f44-4848-4e62-8813-2a56d900613c"}}]}