{"resourceType":"Bundle","id":"tests-2c55811b-1571-43e5-919c-f90bf763b3d4-bundle","type":"transaction","entry":[{"fullUrl":"MedicationRequest/43959988-4b85-4004-b27d-bfe22733f6f1","resource":{"resourceType":"MedicationRequest","id":"43959988-4b85-4004-b27d-bfe22733f6f1","meta":{"profile":["http://hl7.org/fhir/us/qicore/StructureDefinition/qicore-medicationrequest"]},"status":"active","intent":"order","doNotPerform":false,"medicationCodeableConcept":{"coding":[{"system":"http://www.nlm.nih.gov/research/umls/rxnorm","code":"312836","display":"rivastigmine 6 MG Oral Capsule"}]},"subject":{"reference":"Patient/2c55811b-1571-43e5-919c-f90bf763b3d4"},"authoredOn":"2026-12-30T00:00:00.000+00:00","requester":{"reference":"Practitioner/example"},"dispenseRequest":{"expectedSupplyDuration":{"value":90,"system":"http://unitsofmeasure.org","code":"days"}}},"request":{"method":"PUT","url":"MedicationRequest/43959988-4b85-4004-b27d-bfe22733f6f1"}},{"fullUrl":"Condition/93e4c5c8-11a6-404d-bc23-b022c0636189","resource":{"resourceType":"Condition","id":"93e4c5c8-11a6-404d-bc23-b022c0636189","meta":{"profile":["http://hl7.org/fhir/us/qicore/StructureDefinition/qicore-condition-problems-health-concerns"]},"clinicalStatus":{"coding":[{"system":"http://terminology.hl7.org/CodeSystem/condition-clinical","code":"active"}]},"category":[{"coding":[{"system":"http://terminology.hl7.org/CodeSystem/condition-category","code":"problem-list-item","display":"Problem List Item"}]}],"code":{"coding":[{"system":"http://snomed.info/sct","code":"371125006","display":"Labile essential hypertension (disorder)"}]},"subject":{"reference":"Patient/2c55811b-1571-43e5-919c-f90bf763b3d4"},"onsetDateTime":"2026-06-30T23:59:59.000+00:00"},"request":{"method":"PUT","url":"Condition/93e4c5c8-11a6-404d-bc23-b022c0636189"}},{"fullUrl":"Bundle/DENEXPass-DementiaDoNotPerformIsFalse","resource":{"resourceType":"Bundle","id":"DENEXPass-DementiaDoNotPerformIsFalse","type":"transaction","entry":[{"fullUrl":"https://madie.cms.gov/Patient/2c55811b-1571-43e5-919c-f90bf763b3d4","resource":{"resourceType":"Patient","id":"2c55811b-1571-43e5-919c-f90bf763b3d4","meta":{"profile":["http://hl7.org/fhir/us/qicore/StructureDefinition/qicore-patient"]},"extension":[{"url":"http://hl7.org/fhir/us/core/StructureDefinition/us-core-race","extension":[{"url":"ombCategory","valueCoding":{"system":"urn:oid:2.16.840.1.113883.6.238","code":"2028-9","display":"Asian","userSelected":true}},{"url":"text","valueString":"Asian"}]},{"url":"http://hl7.org/fhir/us/core/StructureDefinition/us-core-ethnicity","extension":[{"url":"ombCategory","valueCoding":{"system":"urn:oid:2.16.840.1.113883.6.238","code":"2135-2","display":"Hispanic or Latino","userSelected":true}},{"url":"text","valueString":"Hispanic or Latino"}]}],"identifier":[{"type":{"coding":[{"system":"http://terminology.hl7.org/CodeSystem/v2-0203","code":"MR"}]},"system":"http://hospital.smarthealthit.org","value":"999999995"}],"name":[{"family":"DENEXPass","given":["DementiaDoNotPerformIsFalse"]}],"gender":"female","birthDate":"1959-12-31"},"request":{"method":"PUT","url":"Patient/2c55811b-1571-43e5-919c-f90bf763b3d4"}},{"fullUrl":"https://madie.cms.gov/Encounter/d479feb5-6bc3-4481-a1c4-87f749aa4f86","resource":{"resourceType":"Encounter","id":"d479feb5-6bc3-4481-a1c4-87f749aa4f86","meta":{"profile":["http://hl7.org/fhir/us/qicore/StructureDefinition/qicore-encounter"]},"status":"finished","class":{"system":"http://terminology.hl7.org/CodeSystem/v3-ActCode","code":"AMB","display":"ambulatory"},"type":[{"coding":[{"system":"http://snomed.info/sct","code":"3391000175108","display":"Office visit for pediatric care and assessment (procedure)"}]}],"subject":{"reference":"Patient/2c55811b-1571-43e5-919c-f90bf763b3d4"},"period":{"start":"2026-01-01T00:00:00.000+00:00","end":"2026-01-01T01:00:00.000+00:00"}},"request":{"method":"PUT","url":"Encounter/d479feb5-6bc3-4481-a1c4-87f749aa4f86"}},{"fullUrl":"https://madie.cms.gov/Condition/93e4c5c8-11a6-404d-bc23-b022c0636189","resource":{"resourceType":"Condition","id":"93e4c5c8-11a6-404d-bc23-b022c0636189","meta":{"profile":["http://hl7.org/fhir/us/qicore/StructureDefinition/qicore-condition-problems-health-concerns"]},"clinicalStatus":{"coding":[{"system":"http://terminology.hl7.org/CodeSystem/condition-clinical","code":"active"}]},"category":[{"coding":[{"system":"http://terminology.hl7.org/CodeSystem/condition-category","code":"problem-list-item","display":"Problem List Item"}]}],"code":{"coding":[{"system":"http://snomed.info/sct","code":"371125006","display":"Labile essential hypertension (disorder)"}]},"subject":{"reference":"Patient/2c55811b-1571-43e5-919c-f90bf763b3d4"},"onsetDateTime":"2026-06-30T23:59:59.000+00:00"},"request":{"method":"PUT","url":"Condition/93e4c5c8-11a6-404d-bc23-b022c0636189"}},{"fullUrl":"https://madie.cms.gov/MedicationRequest/43959988-4b85-4004-b27d-bfe22733f6f1","resource":{"resourceType":"MedicationRequest","id":"43959988-4b85-4004-b27d-bfe22733f6f1","meta":{"profile":["http://hl7.org/fhir/us/qicore/StructureDefinition/qicore-medicationrequest"]},"status":"active","intent":"order","doNotPerform":false,"medicationCodeableConcept":{"coding":[{"system":"http://www.nlm.nih.gov/research/umls/rxnorm","code":"312836","display":"rivastigmine 6 MG Oral Capsule"}]},"subject":{"reference":"Patient/2c55811b-1571-43e5-919c-f90bf763b3d4"},"authoredOn":"2026-12-30T00:00:00.000+00:00","requester":{"reference":"Practitioner/example"},"dispenseRequest":{"expectedSupplyDuration":{"value":90,"system":"http://unitsofmeasure.org","code":"days"}}},"request":{"method":"PUT","url":"MedicationRequest/43959988-4b85-4004-b27d-bfe22733f6f1"}},{"fullUrl":"https://madie.cms.gov/DeviceRequest/3385ceb5-b201-4bed-aa9e-7658ebd4e113","resource":{"resourceType":"DeviceRequest","id":"3385ceb5-b201-4bed-aa9e-7658ebd4e113","meta":{"profile":["http://hl7.org/fhir/us/qicore/StructureDefinition/qicore-devicerequest"]},"modifierExtension":[{"url":"http://hl7.org/fhir/5.0/StructureDefinition/extension-DeviceRequest.doNotPerform","valueBoolean":false}],"status":"completed","intent":"order","codeCodeableConcept":{"coding":[{"system":"http://snomed.info/sct","code":"183240000","display":"Self-propelled wheelchair (physical object)"}]},"subject":{"reference":"Patient/2c55811b-1571-43e5-919c-f90bf763b3d4"},"authoredOn":"2026-11-01T23:59:00.000+00:00"},"request":{"method":"PUT","url":"DeviceRequest/3385ceb5-b201-4bed-aa9e-7658ebd4e113"}},{"fullUrl":"https://madie.cms.gov/MeasureReport/2a42e117-9bab-4506-8597-481ed69e02ee","resource":{"resourceType":"MeasureReport","id":"2a42e117-9bab-4506-8597-481ed69e02ee","meta":{"profile":["http://hl7.org/fhir/us/cqfmeasures/StructureDefinition/test-case-cqfm"]},"contained":[{"resourceType":"Parameters","id":"7f7e6db9-30ba-40d4-94a0-9943fe8fced4-parameters","parameter":[{"name":"subject","valueString":"2c55811b-1571-43e5-919c-f90bf763b3d4"}]}],"extension":[{"url":"http://hl7.org/fhir/StructureDefinition/cqf-inputParameters","valueReference":{"reference":"#7f7e6db9-30ba-40d4-94a0-9943fe8fced4-parameters"}},{"url":"http://hl7.org/fhir/us/cqfmeasures/StructureDefinition/cqfm-testCaseDescription","valueMarkdown":"Dementia medication request doNotPerform is set to false (also fixed in QICore STU6)."}],"modifierExtension":[{"url":"http://hl7.org/fhir/us/cqfmeasures/StructureDefinition/cqfm-isTestCase","valueBoolean":true}],"status":"complete","type":"individual","measure":"https://madie.cms.gov/Measure/CMS165FHIRControllingHighBloodPressure","period":{"start":"2026-01-01","end":"2026-12-31"},"group":[{"id":"Group_1","population":[{"id":"InitialPopulation_1","code":{"coding":[{"system":"http://terminology.hl7.org/CodeSystem/measure-population","code":"initial-population","display":"Initial Population"}]},"count":1},{"id":"Denominator_1","code":{"coding":[{"system":"http://terminology.hl7.org/CodeSystem/measure-population","code":"denominator","display":"Denominator"}]},"count":1},{"id":"DenominatorExclusion_1","code":{"coding":[{"system":"http://terminology.hl7.org/CodeSystem/measure-population","code":"denominator-exclusion","display":"Denominator Exclusion"}]},"count":1},{"id":"Numerator_1","code":{"coding":[{"system":"http://terminology.hl7.org/CodeSystem/measure-population","code":"numerator","display":"Numerator"}]},"count":0}],"measureScore":{"value":1.0}}],"evaluatedResource":[{"reference":"Patient/2c55811b-1571-43e5-919c-f90bf763b3d4"},{"reference":"Encounter/d479feb5-6bc3-4481-a1c4-87f749aa4f86"},{"reference":"Condition/93e4c5c8-11a6-404d-bc23-b022c0636189"},{"reference":"MedicationRequest/43959988-4b85-4004-b27d-bfe22733f6f1"},{"reference":"DeviceRequest/3385ceb5-b201-4bed-aa9e-7658ebd4e113"}]},"request":{"method":"PUT","url":"MeasureReport/2a42e117-9bab-4506-8597-481ed69e02ee"}}]},"request":{"method":"PUT","url":"Bundle/DENEXPass-DementiaDoNotPerformIsFalse"}},{"fullUrl":"MeasureReport/2a42e117-9bab-4506-8597-481ed69e02ee","resource":{"resourceType":"MeasureReport","id":"2a42e117-9bab-4506-8597-481ed69e02ee","meta":{"profile":["http://hl7.org/fhir/us/cqfmeasures/StructureDefinition/test-case-cqfm"]},"contained":[{"resourceType":"Parameters","id":"7f7e6db9-30ba-40d4-94a0-9943fe8fced4-parameters","parameter":[{"name":"subject","valueString":"2c55811b-1571-43e5-919c-f90bf763b3d4"}]}],"extension":[{"url":"http://hl7.org/fhir/StructureDefinition/cqf-inputParameters","valueReference":{"reference":"#7f7e6db9-30ba-40d4-94a0-9943fe8fced4-parameters"}},{"url":"http://hl7.org/fhir/us/cqfmeasures/StructureDefinition/cqfm-testCaseDescription","valueMarkdown":"Dementia medication request doNotPerform is set to false (also fixed in QICore STU6)."}],"modifierExtension":[{"url":"http://hl7.org/fhir/us/cqfmeasures/StructureDefinition/cqfm-isTestCase","valueBoolean":true}],"status":"complete","type":"individual","measure":"https://madie.cms.gov/Measure/CMS165FHIRControllingHighBloodPressure","period":{"start":"2026-01-01","end":"2026-12-31"},"group":[{"id":"Group_1","population":[{"id":"InitialPopulation_1","code":{"coding":[{"system":"http://terminology.hl7.org/CodeSystem/measure-population","code":"initial-population","display":"Initial Population"}]},"count":1},{"id":"Denominator_1","code":{"coding":[{"system":"http://terminology.hl7.org/CodeSystem/measure-population","code":"denominator","display":"Denominator"}]},"count":1},{"id":"DenominatorExclusion_1","code":{"coding":[{"system":"http://terminology.hl7.org/CodeSystem/measure-population","code":"denominator-exclusion","display":"Denominator Exclusion"}]},"count":1},{"id":"Numerator_1","code":{"coding":[{"system":"http://terminology.hl7.org/CodeSystem/measure-population","code":"numerator","display":"Numerator"}]},"count":0}],"measureScore":{"value":1.0}}],"evaluatedResource":[{"reference":"Patient/2c55811b-1571-43e5-919c-f90bf763b3d4"},{"reference":"Encounter/d479feb5-6bc3-4481-a1c4-87f749aa4f86"},{"reference":"Condition/93e4c5c8-11a6-404d-bc23-b022c0636189"},{"reference":"MedicationRequest/43959988-4b85-4004-b27d-bfe22733f6f1"},{"reference":"DeviceRequest/3385ceb5-b201-4bed-aa9e-7658ebd4e113"}]},"request":{"method":"PUT","url":"MeasureReport/2a42e117-9bab-4506-8597-481ed69e02ee"}},{"fullUrl":"Patient/2c55811b-1571-43e5-919c-f90bf763b3d4","resource":{"resourceType":"Patient","id":"2c55811b-1571-43e5-919c-f90bf763b3d4","meta":{"profile":["http://hl7.org/fhir/us/qicore/StructureDefinition/qicore-patient"]},"extension":[{"url":"http://hl7.org/fhir/us/core/StructureDefinition/us-core-race","extension":[{"url":"ombCategory","valueCoding":{"system":"urn:oid:2.16.840.1.113883.6.238","code":"2028-9","display":"Asian","userSelected":true}},{"url":"text","valueString":"Asian"}]},{"url":"http://hl7.org/fhir/us/core/StructureDefinition/us-core-ethnicity","extension":[{"url":"ombCategory","valueCoding":{"system":"urn:oid:2.16.840.1.113883.6.238","code":"2135-2","display":"Hispanic or Latino","userSelected":true}},{"url":"text","valueString":"Hispanic or Latino"}]}],"identifier":[{"type":{"coding":[{"system":"http://terminology.hl7.org/CodeSystem/v2-0203","code":"MR"}]},"system":"http://hospital.smarthealthit.org","value":"999999995"}],"name":[{"family":"DENEXPass","given":["DementiaDoNotPerformIsFalse"]}],"gender":"female","birthDate":"1959-12-31"},"request":{"method":"PUT","url":"Patient/2c55811b-1571-43e5-919c-f90bf763b3d4"}},{"fullUrl":"Encounter/d479feb5-6bc3-4481-a1c4-87f749aa4f86","resource":{"resourceType":"Encounter","id":"d479feb5-6bc3-4481-a1c4-87f749aa4f86","meta":{"profile":["http://hl7.org/fhir/us/qicore/StructureDefinition/qicore-encounter"]},"status":"finished","class":{"system":"http://terminology.hl7.org/CodeSystem/v3-ActCode","code":"AMB","display":"ambulatory"},"type":[{"coding":[{"system":"http://snomed.info/sct","code":"3391000175108","display":"Office visit for pediatric care and assessment (procedure)"}]}],"subject":{"reference":"Patient/2c55811b-1571-43e5-919c-f90bf763b3d4"},"period":{"start":"2026-01-01T00:00:00.000+00:00","end":"2026-01-01T01:00:00.000+00:00"}},"request":{"method":"PUT","url":"Encounter/d479feb5-6bc3-4481-a1c4-87f749aa4f86"}},{"fullUrl":"DeviceRequest/3385ceb5-b201-4bed-aa9e-7658ebd4e113","resource":{"resourceType":"DeviceRequest","id":"3385ceb5-b201-4bed-aa9e-7658ebd4e113","meta":{"profile":["http://hl7.org/fhir/us/qicore/StructureDefinition/qicore-devicerequest"]},"modifierExtension":[{"url":"http://hl7.org/fhir/5.0/StructureDefinition/extension-DeviceRequest.doNotPerform","valueBoolean":false}],"status":"completed","intent":"order","codeCodeableConcept":{"coding":[{"system":"http://snomed.info/sct","code":"183240000","display":"Self-propelled wheelchair (physical object)"}]},"subject":{"reference":"Patient/2c55811b-1571-43e5-919c-f90bf763b3d4"},"authoredOn":"2026-11-01T23:59:00.000+00:00"},"request":{"method":"PUT","url":"DeviceRequest/3385ceb5-b201-4bed-aa9e-7658ebd4e113"}}]}