{"resourceType":"Bundle","id":"tests-3e214018-7420-4e1f-a24d-e9426ace2bd8-bundle","type":"transaction","entry":[{"fullUrl":"Bundle/DENEXPass-PalliativeCareDiagnosisDuringMP","resource":{"resourceType":"Bundle","id":"DENEXPass-PalliativeCareDiagnosisDuringMP","type":"transaction","entry":[{"fullUrl":"https://madie.cms.gov/Patient/3e214018-7420-4e1f-a24d-e9426ace2bd8","resource":{"resourceType":"Patient","id":"3e214018-7420-4e1f-a24d-e9426ace2bd8","meta":{"profile":["http://hl7.org/fhir/us/qicore/StructureDefinition/qicore-patient"]},"extension":[{"url":"http://hl7.org/fhir/us/core/StructureDefinition/us-core-race","extension":[{"url":"ombCategory","valueCoding":{"system":"urn:oid:2.16.840.1.113883.6.238","code":"2028-9","display":"Asian"}},{"url":"text","valueString":"Asian"}]},{"url":"http://hl7.org/fhir/us/core/StructureDefinition/us-core-ethnicity","extension":[{"url":"ombCategory","valueCoding":{"system":"urn:oid:2.16.840.1.113883.6.238","code":"2135-2","display":"Hispanic or Latino"}},{"url":"text","valueString":"Hispanic or Latino"}]}],"identifier":[{"system":"http://hospital.smarthealthit.org","value":"999999995"}],"name":[{"family":"DENEXPass","given":["PalliativeCareDiagnosisDuringMP"]}],"gender":"female","birthDate":"2007-12-31"},"request":{"method":"PUT","url":"Patient/3e214018-7420-4e1f-a24d-e9426ace2bd8"}},{"fullUrl":"https://madie.cms.gov/Encounter/4681c493-e325-41ad-85d9-26916b11a26d","resource":{"resourceType":"Encounter","id":"4681c493-e325-41ad-85d9-26916b11a26d","meta":{"profile":["http://hl7.org/fhir/us/qicore/StructureDefinition/qicore-encounter"]},"status":"finished","class":{"system":"http://terminology.hl7.org/CodeSystem/v3-ActCode","code":"AMB","display":"ambulatory"},"type":[{"coding":[{"system":"http://snomed.info/sct","code":"3391000175108","display":"Office visit for pediatric care and assessment (procedure)"}]}],"subject":{"reference":"Patient/3e214018-7420-4e1f-a24d-e9426ace2bd8"},"period":{"start":"2026-01-01T00:00:00.000+00:00","end":"2026-01-01T01:00:00.000+00:00"}},"request":{"method":"PUT","url":"Encounter/4681c493-e325-41ad-85d9-26916b11a26d"}},{"fullUrl":"https://madie.cms.gov/Condition/62d6e6d2-2bd3-4dc4-9c62-4475012daa6e","resource":{"resourceType":"Condition","id":"62d6e6d2-2bd3-4dc4-9c62-4475012daa6e","meta":{"profile":["http://hl7.org/fhir/us/qicore/StructureDefinition/qicore-condition-problems-health-concerns"]},"clinicalStatus":{"coding":[{"system":"http://terminology.hl7.org/CodeSystem/condition-clinical","code":"active"}]},"category":[{"coding":[{"system":"http://terminology.hl7.org/CodeSystem/condition-category","code":"problem-list-item","display":"Problem List Item"}]}],"code":{"coding":[{"system":"http://snomed.info/sct","code":"371125006","display":"Labile essential hypertension (disorder)"}]},"subject":{"reference":"Patient/3e214018-7420-4e1f-a24d-e9426ace2bd8"},"onsetDateTime":"2026-06-29T23:59:59.000+00:00"},"request":{"method":"PUT","url":"Condition/62d6e6d2-2bd3-4dc4-9c62-4475012daa6e"}},{"fullUrl":"https://madie.cms.gov/Condition/d6c8f2a9-a7bb-450a-a511-8ce377f4220b","resource":{"resourceType":"Condition","id":"d6c8f2a9-a7bb-450a-a511-8ce377f4220b","meta":{"profile":["http://hl7.org/fhir/us/qicore/StructureDefinition/qicore-condition-encounter-diagnosis"]},"clinicalStatus":{"coding":[{"system":"http://terminology.hl7.org/CodeSystem/condition-clinical","code":"active"}]},"category":[{"coding":[{"system":"http://terminology.hl7.org/CodeSystem/condition-category","code":"encounter-diagnosis","display":"Encounter Diagnosis"}]}],"code":{"coding":[{"system":"http://snomed.info/sct","code":"441874000","display":"Seen by palliative care service (finding)"}]},"subject":{"reference":"Patient/3e214018-7420-4e1f-a24d-e9426ace2bd8"},"onsetDateTime":"2026-12-31T23:59:59.000+00:00"},"request":{"method":"PUT","url":"Condition/d6c8f2a9-a7bb-450a-a511-8ce377f4220b"}},{"fullUrl":"https://madie.cms.gov/MeasureReport/01dfdc34-137a-4121-8df0-55d28e14d8b7","resource":{"resourceType":"MeasureReport","id":"01dfdc34-137a-4121-8df0-55d28e14d8b7","meta":{"profile":["http://hl7.org/fhir/us/cqfmeasures/StructureDefinition/test-case-cqfm"]},"contained":[{"resourceType":"Parameters","id":"2bda042d-5933-4218-b87f-68a63b8f9d0f-parameters","parameter":[{"name":"subject","valueString":"3e214018-7420-4e1f-a24d-e9426ace2bd8"}]}],"extension":[{"url":"http://hl7.org/fhir/StructureDefinition/cqf-inputParameters","valueReference":{"reference":"#2bda042d-5933-4218-b87f-68a63b8f9d0f-parameters"}},{"url":"http://hl7.org/fhir/us/cqfmeasures/StructureDefinition/cqfm-testCaseDescription","valueMarkdown":"Palliative care diagnosis during MP - ConditionEncounterDiagnosis"}],"modifierExtension":[{"url":"http://hl7.org/fhir/us/cqfmeasures/StructureDefinition/cqfm-isTestCase","valueBoolean":true}],"status":"complete","type":"individual","measure":"https://madie.cms.gov/Measure/CMS165FHIRControllingHighBloodPressure","period":{"start":"2026-01-01","end":"2026-12-31"},"group":[{"id":"Group_1","population":[{"id":"InitialPopulation_1","code":{"coding":[{"system":"http://terminology.hl7.org/CodeSystem/measure-population","code":"initial-population","display":"Initial Population"}]},"count":1},{"id":"Denominator_1","code":{"coding":[{"system":"http://terminology.hl7.org/CodeSystem/measure-population","code":"denominator","display":"Denominator"}]},"count":1},{"id":"DenominatorExclusion_1","code":{"coding":[{"system":"http://terminology.hl7.org/CodeSystem/measure-population","code":"denominator-exclusion","display":"Denominator Exclusion"}]},"count":1},{"id":"Numerator_1","code":{"coding":[{"system":"http://terminology.hl7.org/CodeSystem/measure-population","code":"numerator","display":"Numerator"}]},"count":0}],"measureScore":{"value":1.0}}],"evaluatedResource":[{"reference":"Patient/3e214018-7420-4e1f-a24d-e9426ace2bd8"},{"reference":"Encounter/4681c493-e325-41ad-85d9-26916b11a26d"},{"reference":"Condition/62d6e6d2-2bd3-4dc4-9c62-4475012daa6e"},{"reference":"Condition/d6c8f2a9-a7bb-450a-a511-8ce377f4220b"}]},"request":{"method":"PUT","url":"MeasureReport/01dfdc34-137a-4121-8df0-55d28e14d8b7"}}]},"request":{"method":"PUT","url":"Bundle/DENEXPass-PalliativeCareDiagnosisDuringMP"}},{"fullUrl":"Encounter/4681c493-e325-41ad-85d9-26916b11a26d","resource":{"resourceType":"Encounter","id":"4681c493-e325-41ad-85d9-26916b11a26d","meta":{"profile":["http://hl7.org/fhir/us/qicore/StructureDefinition/qicore-encounter"]},"status":"finished","class":{"system":"http://terminology.hl7.org/CodeSystem/v3-ActCode","code":"AMB","display":"ambulatory"},"type":[{"coding":[{"system":"http://snomed.info/sct","code":"3391000175108","display":"Office visit for pediatric care and assessment (procedure)"}]}],"subject":{"reference":"Patient/3e214018-7420-4e1f-a24d-e9426ace2bd8"},"period":{"start":"2026-01-01T00:00:00.000+00:00","end":"2026-01-01T01:00:00.000+00:00"}},"request":{"method":"PUT","url":"Encounter/4681c493-e325-41ad-85d9-26916b11a26d"}},{"fullUrl":"Condition/62d6e6d2-2bd3-4dc4-9c62-4475012daa6e","resource":{"resourceType":"Condition","id":"62d6e6d2-2bd3-4dc4-9c62-4475012daa6e","meta":{"profile":["http://hl7.org/fhir/us/qicore/StructureDefinition/qicore-condition-problems-health-concerns"]},"clinicalStatus":{"coding":[{"system":"http://terminology.hl7.org/CodeSystem/condition-clinical","code":"active"}]},"category":[{"coding":[{"system":"http://terminology.hl7.org/CodeSystem/condition-category","code":"problem-list-item","display":"Problem List Item"}]}],"code":{"coding":[{"system":"http://snomed.info/sct","code":"371125006","display":"Labile essential hypertension (disorder)"}]},"subject":{"reference":"Patient/3e214018-7420-4e1f-a24d-e9426ace2bd8"},"onsetDateTime":"2026-06-29T23:59:59.000+00:00"},"request":{"method":"PUT","url":"Condition/62d6e6d2-2bd3-4dc4-9c62-4475012daa6e"}},{"fullUrl":"Condition/d6c8f2a9-a7bb-450a-a511-8ce377f4220b","resource":{"resourceType":"Condition","id":"d6c8f2a9-a7bb-450a-a511-8ce377f4220b","meta":{"profile":["http://hl7.org/fhir/us/qicore/StructureDefinition/qicore-condition-encounter-diagnosis"]},"clinicalStatus":{"coding":[{"system":"http://terminology.hl7.org/CodeSystem/condition-clinical","code":"active"}]},"category":[{"coding":[{"system":"http://terminology.hl7.org/CodeSystem/condition-category","code":"encounter-diagnosis","display":"Encounter Diagnosis"}]}],"code":{"coding":[{"system":"http://snomed.info/sct","code":"441874000","display":"Seen by palliative care service (finding)"}]},"subject":{"reference":"Patient/3e214018-7420-4e1f-a24d-e9426ace2bd8"},"onsetDateTime":"2026-12-31T23:59:59.000+00:00"},"request":{"method":"PUT","url":"Condition/d6c8f2a9-a7bb-450a-a511-8ce377f4220b"}},{"fullUrl":"MeasureReport/01dfdc34-137a-4121-8df0-55d28e14d8b7","resource":{"resourceType":"MeasureReport","id":"01dfdc34-137a-4121-8df0-55d28e14d8b7","meta":{"profile":["http://hl7.org/fhir/us/cqfmeasures/StructureDefinition/test-case-cqfm"]},"contained":[{"resourceType":"Parameters","id":"2bda042d-5933-4218-b87f-68a63b8f9d0f-parameters","parameter":[{"name":"subject","valueString":"3e214018-7420-4e1f-a24d-e9426ace2bd8"}]}],"extension":[{"url":"http://hl7.org/fhir/StructureDefinition/cqf-inputParameters","valueReference":{"reference":"#2bda042d-5933-4218-b87f-68a63b8f9d0f-parameters"}},{"url":"http://hl7.org/fhir/us/cqfmeasures/StructureDefinition/cqfm-testCaseDescription","valueMarkdown":"Palliative care diagnosis during MP - ConditionEncounterDiagnosis"}],"modifierExtension":[{"url":"http://hl7.org/fhir/us/cqfmeasures/StructureDefinition/cqfm-isTestCase","valueBoolean":true}],"status":"complete","type":"individual","measure":"https://madie.cms.gov/Measure/CMS165FHIRControllingHighBloodPressure","period":{"start":"2026-01-01","end":"2026-12-31"},"group":[{"id":"Group_1","population":[{"id":"InitialPopulation_1","code":{"coding":[{"system":"http://terminology.hl7.org/CodeSystem/measure-population","code":"initial-population","display":"Initial Population"}]},"count":1},{"id":"Denominator_1","code":{"coding":[{"system":"http://terminology.hl7.org/CodeSystem/measure-population","code":"denominator","display":"Denominator"}]},"count":1},{"id":"DenominatorExclusion_1","code":{"coding":[{"system":"http://terminology.hl7.org/CodeSystem/measure-population","code":"denominator-exclusion","display":"Denominator Exclusion"}]},"count":1},{"id":"Numerator_1","code":{"coding":[{"system":"http://terminology.hl7.org/CodeSystem/measure-population","code":"numerator","display":"Numerator"}]},"count":0}],"measureScore":{"value":1.0}}],"evaluatedResource":[{"reference":"Patient/3e214018-7420-4e1f-a24d-e9426ace2bd8"},{"reference":"Encounter/4681c493-e325-41ad-85d9-26916b11a26d"},{"reference":"Condition/62d6e6d2-2bd3-4dc4-9c62-4475012daa6e"},{"reference":"Condition/d6c8f2a9-a7bb-450a-a511-8ce377f4220b"}]},"request":{"method":"PUT","url":"MeasureReport/01dfdc34-137a-4121-8df0-55d28e14d8b7"}},{"fullUrl":"Patient/3e214018-7420-4e1f-a24d-e9426ace2bd8","resource":{"resourceType":"Patient","id":"3e214018-7420-4e1f-a24d-e9426ace2bd8","meta":{"profile":["http://hl7.org/fhir/us/qicore/StructureDefinition/qicore-patient"]},"extension":[{"url":"http://hl7.org/fhir/us/core/StructureDefinition/us-core-race","extension":[{"url":"ombCategory","valueCoding":{"system":"urn:oid:2.16.840.1.113883.6.238","code":"2028-9","display":"Asian"}},{"url":"text","valueString":"Asian"}]},{"url":"http://hl7.org/fhir/us/core/StructureDefinition/us-core-ethnicity","extension":[{"url":"ombCategory","valueCoding":{"system":"urn:oid:2.16.840.1.113883.6.238","code":"2135-2","display":"Hispanic or Latino"}},{"url":"text","valueString":"Hispanic or Latino"}]}],"identifier":[{"system":"http://hospital.smarthealthit.org","value":"999999995"}],"name":[{"family":"DENEXPass","given":["PalliativeCareDiagnosisDuringMP"]}],"gender":"female","birthDate":"2007-12-31"},"request":{"method":"PUT","url":"Patient/3e214018-7420-4e1f-a24d-e9426ace2bd8"}}]}