{"resourceType":"Bundle","id":"tests-78fc0433-a72a-45a3-b2c4-995e614674cb-bundle","type":"transaction","entry":[{"fullUrl":"Condition/9421cf49-b468-43cd-9a78-3e22805b01fa","resource":{"resourceType":"Condition","id":"9421cf49-b468-43cd-9a78-3e22805b01fa","meta":{"profile":["http://hl7.org/fhir/us/qicore/StructureDefinition/qicore-condition-encounter-diagnosis"]},"clinicalStatus":{"coding":[{"system":"http://terminology.hl7.org/CodeSystem/condition-clinical","code":"active"}]},"category":[{"coding":[{"system":"http://terminology.hl7.org/CodeSystem/condition-category","code":"problem-list-item","display":"Problem List Item"}]}],"code":{"coding":[{"system":"http://snomed.info/sct","code":"371125006","display":"Labile essential hypertension (disorder)"}]},"subject":{"reference":"Patient/78fc0433-a72a-45a3-b2c4-995e614674cb"},"onsetDateTime":"2026-06-30T23:59:59.000Z"},"request":{"method":"PUT","url":"Condition/9421cf49-b468-43cd-9a78-3e22805b01fa"}},{"fullUrl":"Bundle/DENEXPass-ESRDEncDuringMP","resource":{"resourceType":"Bundle","id":"DENEXPass-ESRDEncDuringMP","type":"transaction","entry":[{"fullUrl":"https://madie.cms.gov/Patient/78fc0433-a72a-45a3-b2c4-995e614674cb","resource":{"resourceType":"Patient","id":"78fc0433-a72a-45a3-b2c4-995e614674cb","meta":{"profile":["http://hl7.org/fhir/us/qicore/StructureDefinition/qicore-patient"]},"extension":[{"url":"http://hl7.org/fhir/us/core/StructureDefinition/us-core-race","extension":[{"url":"ombCategory","valueCoding":{"system":"urn:oid:2.16.840.1.113883.6.238","code":"2028-9","display":"Asian"}},{"url":"text","valueString":"Asian"}]},{"url":"http://hl7.org/fhir/us/core/StructureDefinition/us-core-ethnicity","extension":[{"url":"ombCategory","valueCoding":{"system":"urn:oid:2.16.840.1.113883.6.238","code":"2135-2","display":"Hispanic or Latino"}},{"url":"text","valueString":"Hispanic or Latino"}]}],"identifier":[{"system":"http://hospital.smarthealthit.org","value":"999999995"}],"name":[{"family":"DENEXPass","given":["ESRDEncDuringMP"]}],"gender":"female","birthDate":"2007-12-31"},"request":{"method":"PUT","url":"Patient/78fc0433-a72a-45a3-b2c4-995e614674cb"}},{"fullUrl":"https://madie.cms.gov/Encounter/c67e1a1e-8d7b-401f-b267-bdf0269cb365","resource":{"resourceType":"Encounter","id":"c67e1a1e-8d7b-401f-b267-bdf0269cb365","meta":{"profile":["http://hl7.org/fhir/us/qicore/StructureDefinition/qicore-encounter"]},"status":"finished","class":{"system":"http://terminology.hl7.org/CodeSystem/v3-ActCode","code":"AMB","display":"ambulatory"},"type":[{"coding":[{"system":"http://snomed.info/sct","code":"3391000175108","display":"Office visit for pediatric care and assessment (procedure)"}]}],"subject":{"reference":"Patient/78fc0433-a72a-45a3-b2c4-995e614674cb"},"period":{"start":"2026-01-01T00:00:00.000Z","end":"2026-01-01T01:00:00.000Z"}},"request":{"method":"PUT","url":"Encounter/c67e1a1e-8d7b-401f-b267-bdf0269cb365"}},{"fullUrl":"https://madie.cms.gov/Condition/9421cf49-b468-43cd-9a78-3e22805b01fa","resource":{"resourceType":"Condition","id":"9421cf49-b468-43cd-9a78-3e22805b01fa","meta":{"profile":["http://hl7.org/fhir/us/qicore/StructureDefinition/qicore-condition-encounter-diagnosis"]},"clinicalStatus":{"coding":[{"system":"http://terminology.hl7.org/CodeSystem/condition-clinical","code":"active"}]},"category":[{"coding":[{"system":"http://terminology.hl7.org/CodeSystem/condition-category","code":"problem-list-item","display":"Problem List Item"}]}],"code":{"coding":[{"system":"http://snomed.info/sct","code":"371125006","display":"Labile essential hypertension (disorder)"}]},"subject":{"reference":"Patient/78fc0433-a72a-45a3-b2c4-995e614674cb"},"onsetDateTime":"2026-06-30T23:59:59.000Z"},"request":{"method":"PUT","url":"Condition/9421cf49-b468-43cd-9a78-3e22805b01fa"}},{"fullUrl":"https://madie.cms.gov/Encounter/c67e1a1e-8d7b-401f-b267-bdf0269cb365-0","resource":{"resourceType":"Encounter","id":"c67e1a1e-8d7b-401f-b267-bdf0269cb365-0","meta":{"profile":["http://hl7.org/fhir/us/qicore/StructureDefinition/qicore-encounter"]},"status":"finished","class":{"system":"http://terminology.hl7.org/CodeSystem/v3-ActCode","code":"AMB","display":"ambulatory"},"type":[{"coding":[{"system":"http://www.ama-assn.org/go/cpt","code":"90999","display":"Unlisted dialysis procedure, inpatient or outpatient"}]}],"subject":{"reference":"Patient/78fc0433-a72a-45a3-b2c4-995e614674cb"},"period":{"start":"2026-01-01T00:00:00.000Z","end":"2026-01-01T01:00:00.000Z"}},"request":{"method":"PUT","url":"Encounter/c67e1a1e-8d7b-401f-b267-bdf0269cb365-0"}},{"fullUrl":"https://madie.cms.gov/MeasureReport/5494ef10-f874-41c3-899d-4e3bb2b3c4fd","resource":{"resourceType":"MeasureReport","id":"5494ef10-f874-41c3-899d-4e3bb2b3c4fd","meta":{"profile":["http://hl7.org/fhir/us/cqfmeasures/StructureDefinition/test-case-cqfm"]},"contained":[{"resourceType":"Parameters","id":"bfab78c8-f45a-4730-82f8-f7e2636ede12-parameters","parameter":[{"name":"subject","valueString":"78fc0433-a72a-45a3-b2c4-995e614674cb"}]}],"extension":[{"url":"http://hl7.org/fhir/StructureDefinition/cqf-inputParameters","valueReference":{"reference":"#bfab78c8-f45a-4730-82f8-f7e2636ede12-parameters"}},{"url":"http://hl7.org/fhir/us/cqfmeasures/StructureDefinition/cqfm-testCaseDescription","valueMarkdown":"ESRD encounter during MP"}],"modifierExtension":[{"url":"http://hl7.org/fhir/us/cqfmeasures/StructureDefinition/cqfm-isTestCase","valueBoolean":true}],"status":"complete","type":"individual","measure":"https://madie.cms.gov/Measure/CMS165FHIRControllingHighBloodPressure","period":{"start":"2026-01-01","end":"2026-12-31"},"group":[{"id":"Group_1","population":[{"id":"InitialPopulation_1","code":{"coding":[{"system":"http://terminology.hl7.org/CodeSystem/measure-population","code":"initial-population","display":"Initial Population"}]},"count":1},{"id":"Denominator_1","code":{"coding":[{"system":"http://terminology.hl7.org/CodeSystem/measure-population","code":"denominator","display":"Denominator"}]},"count":1},{"id":"DenominatorExclusion_1","code":{"coding":[{"system":"http://terminology.hl7.org/CodeSystem/measure-population","code":"denominator-exclusion","display":"Denominator Exclusion"}]},"count":1},{"id":"Numerator_1","code":{"coding":[{"system":"http://terminology.hl7.org/CodeSystem/measure-population","code":"numerator","display":"Numerator"}]},"count":0}],"measureScore":{"value":1.0}}],"evaluatedResource":[{"reference":"Patient/78fc0433-a72a-45a3-b2c4-995e614674cb"},{"reference":"Encounter/c67e1a1e-8d7b-401f-b267-bdf0269cb365"},{"reference":"Condition/9421cf49-b468-43cd-9a78-3e22805b01fa"},{"reference":"Encounter/c67e1a1e-8d7b-401f-b267-bdf0269cb365-0"}]},"request":{"method":"PUT","url":"MeasureReport/5494ef10-f874-41c3-899d-4e3bb2b3c4fd"}}]},"request":{"method":"PUT","url":"Bundle/DENEXPass-ESRDEncDuringMP"}},{"fullUrl":"Encounter/c67e1a1e-8d7b-401f-b267-bdf0269cb365-0","resource":{"resourceType":"Encounter","id":"c67e1a1e-8d7b-401f-b267-bdf0269cb365-0","meta":{"profile":["http://hl7.org/fhir/us/qicore/StructureDefinition/qicore-encounter"]},"status":"finished","class":{"system":"http://terminology.hl7.org/CodeSystem/v3-ActCode","code":"AMB","display":"ambulatory"},"type":[{"coding":[{"system":"http://www.ama-assn.org/go/cpt","code":"90999","display":"Unlisted dialysis procedure, inpatient or outpatient"}]}],"subject":{"reference":"Patient/78fc0433-a72a-45a3-b2c4-995e614674cb"},"period":{"start":"2026-01-01T00:00:00.000Z","end":"2026-01-01T01:00:00.000Z"}},"request":{"method":"PUT","url":"Encounter/c67e1a1e-8d7b-401f-b267-bdf0269cb365-0"}},{"fullUrl":"Patient/78fc0433-a72a-45a3-b2c4-995e614674cb","resource":{"resourceType":"Patient","id":"78fc0433-a72a-45a3-b2c4-995e614674cb","meta":{"profile":["http://hl7.org/fhir/us/qicore/StructureDefinition/qicore-patient"]},"extension":[{"url":"http://hl7.org/fhir/us/core/StructureDefinition/us-core-race","extension":[{"url":"ombCategory","valueCoding":{"system":"urn:oid:2.16.840.1.113883.6.238","code":"2028-9","display":"Asian"}},{"url":"text","valueString":"Asian"}]},{"url":"http://hl7.org/fhir/us/core/StructureDefinition/us-core-ethnicity","extension":[{"url":"ombCategory","valueCoding":{"system":"urn:oid:2.16.840.1.113883.6.238","code":"2135-2","display":"Hispanic or Latino"}},{"url":"text","valueString":"Hispanic or Latino"}]}],"identifier":[{"system":"http://hospital.smarthealthit.org","value":"999999995"}],"name":[{"family":"DENEXPass","given":["ESRDEncDuringMP"]}],"gender":"female","birthDate":"2007-12-31"},"request":{"method":"PUT","url":"Patient/78fc0433-a72a-45a3-b2c4-995e614674cb"}},{"fullUrl":"MeasureReport/5494ef10-f874-41c3-899d-4e3bb2b3c4fd","resource":{"resourceType":"MeasureReport","id":"5494ef10-f874-41c3-899d-4e3bb2b3c4fd","meta":{"profile":["http://hl7.org/fhir/us/cqfmeasures/StructureDefinition/test-case-cqfm"]},"contained":[{"resourceType":"Parameters","id":"bfab78c8-f45a-4730-82f8-f7e2636ede12-parameters","parameter":[{"name":"subject","valueString":"78fc0433-a72a-45a3-b2c4-995e614674cb"}]}],"extension":[{"url":"http://hl7.org/fhir/StructureDefinition/cqf-inputParameters","valueReference":{"reference":"#bfab78c8-f45a-4730-82f8-f7e2636ede12-parameters"}},{"url":"http://hl7.org/fhir/us/cqfmeasures/StructureDefinition/cqfm-testCaseDescription","valueMarkdown":"ESRD encounter during MP"}],"modifierExtension":[{"url":"http://hl7.org/fhir/us/cqfmeasures/StructureDefinition/cqfm-isTestCase","valueBoolean":true}],"status":"complete","type":"individual","measure":"https://madie.cms.gov/Measure/CMS165FHIRControllingHighBloodPressure","period":{"start":"2026-01-01","end":"2026-12-31"},"group":[{"id":"Group_1","population":[{"id":"InitialPopulation_1","code":{"coding":[{"system":"http://terminology.hl7.org/CodeSystem/measure-population","code":"initial-population","display":"Initial Population"}]},"count":1},{"id":"Denominator_1","code":{"coding":[{"system":"http://terminology.hl7.org/CodeSystem/measure-population","code":"denominator","display":"Denominator"}]},"count":1},{"id":"DenominatorExclusion_1","code":{"coding":[{"system":"http://terminology.hl7.org/CodeSystem/measure-population","code":"denominator-exclusion","display":"Denominator Exclusion"}]},"count":1},{"id":"Numerator_1","code":{"coding":[{"system":"http://terminology.hl7.org/CodeSystem/measure-population","code":"numerator","display":"Numerator"}]},"count":0}],"measureScore":{"value":1.0}}],"evaluatedResource":[{"reference":"Patient/78fc0433-a72a-45a3-b2c4-995e614674cb"},{"reference":"Encounter/c67e1a1e-8d7b-401f-b267-bdf0269cb365"},{"reference":"Condition/9421cf49-b468-43cd-9a78-3e22805b01fa"},{"reference":"Encounter/c67e1a1e-8d7b-401f-b267-bdf0269cb365-0"}]},"request":{"method":"PUT","url":"MeasureReport/5494ef10-f874-41c3-899d-4e3bb2b3c4fd"}},{"fullUrl":"Encounter/c67e1a1e-8d7b-401f-b267-bdf0269cb365","resource":{"resourceType":"Encounter","id":"c67e1a1e-8d7b-401f-b267-bdf0269cb365","meta":{"profile":["http://hl7.org/fhir/us/qicore/StructureDefinition/qicore-encounter"]},"status":"finished","class":{"system":"http://terminology.hl7.org/CodeSystem/v3-ActCode","code":"AMB","display":"ambulatory"},"type":[{"coding":[{"system":"http://snomed.info/sct","code":"3391000175108","display":"Office visit for pediatric care and assessment (procedure)"}]}],"subject":{"reference":"Patient/78fc0433-a72a-45a3-b2c4-995e614674cb"},"period":{"start":"2026-01-01T00:00:00.000Z","end":"2026-01-01T01:00:00.000Z"}},"request":{"method":"PUT","url":"Encounter/c67e1a1e-8d7b-401f-b267-bdf0269cb365"}}]}