{"resourceType":"Bundle","id":"tests-30086fb9-0aea-4e5e-86cc-46f4d1aa8dd4-bundle","type":"transaction","entry":[{"fullUrl":"Encounter/1355e964-5184-4292-ad54-c71efa1b5eee","resource":{"resourceType":"Encounter","id":"1355e964-5184-4292-ad54-c71efa1b5eee","meta":{"profile":["http://hl7.org/fhir/us/qicore/StructureDefinition/qicore-encounter"]},"status":"finished","class":{"system":"http://terminology.hl7.org/CodeSystem/v3-ActCode","code":"AMB","display":"ambulatory"},"type":[{"coding":[{"system":"http://snomed.info/sct","code":"3391000175108","display":"Office visit for pediatric care and assessment (procedure)"}]}],"subject":{"reference":"Patient/30086fb9-0aea-4e5e-86cc-46f4d1aa8dd4"},"period":{"start":"2026-01-01T00:00:00.000+00:00","end":"2026-01-01T01:00:00.000+00:00"}},"request":{"method":"PUT","url":"Encounter/1355e964-5184-4292-ad54-c71efa1b5eee"}},{"fullUrl":"Bundle/DENEXPass-KidneyTransplantRecipientDuringMP","resource":{"resourceType":"Bundle","id":"DENEXPass-KidneyTransplantRecipientDuringMP","type":"transaction","entry":[{"fullUrl":"https://madie.cms.gov/Patient/30086fb9-0aea-4e5e-86cc-46f4d1aa8dd4","resource":{"resourceType":"Patient","id":"30086fb9-0aea-4e5e-86cc-46f4d1aa8dd4","meta":{"profile":["http://hl7.org/fhir/us/qicore/StructureDefinition/qicore-patient"]},"extension":[{"url":"http://hl7.org/fhir/us/core/StructureDefinition/us-core-race","extension":[{"url":"ombCategory","valueCoding":{"system":"urn:oid:2.16.840.1.113883.6.238","code":"2028-9","display":"Asian"}},{"url":"text","valueString":"Asian"}]},{"url":"http://hl7.org/fhir/us/core/StructureDefinition/us-core-ethnicity","extension":[{"url":"ombCategory","valueCoding":{"system":"urn:oid:2.16.840.1.113883.6.238","code":"2135-2","display":"Hispanic or Latino"}},{"url":"text","valueString":"Hispanic or Latino"}]}],"identifier":[{"system":"http://hospital.smarthealthit.org","value":"999999995"}],"name":[{"family":"DENEXPass","given":["KidneyTransplantRecipientDuringMP"]}],"gender":"female","birthDate":"2007-12-31"},"request":{"method":"PUT","url":"Patient/30086fb9-0aea-4e5e-86cc-46f4d1aa8dd4"}},{"fullUrl":"https://madie.cms.gov/Encounter/1355e964-5184-4292-ad54-c71efa1b5eee","resource":{"resourceType":"Encounter","id":"1355e964-5184-4292-ad54-c71efa1b5eee","meta":{"profile":["http://hl7.org/fhir/us/qicore/StructureDefinition/qicore-encounter"]},"status":"finished","class":{"system":"http://terminology.hl7.org/CodeSystem/v3-ActCode","code":"AMB","display":"ambulatory"},"type":[{"coding":[{"system":"http://snomed.info/sct","code":"3391000175108","display":"Office visit for pediatric care and assessment (procedure)"}]}],"subject":{"reference":"Patient/30086fb9-0aea-4e5e-86cc-46f4d1aa8dd4"},"period":{"start":"2026-01-01T00:00:00.000+00:00","end":"2026-01-01T01:00:00.000+00:00"}},"request":{"method":"PUT","url":"Encounter/1355e964-5184-4292-ad54-c71efa1b5eee"}},{"fullUrl":"https://madie.cms.gov/Condition/a726815b-5347-43e7-afa6-eba8a262f95b","resource":{"resourceType":"Condition","id":"a726815b-5347-43e7-afa6-eba8a262f95b","meta":{"profile":["http://hl7.org/fhir/us/qicore/StructureDefinition/qicore-condition-problems-health-concerns"]},"clinicalStatus":{"coding":[{"system":"http://terminology.hl7.org/CodeSystem/condition-clinical","code":"active"}]},"category":[{"coding":[{"system":"http://terminology.hl7.org/CodeSystem/condition-category","code":"problem-list-item","display":"Problem List Item"}]}],"code":{"coding":[{"system":"http://snomed.info/sct","code":"371125006","display":"Labile essential hypertension (disorder)"}]},"subject":{"reference":"Patient/30086fb9-0aea-4e5e-86cc-46f4d1aa8dd4"},"onsetDateTime":"2026-06-30T23:59:59.000+00:00"},"request":{"method":"PUT","url":"Condition/a726815b-5347-43e7-afa6-eba8a262f95b"}},{"fullUrl":"https://madie.cms.gov/Condition/9ecd61f1-450d-4379-be0b-18128eb0e004","resource":{"resourceType":"Condition","id":"9ecd61f1-450d-4379-be0b-18128eb0e004","meta":{"profile":["http://hl7.org/fhir/us/qicore/StructureDefinition/qicore-condition-problems-health-concerns"]},"clinicalStatus":{"coding":[{"system":"http://terminology.hl7.org/CodeSystem/condition-clinical","code":"active"}]},"category":[{"coding":[{"system":"http://terminology.hl7.org/CodeSystem/condition-category","code":"problem-list-item","display":"Problem List Item"}]}],"code":{"coding":[{"system":"http://hl7.org/fhir/sid/icd-10-cm","code":"Z94.0","display":"Kidney transplant status"}]},"subject":{"reference":"Patient/30086fb9-0aea-4e5e-86cc-46f4d1aa8dd4"},"onsetDateTime":"2026-06-30T23:59:59.000+00:00"},"request":{"method":"PUT","url":"Condition/9ecd61f1-450d-4379-be0b-18128eb0e004"}},{"fullUrl":"https://madie.cms.gov/MeasureReport/0bd47433-c645-4b35-b9a1-d4635d8aa060","resource":{"resourceType":"MeasureReport","id":"0bd47433-c645-4b35-b9a1-d4635d8aa060","meta":{"profile":["http://hl7.org/fhir/us/cqfmeasures/StructureDefinition/test-case-cqfm"]},"contained":[{"resourceType":"Parameters","id":"1f0c4e83-fff1-4d63-ada5-88780e43e339-parameters","parameter":[{"name":"subject","valueString":"30086fb9-0aea-4e5e-86cc-46f4d1aa8dd4"}]}],"extension":[{"url":"http://hl7.org/fhir/StructureDefinition/cqf-inputParameters","valueReference":{"reference":"#1f0c4e83-fff1-4d63-ada5-88780e43e339-parameters"}},{"url":"http://hl7.org/fhir/us/cqfmeasures/StructureDefinition/cqfm-testCaseDescription","valueMarkdown":"Kidney transplant recipient during MP - ConditionProblemsHealthConcerns"}],"modifierExtension":[{"url":"http://hl7.org/fhir/us/cqfmeasures/StructureDefinition/cqfm-isTestCase","valueBoolean":true}],"status":"complete","type":"individual","measure":"https://madie.cms.gov/Measure/CMS165FHIRControllingHighBloodPressure","period":{"start":"2026-01-01","end":"2026-12-31"},"group":[{"id":"Group_1","population":[{"id":"InitialPopulation_1","code":{"coding":[{"system":"http://terminology.hl7.org/CodeSystem/measure-population","code":"initial-population","display":"Initial Population"}]},"count":1},{"id":"Denominator_1","code":{"coding":[{"system":"http://terminology.hl7.org/CodeSystem/measure-population","code":"denominator","display":"Denominator"}]},"count":1},{"id":"DenominatorExclusion_1","code":{"coding":[{"system":"http://terminology.hl7.org/CodeSystem/measure-population","code":"denominator-exclusion","display":"Denominator Exclusion"}]},"count":1},{"id":"Numerator_1","code":{"coding":[{"system":"http://terminology.hl7.org/CodeSystem/measure-population","code":"numerator","display":"Numerator"}]},"count":0}],"measureScore":{"value":1.0}}],"evaluatedResource":[{"reference":"Patient/30086fb9-0aea-4e5e-86cc-46f4d1aa8dd4"},{"reference":"Encounter/1355e964-5184-4292-ad54-c71efa1b5eee"},{"reference":"Condition/a726815b-5347-43e7-afa6-eba8a262f95b"},{"reference":"Condition/9ecd61f1-450d-4379-be0b-18128eb0e004"}]},"request":{"method":"PUT","url":"MeasureReport/0bd47433-c645-4b35-b9a1-d4635d8aa060"}}]},"request":{"method":"PUT","url":"Bundle/DENEXPass-KidneyTransplantRecipientDuringMP"}},{"fullUrl":"Condition/9ecd61f1-450d-4379-be0b-18128eb0e004","resource":{"resourceType":"Condition","id":"9ecd61f1-450d-4379-be0b-18128eb0e004","meta":{"profile":["http://hl7.org/fhir/us/qicore/StructureDefinition/qicore-condition-problems-health-concerns"]},"clinicalStatus":{"coding":[{"system":"http://terminology.hl7.org/CodeSystem/condition-clinical","code":"active"}]},"category":[{"coding":[{"system":"http://terminology.hl7.org/CodeSystem/condition-category","code":"problem-list-item","display":"Problem List Item"}]}],"code":{"coding":[{"system":"http://hl7.org/fhir/sid/icd-10-cm","code":"Z94.0","display":"Kidney transplant status"}]},"subject":{"reference":"Patient/30086fb9-0aea-4e5e-86cc-46f4d1aa8dd4"},"onsetDateTime":"2026-06-30T23:59:59.000+00:00"},"request":{"method":"PUT","url":"Condition/9ecd61f1-450d-4379-be0b-18128eb0e004"}},{"fullUrl":"MeasureReport/0bd47433-c645-4b35-b9a1-d4635d8aa060","resource":{"resourceType":"MeasureReport","id":"0bd47433-c645-4b35-b9a1-d4635d8aa060","meta":{"profile":["http://hl7.org/fhir/us/cqfmeasures/StructureDefinition/test-case-cqfm"]},"contained":[{"resourceType":"Parameters","id":"1f0c4e83-fff1-4d63-ada5-88780e43e339-parameters","parameter":[{"name":"subject","valueString":"30086fb9-0aea-4e5e-86cc-46f4d1aa8dd4"}]}],"extension":[{"url":"http://hl7.org/fhir/StructureDefinition/cqf-inputParameters","valueReference":{"reference":"#1f0c4e83-fff1-4d63-ada5-88780e43e339-parameters"}},{"url":"http://hl7.org/fhir/us/cqfmeasures/StructureDefinition/cqfm-testCaseDescription","valueMarkdown":"Kidney transplant recipient during MP - ConditionProblemsHealthConcerns"}],"modifierExtension":[{"url":"http://hl7.org/fhir/us/cqfmeasures/StructureDefinition/cqfm-isTestCase","valueBoolean":true}],"status":"complete","type":"individual","measure":"https://madie.cms.gov/Measure/CMS165FHIRControllingHighBloodPressure","period":{"start":"2026-01-01","end":"2026-12-31"},"group":[{"id":"Group_1","population":[{"id":"InitialPopulation_1","code":{"coding":[{"system":"http://terminology.hl7.org/CodeSystem/measure-population","code":"initial-population","display":"Initial Population"}]},"count":1},{"id":"Denominator_1","code":{"coding":[{"system":"http://terminology.hl7.org/CodeSystem/measure-population","code":"denominator","display":"Denominator"}]},"count":1},{"id":"DenominatorExclusion_1","code":{"coding":[{"system":"http://terminology.hl7.org/CodeSystem/measure-population","code":"denominator-exclusion","display":"Denominator Exclusion"}]},"count":1},{"id":"Numerator_1","code":{"coding":[{"system":"http://terminology.hl7.org/CodeSystem/measure-population","code":"numerator","display":"Numerator"}]},"count":0}],"measureScore":{"value":1.0}}],"evaluatedResource":[{"reference":"Patient/30086fb9-0aea-4e5e-86cc-46f4d1aa8dd4"},{"reference":"Encounter/1355e964-5184-4292-ad54-c71efa1b5eee"},{"reference":"Condition/a726815b-5347-43e7-afa6-eba8a262f95b"},{"reference":"Condition/9ecd61f1-450d-4379-be0b-18128eb0e004"}]},"request":{"method":"PUT","url":"MeasureReport/0bd47433-c645-4b35-b9a1-d4635d8aa060"}},{"fullUrl":"Condition/a726815b-5347-43e7-afa6-eba8a262f95b","resource":{"resourceType":"Condition","id":"a726815b-5347-43e7-afa6-eba8a262f95b","meta":{"profile":["http://hl7.org/fhir/us/qicore/StructureDefinition/qicore-condition-problems-health-concerns"]},"clinicalStatus":{"coding":[{"system":"http://terminology.hl7.org/CodeSystem/condition-clinical","code":"active"}]},"category":[{"coding":[{"system":"http://terminology.hl7.org/CodeSystem/condition-category","code":"problem-list-item","display":"Problem List Item"}]}],"code":{"coding":[{"system":"http://snomed.info/sct","code":"371125006","display":"Labile essential hypertension (disorder)"}]},"subject":{"reference":"Patient/30086fb9-0aea-4e5e-86cc-46f4d1aa8dd4"},"onsetDateTime":"2026-06-30T23:59:59.000+00:00"},"request":{"method":"PUT","url":"Condition/a726815b-5347-43e7-afa6-eba8a262f95b"}},{"fullUrl":"Patient/30086fb9-0aea-4e5e-86cc-46f4d1aa8dd4","resource":{"resourceType":"Patient","id":"30086fb9-0aea-4e5e-86cc-46f4d1aa8dd4","meta":{"profile":["http://hl7.org/fhir/us/qicore/StructureDefinition/qicore-patient"]},"extension":[{"url":"http://hl7.org/fhir/us/core/StructureDefinition/us-core-race","extension":[{"url":"ombCategory","valueCoding":{"system":"urn:oid:2.16.840.1.113883.6.238","code":"2028-9","display":"Asian"}},{"url":"text","valueString":"Asian"}]},{"url":"http://hl7.org/fhir/us/core/StructureDefinition/us-core-ethnicity","extension":[{"url":"ombCategory","valueCoding":{"system":"urn:oid:2.16.840.1.113883.6.238","code":"2135-2","display":"Hispanic or Latino"}},{"url":"text","valueString":"Hispanic or Latino"}]}],"identifier":[{"system":"http://hospital.smarthealthit.org","value":"999999995"}],"name":[{"family":"DENEXPass","given":["KidneyTransplantRecipientDuringMP"]}],"gender":"female","birthDate":"2007-12-31"},"request":{"method":"PUT","url":"Patient/30086fb9-0aea-4e5e-86cc-46f4d1aa8dd4"}}]}