{"resourceType":"Bundle","id":"tests-9f063f76-a97a-4bba-9f6a-35e7a429a72c-bundle","type":"transaction","entry":[{"fullUrl":"Condition/b106700d-77c8-4bd0-b0d3-cc896735cba2","resource":{"resourceType":"Condition","id":"b106700d-77c8-4bd0-b0d3-cc896735cba2","meta":{"profile":["http://hl7.org/fhir/us/qicore/StructureDefinition/qicore-condition-problems-health-concerns"]},"clinicalStatus":{"coding":[{"system":"http://terminology.hl7.org/CodeSystem/condition-clinical","code":"active"}]},"category":[{"coding":[{"system":"http://terminology.hl7.org/CodeSystem/condition-category","code":"problem-list-item","display":"Problem List Item"}]}],"code":{"coding":[{"system":"http://snomed.info/sct","code":"371125006","display":"Labile essential hypertension (disorder)"}]},"subject":{"reference":"Patient/9f063f76-a97a-4bba-9f6a-35e7a429a72c"},"onsetDateTime":"2026-06-30T23:59:59.000+00:00"},"request":{"method":"PUT","url":"Condition/b106700d-77c8-4bd0-b0d3-cc896735cba2"}},{"fullUrl":"Bundle/DENEXPass-FrailtyEncOverlapsMP","resource":{"resourceType":"Bundle","id":"DENEXPass-FrailtyEncOverlapsMP","type":"transaction","entry":[{"fullUrl":"https://madie.cms.gov/Patient/9f063f76-a97a-4bba-9f6a-35e7a429a72c","resource":{"resourceType":"Patient","id":"9f063f76-a97a-4bba-9f6a-35e7a429a72c","meta":{"profile":["http://hl7.org/fhir/us/qicore/StructureDefinition/qicore-patient"]},"extension":[{"url":"http://hl7.org/fhir/us/core/StructureDefinition/us-core-race","extension":[{"url":"ombCategory","valueCoding":{"system":"urn:oid:2.16.840.1.113883.6.238","code":"2028-9","display":"Asian"}},{"url":"text","valueString":"Asian"}]},{"url":"http://hl7.org/fhir/us/core/StructureDefinition/us-core-ethnicity","extension":[{"url":"ombCategory","valueCoding":{"system":"urn:oid:2.16.840.1.113883.6.238","code":"2135-2","display":"Hispanic or Latino"}},{"url":"text","valueString":"Hispanic or Latino"}]}],"identifier":[{"system":"http://hospital.smarthealthit.org","value":"999999995"}],"name":[{"family":"DENEXPass","given":["FrailtyEncOverlapsMP"]}],"gender":"female","birthDate":"1959-12-31"},"request":{"method":"PUT","url":"Patient/9f063f76-a97a-4bba-9f6a-35e7a429a72c"}},{"fullUrl":"https://madie.cms.gov/Encounter/c1350f2f-e899-4fd1-8258-9ca809cea92c","resource":{"resourceType":"Encounter","id":"c1350f2f-e899-4fd1-8258-9ca809cea92c","meta":{"profile":["http://hl7.org/fhir/us/qicore/StructureDefinition/qicore-encounter"]},"status":"finished","class":{"system":"http://terminology.hl7.org/CodeSystem/v3-ActCode","code":"AMB","display":"ambulatory"},"type":[{"coding":[{"system":"http://snomed.info/sct","code":"3391000175108","display":"Office visit for pediatric care and assessment (procedure)"}]}],"subject":{"reference":"Patient/9f063f76-a97a-4bba-9f6a-35e7a429a72c"},"period":{"start":"2026-01-01T00:00:00.000+00:00","end":"2026-01-01T01:00:00.000+00:00"}},"request":{"method":"PUT","url":"Encounter/c1350f2f-e899-4fd1-8258-9ca809cea92c"}},{"fullUrl":"https://madie.cms.gov/Condition/b106700d-77c8-4bd0-b0d3-cc896735cba2","resource":{"resourceType":"Condition","id":"b106700d-77c8-4bd0-b0d3-cc896735cba2","meta":{"profile":["http://hl7.org/fhir/us/qicore/StructureDefinition/qicore-condition-problems-health-concerns"]},"clinicalStatus":{"coding":[{"system":"http://terminology.hl7.org/CodeSystem/condition-clinical","code":"active"}]},"category":[{"coding":[{"system":"http://terminology.hl7.org/CodeSystem/condition-category","code":"problem-list-item","display":"Problem List Item"}]}],"code":{"coding":[{"system":"http://snomed.info/sct","code":"371125006","display":"Labile essential hypertension (disorder)"}]},"subject":{"reference":"Patient/9f063f76-a97a-4bba-9f6a-35e7a429a72c"},"onsetDateTime":"2026-06-30T23:59:59.000+00:00"},"request":{"method":"PUT","url":"Condition/b106700d-77c8-4bd0-b0d3-cc896735cba2"}},{"fullUrl":"https://madie.cms.gov/MedicationRequest/4fcd3934-74de-4903-ba60-54f76402f882","resource":{"resourceType":"MedicationRequest","id":"4fcd3934-74de-4903-ba60-54f76402f882","meta":{"profile":["http://hl7.org/fhir/us/qicore/StructureDefinition/qicore-medicationrequest"]},"status":"active","intent":"order","doNotPerform":false,"medicationCodeableConcept":{"coding":[{"system":"http://www.nlm.nih.gov/research/umls/rxnorm","code":"312836","display":"rivastigmine 6 MG Oral Capsule"}]},"subject":{"reference":"Patient/9f063f76-a97a-4bba-9f6a-35e7a429a72c"},"authoredOn":"2026-01-01T00:00:00.000+00:00","requester":{"reference":"Practitioner/example"},"dispenseRequest":{"expectedSupplyDuration":{"value":90,"system":"http://unitsofmeasure.org","code":"days"}}},"request":{"method":"PUT","url":"MedicationRequest/4fcd3934-74de-4903-ba60-54f76402f882"}},{"fullUrl":"https://madie.cms.gov/Encounter/45e0c645-8e42-4468-a64c-9f54804a53e9","resource":{"resourceType":"Encounter","id":"45e0c645-8e42-4468-a64c-9f54804a53e9","meta":{"profile":["http://hl7.org/fhir/us/qicore/StructureDefinition/qicore-encounter"]},"status":"finished","class":{"system":"http://terminology.hl7.org/CodeSystem/v3-ActCode","code":"AMB","display":"ambulatory"},"type":[{"coding":[{"system":"http://www.ama-assn.org/go/cpt","code":"99509","display":"Home visit for assistance with activities of daily living and personal care"}]}],"subject":{"reference":"Patient/9f063f76-a97a-4bba-9f6a-35e7a429a72c"},"period":{"start":"2026-01-01T00:00:00.000+00:00","end":"2026-01-02T00:00:00.000+00:00"}},"request":{"method":"PUT","url":"Encounter/45e0c645-8e42-4468-a64c-9f54804a53e9"}},{"fullUrl":"https://madie.cms.gov/MeasureReport/4fb7629a-997a-488f-a7a4-6c4dd0f76385","resource":{"resourceType":"MeasureReport","id":"4fb7629a-997a-488f-a7a4-6c4dd0f76385","meta":{"profile":["http://hl7.org/fhir/us/cqfmeasures/StructureDefinition/test-case-cqfm"]},"contained":[{"resourceType":"Parameters","id":"8d985d1a-5d41-4de5-b516-3391a9017749-parameters","parameter":[{"name":"subject","valueString":"9f063f76-a97a-4bba-9f6a-35e7a429a72c"}]}],"extension":[{"url":"http://hl7.org/fhir/StructureDefinition/cqf-inputParameters","valueReference":{"reference":"#8d985d1a-5d41-4de5-b516-3391a9017749-parameters"}},{"url":"http://hl7.org/fhir/us/cqfmeasures/StructureDefinition/cqfm-testCaseDescription","valueMarkdown":"Frailty encounter overlaps MP"}],"modifierExtension":[{"url":"http://hl7.org/fhir/us/cqfmeasures/StructureDefinition/cqfm-isTestCase","valueBoolean":true}],"status":"complete","type":"individual","measure":"https://madie.cms.gov/Measure/CMS165FHIRControllingHighBloodPressure","period":{"start":"2026-01-01","end":"2026-12-31"},"group":[{"id":"Group_1","population":[{"id":"InitialPopulation_1","code":{"coding":[{"system":"http://terminology.hl7.org/CodeSystem/measure-population","code":"initial-population","display":"Initial Population"}]},"count":1},{"id":"Denominator_1","code":{"coding":[{"system":"http://terminology.hl7.org/CodeSystem/measure-population","code":"denominator","display":"Denominator"}]},"count":1},{"id":"DenominatorExclusion_1","code":{"coding":[{"system":"http://terminology.hl7.org/CodeSystem/measure-population","code":"denominator-exclusion","display":"Denominator Exclusion"}]},"count":1},{"id":"Numerator_1","code":{"coding":[{"system":"http://terminology.hl7.org/CodeSystem/measure-population","code":"numerator","display":"Numerator"}]},"count":0}],"measureScore":{"value":1.0}}],"evaluatedResource":[{"reference":"Patient/9f063f76-a97a-4bba-9f6a-35e7a429a72c"},{"reference":"Encounter/c1350f2f-e899-4fd1-8258-9ca809cea92c"},{"reference":"Condition/b106700d-77c8-4bd0-b0d3-cc896735cba2"},{"reference":"MedicationRequest/4fcd3934-74de-4903-ba60-54f76402f882"},{"reference":"Encounter/45e0c645-8e42-4468-a64c-9f54804a53e9"}]},"request":{"method":"PUT","url":"MeasureReport/4fb7629a-997a-488f-a7a4-6c4dd0f76385"}}]},"request":{"method":"PUT","url":"Bundle/DENEXPass-FrailtyEncOverlapsMP"}},{"fullUrl":"Patient/9f063f76-a97a-4bba-9f6a-35e7a429a72c","resource":{"resourceType":"Patient","id":"9f063f76-a97a-4bba-9f6a-35e7a429a72c","meta":{"profile":["http://hl7.org/fhir/us/qicore/StructureDefinition/qicore-patient"]},"extension":[{"url":"http://hl7.org/fhir/us/core/StructureDefinition/us-core-race","extension":[{"url":"ombCategory","valueCoding":{"system":"urn:oid:2.16.840.1.113883.6.238","code":"2028-9","display":"Asian"}},{"url":"text","valueString":"Asian"}]},{"url":"http://hl7.org/fhir/us/core/StructureDefinition/us-core-ethnicity","extension":[{"url":"ombCategory","valueCoding":{"system":"urn:oid:2.16.840.1.113883.6.238","code":"2135-2","display":"Hispanic or Latino"}},{"url":"text","valueString":"Hispanic or Latino"}]}],"identifier":[{"system":"http://hospital.smarthealthit.org","value":"999999995"}],"name":[{"family":"DENEXPass","given":["FrailtyEncOverlapsMP"]}],"gender":"female","birthDate":"1959-12-31"},"request":{"method":"PUT","url":"Patient/9f063f76-a97a-4bba-9f6a-35e7a429a72c"}},{"fullUrl":"MeasureReport/4fb7629a-997a-488f-a7a4-6c4dd0f76385","resource":{"resourceType":"MeasureReport","id":"4fb7629a-997a-488f-a7a4-6c4dd0f76385","meta":{"profile":["http://hl7.org/fhir/us/cqfmeasures/StructureDefinition/test-case-cqfm"]},"contained":[{"resourceType":"Parameters","id":"8d985d1a-5d41-4de5-b516-3391a9017749-parameters","parameter":[{"name":"subject","valueString":"9f063f76-a97a-4bba-9f6a-35e7a429a72c"}]}],"extension":[{"url":"http://hl7.org/fhir/StructureDefinition/cqf-inputParameters","valueReference":{"reference":"#8d985d1a-5d41-4de5-b516-3391a9017749-parameters"}},{"url":"http://hl7.org/fhir/us/cqfmeasures/StructureDefinition/cqfm-testCaseDescription","valueMarkdown":"Frailty encounter overlaps MP"}],"modifierExtension":[{"url":"http://hl7.org/fhir/us/cqfmeasures/StructureDefinition/cqfm-isTestCase","valueBoolean":true}],"status":"complete","type":"individual","measure":"https://madie.cms.gov/Measure/CMS165FHIRControllingHighBloodPressure","period":{"start":"2026-01-01","end":"2026-12-31"},"group":[{"id":"Group_1","population":[{"id":"InitialPopulation_1","code":{"coding":[{"system":"http://terminology.hl7.org/CodeSystem/measure-population","code":"initial-population","display":"Initial Population"}]},"count":1},{"id":"Denominator_1","code":{"coding":[{"system":"http://terminology.hl7.org/CodeSystem/measure-population","code":"denominator","display":"Denominator"}]},"count":1},{"id":"DenominatorExclusion_1","code":{"coding":[{"system":"http://terminology.hl7.org/CodeSystem/measure-population","code":"denominator-exclusion","display":"Denominator Exclusion"}]},"count":1},{"id":"Numerator_1","code":{"coding":[{"system":"http://terminology.hl7.org/CodeSystem/measure-population","code":"numerator","display":"Numerator"}]},"count":0}],"measureScore":{"value":1.0}}],"evaluatedResource":[{"reference":"Patient/9f063f76-a97a-4bba-9f6a-35e7a429a72c"},{"reference":"Encounter/c1350f2f-e899-4fd1-8258-9ca809cea92c"},{"reference":"Condition/b106700d-77c8-4bd0-b0d3-cc896735cba2"},{"reference":"MedicationRequest/4fcd3934-74de-4903-ba60-54f76402f882"},{"reference":"Encounter/45e0c645-8e42-4468-a64c-9f54804a53e9"}]},"request":{"method":"PUT","url":"MeasureReport/4fb7629a-997a-488f-a7a4-6c4dd0f76385"}},{"fullUrl":"Encounter/c1350f2f-e899-4fd1-8258-9ca809cea92c","resource":{"resourceType":"Encounter","id":"c1350f2f-e899-4fd1-8258-9ca809cea92c","meta":{"profile":["http://hl7.org/fhir/us/qicore/StructureDefinition/qicore-encounter"]},"status":"finished","class":{"system":"http://terminology.hl7.org/CodeSystem/v3-ActCode","code":"AMB","display":"ambulatory"},"type":[{"coding":[{"system":"http://snomed.info/sct","code":"3391000175108","display":"Office visit for pediatric care and assessment (procedure)"}]}],"subject":{"reference":"Patient/9f063f76-a97a-4bba-9f6a-35e7a429a72c"},"period":{"start":"2026-01-01T00:00:00.000+00:00","end":"2026-01-01T01:00:00.000+00:00"}},"request":{"method":"PUT","url":"Encounter/c1350f2f-e899-4fd1-8258-9ca809cea92c"}},{"fullUrl":"MedicationRequest/4fcd3934-74de-4903-ba60-54f76402f882","resource":{"resourceType":"MedicationRequest","id":"4fcd3934-74de-4903-ba60-54f76402f882","meta":{"profile":["http://hl7.org/fhir/us/qicore/StructureDefinition/qicore-medicationrequest"]},"status":"active","intent":"order","doNotPerform":false,"medicationCodeableConcept":{"coding":[{"system":"http://www.nlm.nih.gov/research/umls/rxnorm","code":"312836","display":"rivastigmine 6 MG Oral Capsule"}]},"subject":{"reference":"Patient/9f063f76-a97a-4bba-9f6a-35e7a429a72c"},"authoredOn":"2026-01-01T00:00:00.000+00:00","requester":{"reference":"Practitioner/example"},"dispenseRequest":{"expectedSupplyDuration":{"value":90,"system":"http://unitsofmeasure.org","code":"days"}}},"request":{"method":"PUT","url":"MedicationRequest/4fcd3934-74de-4903-ba60-54f76402f882"}},{"fullUrl":"Encounter/45e0c645-8e42-4468-a64c-9f54804a53e9","resource":{"resourceType":"Encounter","id":"45e0c645-8e42-4468-a64c-9f54804a53e9","meta":{"profile":["http://hl7.org/fhir/us/qicore/StructureDefinition/qicore-encounter"]},"status":"finished","class":{"system":"http://terminology.hl7.org/CodeSystem/v3-ActCode","code":"AMB","display":"ambulatory"},"type":[{"coding":[{"system":"http://www.ama-assn.org/go/cpt","code":"99509","display":"Home visit for assistance with activities of daily living and personal care"}]}],"subject":{"reference":"Patient/9f063f76-a97a-4bba-9f6a-35e7a429a72c"},"period":{"start":"2026-01-01T00:00:00.000+00:00","end":"2026-01-02T00:00:00.000+00:00"}},"request":{"method":"PUT","url":"Encounter/45e0c645-8e42-4468-a64c-9f54804a53e9"}}]}