{
    "entry": [
        {
            "request": {
                "method": "PUT",
                "url": "Patient/b329064d-3ab8-4515-9bc0-b23f9d1417ea"
            },
            "resource": {
                "identifier": [{
                    "system": "https://bonnie-fhir.healthit.gov/",
                    "type": {"coding": [{
                        "system": "http://terminology.hl7.org/CodeSystem/v2-0203",
                        "code": "MR"
                    }]},
                    "value": "62d026c8d15ad008a13f69df"
                }],
                "extension": [
                    {
                        "extension": [
                            {
                                "valueCoding": {
                                    "system": "urn:oid:2.16.840.1.113883.6.238",
                                    "code": "1002-5",
                                    "userSelected": true,
                                    "display": "American Indian or Alaska Native"
                                },
                                "url": "ombCategory"
                            },
                            {
                                "valueString": "Other Race",
                                "url": "text"
                            }
                        ],
                        "url": "http://hl7.org/fhir/us/core/StructureDefinition/us-core-race"
                    },
                    {
                        "extension": [
                            {
                                "valueCoding": {
                                    "system": "urn:oid:2.16.840.1.113883.6.238",
                                    "code": "2135-2",
                                    "userSelected": true,
                                    "display": "Hispanic or Latino"
                                },
                                "url": "ombCategory"
                            },
                            {
                                "valueString": "Hispanic or Latino",
                                "url": "text"
                            }
                        ],
                        "url": "http://hl7.org/fhir/us/core/StructureDefinition/us-core-ethnicity"
                    }
                ],
                "gender": "female",
                "meta": {"profile": ["http://hl7.org/fhir/us/qicore/StructureDefinition/qicore-patient"]},
                "name": [{
                    "given": ["FirstHTN130Referred"],
                    "family": "NUMERPass"
                }],
                "id": "b329064d-3ab8-4515-9bc0-b23f9d1417ea",
                "text": {
                    "div": "<div xmlns=\"http://www.w3.org/1999/xhtml\">do not know<\/div>",
                    "status": "generated"
                },
                "birthDate": "2007-01-01",
                "resourceType": "Patient"
            },
            "fullUrl": "https://madie.cms.gov/Patient/b329064d-3ab8-4515-9bc0-b23f9d1417ea"
        },
        {
            "request": {
                "method": "PUT",
                "url": "Encounter/9b9b21c7-0dd3-4e27-8411-c5d9f10ac87f"
            },
            "resource": {
                "period": {
                    "start": "2026-01-01T00:00:00.000+00:00",
                    "end": "2026-01-01T05:30:00.000+00:00"
                },
                "meta": {"profile": ["http://hl7.org/fhir/us/qicore/StructureDefinition/qicore-encounter"]},
                "subject": {"reference": "Patient/b329064d-3ab8-4515-9bc0-b23f9d1417ea"},
                "id": "9b9b21c7-0dd3-4e27-8411-c5d9f10ac87f",
                "type": [{"coding": [{
                    "system": "http://snomed.info/sct",
                    "code": "103705002",
                    "userSelected": true,
                    "display": "Patient status observation (procedure)",
                    "version": "2022-03"
                }]}],
                "class": {
                    "system": "http://terminology.hl7.org/CodeSystem/v3-ActCode",
                    "code": "AMB",
                    "display": "ambulatory"
                },
                "resourceType": "Encounter",
                "status": "finished"
            },
            "fullUrl": "https://madie.cms.gov/Encounter/9b9b21c7-0dd3-4e27-8411-c5d9f10ac87f"
        },
        {
            "request": {
                "method": "PUT",
                "url": "Observation/9079f864-0873-4172-8520-178b5a5f3b0e"
            },
            "resource": {
                "component": [
                    {
                        "code": {"coding": [{
                            "system": "http://loinc.org",
                            "code": "8480-6",
                            "display": "Systolic blood pressure"
                        }]},
                        "valueQuantity": {
                            "unit": "mmHg",
                            "system": "http://unitsofmeasure.org",
                            "code": "mm[Hg]",
                            "value": 130
                        }
                    },
                    {
                        "code": {"coding": [{
                            "system": "http://loinc.org",
                            "code": "8462-4",
                            "display": "Diastolic blood pressure"
                        }]},
                        "valueQuantity": {
                            "unit": "mmHg",
                            "system": "http://unitsofmeasure.org",
                            "code": "mm[Hg]",
                            "value": 79
                        }
                    }
                ],
                "code": {"coding": [{
                    "system": "http://loinc.org",
                    "code": "85354-9",
                    "display": "Blood pressure panel"
                }]},
                "effectiveDateTime": "2026-01-01T00:05:00.000+00:00",
                "meta": {"profile": ["http://hl7.org/fhir/us/core/StructureDefinition/us-core-blood-pressure"]},
                "subject": {"reference": "Patient/b329064d-3ab8-4515-9bc0-b23f9d1417ea"},
                "id": "9079f864-0873-4172-8520-178b5a5f3b0e",
                "category": [{
                    "coding": [{
                        "system": "http://terminology.hl7.org/CodeSystem/observation-category",
                        "code": "vital-signs",
                        "display": "Vital Signs"
                    }],
                    "text": "Vital Signs"
                }],
                "resourceType": "Observation",
                "status": "final"
            },
            "fullUrl": "https://madie.cms.gov/Observation/9079f864-0873-4172-8520-178b5a5f3b0e"
        },
        {
            "request": {
                "method": "PUT",
                "url": "ServiceRequest/a8acab63-ce2d-421d-a659-aa92018e61a4"
            },
            "resource": {
                "code": {"coding": [{
                    "system": "http://snomed.info/sct",
                    "code": "134403003",
                    "userSelected": true,
                    "display": "Urgent referral (procedure)",
                    "version": "2022-03"
                }]},
                "authoredOn": "2026-01-01T00:05:00.000+00:00",
                "meta": {"profile": ["http://hl7.org/fhir/us/qicore/StructureDefinition/qicore-servicerequest"]},
                "subject": {"reference": "Patient/b329064d-3ab8-4515-9bc0-b23f9d1417ea"},
                "id": "a8acab63-ce2d-421d-a659-aa92018e61a4",
                "reasonCode": [{"coding": [{
                    "system": "http://hl7.org/fhir/sid/icd-10-cm",
                    "code": "R03.0",
                    "userSelected": true,
                    "display": "Elevated blood-pressure reading, without diagnosis of hypertension"
                }]}],
                "intent": "order",
                "resourceType": "ServiceRequest",
                "status": "active"
            },
            "fullUrl": "https://madie.cms.gov/ServiceRequest/a8acab63-ce2d-421d-a659-aa92018e61a4"
        },
        {
            "request": {
                "method": "PUT",
                "url": "Coverage/72d3f29c-83ef-4931-8acc-a363cf07b934"
            },
            "resource": {
                "payor": [{"reference": "Organization/a1df8557-26f5-4f3f-bfa2-a5184ccc935c"}],
                "beneficiary": {"reference": "Patient/b329064d-3ab8-4515-9bc0-b23f9d1417ea"},
                "meta": {"profile": ["http://hl7.org/fhir/us/qicore/StructureDefinition/qicore-coverage"]},
                "id": "72d3f29c-83ef-4931-8acc-a363cf07b934",
                "resourceType": "Coverage",
                "status": "active"
            },
            "fullUrl": "https://madie.cms.gov/Coverage/72d3f29c-83ef-4931-8acc-a363cf07b934"
        },
        {
            "request": {
                "method": "PUT",
                "url": "Organization/a1df8557-26f5-4f3f-bfa2-a5184ccc935c"
            },
            "resource": {
                "identifier": [{
                    "system": "urn:oid:2.16.840.1.113883.4.4",
                    "use": "temp",
                    "value": "21-3259825"
                }],
                "address": [{
                    "country": "USA",
                    "city": "Dallas",
                    "use": "billing",
                    "line": ["P.O. Box 660044"],
                    "postalCode": "75266-0044",
                    "state": "TX",
                    "type": "postal"
                }],
                "meta": {"profile": ["http://hl7.org/fhir/us/qicore/StructureDefinition/qicore-organization"]},
                "name": "Blue Cross Blue Shield of Texas",
                "active": true,
                "telecom": [{
                    "system": "phone",
                    "value": "(+1) 972-766-6900"
                }],
                "id": "a1df8557-26f5-4f3f-bfa2-a5184ccc935c",
                "type": [{"coding": [{
                    "system": "http://terminology.hl7.org/CodeSystem/organization-type",
                    "code": "pay",
                    "display": "Payer"
                }]}],
                "resourceType": "Organization"
            },
            "fullUrl": "https://madie.cms.gov/Organization/a1df8557-26f5-4f3f-bfa2-a5184ccc935c"
        },
        {
            "request": {
                "method": "PUT",
                "url": "MeasureReport/469a4bd5-7139-4a67-be7c-ab747fc09c5d"
            },
            "resource": {
                "contained": [{
                    "parameter": [{
                        "valueString": "b329064d-3ab8-4515-9bc0-b23f9d1417ea",
                        "name": "subject"
                    }],
                    "id": "c322f8c1-26f0-4539-a0eb-d8756e07f3e2-parameters",
                    "resourceType": "Parameters"
                }],
                "extension": [
                    {
                        "valueReference": {"reference": "#c322f8c1-26f0-4539-a0eb-d8756e07f3e2-parameters"},
                        "url": "http://hl7.org/fhir/StructureDefinition/cqf-inputParameters"
                    },
                    {
                        "valueMarkdown": "Age 18,   encounter first day of MP, BP 130/79, referred to another physician.",
                        "url": "http://hl7.org/fhir/us/cqfmeasures/StructureDefinition/cqfm-testCaseDescription"
                    }
                ],
                "period": {
                    "start": "2026-01-01",
                    "end": "2026-12-31"
                },
                "measure": "https://madie.cms.gov/Measure/CMS22FHIRPCSBPScreeningFollowUp",
                "meta": {"profile": ["http://hl7.org/fhir/us/cqfmeasures/StructureDefinition/test-case-cqfm"]},
                "modifierExtension": [{
                    "valueBoolean": true,
                    "url": "http://hl7.org/fhir/us/cqfmeasures/StructureDefinition/cqfm-isTestCase"
                }],
                "id": "469a4bd5-7139-4a67-be7c-ab747fc09c5d",
                "evaluatedResource": [
                    {"reference": "Patient/b329064d-3ab8-4515-9bc0-b23f9d1417ea"},
                    {"reference": "Encounter/9b9b21c7-0dd3-4e27-8411-c5d9f10ac87f"},
                    {"reference": "Observation/9079f864-0873-4172-8520-178b5a5f3b0e"},
                    {"reference": "ServiceRequest/a8acab63-ce2d-421d-a659-aa92018e61a4"},
                    {"reference": "Coverage/72d3f29c-83ef-4931-8acc-a363cf07b934"},
                    {"reference": "Organization/a1df8557-26f5-4f3f-bfa2-a5184ccc935c"}
                ],
                "type": "individual",
                "resourceType": "MeasureReport",
                "status": "complete",
                "group": [{
                    "id": "Group_1",
                    "measureScore": {"value": 0},
                    "population": [
                        {
                            "code": {"coding": [{
                                "system": "http://terminology.hl7.org/CodeSystem/measure-population",
                                "code": "initial-population",
                                "display": "Initial Population"
                            }]},
                            "count": 1,
                            "id": "InitialPopulation_1"
                        },
                        {
                            "code": {"coding": [{
                                "system": "http://terminology.hl7.org/CodeSystem/measure-population",
                                "code": "denominator",
                                "display": "Denominator"
                            }]},
                            "count": 1,
                            "id": "Denominator_1"
                        },
                        {
                            "code": {"coding": [{
                                "system": "http://terminology.hl7.org/CodeSystem/measure-population",
                                "code": "denominator-exclusion",
                                "display": "Denominator Exclusion"
                            }]},
                            "count": 0,
                            "id": "DenominatorExclusion_1"
                        },
                        {
                            "code": {"coding": [{
                                "system": "http://terminology.hl7.org/CodeSystem/measure-population",
                                "code": "numerator",
                                "display": "Numerator"
                            }]},
                            "count": 1,
                            "id": "Numerator_1"
                        },
                        {
                            "code": {"coding": [{
                                "system": "http://terminology.hl7.org/CodeSystem/measure-population",
                                "code": "denominator-exception",
                                "display": "Denominator Exception"
                            }]},
                            "count": 0,
                            "id": "DenominatorException_1"
                        }
                    ]
                }]
            },
            "fullUrl": "https://madie.cms.gov/MeasureReport/469a4bd5-7139-4a67-be7c-ab747fc09c5d"
        }
    ],
    "id": "62d026c8d15ad008a13f69df",
    "type": "transaction",
    "resourceType": "Bundle"
}