{
  "resourceType": "Bundle",
  "id": "tests-NUMERPass-1Encounter3GlucoseResultsLT40-bundle",
  "type": "transaction",
  "entry": [ {
    "fullUrl": "https://madie.cms.gov/Encounter/89916ba0-2e88-4ad5-9173-a9d6d8e06c3b",
    "resource": {
      "resourceType": "Encounter",
      "id": "89916ba0-2e88-4ad5-9173-a9d6d8e06c3b",
      "meta": {
        "profile": [ "http://hl7.org/fhir/us/qicore/StructureDefinition/qicore-encounter" ]
      },
      "status": "finished",
      "class": {
        "system": "http://terminology.hl7.org/CodeSystem/v3-ActCode",
        "code": "IMP",
        "display": "Inpatient encounter"
      },
      "type": [ {
        "coding": [ {
          "system": "http://snomed.info/sct",
          "code": "183452005",
          "display": "Inpatient encounter"
        } ]
      } ],
      "period": {
        "start": "2026-02-03T08:00:00Z",
        "end": "2026-02-06T08:15:00Z"
      }
    },
    "request": {
      "method": "PUT",
      "url": "Encounter/89916ba0-2e88-4ad5-9173-a9d6d8e06c3b"
    }
  }, {
    "fullUrl": "https://madie.cms.gov/MedicationAdministration/9a72d000-1f3b-409b-a8fb-4774cc633b5e",
    "resource": {
      "resourceType": "MedicationAdministration",
      "id": "9a72d000-1f3b-409b-a8fb-4774cc633b5e",
      "meta": {
        "profile": [ "http://hl7.org/fhir/us/qicore/StructureDefinition/qicore-medicationadministration" ]
      },
      "status": "completed",
      "medicationCodeableConcept": {
        "coding": [ {
          "system": "http://www.nlm.nih.gov/research/umls/rxnorm",
          "code": "1652239",
          "display": "Hypoglycemics Severe Hypoglycemia"
        } ]
      },
      "subject": {
        "reference": "Patient/2adf5469-46a1-4020-be3b-01f91f8acc9d"
      },
      "effectivePeriod": {
        "start": "2026-02-04T08:00:00Z",
        "end": "2026-02-04T08:15:00Z"
      }
    },
    "request": {
      "method": "PUT",
      "url": "MedicationAdministration/9a72d000-1f3b-409b-a8fb-4774cc633b5e"
    }
  }, {
    "fullUrl": "https://madie.cms.gov/Observation/24be7109-b52d-4ffc-85e4-796bcb54082c",
    "resource": {
      "resourceType": "Observation",
      "id": "24be7109-b52d-4ffc-85e4-796bcb54082c",
      "meta": {
        "profile": [ "http://hl7.org/fhir/us/qicore/StructureDefinition/qicore-observation-lab" ]
      },
      "status": "final",
      "code": {
        "coding": [ {
          "system": "http://loinc.org",
          "code": "1556-0",
          "display": "Glucose Lab Test Mass Per Volume"
        } ]
      },
      "subject": {
        "reference": "Patient/2adf5469-46a1-4020-be3b-01f91f8acc9d"
      },
      "effectivePeriod": {
        "start": "2026-02-04T11:45:00Z",
        "end": "2026-02-04T11:45:00Z"
      },
      "issued": "2026-02-04T11:45:00Z",
      "valueQuantity": {
        "value": 30,
        "unit": "mg/dL"
      }
    },
    "request": {
      "method": "PUT",
      "url": "Observation/24be7109-b52d-4ffc-85e4-796bcb54082c"
    }
  }, {
    "fullUrl": "https://madie.cms.gov/Observation/320be7ef-79f0-4383-af1a-f78b289a12e2",
    "resource": {
      "resourceType": "Observation",
      "id": "320be7ef-79f0-4383-af1a-f78b289a12e2",
      "meta": {
        "profile": [ "http://hl7.org/fhir/us/qicore/StructureDefinition/qicore-observation-lab" ]
      },
      "status": "final",
      "code": {
        "coding": [ {
          "system": "http://loinc.org",
          "code": "1556-0",
          "display": "Glucose Lab Test Mass Per Volume"
        } ]
      },
      "subject": {
        "reference": "Patient/2adf5469-46a1-4020-be3b-01f91f8acc9d"
      },
      "effectivePeriod": {
        "start": "2026-02-04T10:00:00Z",
        "end": "2026-02-04T10:00:00Z"
      },
      "issued": "2026-02-04T10:00:00Z",
      "valueQuantity": {
        "value": 39,
        "unit": "mg/dL"
      }
    },
    "request": {
      "method": "PUT",
      "url": "Observation/320be7ef-79f0-4383-af1a-f78b289a12e2"
    }
  }, {
    "fullUrl": "https://madie.cms.gov/Observation/a3cbefb7-84df-409e-85be-0fe887598d05",
    "resource": {
      "resourceType": "Observation",
      "id": "a3cbefb7-84df-409e-85be-0fe887598d05",
      "meta": {
        "profile": [ "http://hl7.org/fhir/us/qicore/StructureDefinition/qicore-observation-lab" ]
      },
      "status": "final",
      "code": {
        "coding": [ {
          "system": "http://loinc.org",
          "code": "1556-0",
          "display": "Glucose Lab Test Mass Per Volume"
        } ]
      },
      "subject": {
        "reference": "Patient/2adf5469-46a1-4020-be3b-01f91f8acc9d"
      },
      "effectivePeriod": {
        "start": "2026-02-05T07:00:00Z",
        "end": "2026-02-05T07:00:00Z"
      },
      "issued": "2026-02-05T07:00:00Z",
      "valueQuantity": {
        "value": 30,
        "unit": "mg/dL"
      }
    },
    "request": {
      "method": "PUT",
      "url": "Observation/a3cbefb7-84df-409e-85be-0fe887598d05"
    }
  }, {
    "fullUrl": "https://madie.cms.gov/Patient/2adf5469-46a1-4020-be3b-01f91f8acc9d",
    "resource": {
      "resourceType": "Patient",
      "id": "2adf5469-46a1-4020-be3b-01f91f8acc9d",
      "meta": {
        "profile": [ "http://hl7.org/fhir/us/qicore/StructureDefinition/qicore-patient" ]
      },
      "extension": [ {
        "url": "http://hl7.org/fhir/us/core/StructureDefinition/us-core-race",
        "extension": [ {
          "url": "ombCategory",
          "valueCoding": {
            "system": "urn:oid:2.16.840.1.113883.6.238",
            "code": "2106-3",
            "display": "White"
          }
        }, {
          "url": "text",
          "valueString": "White"
        } ]
      }, {
        "url": "http://hl7.org/fhir/us/core/StructureDefinition/us-core-ethnicity",
        "extension": [ {
          "url": "ombCategory",
          "valueCoding": {
            "system": "urn:oid:2.16.840.1.113883.6.238",
            "code": "2135-2",
            "display": "Hispanic or Latino"
          }
        }, {
          "url": "text",
          "valueString": "Hispanic or Latino"
        } ]
      }, {
        "url": "http://hl7.org/fhir/us/core/StructureDefinition/us-core-sex",
        "valueCode": "248153007"
      } ],
      "identifier": [ {
        "system": "http://hospital.smarthealthit.org",
        "value": "999999999"
      } ],
      "name": [ {
        "family": "Example",
        "given": [ "Patient" ]
      } ],
      "gender": "female",
      "birthDate": "2000-02-03"
    },
    "request": {
      "method": "PUT",
      "url": "Patient/2adf5469-46a1-4020-be3b-01f91f8acc9d"
    }
  }, {
    "fullUrl": "https://madie.cms.gov/MeasureReport/47d191ea-1c7a-4e20-adce-6fcf32439738",
    "resource": {
      "resourceType": "MeasureReport",
      "id": "47d191ea-1c7a-4e20-adce-6fcf32439738",
      "meta": {
        "profile": [ "http://hl7.org/fhir/us/cqfmeasures/StructureDefinition/test-case-cqfm" ]
      },
      "contained": [ {
        "resourceType": "Parameters",
        "id": "c21905ac-c723-4ccf-a193-f597bcaa88e2-parameters",
        "parameter": [ {
          "name": "subject",
          "valueString": "2adf5469-46a1-4020-be3b-01f91f8acc9d"
        } ]
      } ],
      "extension": [ {
        "url": "http://hl7.org/fhir/StructureDefinition/cqf-inputParameters",
        "valueReference": {
          "reference": "#c21905ac-c723-4ccf-a193-f597bcaa88e2-parameters"
        }
      }, {
        "url": "http://hl7.org/fhir/us/cqfmeasures/StructureDefinition/cqfm-testCaseDescription",
        "valueMarkdown": "Encounter with meds and 3 glucose labs. All results are less than 40, and all within 24 hours of hypo med. Meets num = 1 harm per encounter."
      } ],
      "modifierExtension": [ {
        "url": "http://hl7.org/fhir/us/cqfmeasures/StructureDefinition/cqfm-isTestCase",
        "valueBoolean": true
      } ],
      "status": "complete",
      "type": "individual",
      "measure": "https://madie.cms.gov/Measure/CMS816FHIRHHHypo",
      "period": {
        "start": "2026-01-01",
        "end": "2026-12-31"
      },
      "group": [ {
        "id": "Group_1",
        "population": [ {
          "id": "InitialPopulation_1",
          "code": {
            "coding": [ {
              "system": "http://terminology.hl7.org/CodeSystem/measure-population",
              "code": "initial-population",
              "display": "Initial Population"
            } ]
          },
          "count": 1
        }, {
          "id": "Denominator_1",
          "code": {
            "coding": [ {
              "system": "http://terminology.hl7.org/CodeSystem/measure-population",
              "code": "denominator",
              "display": "Denominator"
            } ]
          },
          "count": 1
        }, {
          "id": "Numerator_1",
          "code": {
            "coding": [ {
              "system": "http://terminology.hl7.org/CodeSystem/measure-population",
              "code": "numerator",
              "display": "Numerator"
            } ]
          },
          "count": 1
        } ],
        "measureScore": {
          "value": 0.0
        }
      } ],
      "evaluatedResource": [ {
        "reference": "Encounter/89916ba0-2e88-4ad5-9173-a9d6d8e06c3b"
      }, {
        "reference": "MedicationAdministration/9a72d000-1f3b-409b-a8fb-4774cc633b5e"
      }, {
        "reference": "Observation/24be7109-b52d-4ffc-85e4-796bcb54082c"
      }, {
        "reference": "Observation/320be7ef-79f0-4383-af1a-f78b289a12e2"
      }, {
        "reference": "Observation/a3cbefb7-84df-409e-85be-0fe887598d05"
      }, {
        "reference": "Patient/2adf5469-46a1-4020-be3b-01f91f8acc9d"
      } ]
    },
    "request": {
      "method": "PUT",
      "url": "MeasureReport/47d191ea-1c7a-4e20-adce-6fcf32439738"
    }
  } ]
}