{
  "resourceType": "Bundle",
  "id": "6129131902c62a011f2e5b40",
  "type": "transaction",
  "entry": [ {
    "fullUrl": "https://madie.cms.gov/Patient/6e82e823-f955-43fa-8b8a-b9cd4ae27778",
    "resource": {
      "resourceType": "Patient",
      "id": "6e82e823-f955-43fa-8b8a-b9cd4ae27778",
      "meta": {
        "profile": [ "http://hl7.org/fhir/us/qicore/StructureDefinition/qicore-patient" ]
      },
      "text": {
        "status": "generated",
        "div": "<div xmlns=\"http://www.w3.org/1999/xhtml\"><div class=\"hapiHeaderText\">MedDscPatRsnDTimeEQEncStartTime <b>DENEXCEPPASS </b></div><table class=\"hapiPropertyTable\"><tbody><tr><td>Identifier</td><td>f27996c6545ea958dc5266f6c01bdf6c</td></tr><tr><td>Date of birth</td><td><span>21 August 1994</span></td></tr></tbody></table></div>"
      },
      "extension": [ {
        "url": "http://hl7.org/fhir/us/core/StructureDefinition/us-core-race",
        "extension": [ {
          "url": "ombCategory",
          "valueCoding": {
            "system": "urn:oid:2.16.840.1.113883.6.238",
            "code": "1002-5",
            "display": "American Indian or Alaska Native",
            "userSelected": true
          }
        }, {
          "url": "text",
          "valueString": "American Indian or Alaska Native"
        } ]
      }, {
        "url": "http://hl7.org/fhir/us/core/StructureDefinition/us-core-ethnicity",
        "extension": [ {
          "url": "ombCategory",
          "valueCoding": {
            "system": "urn:oid:2.16.840.1.113883.6.238",
            "code": "2135-2",
            "display": "Hispanic or Latino",
            "userSelected": true
          }
        }, {
          "url": "text",
          "valueString": "Hispanic or Latino"
        } ]
      } ],
      "identifier": [ {
        "type": {
          "coding": [ {
            "system": "http://terminology.hl7.org/CodeSystem/v2-0203",
            "code": "MR"
          } ]
        },
        "system": "https://bonnie-fhir.healthit.gov/",
        "value": "6129131902c62a011f2e5b40"
      } ],
      "active": true,
      "name": [ {
        "use": "usual",
        "family": "DENEXCEPPass",
        "given": [ "MedDscPatRsnDTimeEQEncStartTime" ]
      } ],
      "gender": "male",
      "birthDate": "1995-08-21"
    },
    "request": {
      "method": "PUT",
      "url": "Patient/6e82e823-f955-43fa-8b8a-b9cd4ae27778"
    }
  }, {
    "fullUrl": "https://madie.cms.gov/Encounter/c6ac8ed0-d1bb-41d2-a438-c37aaf6b8aa8",
    "resource": {
      "resourceType": "Encounter",
      "id": "c6ac8ed0-d1bb-41d2-a438-c37aaf6b8aa8",
      "meta": {
        "profile": [ "http://hl7.org/fhir/us/qicore/StructureDefinition/qicore-encounter" ]
      },
      "status": "finished",
      "class": {
        "system": "http://terminology.hl7.org/CodeSystem/v3-ActCode",
        "code": "IMP",
        "display": "inpatient encounter",
        "userSelected": true
      },
      "type": [ {
        "coding": [ {
          "system": "http://snomed.info/sct",
          "code": "32485007"
        } ]
      } ],
      "subject": {
        "reference": "Patient/6e82e823-f955-43fa-8b8a-b9cd4ae27778"
      },
      "period": {
        "start": "2026-10-10T09:30:00Z",
        "end": "2026-10-12T10:30:00.000+00:00"
      },
      "length": {
        "value": 2,
        "unit": "days"
      },
      "diagnosis": [ {
        "condition": {
          "reference": "Condition/1a6af5a7-2a79-4b59-a88d-db7bf6720d9f"
        },
        "use": {
          "coding": [ {
            "system": "http://terminology.hl7.org/CodeSystem/diagnosis-role",
            "code": "billing",
            "display": "Billing"
          } ]
        },
        "rank": 1
      } ]
    },
    "request": {
      "method": "PUT",
      "url": "Encounter/c6ac8ed0-d1bb-41d2-a438-c37aaf6b8aa8"
    }
  }, {
    "fullUrl": "https://madie.cms.gov/MedicationRequest/7357d7ab-c847-4a13-a629-7e8aa8e0755b",
    "resource": {
      "resourceType": "MedicationRequest",
      "id": "7357d7ab-c847-4a13-a629-7e8aa8e0755b",
      "meta": {
        "profile": [ "http://hl7.org/fhir/us/qicore/StructureDefinition/qicore-mednotrequested" ]
      },
      "extension": [ {
        "url": "http://hl7.org/fhir/us/qicore/StructureDefinition/qicore-medicationnotrequested",
        "valueCodeableConcept": {
          "coding": [ {
            "system": "http://www.nlm.nih.gov/research/umls/rxnorm",
            "code": "1037045",
            "display": "dabigatran etexilate 150 MG Oral Capsule",
            "userSelected": true
          } ]
        }
      } ],
      "status": "completed",
      "intent": "order",
      "category": [ {
        "coding": [ {
          "system": "http://hl7.org/fhir/us/qicore/StructureDefinition/qicore-medicationnotrequested",
          "code": "community"
        } ]
      } ],
      "doNotPerform": true,
      "medicationCodeableConcept": {
        "coding": [ {
          "system": "http://www.nlm.nih.gov/research/umls/rxnorm",
          "code": "1037045",
          "display": "dabigatran etexilate 150 MG Oral Capsule",
          "userSelected": true
        } ]
      },
      "subject": {
        "reference": "Patient/6e82e823-f955-43fa-8b8a-b9cd4ae27778"
      },
      "authoredOn": "2026-10-09T09:30:00Z",
      "requester": {
        "reference": "Practitioner/example"
      },
      "reasonCode": [ {
        "coding": [ {
          "system": "http://snomed.info/sct",
          "code": "105480006",
          "display": "Refusal of treatment by patient (situation)"
        } ]
      } ]
    },
    "request": {
      "method": "PUT",
      "url": "MedicationRequest/7357d7ab-c847-4a13-a629-7e8aa8e0755b"
    }
  }, {
    "fullUrl": "https://madie.cms.gov/Condition/1a6af5a7-2a79-4b59-a88d-db7bf6720d9f",
    "resource": {
      "resourceType": "Condition",
      "id": "1a6af5a7-2a79-4b59-a88d-db7bf6720d9f",
      "meta": {
        "profile": [ "http://hl7.org/fhir/us/qicore/StructureDefinition/qicore-condition" ]
      },
      "clinicalStatus": {
        "coding": [ {
          "system": "http://terminology.hl7.org/CodeSystem/condition-clinical",
          "code": "active"
        } ]
      },
      "verificationStatus": {
        "coding": [ {
          "system": "http://terminology.hl7.org/CodeSystem/condition-ver-status",
          "code": "confirmed"
        } ]
      },
      "category": [ {
        "coding": [ {
          "system": "http://terminology.hl7.org/CodeSystem/condition-category",
          "code": "encounter-diagnosis",
          "display": "Encounter Diagnosis"
        } ]
      } ],
      "code": {
        "coding": [ {
          "system": "http://snomed.info/sct",
          "version": "2020-09",
          "code": "111297002",
          "display": "Nonparalytic stroke (disorder)",
          "userSelected": true
        } ]
      },
      "subject": {
        "reference": "Patient/6e82e823-f955-43fa-8b8a-b9cd4ae27778"
      },
      "recordedDate": "2026-07-13T08:00:00Z"
    },
    "request": {
      "method": "PUT",
      "url": "Condition/1a6af5a7-2a79-4b59-a88d-db7bf6720d9f"
    }
  }, {
    "fullUrl": "https://madie.cms.gov/claim/5ca62962b8484628b8de1ec5",
    "resource": {
      "resourceType": "Claim",
      "id": "5ca62962b8484628b8de1ec5",
      "meta": {
        "profile": [ "http://hl7.org/fhir/us/qicore/StructureDefinition/qicore-claim" ]
      },
      "status": "active",
      "type": {
        "coding": [ {
          "system": "http://terminology.hl7.org/CodeSystem/claim-type",
          "code": "institutional"
        } ]
      },
      "use": "claim",
      "patient": {
        "reference": "Patient/d170a0a8-b5ad-4303-b6df-e304dd5f92ad"
      },
      "created": "2026-12-01",
      "provider": {
        "reference": "Practitioner/practitioner-123456"
      },
      "priority": {
        "coding": [ {
          "system": "http://terminology.hl7.org/CodeSystem/processpriority",
          "code": "normal"
        } ]
      },
      "diagnosis": [ {
        "sequence": 1,
        "diagnosisCodeableConcept": {
          "coding": [ {
            "system": "http://hl7.org/fhir/sid/icd-10-cm",
            "code": "I63.00"
          } ]
        },
        "type": [ {
          "coding": [ {
            "system": "http://terminology.hl7.org/CodeSystem/ex-diagnosistype",
            "code": "principal"
          } ]
        } ]
      } ],
      "insurance": [ {
        "sequence": 1,
        "focal": true,
        "coverage": {
          "reference": "Coverage/5fa041661c76ba66d9959367"
        }
      } ],
      "item": [ {
        "sequence": 1,
        "diagnosisSequence": [ 1 ],
        "productOrService": {
          "coding": [ {
            "system": "http://terminology.hl7.org/CodeSystem/ex-USCLS",
            "code": "99555"
          } ]
        },
        "encounter": [ {
          "reference": "Encounter/c6ac8ed0-d1bb-41d2-a438-c37aaf6b8aa8"
        } ]
      } ]
    },
    "request": {
      "method": "PUT",
      "url": "Claim/5ca62962b8484628b8de1ec5"
    }
  }, {
    "fullUrl": "https://madie.cms.gov/Organization/6966f535-7a7c-4b66-9b6a-03e16adc44e8",
    "resource": {
      "resourceType": "Organization",
      "id": "6966f535-7a7c-4b66-9b6a-03e16adc44e8",
      "meta": {
        "profile": [ "http://hl7.org/fhir/us/qicore/StructureDefinition/qicore-organization" ]
      },
      "identifier": [ {
        "use": "temp",
        "system": "urn:oid:2.16.840.1.113883.4.4",
        "value": "21-3259825"
      } ],
      "active": true,
      "type": [ {
        "coding": [ {
          "system": "http://terminology.hl7.org/CodeSystem/organization-type",
          "code": "pay",
          "display": "Payer"
        } ]
      } ],
      "name": "Blue Cross Blue Shield of Texas",
      "telecom": [ {
        "system": "phone",
        "value": "(+1) 972-766-6900"
      } ],
      "address": [ {
        "use": "billing",
        "type": "postal",
        "line": [ "P.O. Box 660044" ],
        "city": "Dallas",
        "state": "TX",
        "postalCode": "75266-0044",
        "country": "USA"
      } ]
    },
    "request": {
      "method": "PUT",
      "url": "Organization/6966f535-7a7c-4b66-9b6a-03e16adc44e8"
    }
  }, {
    "fullUrl": "https://madie.cms.gov/MeasureReport/409250e7-020a-40b7-939f-c5967030606c",
    "resource": {
      "resourceType": "MeasureReport",
      "id": "409250e7-020a-40b7-939f-c5967030606c",
      "meta": {
        "profile": [ "http://hl7.org/fhir/us/cqfmeasures/StructureDefinition/test-case-cqfm" ]
      },
      "contained": [ {
        "resourceType": "Parameters",
        "id": "5c1bd4b2-ae6c-409b-bf35-7d4a0a0acf79-parameters",
        "parameter": [ {
          "name": "subject",
          "valueString": "6e82e823-f955-43fa-8b8a-b9cd4ae27778"
        } ]
      } ],
      "extension": [ {
        "url": "http://hl7.org/fhir/StructureDefinition/cqf-inputParameters",
        "valueReference": {
          "reference": "#5c1bd4b2-ae6c-409b-bf35-7d4a0a0acf79-parameters"
        }
      } ],
      "modifierExtension": [ {
        "url": "http://hl7.org/fhir/us/cqfmeasures/StructureDefinition/cqfm-isTestCase",
        "valueBoolean": true
      } ],
      "status": "complete",
      "type": "individual",
      "measure": "https://madie.cms.gov/Measure/CMS104FHIRSTKDCAntithrombotic",
      "period": {
        "start": "2026-01-01",
        "end": "2026-12-31"
      },
      "group": [ {
        "id": "Group_1",
        "population": [ {
          "id": "InitialPopulation_1",
          "code": {
            "coding": [ {
              "system": "http://terminology.hl7.org/CodeSystem/measure-population",
              "code": "initial-population",
              "display": "Initial Population"
            } ]
          },
          "count": 1
        }, {
          "id": "Denominator_1",
          "code": {
            "coding": [ {
              "system": "http://terminology.hl7.org/CodeSystem/measure-population",
              "code": "denominator",
              "display": "Denominator"
            } ]
          },
          "count": 1
        }, {
          "id": "DenominatorExclusion_1",
          "code": {
            "coding": [ {
              "system": "http://terminology.hl7.org/CodeSystem/measure-population",
              "code": "denominator-exclusion",
              "display": "Denominator Exclusion"
            } ]
          },
          "count": 0
        }, {
          "id": "Numerator_1",
          "code": {
            "coding": [ {
              "system": "http://terminology.hl7.org/CodeSystem/measure-population",
              "code": "numerator",
              "display": "Numerator"
            } ]
          },
          "count": 0
        }, {
          "id": "DenominatorException_1",
          "code": {
            "coding": [ {
              "system": "http://terminology.hl7.org/CodeSystem/measure-population",
              "code": "denominator-exception",
              "display": "Denominator Exception"
            } ]
          },
          "count": 0
        } ],
        "measureScore": {
          "value": 0.0
        }
      } ],
      "evaluatedResource": [ {
        "reference": "Patient/6e82e823-f955-43fa-8b8a-b9cd4ae27778"
      }, {
        "reference": "Encounter/c6ac8ed0-d1bb-41d2-a438-c37aaf6b8aa8"
      }, {
        "reference": "MedicationRequest/7357d7ab-c847-4a13-a629-7e8aa8e0755b"
      }, {
        "reference": "Condition/1a6af5a7-2a79-4b59-a88d-db7bf6720d9f"
      }, {
        "reference": "Claim/5ca62962b8484628b8de1ec5"
      }, {
        "reference": "Organization/6966f535-7a7c-4b66-9b6a-03e16adc44e8"
      } ]
    },
    "request": {
      "method": "PUT",
      "url": "MeasureReport/409250e7-020a-40b7-939f-c5967030606c"
    }
  } ]
}