{
  "resourceType": "Bundle",
  "id": "633c9d030968f8012250fc83",
  "type": "transaction",
  "entry": [ {
    "fullUrl": "https://madie.cms.gov/Patient/0f3f1ce7-9c34-4082-a635-f09ddcf53ac1",
    "resource": {
      "resourceType": "Patient",
      "id": "0f3f1ce7-9c34-4082-a635-f09ddcf53ac1",
      "meta": {
        "profile": [ "http://hl7.org/fhir/us/qicore/StructureDefinition/qicore-patient" ]
      },
      "text": {
        "status": "generated",
        "div": "<div xmlns=\"http://www.w3.org/1999/xhtml\"><div class=\"hapiHeaderText\">CMOdurEnc_ED=1hrNoObsBFEnc <b>DENEXPASS </b></div><table class=\"hapiPropertyTable\"><tbody><tr><td>Identifier</td><td>c13349494c162d88448cb3ad5c0d4a05</td></tr><tr><td>Date of birth</td><td><span>18 September 1985</span></td></tr></tbody></table></div>"
      },
      "extension": [ {
        "url": "http://hl7.org/fhir/us/core/StructureDefinition/us-core-race",
        "extension": [ {
          "url": "ombCategory",
          "valueCoding": {
            "system": "urn:oid:2.16.840.1.113883.6.238",
            "code": "1002-5",
            "display": "American Indian or Alaska Native",
            "userSelected": true
          }
        }, {
          "url": "text",
          "valueString": "American Indian or Alaska Native"
        } ]
      }, {
        "url": "http://hl7.org/fhir/us/core/StructureDefinition/us-core-ethnicity",
        "extension": [ {
          "url": "ombCategory",
          "valueCoding": {
            "system": "urn:oid:2.16.840.1.113883.6.238",
            "code": "2135-2",
            "display": "Hispanic or Latino",
            "userSelected": true
          }
        }, {
          "url": "text",
          "valueString": "Hispanic or Latino"
        } ]
      } ],
      "identifier": [ {
        "type": {
          "coding": [ {
            "system": "http://terminology.hl7.org/CodeSystem/v2-0203",
            "code": "MR"
          } ]
        },
        "system": "https://bonnie-fhir.healthit.gov/",
        "value": "633c9d030968f8012250fc83"
      } ],
      "active": true,
      "name": [ {
        "use": "usual",
        "family": "DENEXPass",
        "given": [ "CMOdurEncED1hrNoObsBFEnc" ]
      } ],
      "gender": "female",
      "birthDate": "1986-09-18"
    },
    "request": {
      "method": "PUT",
      "url": "Patient/0f3f1ce7-9c34-4082-a635-f09ddcf53ac1"
    }
  }, {
    "fullUrl": "https://madie.cms.gov/claim/5ca62962b8484628b8de1ec5",
    "resource": {
      "resourceType": "Claim",
      "id": "5ca62962b8484628b8de1ec5",
      "meta": {
        "profile": [ "http://hl7.org/fhir/us/qicore/StructureDefinition/qicore-claim" ]
      },
      "status": "active",
      "type": {
        "coding": [ {
          "system": "http://terminology.hl7.org/CodeSystem/claim-type",
          "code": "institutional"
        } ]
      },
      "use": "claim",
      "patient": {
        "reference": "Patient/d170a0a8-b5ad-4303-b6df-e304dd5f92ad"
      },
      "created": "2026-12-01",
      "provider": {
        "reference": "Practitioner/ab0e03e4-247a-4a11-a702-125ea5163741"
      },
      "priority": {
        "coding": [ {
          "system": "http://terminology.hl7.org/CodeSystem/processpriority",
          "code": "normal"
        } ]
      },
      "diagnosis": [ {
        "sequence": 1,
        "diagnosisCodeableConcept": {
          "coding": [ {
            "system": "http://hl7.org/fhir/sid/icd-10-cm",
            "code": "I63.00"
          } ]
        },
        "type": [ {
          "coding": [ {
            "system": "http://terminology.hl7.org/CodeSystem/ex-diagnosistype",
            "code": "principal"
          } ]
        } ]
      } ],
      "insurance": [ {
        "sequence": 1,
        "focal": true,
        "coverage": {
          "reference": "Coverage/5fa041661c76ba66d9959367"
        }
      } ],
      "item": [ {
        "sequence": 1,
        "diagnosisSequence": [ 1 ],
        "productOrService": {
          "coding": [ {
            "system": "http://terminology.hl7.org/CodeSystem/ex-USCLS",
            "code": "99555"
          } ]
        },
        "encounter": [ {
          "reference": "Encounter/0e0ab87c-4599-473d-9a31-eb1965de1b5a"
        } ]
      } ]
    },
    "request": {
      "method": "PUT",
      "url": "Claim/5ca62962b8484628b8de1ec5"
    }
  }, {
    "fullUrl": "https://madie.cms.gov/Condition/81571748-b72e-4b56-a227-01ca988f0fe7",
    "resource": {
      "resourceType": "Condition",
      "id": "81571748-b72e-4b56-a227-01ca988f0fe7",
      "meta": {
        "profile": [ "http://hl7.org/fhir/us/qicore/StructureDefinition/qicore-condition-problems-health-concerns" ]
      },
      "clinicalStatus": {
        "coding": [ {
          "system": "http://terminology.hl7.org/CodeSystem/condition-clinical",
          "code": "inactive"
        } ]
      },
      "verificationStatus": {
        "coding": [ {
          "system": "http://terminology.hl7.org/CodeSystem/condition-ver-status",
          "code": "confirmed"
        } ]
      },
      "category": [ {
        "coding": [ {
          "system": "http://terminology.hl7.org/CodeSystem/condition-category",
          "code": "encounter-diagnosis",
          "display": "Encounter Diagnosis"
        } ]
      } ],
      "code": {
        "coding": [ {
          "system": "http://hl7.org/fhir/sid/icd-10-cm",
          "code": "I48.20"
        }, {
          "system": "http://hl7.org/fhir/sid/icd-10-cm",
          "code": "I48.0"
        }, {
          "system": "http://snomed.info/sct",
          "code": "5370000"
        } ]
      },
      "subject": {
        "reference": "Patient/0f3f1ce7-9c34-4082-a635-f09ddcf53ac1"
      },
      "onsetDateTime": "2026-10-01T09:00:00Z",
      "abatementDateTime": "2026-10-12T00:15:00.000+00:00"
    },
    "request": {
      "method": "PUT",
      "url": "Condition/81571748-b72e-4b56-a227-01ca988f0fe7"
    }
  }, {
    "fullUrl": "https://madie.cms.gov/Encounter/659df9cd-cbc6-4fc9-8659-24a9f66b57f7",
    "resource": {
      "resourceType": "Encounter",
      "id": "659df9cd-cbc6-4fc9-8659-24a9f66b57f7",
      "meta": {
        "profile": [ "http://hl7.org/fhir/us/qicore/StructureDefinition/qicore-encounter" ]
      },
      "status": "finished",
      "class": {
        "system": "http://terminology.hl7.org/CodeSystem/v3-ActCode",
        "code": "EMER",
        "display": "emergency"
      },
      "type": [ {
        "coding": [ {
          "system": "http://snomed.info/sct",
          "code": "4525004"
        } ]
      } ],
      "subject": {
        "reference": "Patient/0f3f1ce7-9c34-4082-a635-f09ddcf53ac1"
      },
      "period": {
        "start": "2026-10-01T08:00:00Z",
        "end": "2026-10-01T09:00:00.000+00:00"
      },
      "length": {
        "value": 0,
        "unit": "days"
      }
    },
    "request": {
      "method": "PUT",
      "url": "Encounter/659df9cd-cbc6-4fc9-8659-24a9f66b57f7"
    }
  }, {
    "fullUrl": "https://madie.cms.gov/Encounter/0e0ab87c-4599-473d-9a31-eb1965de1b5a",
    "resource": {
      "resourceType": "Encounter",
      "id": "0e0ab87c-4599-473d-9a31-eb1965de1b5a",
      "meta": {
        "profile": [ "http://hl7.org/fhir/us/qicore/StructureDefinition/qicore-encounter" ]
      },
      "status": "finished",
      "class": {
        "system": "http://terminology.hl7.org/CodeSystem/v3-ActCode",
        "code": "IMP",
        "display": "inpatient encounter"
      },
      "type": [ {
        "coding": [ {
          "system": "http://snomed.info/sct",
          "code": "32485007"
        } ]
      } ],
      "subject": {
        "reference": "Patient/0f3f1ce7-9c34-4082-a635-f09ddcf53ac1"
      },
      "period": {
        "start": "2026-10-01T09:00:00Z",
        "end": "2026-10-12T00:15:00.000+00:00"
      },
      "length": {
        "value": 11,
        "unit": "days"
      },
      "reasonReference": [ {
        "reference": "Condition/81571748-b72e-4b56-a227-01ca988f0fe7"
      } ]
    },
    "request": {
      "method": "PUT",
      "url": "Encounter/0e0ab87c-4599-473d-9a31-eb1965de1b5a"
    }
  }, {
    "fullUrl": "https://madie.cms.gov/ServiceRequest/589f901b-27c9-4e44-8ff7-2124f6811c45",
    "resource": {
      "resourceType": "ServiceRequest",
      "id": "589f901b-27c9-4e44-8ff7-2124f6811c45",
      "meta": {
        "profile": [ "http://hl7.org/fhir/us/qicore/StructureDefinition/qicore-servicerequest" ]
      },
      "status": "active",
      "intent": "order",
      "code": {
        "coding": [ {
          "system": "http://snomed.info/sct",
          "code": "133918004"
        } ]
      },
      "subject": {
        "reference": "Patient/0f3f1ce7-9c34-4082-a635-f09ddcf53ac1"
      },
      "authoredOn": "2026-10-01T09:15:00Z"
    },
    "request": {
      "method": "PUT",
      "url": "ServiceRequest/589f901b-27c9-4e44-8ff7-2124f6811c45"
    }
  }, {
    "fullUrl": "https://madie.cms.gov/Coverage/efb40589-dd3d-44be-b1d1-ada5cc206295",
    "resource": {
      "resourceType": "Coverage",
      "id": "efb40589-dd3d-44be-b1d1-ada5cc206295",
      "status": "active",
      "subscriberId": "523435",
      "beneficiary": {
        "reference": "Patient/0f3f1ce7-9c34-4082-a635-f09ddcf53ac1"
      },
      "relationship": {
        "coding": [ {
          "system": "http://terminology.hl7.org/CodeSystem/subscriber-relationship",
          "code": "self"
        } ]
      },
      "period": {
        "start": "1986-09-18T08:00:00Z"
      },
      "payor": [ {
        "reference": "Organization/0f4d2b5e-7591-40c8-af72-ceaefea3e5f8"
      } ]
    },
    "request": {
      "method": "PUT",
      "url": "Coverage/efb40589-dd3d-44be-b1d1-ada5cc206295"
    }
  }, {
    "fullUrl": "https://madie.cms.gov/Condition/5c09dd58-adb9-4347-9ca9-232f93f5f71e",
    "resource": {
      "resourceType": "Condition",
      "id": "5c09dd58-adb9-4347-9ca9-232f93f5f71e",
      "meta": {
        "profile": [ "http://hl7.org/fhir/us/qicore/StructureDefinition/qicore-condition" ]
      },
      "clinicalStatus": {
        "coding": [ {
          "system": "http://terminology.hl7.org/CodeSystem/condition-clinical",
          "code": "active"
        } ]
      },
      "verificationStatus": {
        "coding": [ {
          "system": "http://terminology.hl7.org/CodeSystem/condition-ver-status",
          "code": "confirmed"
        } ]
      },
      "category": [ {
        "coding": [ {
          "system": "http://terminology.hl7.org/CodeSystem/condition-category",
          "code": "encounter-diagnosis",
          "display": "Encounter Diagnosis"
        } ]
      } ],
      "code": {
        "coding": [ {
          "system": "http://snomed.info/sct",
          "version": "2021-09",
          "code": "111297002",
          "display": "Nonparalytic stroke (disorder)",
          "userSelected": true
        } ]
      },
      "subject": {
        "reference": "Patient/0f3f1ce7-9c34-4082-a635-f09ddcf53ac1"
      },
      "recordedDate": "2026-10-13T08:00:00Z"
    },
    "request": {
      "method": "PUT",
      "url": "Condition/5c09dd58-adb9-4347-9ca9-232f93f5f71e"
    }
  }, {
    "fullUrl": "https://madie.cms.gov/Organization/0f4d2b5e-7591-40c8-af72-ceaefea3e5f8",
    "resource": {
      "resourceType": "Organization",
      "id": "0f4d2b5e-7591-40c8-af72-ceaefea3e5f8",
      "meta": {
        "profile": [ "http://hl7.org/fhir/us/qicore/StructureDefinition/qicore-organization" ]
      },
      "identifier": [ {
        "use": "temp",
        "system": "urn:oid:2.16.840.1.113883.4.4",
        "value": "21-3259825"
      } ],
      "active": true,
      "type": [ {
        "coding": [ {
          "system": "http://terminology.hl7.org/CodeSystem/organization-type",
          "code": "pay",
          "display": "Payer"
        } ]
      } ],
      "name": "Blue Cross Blue Shield of Texas",
      "telecom": [ {
        "system": "phone",
        "value": "(+1) 972-766-6900"
      } ],
      "address": [ {
        "use": "billing",
        "type": "postal",
        "line": [ "P.O. Box 660044" ],
        "city": "Dallas",
        "state": "TX",
        "postalCode": "75266-0044",
        "country": "USA"
      } ]
    },
    "request": {
      "method": "PUT",
      "url": "Organization/0f4d2b5e-7591-40c8-af72-ceaefea3e5f8"
    }
  }, {
    "fullUrl": "https://madie.cms.gov/Practitioner/ab0e03e4-247a-4a11-a702-125ea5163741",
    "resource": {
      "resourceType": "Practitioner",
      "id": "ab0e03e4-247a-4a11-a702-125ea5163741",
      "identifier": [ {
        "system": "http://hl7.org/fhir/sid/us-npi",
        "value": "123456"
      } ],
      "name": [ {
        "family": "Evil",
        "prefix": [ "Dr" ]
      } ]
    },
    "request": {
      "method": "PUT",
      "url": "Practitioner/ab0e03e4-247a-4a11-a702-125ea5163741"
    }
  }, {
    "fullUrl": "https://madie.cms.gov/MeasureReport/e91cf7ee-6de4-42d8-b83e-ca172c3bac97",
    "resource": {
      "resourceType": "MeasureReport",
      "id": "e91cf7ee-6de4-42d8-b83e-ca172c3bac97",
      "meta": {
        "profile": [ "http://hl7.org/fhir/us/cqfmeasures/StructureDefinition/test-case-cqfm" ]
      },
      "contained": [ {
        "resourceType": "Parameters",
        "id": "2407d847-2c40-4051-8869-1c4ec3b38f93-parameters",
        "parameter": [ {
          "name": "subject",
          "valueString": "0f3f1ce7-9c34-4082-a635-f09ddcf53ac1"
        } ]
      } ],
      "extension": [ {
        "url": "http://hl7.org/fhir/StructureDefinition/cqf-inputParameters",
        "valueReference": {
          "reference": "#2407d847-2c40-4051-8869-1c4ec3b38f93-parameters"
        }
      }, {
        "url": "http://hl7.org/fhir/us/cqfmeasures/StructureDefinition/cqfm-testCaseDescription",
        "valueMarkdown": "Patient receives CMO during inpatient encounter. ED ends 60 min. before Observation start, Obs ends 60 min before inpatient encounter start. Testing HospitalizationWithObservation function.\n"
      } ],
      "modifierExtension": [ {
        "url": "http://hl7.org/fhir/us/cqfmeasures/StructureDefinition/cqfm-isTestCase",
        "valueBoolean": true
      } ],
      "status": "complete",
      "type": "individual",
      "measure": "https://madie.cms.gov/Measure/CMS71FHIRSTKAnticoagAFFlutter",
      "period": {
        "start": "2026-01-01",
        "end": "2026-12-31"
      },
      "group": [ {
        "id": "Group_1",
        "population": [ {
          "id": "InitialPopulation_1",
          "code": {
            "coding": [ {
              "system": "http://terminology.hl7.org/CodeSystem/measure-population",
              "code": "initial-population",
              "display": "Initial Population"
            } ]
          },
          "count": 1
        }, {
          "id": "Denominator_1",
          "code": {
            "coding": [ {
              "system": "http://terminology.hl7.org/CodeSystem/measure-population",
              "code": "denominator",
              "display": "Denominator"
            } ]
          },
          "count": 1
        }, {
          "id": "DenominatorExclusion_1",
          "code": {
            "coding": [ {
              "system": "http://terminology.hl7.org/CodeSystem/measure-population",
              "code": "denominator-exclusion",
              "display": "Denominator Exclusion"
            } ]
          },
          "count": 1
        }, {
          "id": "Numerator_1",
          "code": {
            "coding": [ {
              "system": "http://terminology.hl7.org/CodeSystem/measure-population",
              "code": "numerator",
              "display": "Numerator"
            } ]
          },
          "count": 0
        }, {
          "id": "DenominatorException_1",
          "code": {
            "coding": [ {
              "system": "http://terminology.hl7.org/CodeSystem/measure-population",
              "code": "denominator-exception",
              "display": "Denominator Exception"
            } ]
          },
          "count": 0
        } ],
        "measureScore": {
          "value": 0.0
        }
      } ],
      "evaluatedResource": [ {
        "reference": "Patient/0f3f1ce7-9c34-4082-a635-f09ddcf53ac1"
      }, {
        "reference": "Claim/5ca62962b8484628b8de1ec5"
      }, {
        "reference": "Condition/81571748-b72e-4b56-a227-01ca988f0fe7"
      }, {
        "reference": "Encounter/659df9cd-cbc6-4fc9-8659-24a9f66b57f7"
      }, {
        "reference": "Encounter/0e0ab87c-4599-473d-9a31-eb1965de1b5a"
      }, {
        "reference": "ServiceRequest/589f901b-27c9-4e44-8ff7-2124f6811c45"
      }, {
        "reference": "Coverage/efb40589-dd3d-44be-b1d1-ada5cc206295"
      }, {
        "reference": "Condition/5c09dd58-adb9-4347-9ca9-232f93f5f71e"
      }, {
        "reference": "Organization/0f4d2b5e-7591-40c8-af72-ceaefea3e5f8"
      }, {
        "reference": "Practitioner/ab0e03e4-247a-4a11-a702-125ea5163741"
      } ]
    },
    "request": {
      "method": "PUT",
      "url": "MeasureReport/e91cf7ee-6de4-42d8-b83e-ca172c3bac97"
    }
  } ]
}