{
  "resourceType": "Bundle",
  "id": "632334c2414ba67d4e1d1c32",
  "type": "transaction",
  "entry": [ {
    "fullUrl": "https://madie.cms.gov/Patient/e93adc7d-9d31-4279-9f76-644668f4d3c9",
    "resource": {
      "resourceType": "Patient",
      "id": "e93adc7d-9d31-4279-9f76-644668f4d3c9",
      "meta": {
        "profile": [ "http://hl7.org/fhir/us/qicore/StructureDefinition/qicore-patient" ]
      },
      "extension": [ {
        "url": "http://hl7.org/fhir/us/core/StructureDefinition/us-core-sex",
        "valueCode": "asked-declined"
      }, {
        "url": "http://hl7.org/fhir/us/core/StructureDefinition/us-core-race",
        "extension": [ {
          "url": "ombCategory",
          "valueCoding": {
            "system": "urn:oid:2.16.840.1.113883.6.238",
            "code": "2076-8",
            "display": "Native Hawaiian or Other Pacific Islander",
            "userSelected": true
          }
        }, {
          "url": "text",
          "valueString": "Native Hawaiian or Other Pacific Islander"
        } ]
      }, {
        "url": "http://hl7.org/fhir/us/core/StructureDefinition/us-core-ethnicity",
        "extension": [ {
          "url": "ombCategory",
          "valueCoding": {
            "system": "urn:oid:2.16.840.1.113883.6.238",
            "code": "2135-2",
            "display": "Hispanic or Latino",
            "userSelected": true
          }
        }, {
          "url": "text",
          "valueString": "Hispanic or Latino"
        } ]
      } ],
      "identifier": [ {
        "system": "http://hospital.smarthealthit.org",
        "value": "999999999"
      } ],
      "name": [ {
        "family": "DENEXFail",
        "given": [ "HospiceCodeFromOtherVS" ]
      } ],
      "gender": "unknown",
      "birthDate": "2006-12-31"
    },
    "request": {
      "method": "PUT",
      "url": "Patient/e93adc7d-9d31-4279-9f76-644668f4d3c9"
    }
  }, {
    "fullUrl": "https://madie.cms.gov/Encounter/ff9e426c-a33c-496b-ac61-27abbc1e3428",
    "resource": {
      "resourceType": "Encounter",
      "id": "ff9e426c-a33c-496b-ac61-27abbc1e3428",
      "meta": {
        "profile": [ "http://hl7.org/fhir/us/qicore/StructureDefinition/qicore-encounter" ]
      },
      "status": "finished",
      "class": {
        "system": "http://terminology.hl7.org/CodeSystem/v3-ActCode",
        "code": "IMP",
        "display": "inpatient encounter",
        "userSelected": true
      },
      "type": [ {
        "coding": [ {
          "system": "http://snomed.info/sct",
          "code": "183452005",
          "display": "Emergency hospital admission (procedure)",
          "userSelected": true
        } ]
      } ],
      "subject": {
        "reference": "Patient/e93adc7d-9d31-4279-9f76-644668f4d3c9"
      },
      "period": {
        "start": "2026-01-01T00:01:00.000+00:00",
        "end": "2026-01-02T08:30:00.000+00:00"
      },
      "hospitalization": {
        "dischargeDisposition": {
          "coding": [ {
            "system": "http://terminology.hl7.org/CodeSystem/discharge-disposition",
            "code": "hosp",
            "display": "Hospice",
            "userSelected": true
          } ]
        }
      }
    },
    "request": {
      "method": "PUT",
      "url": "Encounter/ff9e426c-a33c-496b-ac61-27abbc1e3428"
    }
  }, {
    "fullUrl": "https://madie.cms.gov/MedicationRequest/cf3e7cea-126b-41e8-9156-639b39e1529b",
    "resource": {
      "resourceType": "MedicationRequest",
      "id": "cf3e7cea-126b-41e8-9156-639b39e1529b",
      "meta": {
        "profile": [ "http://hl7.org/fhir/us/qicore/StructureDefinition/qicore-medicationrequest" ]
      },
      "status": "active",
      "intent": "order",
      "category": [ {
        "coding": [ {
          "system": "http://terminology.hl7.org/CodeSystem/medicationrequest-category",
          "code": "discharge",
          "display": "Discharge",
          "userSelected": true
        } ]
      } ],
      "doNotPerform": false,
      "medicationCodeableConcept": {
        "coding": [ {
          "system": "http://www.nlm.nih.gov/research/umls/rxnorm",
          "code": "1014599",
          "display": "acetaminophen 300 MG / oxycodone hydrochloride 10 MG Oral Tablet",
          "userSelected": true
        } ]
      },
      "subject": {
        "reference": "Patient/e93adc7d-9d31-4279-9f76-644668f4d3c9"
      },
      "authoredOn": "2026-01-02T08:30:00.000+00:00",
      "requester": {
        "reference": "Practitioner/85c0ca37-eade-4d92-b74a-686344dc11ce"
      }
    },
    "request": {
      "method": "PUT",
      "url": "MedicationRequest/cf3e7cea-126b-41e8-9156-639b39e1529b"
    }
  }, {
    "fullUrl": "https://madie.cms.gov/Practitioner/85c0ca37-eade-4d92-b74a-686344dc11ce",
    "resource": {
      "resourceType": "Practitioner",
      "id": "85c0ca37-eade-4d92-b74a-686344dc11ce",
      "meta": {
        "profile": [ "http://hl7.org/fhir/us/qicore/StructureDefinition/qicore-practitioner" ]
      },
      "identifier": [ {
        "system": "http://hl7.org/fhir/sid/us-npi",
        "value": "9999999896"
      } ],
      "active": true,
      "name": [ {
        "family": "Ramires",
        "given": [ "Alma" ],
        "prefix": [ "Dr" ]
      } ],
      "address": [ {
        "use": "home",
        "line": [ "534 Erewhon St" ],
        "city": "Netherville",
        "state": "IN",
        "postalCode": "46131"
      } ],
      "qualification": [ {
        "identifier": [ {
          "system": "http://goodhealth.org/prIdentifier",
          "value": "12345"
        } ],
        "code": {
          "coding": [ {
            "system": "http://terminology.hl7.org/CodeSystem/v2-0360|2.7",
            "code": "BS",
            "display": "Bachelor of Science"
          } ],
          "text": "Bachelor of Science"
        },
        "period": {
          "start": "1995"
        },
        "issuer": {
          "display": "Example University"
        }
      } ]
    },
    "request": {
      "method": "PUT",
      "url": "Practitioner/85c0ca37-eade-4d92-b74a-686344dc11ce"
    }
  }, {
    "fullUrl": "https://madie.cms.gov/Coverage/fd751305-4483-49b5-8426-060930b544b9",
    "resource": {
      "resourceType": "Coverage",
      "id": "fd751305-4483-49b5-8426-060930b544b9",
      "meta": {
        "profile": [ "http://hl7.org/fhir/us/qicore/StructureDefinition/qicore-coverage" ]
      },
      "status": "active",
      "subscriberId": "523435",
      "beneficiary": {
        "reference": "Patient/e93adc7d-9d31-4279-9f76-644668f4d3c9"
      },
      "relationship": {
        "coding": [ {
          "system": "http://terminology.hl7.org/CodeSystem/subscriber-relationship",
          "code": "self"
        } ]
      },
      "payor": [ {
        "reference": "Organization/d54b1cb3-be80-4de9-807a-a25635ff60e9"
      } ]
    },
    "request": {
      "method": "PUT",
      "url": "Coverage/fd751305-4483-49b5-8426-060930b544b9"
    }
  }, {
    "fullUrl": "https://madie.cms.gov/Organization/d54b1cb3-be80-4de9-807a-a25635ff60e9",
    "resource": {
      "resourceType": "Organization",
      "id": "d54b1cb3-be80-4de9-807a-a25635ff60e9",
      "meta": {
        "profile": [ "http://hl7.org/fhir/us/qicore/StructureDefinition/qicore-organization" ]
      },
      "identifier": [ {
        "use": "temp",
        "system": "urn:oid:2.16.840.1.113883.4.4",
        "value": "21-3259825"
      } ],
      "active": true,
      "type": [ {
        "coding": [ {
          "system": "http://terminology.hl7.org/CodeSystem/organization-type",
          "code": "pay",
          "display": "Payer"
        } ]
      } ],
      "name": "Blue Cross Blue Shield of Texas",
      "telecom": [ {
        "system": "phone",
        "value": "(+1) 972-766-6900"
      } ],
      "address": [ {
        "use": "billing",
        "type": "postal",
        "line": [ "P.O. Box 660044" ],
        "city": "Dallas",
        "state": "TX",
        "postalCode": "75266-0044",
        "country": "USA"
      } ]
    },
    "request": {
      "method": "PUT",
      "url": "Organization/d54b1cb3-be80-4de9-807a-a25635ff60e9"
    }
  }, {
    "fullUrl": "https://madie.cms.gov/MeasureReport/47aefaa5-2227-4cec-9775-b39dae8498b3",
    "resource": {
      "resourceType": "MeasureReport",
      "id": "47aefaa5-2227-4cec-9775-b39dae8498b3",
      "meta": {
        "profile": [ "http://hl7.org/fhir/us/cqfmeasures/StructureDefinition/test-case-cqfm" ]
      },
      "contained": [ {
        "resourceType": "Parameters",
        "id": "5ff5cdfa-14fe-4104-9bc3-5cdad9dd2ed6-parameters",
        "parameter": [ {
          "name": "subject",
          "valueString": "e93adc7d-9d31-4279-9f76-644668f4d3c9"
        } ]
      } ],
      "extension": [ {
        "url": "http://hl7.org/fhir/StructureDefinition/cqf-inputParameters",
        "valueReference": {
          "reference": "#5ff5cdfa-14fe-4104-9bc3-5cdad9dd2ed6-parameters"
        }
      }, {
        "url": "http://hl7.org/fhir/us/cqfmeasures/StructureDefinition/cqfm-testCaseDescription",
        "valueMarkdown": "Encounter during MP, opioid prescribed at discharge to hospice but terminology (hosp) used hl7, not the \"Hospice Care Referral or Admission\" vs"
      } ],
      "modifierExtension": [ {
        "url": "http://hl7.org/fhir/us/cqfmeasures/StructureDefinition/cqfm-isTestCase",
        "valueBoolean": true
      } ],
      "status": "complete",
      "type": "individual",
      "measure": "https://madie.cms.gov/Measure/CMS506FHIRSafeUseofOpioids",
      "period": {
        "start": "2026-01-01",
        "end": "2026-12-31"
      },
      "group": [ {
        "id": "Group_1",
        "population": [ {
          "id": "InitialPopulation_1",
          "code": {
            "coding": [ {
              "system": "http://terminology.hl7.org/CodeSystem/measure-population",
              "code": "initial-population",
              "display": "Initial Population"
            } ]
          },
          "count": 1
        }, {
          "id": "Denominator_1",
          "code": {
            "coding": [ {
              "system": "http://terminology.hl7.org/CodeSystem/measure-population",
              "code": "denominator",
              "display": "Denominator"
            } ]
          },
          "count": 1
        }, {
          "id": "DenominatorExclusion_1",
          "code": {
            "coding": [ {
              "system": "http://terminology.hl7.org/CodeSystem/measure-population",
              "code": "denominator-exclusion",
              "display": "Denominator Exclusion"
            } ]
          },
          "count": 0
        }, {
          "id": "Numerator_1",
          "code": {
            "coding": [ {
              "system": "http://terminology.hl7.org/CodeSystem/measure-population",
              "code": "numerator",
              "display": "Numerator"
            } ]
          },
          "count": 0
        } ],
        "measureScore": {
          "value": 0.0
        }
      } ],
      "evaluatedResource": [ {
        "reference": "Patient/e93adc7d-9d31-4279-9f76-644668f4d3c9"
      }, {
        "reference": "Encounter/ff9e426c-a33c-496b-ac61-27abbc1e3428"
      }, {
        "reference": "MedicationRequest/cf3e7cea-126b-41e8-9156-639b39e1529b"
      }, {
        "reference": "Practitioner/85c0ca37-eade-4d92-b74a-686344dc11ce"
      }, {
        "reference": "Coverage/fd751305-4483-49b5-8426-060930b544b9"
      }, {
        "reference": "Organization/d54b1cb3-be80-4de9-807a-a25635ff60e9"
      } ]
    },
    "request": {
      "method": "PUT",
      "url": "MeasureReport/47aefaa5-2227-4cec-9775-b39dae8498b3"
    }
  } ]
}