{
  "resourceType": "Bundle",
  "id": "63487c2f0968f801225401a7",
  "type": "transaction",
  "entry": [ {
    "fullUrl": "https://madie.cms.gov/Patient/b1a36941-f012-41fa-af10-6ceaa24d22c0",
    "resource": {
      "resourceType": "Patient",
      "id": "b1a36941-f012-41fa-af10-6ceaa24d22c0",
      "meta": {
        "profile": [ "http://hl7.org/fhir/us/qicore/StructureDefinition/qicore-patient" ]
      },
      "text": {
        "status": "generated",
        "div": "<div xmlns=\"http://www.w3.org/1999/xhtml\"><div class=\"hapiHeaderText\">CalcEGABothNull<b>DENOMFail</b></div><table class=\"hapiPropertyTable\"><tbody><tr><td>Identifier</td><td>b00b06f67015bda652373741cca10f65466d828e3a674df9528f73ec417ce0bb</td></tr><tr><td>Date of birth</td><td><span>14 February 1985</span></td></tr></tbody></table></div>"
      },
      "extension": [ {
        "url": "http://hl7.org/fhir/us/core/StructureDefinition/us-core-race",
        "extension": [ {
          "url": "ombCategory",
          "valueCoding": {
            "system": "urn:oid:2.16.840.1.113883.6.238",
            "code": "1002-5",
            "display": "American Indian or Alaska Native",
            "userSelected": true
          }
        }, {
          "url": "text",
          "valueString": "American Indian or Alaska Native"
        } ]
      }, {
        "url": "http://hl7.org/fhir/us/core/StructureDefinition/us-core-ethnicity",
        "extension": [ {
          "url": "ombCategory",
          "valueCoding": {
            "system": "urn:oid:2.16.840.1.113883.6.238",
            "code": "2135-2",
            "display": "Hispanic or Latino",
            "userSelected": true
          }
        }, {
          "url": "text",
          "valueString": "Hispanic or Latino"
        } ]
      } ],
      "identifier": [ {
        "type": {
          "coding": [ {
            "system": "http://terminology.hl7.org/CodeSystem/v2-0203",
            "code": "MR"
          } ]
        },
        "system": "https://bonnie-fhir.healthit.gov/",
        "value": "63487c2f0968f801225401a7"
      } ],
      "active": true,
      "name": [ {
        "use": "usual",
        "family": "DENOMFail",
        "given": [ "CalcEGABothNull" ]
      } ],
      "gender": "female",
      "birthDate": "1998-02-14"
    },
    "request": {
      "method": "PUT",
      "url": "Patient/b1a36941-f012-41fa-af10-6ceaa24d22c0"
    }
  }, {
    "fullUrl": "https://madie.cms.gov/Observation/fcf5313c-8114-48c6-bae9-3f7b987119a6",
    "resource": {
      "resourceType": "Observation",
      "id": "fcf5313c-8114-48c6-bae9-3f7b987119a6",
      "meta": {
        "profile": [ "http://hl7.org/fhir/us/qicore/StructureDefinition/qicore-simple-observation" ]
      },
      "status": "final",
      "category": [ {
        "coding": [ {
          "system": "http://terminology.hl7.org/CodeSystem/observation-category",
          "code": "exam",
          "display": "exam",
          "userSelected": true
        } ]
      } ],
      "code": {
        "coding": [ {
          "system": "http://loinc.org",
          "code": "93857-1"
        } ]
      },
      "subject": {
        "reference": "Patient/b1a36941-f012-41fa-af10-6ceaa24d22c0"
      },
      "effectiveDateTime": "2026-01-15T08:00:00.000+00:00",
      "performer": [ {
        "reference": "Organization/example1",
        "display": "Hendricks Country Hospital"
      } ]
    },
    "request": {
      "method": "PUT",
      "url": "Observation/fcf5313c-8114-48c6-bae9-3f7b987119a6"
    }
  }, {
    "fullUrl": "https://madie.cms.gov/Observation/a54bc8d2-d741-4f33-9038-370fa5eccd83",
    "resource": {
      "resourceType": "Observation",
      "id": "a54bc8d2-d741-4f33-9038-370fa5eccd83",
      "meta": {
        "profile": [ "http://hl7.org/fhir/us/qicore/StructureDefinition/qicore-simple-observation" ]
      },
      "status": "final",
      "category": [ {
        "coding": [ {
          "system": "http://terminology.hl7.org/CodeSystem/observation-category",
          "code": "exam",
          "display": "exam",
          "userSelected": true
        } ]
      } ],
      "code": {
        "coding": [ {
          "system": "http://loinc.org",
          "code": "11778-8"
        } ]
      },
      "subject": {
        "reference": "Patient/b1a36941-f012-41fa-af10-6ceaa24d22c0"
      },
      "effectiveDateTime": "2026-01-15T08:00:00.000+00:00",
      "performer": [ {
        "reference": "Organization/example1",
        "display": "Hendricks Country Hospital"
      } ]
    },
    "request": {
      "method": "PUT",
      "url": "Observation/a54bc8d2-d741-4f33-9038-370fa5eccd83"
    }
  }, {
    "fullUrl": "https://madie.cms.gov/Observation/a45c2d13-f919-4b66-addb-21fedcd0db37",
    "resource": {
      "resourceType": "Observation",
      "id": "a45c2d13-f919-4b66-addb-21fedcd0db37",
      "meta": {
        "profile": [ "http://hl7.org/fhir/us/qicore/StructureDefinition/qicore-simple-observation" ]
      },
      "status": "final",
      "category": [ {
        "coding": [ {
          "system": "http://terminology.hl7.org/CodeSystem/observation-category",
          "code": "exam",
          "display": "exam",
          "userSelected": true
        } ]
      } ],
      "code": {
        "coding": [ {
          "system": "http://loinc.org",
          "code": "11996-6"
        } ]
      },
      "subject": {
        "reference": "Patient/b1a36941-f012-41fa-af10-6ceaa24d22c0"
      },
      "effectiveDateTime": "2026-01-15T07:59:00.000+00:00",
      "performer": [ {
        "reference": "Organization/example1",
        "display": "Hendricks Country Hospital"
      } ],
      "valueInteger": 1
    },
    "request": {
      "method": "PUT",
      "url": "Observation/a45c2d13-f919-4b66-addb-21fedcd0db37"
    }
  }, {
    "fullUrl": "https://madie.cms.gov/Encounter/5792db41-2fdc-40a9-8a0f-3a114d5dd3e1",
    "resource": {
      "resourceType": "Encounter",
      "id": "5792db41-2fdc-40a9-8a0f-3a114d5dd3e1",
      "meta": {
        "profile": [ "http://hl7.org/fhir/us/qicore/StructureDefinition/qicore-encounter" ]
      },
      "status": "finished",
      "class": {
        "system": "http://terminology.hl7.org/CodeSystem/v3-ActCode",
        "code": "IMP",
        "display": "inpatient encounter"
      },
      "type": [ {
        "coding": [ {
          "system": "http://snomed.info/sct",
          "code": "183452005"
        } ]
      } ],
      "subject": {
        "reference": "Patient/b1a36941-f012-41fa-af10-6ceaa24d22c0"
      },
      "period": {
        "start": "2026-01-15T08:00:00.000+00:00",
        "end": "2026-01-20T08:15:00.000+00:00"
      },
      "reasonCode": [ {
        "coding": [ {
          "system": "http://snomed.info/sct",
          "code": "169826009",
          "display": "Single live birth from singleton pregnancy (finding)"
        } ]
      } ]
    },
    "request": {
      "method": "PUT",
      "url": "Encounter/5792db41-2fdc-40a9-8a0f-3a114d5dd3e1"
    }
  }, {
    "fullUrl": "https://madie.cms.gov/Procedure/ffd10672-8031-4c16-b767-31e7ea3b200b",
    "resource": {
      "resourceType": "Procedure",
      "id": "ffd10672-8031-4c16-b767-31e7ea3b200b",
      "meta": {
        "profile": [ "http://hl7.org/fhir/us/qicore/StructureDefinition/qicore-procedure" ]
      },
      "extension": [ {
        "url": "http://hl7.org/fhir/us/qicore/StructureDefinition/qicore-recorded",
        "valueDateTime": "2014-04-05T13:35:00.000+00:00"
      } ],
      "status": "completed",
      "code": {
        "coding": [ {
          "system": "http://www.cms.gov/Medicare/Coding/ICD10",
          "code": "10D07Z3"
        }, {
          "system": "http://www.icd10data.com/icd10pcs",
          "code": "10D07Z3",
          "userSelected": true
        } ]
      },
      "subject": {
        "reference": "Patient/b1a36941-f012-41fa-af10-6ceaa24d22c0"
      },
      "performedPeriod": {
        "start": "2026-01-15T08:10:00.000+00:00",
        "end": "2026-01-15T09:14:00.000+00:00"
      }
    },
    "request": {
      "method": "PUT",
      "url": "Procedure/ffd10672-8031-4c16-b767-31e7ea3b200b"
    }
  }, {
    "fullUrl": "https://madie.cms.gov/Condition/d0278ff8-0fa8-40c3-8e9b-b9d940fe2b21",
    "resource": {
      "resourceType": "Condition",
      "id": "d0278ff8-0fa8-40c3-8e9b-b9d940fe2b21",
      "meta": {
        "profile": [ "http://hl7.org/fhir/us/qicore/StructureDefinition/qicore-condition" ]
      },
      "category": [ {
        "coding": [ {
          "system": "http://terminology.hl7.org/CodeSystem/condition-category",
          "code": "encounter-diagnosis",
          "display": "Encounter Diagnosis"
        } ]
      } ],
      "code": {
        "coding": [ {
          "system": "http://snomed.info/sct",
          "version": "2022-09",
          "code": "169826009",
          "display": "Single live birth (finding)",
          "userSelected": true
        } ]
      },
      "subject": {
        "reference": "Patient/b1a36941-f012-41fa-af10-6ceaa24d22c0"
      },
      "recordedDate": "2026-10-21T08:00:00.000+00:00"
    },
    "request": {
      "method": "PUT",
      "url": "Condition/d0278ff8-0fa8-40c3-8e9b-b9d940fe2b21"
    }
  }, {
    "fullUrl": "https://madie.cms.gov/Coverage/74a2489d-9d39-4cfd-b3ae-fdf44fe50e3c",
    "resource": {
      "resourceType": "Coverage",
      "id": "74a2489d-9d39-4cfd-b3ae-fdf44fe50e3c",
      "meta": {
        "profile": [ "http://hl7.org/fhir/us/qicore/StructureDefinition/qicore-coverage" ]
      },
      "status": "active",
      "subscriberId": "523435",
      "beneficiary": {
        "reference": "Patient/b1a36941-f012-41fa-af10-6ceaa24d22c0"
      },
      "relationship": {
        "coding": [ {
          "system": "http://terminology.hl7.org/CodeSystem/subscriber-relationship",
          "code": "self"
        } ]
      },
      "payor": [ {
        "reference": "Organization/65bb65bb-d6c5-40ba-934f-d574b23ce265"
      } ]
    },
    "request": {
      "method": "PUT",
      "url": "Coverage/74a2489d-9d39-4cfd-b3ae-fdf44fe50e3c"
    }
  }, {
    "fullUrl": "https://madie.cms.gov/Organization/65bb65bb-d6c5-40ba-934f-d574b23ce265",
    "resource": {
      "resourceType": "Organization",
      "id": "65bb65bb-d6c5-40ba-934f-d574b23ce265",
      "meta": {
        "profile": [ "http://hl7.org/fhir/us/qicore/StructureDefinition/qicore-organization" ]
      },
      "identifier": [ {
        "use": "temp",
        "system": "urn:oid:2.16.840.1.113883.4.4",
        "value": "21-3259825"
      } ],
      "active": true,
      "type": [ {
        "coding": [ {
          "system": "http://terminology.hl7.org/CodeSystem/organization-type",
          "code": "pay",
          "display": "Payer"
        } ]
      } ],
      "name": "Blue Cross Blue Shield of Texas",
      "telecom": [ {
        "system": "phone",
        "value": "(+1) 972-766-6900"
      } ],
      "address": [ {
        "use": "billing",
        "type": "postal",
        "line": [ "P.O. Box 660044" ],
        "city": "Dallas",
        "state": "TX",
        "postalCode": "75266-0044",
        "country": "USA"
      } ]
    },
    "request": {
      "method": "PUT",
      "url": "Organization/65bb65bb-d6c5-40ba-934f-d574b23ce265"
    }
  }, {
    "fullUrl": "https://madie.cms.gov/Practitioner/6d735f1c-e958-4523-b046-6915e34ee901",
    "resource": {
      "resourceType": "Practitioner",
      "id": "6d735f1c-e958-4523-b046-6915e34ee901",
      "meta": {
        "profile": [ "http://hl7.org/fhir/us/qicore/StructureDefinition/qicore-practitioner" ]
      },
      "identifier": [ {
        "system": "http://hl7.org/fhir/sid/us-npi",
        "value": "1234567890"
      } ],
      "name": [ {
        "family": "Evil",
        "prefix": [ "Dr" ]
      } ]
    },
    "request": {
      "method": "PUT",
      "url": "Practitioner/6d735f1c-e958-4523-b046-6915e34ee901"
    }
  }, {
    "fullUrl": "https://madie.cms.gov/MeasureReport/e418cc6d-0fb5-465d-9a97-a6f094793d66",
    "resource": {
      "resourceType": "MeasureReport",
      "id": "e418cc6d-0fb5-465d-9a97-a6f094793d66",
      "meta": {
        "profile": [ "http://hl7.org/fhir/us/cqfmeasures/StructureDefinition/test-case-cqfm" ]
      },
      "contained": [ {
        "resourceType": "Parameters",
        "id": "693df447-7ec2-4a3e-9e23-a34f73d0bd25-parameters",
        "parameter": [ {
          "name": "subject",
          "valueString": "b1a36941-f012-41fa-af10-6ceaa24d22c0"
        } ]
      } ],
      "extension": [ {
        "url": "http://hl7.org/fhir/StructureDefinition/cqf-inputParameters",
        "valueReference": {
          "reference": "#693df447-7ec2-4a3e-9e23-a34f73d0bd25-parameters"
        }
      }, {
        "url": "http://hl7.org/fhir/us/cqfmeasures/StructureDefinition/cqfm-testCaseDescription",
        "valueMarkdown": "Passes: IP, Fails: DENOM Pt is 27 years of age,  encounter dx delivery of singleton, gravida=1 eff   less than 42 weeks prior to delivery, calculated EGA is Null because both the IsTimeOfDelivery and LastEstimatedDeliveryDate return NULL\n"
      } ],
      "modifierExtension": [ {
        "url": "http://hl7.org/fhir/us/cqfmeasures/StructureDefinition/cqfm-isTestCase",
        "valueBoolean": true
      } ],
      "status": "complete",
      "type": "individual",
      "measure": "https://madie.cms.gov/Measure/CMS0334FHIRPCCesareanBirth",
      "period": {
        "start": "2026-01-01",
        "end": "2026-12-31"
      },
      "group": [ {
        "id": "Group_1",
        "population": [ {
          "id": "InitialPopulation_1",
          "code": {
            "coding": [ {
              "system": "http://terminology.hl7.org/CodeSystem/measure-population",
              "code": "initial-population",
              "display": "Initial Population"
            } ]
          },
          "count": 1
        }, {
          "id": "Denominator_1",
          "code": {
            "coding": [ {
              "system": "http://terminology.hl7.org/CodeSystem/measure-population",
              "code": "denominator",
              "display": "Denominator"
            } ]
          },
          "count": 0
        }, {
          "id": "DenominatorExclusion_1",
          "code": {
            "coding": [ {
              "system": "http://terminology.hl7.org/CodeSystem/measure-population",
              "code": "denominator-exclusion",
              "display": "Denominator Exclusion"
            } ]
          },
          "count": 0
        }, {
          "id": "Numerator_1",
          "code": {
            "coding": [ {
              "system": "http://terminology.hl7.org/CodeSystem/measure-population",
              "code": "numerator",
              "display": "Numerator"
            } ]
          },
          "count": 0
        } ],
        "measureScore": {
          "value": 0.0
        }
      } ],
      "evaluatedResource": [ {
        "reference": "Patient/b1a36941-f012-41fa-af10-6ceaa24d22c0"
      }, {
        "reference": "Observation/fcf5313c-8114-48c6-bae9-3f7b987119a6"
      }, {
        "reference": "Observation/a54bc8d2-d741-4f33-9038-370fa5eccd83"
      }, {
        "reference": "Observation/a45c2d13-f919-4b66-addb-21fedcd0db37"
      }, {
        "reference": "Encounter/5792db41-2fdc-40a9-8a0f-3a114d5dd3e1"
      }, {
        "reference": "Procedure/ffd10672-8031-4c16-b767-31e7ea3b200b"
      }, {
        "reference": "Condition/d0278ff8-0fa8-40c3-8e9b-b9d940fe2b21"
      }, {
        "reference": "Coverage/74a2489d-9d39-4cfd-b3ae-fdf44fe50e3c"
      }, {
        "reference": "Organization/65bb65bb-d6c5-40ba-934f-d574b23ce265"
      }, {
        "reference": "Practitioner/6d735f1c-e958-4523-b046-6915e34ee901"
      } ]
    },
    "request": {
      "method": "PUT",
      "url": "MeasureReport/e418cc6d-0fb5-465d-9a97-a6f094793d66"
    }
  } ]
}