{
  "resourceType": "Bundle",
  "id": "612e6b1002c62a011f2ec46d",
  "type": "transaction",
  "entry": [ {
    "fullUrl": "https://madie.cms.gov/Patient/3d6571e7-25b8-4ec7-a4a7-0e41fafeadb5",
    "resource": {
      "resourceType": "Patient",
      "id": "3d6571e7-25b8-4ec7-a4a7-0e41fafeadb5",
      "meta": {
        "profile": [ "http://hl7.org/fhir/us/qicore/StructureDefinition/qicore-patient" ]
      },
      "text": {
        "status": "generated",
        "div": "<div xmlns=\"http://www.w3.org/1999/xhtml\"><div class=\"hapiHeaderText\">MARixDrgOBSEDEQ1hr <b>NUMERPASS </b></div><table class=\"hapiPropertyTable\"><tbody><tr><td>Identifier</td><td>9ac41bff10ef3353d0742df1f73dc984</td></tr><tr><td>Date of birth</td><td><span>02 January 1974</span></td></tr></tbody></table></div>"
      },
      "extension": [ {
        "url": "http://hl7.org/fhir/us/core/StructureDefinition/us-core-race",
        "extension": [ {
          "url": "ombCategory",
          "valueCoding": {
            "system": "urn:oid:2.16.840.1.113883.6.238",
            "code": "1002-5",
            "display": "American Indian or Alaska Native",
            "userSelected": true
          }
        }, {
          "url": "text",
          "valueString": "American Indian or Alaska Native"
        } ]
      }, {
        "url": "http://hl7.org/fhir/us/core/StructureDefinition/us-core-ethnicity",
        "extension": [ {
          "url": "ombCategory",
          "valueCoding": {
            "system": "urn:oid:2.16.840.1.113883.6.238",
            "code": "2135-2",
            "display": "Hispanic or Latino",
            "userSelected": true
          }
        }, {
          "url": "text",
          "valueString": "Hispanic or Latino"
        } ]
      } ],
      "identifier": [ {
        "type": {
          "coding": [ {
            "system": "http://terminology.hl7.org/CodeSystem/v2-0203",
            "code": "MR"
          } ]
        },
        "system": "https://bonnie-fhir.healthit.gov/",
        "value": "612e6b1002c62a011f2ec46d"
      } ],
      "active": true,
      "name": [ {
        "use": "usual",
        "family": "NUMERPass",
        "given": [ "MARixDrgOBSEDEQ1hr" ]
      } ],
      "gender": "male",
      "birthDate": "1975-01-02"
    },
    "request": {
      "method": "PUT",
      "url": "Patient/3d6571e7-25b8-4ec7-a4a7-0e41fafeadb5"
    }
  }, {
    "fullUrl": "https://madie.cms.gov/Encounter/3c703b71-5f3a-4cc0-a21f-563b6633bc8d",
    "resource": {
      "resourceType": "Encounter",
      "id": "3c703b71-5f3a-4cc0-a21f-563b6633bc8d",
      "meta": {
        "profile": [ "http://hl7.org/fhir/us/qicore/StructureDefinition/qicore-encounter" ]
      },
      "status": "finished",
      "class": {
        "system": "http://terminology.hl7.org/CodeSystem/v3-ActCode",
        "code": "IMP",
        "display": "inpatient encounter"
      },
      "type": [ {
        "coding": [ {
          "system": "http://snomed.info/sct",
          "code": "8715000"
        } ]
      } ],
      "subject": {
        "reference": "Patient/3d6571e7-25b8-4ec7-a4a7-0e41fafeadb5"
      },
      "period": {
        "start": "2026-11-01T08:00:00Z",
        "end": "2026-11-26T08:15:00Z"
      },
      "length": {
        "value": 25,
        "unit": "days"
      }
    },
    "request": {
      "method": "PUT",
      "url": "Encounter/3c703b71-5f3a-4cc0-a21f-563b6633bc8d"
    }
  }, {
    "fullUrl": "https://madie.cms.gov/Encounter/c66ea132-c9da-42a3-aab5-52affa77605d",
    "resource": {
      "resourceType": "Encounter",
      "id": "c66ea132-c9da-42a3-aab5-52affa77605d",
      "meta": {
        "profile": [ "http://hl7.org/fhir/us/qicore/StructureDefinition/qicore-encounter" ]
      },
      "status": "finished",
      "class": {
        "system": "http://terminology.hl7.org/CodeSystem/v3-ActCode",
        "code": "EMER",
        "display": "emergency"
      },
      "type": [ {
        "coding": [ {
          "system": "http://snomed.info/sct",
          "code": "4525004"
        } ]
      } ],
      "subject": {
        "reference": "Patient/3d6571e7-25b8-4ec7-a4a7-0e41fafeadb5"
      },
      "period": {
        "start": "2026-10-31T10:00:00Z",
        "end": "2026-10-31T19:00:00Z"
      }
    },
    "request": {
      "method": "PUT",
      "url": "Encounter/c66ea132-c9da-42a3-aab5-52affa77605d"
    }
  }, {
    "fullUrl": "https://madie.cms.gov/Encounter/727925d4-6e35-4b23-a910-a8dd5ef1fa57",
    "resource": {
      "resourceType": "Encounter",
      "id": "727925d4-6e35-4b23-a910-a8dd5ef1fa57",
      "meta": {
        "profile": [ "http://hl7.org/fhir/us/qicore/StructureDefinition/qicore-encounter" ]
      },
      "status": "finished",
      "class": {
        "system": "http://terminology.hl7.org/CodeSystem/v3-ActCode",
        "code": "OBSENC",
        "display": "observation encounter"
      },
      "type": [ {
        "coding": [ {
          "system": "http://snomed.info/sct",
          "code": "448951000124107"
        } ]
      } ],
      "subject": {
        "reference": "Patient/3d6571e7-25b8-4ec7-a4a7-0e41fafeadb5"
      },
      "period": {
        "start": "2026-10-31T20:00:00Z",
        "end": "2026-11-01T07:00:00Z"
      }
    },
    "request": {
      "method": "PUT",
      "url": "Encounter/727925d4-6e35-4b23-a910-a8dd5ef1fa57"
    }
  }, {
    "fullUrl": "https://madie.cms.gov/Coverage/3228cbdc-45fc-4497-91f4-090f6a0df6ab",
    "resource": {
      "resourceType": "Coverage",
      "id": "3228cbdc-45fc-4497-91f4-090f6a0df6ab",
      "status": "active",
      "beneficiary": {
        "reference": "Patient/3d6571e7-25b8-4ec7-a4a7-0e41fafeadb5"
      },
      "period": {
        "start": "1975-01-02T08:00:00Z"
      },
      "payor": [ {
        "reference": "Organization/9e37386d-75d3-49d2-9ea8-97dbad2bb073"
      } ]
    },
    "request": {
      "method": "PUT",
      "url": "Coverage/3228cbdc-45fc-4497-91f4-090f6a0df6ab"
    }
  }, {
    "fullUrl": "https://madie.cms.gov/MedicationAdministration/0bf14a94-5962-4efc-8bb5-42c20207eb76",
    "resource": {
      "resourceType": "MedicationAdministration",
      "id": "0bf14a94-5962-4efc-8bb5-42c20207eb76",
      "meta": {
        "profile": [ "http://hl7.org/fhir/us/qicore/StructureDefinition/qicore-medicationadministration" ]
      },
      "status": "completed",
      "medicationCodeableConcept": {
        "coding": [ {
          "system": "http://www.nlm.nih.gov/research/umls/rxnorm",
          "code": "1114198"
        } ]
      },
      "subject": {
        "reference": "Patient/3d6571e7-25b8-4ec7-a4a7-0e41fafeadb5"
      },
      "effectivePeriod": {
        "start": "2026-10-31T20:10:00Z",
        "end": "2026-10-31T20:15:00Z"
      }
    },
    "request": {
      "method": "PUT",
      "url": "MedicationAdministration/0bf14a94-5962-4efc-8bb5-42c20207eb76"
    }
  }, {
    "fullUrl": "https://madie.cms.gov/Organization/9e37386d-75d3-49d2-9ea8-97dbad2bb073",
    "resource": {
      "resourceType": "Organization",
      "id": "9e37386d-75d3-49d2-9ea8-97dbad2bb073",
      "meta": {
        "profile": [ "http://hl7.org/fhir/us/qicore/StructureDefinition/qicore-organization" ]
      },
      "identifier": [ {
        "use": "temp",
        "system": "urn:oid:2.16.840.1.113883.4.4",
        "value": "21-3259825"
      } ],
      "active": true,
      "type": [ {
        "coding": [ {
          "system": "http://terminology.hl7.org/CodeSystem/organization-type",
          "code": "pay",
          "display": "Payer"
        } ]
      } ],
      "name": "Blue Cross Blue Shield of Texas",
      "telecom": [ {
        "system": "phone",
        "value": "(+1) 972-766-6900"
      } ],
      "address": [ {
        "use": "billing",
        "type": "postal",
        "line": [ "P.O. Box 660044" ],
        "city": "Dallas",
        "state": "TX",
        "postalCode": "75266-0044",
        "country": "USA"
      } ]
    },
    "request": {
      "method": "PUT",
      "url": "Organization/9e37386d-75d3-49d2-9ea8-97dbad2bb073"
    }
  }, {
    "fullUrl": "https://madie.cms.gov/Practitioner/5baffd98-0a12-4795-becb-397e238e2675",
    "resource": {
      "resourceType": "Practitioner",
      "id": "5baffd98-0a12-4795-becb-397e238e2675",
      "identifier": [ {
        "system": "http://hl7.org/fhir/sid/us-npi",
        "value": "123456"
      } ],
      "name": [ {
        "family": "Evil",
        "prefix": [ "Dr" ]
      } ]
    },
    "request": {
      "method": "PUT",
      "url": "Practitioner/5baffd98-0a12-4795-becb-397e238e2675"
    }
  }, {
    "fullUrl": "https://madie.cms.gov/MeasureReport/73389faa-6ec8-44a8-9285-b6d4432836e2",
    "resource": {
      "resourceType": "MeasureReport",
      "id": "73389faa-6ec8-44a8-9285-b6d4432836e2",
      "meta": {
        "profile": [ "http://hl7.org/fhir/us/cqfmeasures/StructureDefinition/test-case-cqfm" ]
      },
      "contained": [ {
        "resourceType": "Parameters",
        "id": "f8f4e54d-d53f-46f8-9d53-71dbddedb05c-parameters",
        "parameter": [ {
          "name": "subject",
          "valueString": "3d6571e7-25b8-4ec7-a4a7-0e41fafeadb5"
        } ]
      } ],
      "extension": [ {
        "url": "http://hl7.org/fhir/StructureDefinition/cqf-inputParameters",
        "valueReference": {
          "reference": "#f8f4e54d-d53f-46f8-9d53-71dbddedb05c-parameters"
        }
      }, {
        "url": "http://hl7.org/fhir/us/cqfmeasures/StructureDefinition/cqfm-testCaseDescription",
        "valueMarkdown": "Rivaroxaban  for VTE Prophylaxis Med Administered during OBS which ends 1 hr before adm and ED = 1 hr ends OBS\n"
      } ],
      "modifierExtension": [ {
        "url": "http://hl7.org/fhir/us/cqfmeasures/StructureDefinition/cqfm-isTestCase",
        "valueBoolean": true
      } ],
      "status": "complete",
      "type": "individual",
      "measure": "https://madie.cms.gov/Measure/CMS108FHIRVTEProphylaxis",
      "period": {
        "start": "2026-01-01",
        "end": "2026-12-31"
      },
      "group": [ {
        "id": "Group_1",
        "population": [ {
          "id": "InitialPopulation_1",
          "code": {
            "coding": [ {
              "system": "http://terminology.hl7.org/CodeSystem/measure-population",
              "code": "initial-population",
              "display": "Initial Population"
            } ]
          },
          "count": 1
        }, {
          "id": "Denominator_1",
          "code": {
            "coding": [ {
              "system": "http://terminology.hl7.org/CodeSystem/measure-population",
              "code": "denominator",
              "display": "Denominator"
            } ]
          },
          "count": 1
        }, {
          "id": "DenominatorExclusion_1",
          "code": {
            "coding": [ {
              "system": "http://terminology.hl7.org/CodeSystem/measure-population",
              "code": "denominator-exclusion",
              "display": "Denominator Exclusion"
            } ]
          },
          "count": 0
        }, {
          "id": "Numerator_1",
          "code": {
            "coding": [ {
              "system": "http://terminology.hl7.org/CodeSystem/measure-population",
              "code": "numerator",
              "display": "Numerator"
            } ]
          },
          "count": 1
        } ],
        "measureScore": {
          "value": 0.0
        }
      } ],
      "evaluatedResource": [ {
        "reference": "Patient/3d6571e7-25b8-4ec7-a4a7-0e41fafeadb5"
      }, {
        "reference": "Encounter/3c703b71-5f3a-4cc0-a21f-563b6633bc8d"
      }, {
        "reference": "Encounter/c66ea132-c9da-42a3-aab5-52affa77605d"
      }, {
        "reference": "Encounter/727925d4-6e35-4b23-a910-a8dd5ef1fa57"
      }, {
        "reference": "Coverage/3228cbdc-45fc-4497-91f4-090f6a0df6ab"
      }, {
        "reference": "MedicationAdministration/0bf14a94-5962-4efc-8bb5-42c20207eb76"
      }, {
        "reference": "Organization/9e37386d-75d3-49d2-9ea8-97dbad2bb073"
      }, {
        "reference": "Practitioner/5baffd98-0a12-4795-becb-397e238e2675"
      } ]
    },
    "request": {
      "method": "PUT",
      "url": "MeasureReport/73389faa-6ec8-44a8-9285-b6d4432836e2"
    }
  } ]
}