{
  "resourceType": "Bundle",
  "id": "tests-03fae2d5-3bb7-4730-98fc-98a419a5e555-bundle",
  "type": "transaction",
  "entry": [ {
    "fullUrl": "https://madie.cms.gov/Encounter/574c9eff-0605-47d3-86a4-4612f5042de5",
    "resource": {
      "resourceType": "Encounter",
      "id": "574c9eff-0605-47d3-86a4-4612f5042de5",
      "meta": {
        "profile": [ "http://hl7.org/fhir/us/qicore/StructureDefinition/qicore-encounter" ]
      },
      "status": "finished",
      "class": {
        "system": "http://terminology.hl7.org/CodeSystem/v3-ActCode",
        "code": "IMP",
        "display": "inpatient encounter"
      },
      "type": [ {
        "coding": [ {
          "system": "http://snomed.info/sct",
          "code": "112689000",
          "display": "Hospital admission, elective, with complete pre-admission work-up"
        } ],
        "text": "Hospital admission, elective, with complete pre-admission work-up"
      } ],
      "priority": {
        "coding": [ {
          "system": "http://snomed.info/sct",
          "code": "103390000"
        } ]
      },
      "subject": {
        "reference": "Patient/03fae2d5-3bb7-4730-98fc-98a419a5e555"
      },
      "period": {
        "start": "2026-04-18T08:00:00.000+00:00",
        "end": "2026-04-22T08:15:00.000+00:00"
      }
    },
    "request": {
      "method": "PUT",
      "url": "Encounter/574c9eff-0605-47d3-86a4-4612f5042de5"
    }
  }, {
    "fullUrl": "https://madie.cms.gov/Procedure/4c7ff13d-4d6f-4f5b-8d83-5d50b81d3b58",
    "resource": {
      "resourceType": "Procedure",
      "id": "4c7ff13d-4d6f-4f5b-8d83-5d50b81d3b58",
      "meta": {
        "profile": [ "http://hl7.org/fhir/us/qicore/StructureDefinition/qicore-procedure" ]
      },
      "extension": [ {
        "url": "http://hl7.org/fhir/us/qicore/StructureDefinition/qicore-recorded",
        "valueDateTime": "2026-04-19T11:30:00.000+00:00"
      } ],
      "status": "completed",
      "category": {
        "coding": [ {
          "system": "http://snomed.info/sct",
          "code": "18286008",
          "display": "General or neuraxial anesthesia"
        } ]
      },
      "code": {
        "coding": [ {
          "system": "http://snomed.info/sct",
          "code": "112943005",
          "display": "Epidural injection of anesthetic substance, diagnostic, caudal, continuous"
        } ]
      },
      "subject": {
        "reference": "Patient/03fae2d5-3bb7-4730-98fc-98a419a5e555"
      },
      "performedPeriod": {
        "start": "2026-04-19T08:00:00.000+00:00",
        "end": "2026-04-19T11:15:00.000+00:00"
      }
    },
    "request": {
      "method": "PUT",
      "url": "Procedure/4c7ff13d-4d6f-4f5b-8d83-5d50b81d3b58"
    }
  }, {
    "fullUrl": "https://madie.cms.gov/Procedure/f8d2ceb7-9c96-402c-b7e5-f29182332c54",
    "resource": {
      "resourceType": "Procedure",
      "id": "f8d2ceb7-9c96-402c-b7e5-f29182332c54",
      "meta": {
        "profile": [ "http://hl7.org/fhir/us/qicore/StructureDefinition/qicore-procedure" ]
      },
      "extension": [ {
        "url": "http://hl7.org/fhir/us/qicore/StructureDefinition/qicore-recorded",
        "valueDateTime": "2026-04-11T10:10:00.000+00:00"
      } ],
      "status": "completed",
      "code": {
        "coding": [ {
          "system": "http://www.cms.gov/Medicare/Coding/ICD10",
          "code": "008P0ZZ",
          "display": "Head and Neck Surgeries with High Risk Airway Compromise"
        } ],
        "text": "Head and Neck Surgeries with High Risk Airway Compromise"
      },
      "subject": {
        "reference": "Patient/03fae2d5-3bb7-4730-98fc-98a419a5e555"
      },
      "performedDateTime": "2026-04-12T08:00:00.000+00:00"
    },
    "request": {
      "method": "PUT",
      "url": "Procedure/f8d2ceb7-9c96-402c-b7e5-f29182332c54"
    }
  }, {
    "fullUrl": "https://madie.cms.gov/Procedure/21b5540a-fc1f-45ff-adf6-5f34aabe9d2b",
    "resource": {
      "resourceType": "Procedure",
      "id": "21b5540a-fc1f-45ff-adf6-5f34aabe9d2b",
      "meta": {
        "profile": [ "http://hl7.org/fhir/us/qicore/StructureDefinition/qicore-procedure" ]
      },
      "extension": [ {
        "url": "http://hl7.org/fhir/us/qicore/StructureDefinition/qicore-recorded",
        "valueDateTime": "2026-04-20T08:10:00.000+00:00"
      } ],
      "status": "completed",
      "code": {
        "coding": [ {
          "system": "http://www.cms.gov/Medicare/Coding/ICD10",
          "code": "0BH13EZ",
          "display": "Insertion of Endotracheal Airway into Trachea, Percutaneous Approach"
        } ],
        "text": "Insertion of Endotracheal Airway into Trachea, Percutaneous Approach"
      },
      "subject": {
        "reference": "Patient/03fae2d5-3bb7-4730-98fc-98a419a5e555"
      },
      "performedDateTime": "2026-04-20T08:00:00.000+00:00"
    },
    "request": {
      "method": "PUT",
      "url": "Procedure/21b5540a-fc1f-45ff-adf6-5f34aabe9d2b"
    }
  }, {
    "fullUrl": "https://madie.cms.gov/Patient/03fae2d5-3bb7-4730-98fc-98a419a5e555",
    "resource": {
      "resourceType": "Patient",
      "id": "03fae2d5-3bb7-4730-98fc-98a419a5e555",
      "meta": {
        "profile": [ "http://hl7.org/fhir/us/qicore/StructureDefinition/qicore-patient" ]
      },
      "extension": [ {
        "url": "http://hl7.org/fhir/us/core/StructureDefinition/us-core-race",
        "extension": [ {
          "url": "ombCategory",
          "valueCoding": {
            "system": "urn:oid:2.16.840.1.113883.6.238",
            "code": "1002-5",
            "display": "American Indian or Alaska Native",
            "userSelected": true
          }
        }, {
          "url": "text",
          "valueString": "American Indian or Alaska Native"
        } ]
      }, {
        "url": "http://hl7.org/fhir/us/core/StructureDefinition/us-core-ethnicity",
        "extension": [ {
          "url": "ombCategory",
          "valueCoding": {
            "system": "urn:oid:2.16.840.1.113883.6.238",
            "code": "2186-5",
            "display": "Not Hispanic or Latino",
            "userSelected": true
          }
        }, {
          "url": "text",
          "valueString": "Not Hispanic or Latino"
        } ]
      } ],
      "identifier": [ {
        "type": {
          "coding": [ {
            "system": "http://terminology.hl7.org/CodeSystem/v2-0203",
            "code": "MR"
          } ]
        },
        "system": "https://bonnie-fhir.healthit.gov/",
        "value": "61152a3b98086b7a79cbd7c1"
      } ],
      "active": true,
      "name": [ {
        "use": "usual",
        "family": "DENEXFail",
        "given": [ "Enc1HiRiskSurgExcEnc2meetsNum" ]
      } ],
      "gender": "male",
      "birthDate": "1966-07-12"
    },
    "request": {
      "method": "PUT",
      "url": "Patient/03fae2d5-3bb7-4730-98fc-98a419a5e555"
    }
  }, {
    "fullUrl": "https://madie.cms.gov/Encounter/64a86607-d3f7-4e36-828d-33d09725d5da",
    "resource": {
      "resourceType": "Encounter",
      "id": "64a86607-d3f7-4e36-828d-33d09725d5da",
      "meta": {
        "profile": [ "http://hl7.org/fhir/us/qicore/StructureDefinition/qicore-encounter" ]
      },
      "status": "finished",
      "class": {
        "system": "http://terminology.hl7.org/CodeSystem/v3-ActCode",
        "code": "IMP",
        "display": "inpatient encounter"
      },
      "type": [ {
        "coding": [ {
          "system": "http://snomed.info/sct",
          "code": "112689000",
          "display": "Hospital admission, elective, with complete pre-admission work-up"
        } ],
        "text": "Hospital admission, elective, with complete pre-admission work-up"
      } ],
      "priority": {
        "coding": [ {
          "system": "http://snomed.info/sct",
          "code": "103390000"
        } ]
      },
      "subject": {
        "reference": "Patient/03fae2d5-3bb7-4730-98fc-98a419a5e555"
      },
      "period": {
        "start": "2026-04-10T08:00:00.000+00:00",
        "end": "2026-04-14T08:15:00.000+00:00"
      }
    },
    "request": {
      "method": "PUT",
      "url": "Encounter/64a86607-d3f7-4e36-828d-33d09725d5da"
    }
  }, {
    "fullUrl": "https://madie.cms.gov/Procedure/c1d64711-133e-4938-8b77-fe89122b6228",
    "resource": {
      "resourceType": "Procedure",
      "id": "c1d64711-133e-4938-8b77-fe89122b6228",
      "meta": {
        "profile": [ "http://hl7.org/fhir/us/qicore/StructureDefinition/qicore-procedure" ]
      },
      "extension": [ {
        "url": "http://hl7.org/fhir/us/qicore/StructureDefinition/qicore-recorded",
        "valueDateTime": "2026-04-11T10:30:00.000+00:00"
      } ],
      "status": "completed",
      "category": {
        "coding": [ {
          "system": "http://snomed.info/sct",
          "code": "18286008",
          "display": "General or neuraxial anesthesia"
        } ]
      },
      "code": {
        "coding": [ {
          "system": "http://snomed.info/sct",
          "code": "112943005",
          "display": "Epidural injection of anesthetic substance, diagnostic, caudal, continuous"
        } ]
      },
      "subject": {
        "reference": "Patient/03fae2d5-3bb7-4730-98fc-98a419a5e555"
      },
      "performedPeriod": {
        "start": "2026-04-11T08:00:00.000+00:00",
        "end": "2026-04-11T10:15:00.000+00:00"
      }
    },
    "request": {
      "method": "PUT",
      "url": "Procedure/c1d64711-133e-4938-8b77-fe89122b6228"
    }
  }, {
    "fullUrl": "https://madie.cms.gov/MeasureReport/8289d0d5-f8fb-4f6f-b6ab-770f5ef353a7",
    "resource": {
      "resourceType": "MeasureReport",
      "id": "8289d0d5-f8fb-4f6f-b6ab-770f5ef353a7",
      "meta": {
        "profile": [ "http://hl7.org/fhir/us/cqfmeasures/StructureDefinition/test-case-cqfm" ]
      },
      "contained": [ {
        "resourceType": "Parameters",
        "id": "4d5d3f93-1348-4871-b7c9-23b5b7de2d72-parameters",
        "parameter": [ {
          "name": "subject",
          "valueString": "03fae2d5-3bb7-4730-98fc-98a419a5e555"
        } ]
      } ],
      "extension": [ {
        "url": "http://hl7.org/fhir/StructureDefinition/cqf-inputParameters",
        "valueReference": {
          "reference": "#4d5d3f93-1348-4871-b7c9-23b5b7de2d72-parameters"
        }
      }, {
        "url": "http://hl7.org/fhir/us/cqfmeasures/StructureDefinition/cqfm-testCaseDescription",
        "valueMarkdown": "Enc1: Elective hosp with hi-risk to airway head/neck surgery during encounter so meets denom exclusion. \nEnc2: Elective hosp with intubation after first proc. Meets Num1. \nExclusion from Enc1 does not impact Enc 2. "
      } ],
      "modifierExtension": [ {
        "url": "http://hl7.org/fhir/us/cqfmeasures/StructureDefinition/cqfm-isTestCase",
        "valueBoolean": true
      } ],
      "status": "complete",
      "type": "individual",
      "measure": "https://madie.cms.gov/Measure/CMS1218FHIRHHRF",
      "period": {
        "start": "2026-01-01",
        "end": "2026-12-31"
      },
      "group": [ {
        "id": "Group_1",
        "population": [ {
          "id": "InitialPopulation_1",
          "code": {
            "coding": [ {
              "system": "http://terminology.hl7.org/CodeSystem/measure-population",
              "code": "initial-population",
              "display": "Initial Population"
            } ]
          },
          "count": 2
        }, {
          "id": "Denominator_1",
          "code": {
            "coding": [ {
              "system": "http://terminology.hl7.org/CodeSystem/measure-population",
              "code": "denominator",
              "display": "Denominator"
            } ]
          },
          "count": 2
        }, {
          "id": "DenominatorExclusion_1",
          "code": {
            "coding": [ {
              "system": "http://terminology.hl7.org/CodeSystem/measure-population",
              "code": "denominator-exclusion",
              "display": "Denominator Exclusion"
            } ]
          },
          "count": 1
        }, {
          "id": "Numerator_1",
          "code": {
            "coding": [ {
              "system": "http://terminology.hl7.org/CodeSystem/measure-population",
              "code": "numerator",
              "display": "Numerator"
            } ]
          },
          "count": 1
        } ],
        "measureScore": {
          "value": 0.0
        }
      } ],
      "evaluatedResource": [ {
        "reference": "Encounter/574c9eff-0605-47d3-86a4-4612f5042de5"
      }, {
        "reference": "Procedure/4c7ff13d-4d6f-4f5b-8d83-5d50b81d3b58"
      }, {
        "reference": "Procedure/f8d2ceb7-9c96-402c-b7e5-f29182332c54"
      }, {
        "reference": "Procedure/21b5540a-fc1f-45ff-adf6-5f34aabe9d2b"
      }, {
        "reference": "Patient/03fae2d5-3bb7-4730-98fc-98a419a5e555"
      }, {
        "reference": "Encounter/64a86607-d3f7-4e36-828d-33d09725d5da"
      }, {
        "reference": "Procedure/c1d64711-133e-4938-8b77-fe89122b6228"
      } ]
    },
    "request": {
      "method": "PUT",
      "url": "MeasureReport/8289d0d5-f8fb-4f6f-b6ab-770f5ef353a7"
    }
  } ]
}