{
  "resourceType": "Bundle",
  "id": "NoscreNorefAsseNotmDxCp",
  "type": "transaction",
  "entry": [ {
    "fullUrl": "https://madie.cms.gov/Patient/320bca94-461c-4fe3-8bd2-71afa28429f3",
    "resource": {
      "resourceType": "Patient",
      "id": "320bca94-461c-4fe3-8bd2-71afa28429f3",
      "meta": {
        "profile": [ "http://hl7.org/fhir/us/qicore/StructureDefinition/qicore-patient" ]
      },
      "extension": [ {
        "url": "http://hl7.org/fhir/us/core/StructureDefinition/us-core-race",
        "extension": [ {
          "url": "ombCategory",
          "valueCoding": {
            "system": "urn:oid:2.16.840.1.113883.6.238",
            "code": "2054-5",
            "display": "Black",
            "userSelected": true
          }
        }, {
          "url": "text",
          "valueString": "Black"
        } ]
      }, {
        "url": "http://hl7.org/fhir/us/core/StructureDefinition/us-core-ethnicity",
        "extension": [ {
          "url": "ombCategory",
          "valueCoding": {
            "system": "urn:oid:2.16.840.1.113883.6.238",
            "code": "2135-2",
            "display": "Hispanic or Latino",
            "userSelected": true
          }
        }, {
          "url": "text",
          "valueString": "Hispanic or Latino"
        } ]
      }, {
        "url": "http://hl7.org/fhir/us/core/StructureDefinition/us-core-sex",
        "valueCode": "248152002"
      } ],
      "identifier": [ {
        "type": {
          "coding": [ {
            "system": "http://terminology.hl7.org/CodeSystem/v2-0203",
            "code": "MR"
          } ]
        },
        "system": "https://madie.cms.gov/",
        "value": "NoscreNorefAsseNotmDxCp"
      } ],
      "active": true,
      "name": [ {
        "use": "usual",
        "text": "NoscreNorefAsseNotmDxCp",
        "family": "MSROBSPass1",
        "given": [ "NoscreNorefAsseNotmDxCp" ]
      } ],
      "gender": "female",
      "birthDate": "1949-07-15",
      "address": [ {
        "text": "NoscreNorefAsseNotmDxCp, Screened Not at risk Assessed Severely Malnourished Diagnosed Care Plan, ID=NoscreNorefAsseNotmDxCp, DOB: 15 Jul 1949"
      } ]
    },
    "request": {
      "method": "PUT",
      "url": "Patient/320bca94-461c-4fe3-8bd2-71afa28429f3"
    }
  }, {
    "fullUrl": "https://madie.cms.gov/Encounter/7f4966ae-610a-47d2-8029-54c7c8ce0d7c",
    "resource": {
      "resourceType": "Encounter",
      "id": "7f4966ae-610a-47d2-8029-54c7c8ce0d7c",
      "meta": {
        "profile": [ "http://hl7.org/fhir/us/qicore/StructureDefinition/qicore-encounter" ]
      },
      "status": "finished",
      "class": {
        "system": "http://terminology.hl7.org/CodeSystem/v3-ActCode",
        "code": "IMP",
        "display": "inpatient encounter"
      },
      "type": [ {
        "coding": [ {
          "system": "http://snomed.info/sct",
          "code": "32485007"
        } ]
      } ],
      "subject": {
        "reference": "Patient/320bca94-461c-4fe3-8bd2-71afa28429f3"
      },
      "period": {
        "start": "2026-05-01T08:00:00.000+00:00",
        "end": "2026-05-12T08:15:00.000+00:00"
      }
    },
    "request": {
      "method": "PUT",
      "url": "Encounter/7f4966ae-610a-47d2-8029-54c7c8ce0d7c"
    }
  }, {
    "fullUrl": "https://madie.cms.gov/Condition/78e67d4d-95d6-4075-8032-0f0752f98317",
    "resource": {
      "resourceType": "Condition",
      "id": "78e67d4d-95d6-4075-8032-0f0752f98317",
      "meta": {
        "profile": [ "http://hl7.org/fhir/us/qicore/StructureDefinition/qicore-condition-encounter-diagnosis" ]
      },
      "clinicalStatus": {
        "coding": [ {
          "system": "http://terminology.hl7.org/CodeSystem/condition-clinical",
          "code": "active",
          "display": "Active",
          "userSelected": true
        } ]
      },
      "verificationStatus": {
        "coding": [ {
          "system": "http://terminology.hl7.org/CodeSystem/condition-ver-status",
          "code": "confirmed",
          "display": "Confirmed",
          "userSelected": true
        } ]
      },
      "category": [ {
        "coding": [ {
          "system": "http://terminology.hl7.org/CodeSystem/condition-category",
          "code": "encounter-diagnosis",
          "display": "Encounter Diagnosis",
          "userSelected": true
        } ]
      } ],
      "code": {
        "coding": [ {
          "system": "http://hl7.org/fhir/sid/icd-10-cm",
          "code": "E43",
          "display": "Unspecified severe protein-calorie malnutrition",
          "userSelected": true
        } ]
      },
      "subject": {
        "reference": "Patient/320bca94-461c-4fe3-8bd2-71afa28429f3"
      },
      "onsetPeriod": {
        "start": "2026-05-01T08:00:00.000+00:00"
      },
      "recordedDate": "2026-05-01T11:00:00.000+00:00"
    },
    "request": {
      "method": "PUT",
      "url": "Condition/78e67d4d-95d6-4075-8032-0f0752f98317"
    }
  }, {
    "fullUrl": "https://madie.cms.gov/Observation/955ec6a3-a283-457e-b6e7-314dfb332d84",
    "resource": {
      "resourceType": "Observation",
      "id": "955ec6a3-a283-457e-b6e7-314dfb332d84",
      "meta": {
        "profile": [ "http://hl7.org/fhir/us/qicore/StructureDefinition/qicore-observation-screening-assessment" ]
      },
      "status": "final",
      "category": [ {
        "coding": [ {
          "system": "http://terminology.hl7.org/CodeSystem/observation-category",
          "code": "survey",
          "display": "Survey"
        } ]
      } ],
      "code": {
        "coding": [ {
          "system": "http://loinc.org",
          "code": "75304-6",
          "display": "Nutrition status observation panel",
          "userSelected": true
        } ]
      },
      "subject": {
        "reference": "Patient/320bca94-461c-4fe3-8bd2-71afa28429f3"
      },
      "effectiveDateTime": "2025-05-01T10:00:00.000+00:00",
      "valueCodeableConcept": {
        "coding": [ {
          "system": "http://loinc.org",
          "code": "33701-6",
          "display": "Well nourished",
          "userSelected": true
        } ]
      }
    },
    "request": {
      "method": "PUT",
      "url": "Observation/955ec6a3-a283-457e-b6e7-314dfb332d84"
    }
  }, {
    "fullUrl": "https://madie.cms.gov/Procedure/ba4d7c90-56e2-4d55-97fc-9a2aca1acfbe",
    "resource": {
      "resourceType": "Procedure",
      "id": "ba4d7c90-56e2-4d55-97fc-9a2aca1acfbe",
      "meta": {
        "profile": [ "http://hl7.org/fhir/us/qicore/StructureDefinition/qicore-procedure" ]
      },
      "extension": [ {
        "url": "http://hl7.org/fhir/us/qicore/StructureDefinition/qicore-recorded",
        "valueDateTime": "2026-02-02T11:30:00.000+00:00"
      } ],
      "status": "completed",
      "code": {
        "coding": [ {
          "system": "http://snomed.info/sct",
          "code": "410175003",
          "display": "Dietary regime management (regime/therapy)"
        } ],
        "text": "Dietary regime management (regime/therapy)"
      },
      "subject": {
        "reference": "Patient/320bca94-461c-4fe3-8bd2-71afa28429f3"
      },
      "encounter": {
        "reference": "Encounter/NoscreNorefAsseNotmDxCpMSROBSPass1"
      },
      "performedPeriod": {
        "start": "2026-05-01T11:30:00.000+00:00",
        "end": "2026-05-07T08:15:00.000+00:00"
      }
    },
    "request": {
      "method": "PUT",
      "url": "Procedure/ba4d7c90-56e2-4d55-97fc-9a2aca1acfbe"
    }
  }, {
    "fullUrl": "https://madie.cms.gov/Coverage/09b728e4-776a-47ec-abea-495ac2f1ec91",
    "resource": {
      "resourceType": "Coverage",
      "id": "09b728e4-776a-47ec-abea-495ac2f1ec91",
      "meta": {
        "profile": [ "http://hl7.org/fhir/us/qicore/StructureDefinition/qicore-coverage" ]
      },
      "status": "active",
      "type": {
        "coding": [ {
          "system": "https://nahdo.org/sopt",
          "version": "9.2",
          "code": "11",
          "display": "Medicare Managed Care (Includes Medicare Advantage Plans)"
        } ]
      },
      "subscriberId": "97531",
      "beneficiary": {
        "reference": "Patient/320bca94-461c-4fe3-8bd2-71afa28429f3"
      },
      "dependent": "0",
      "relationship": {
        "coding": [ {
          "system": "http://terminology.hl7.org/CodeSystem/subscriber-relationship",
          "code": "self"
        } ]
      },
      "period": {
        "start": "2025-10-01T00:00:00.000+00:00"
      },
      "payor": [ {
        "reference": "Organization/7ccfe37a-c075-4f8a-830d-103507f1b03b"
      } ]
    },
    "request": {
      "method": "PUT",
      "url": "Coverage/09b728e4-776a-47ec-abea-495ac2f1ec91"
    }
  }, {
    "fullUrl": "https://madie.cms.gov/Organization/7ccfe37a-c075-4f8a-830d-103507f1b03b",
    "resource": {
      "resourceType": "Organization",
      "id": "7ccfe37a-c075-4f8a-830d-103507f1b03b",
      "meta": {
        "profile": [ "http://hl7.org/fhir/us/qicore/StructureDefinition/qicore-organization" ]
      },
      "identifier": [ {
        "use": "temp",
        "system": "urn:oid:2.16.840.1.113883.4.4",
        "value": "21-3259825"
      } ],
      "active": true,
      "type": [ {
        "coding": [ {
          "system": "http://terminology.hl7.org/CodeSystem/organization-type",
          "code": "pay",
          "display": "Payer"
        } ]
      } ],
      "name": "Blue Cross Blue Shield of Texas",
      "telecom": [ {
        "system": "phone",
        "value": "(+1) 972-766-6900"
      } ],
      "address": [ {
        "use": "billing",
        "type": "postal",
        "line": [ "P.O. Box 660044" ],
        "city": "Dallas",
        "state": "TX",
        "postalCode": "75266-0044",
        "country": "USA"
      } ]
    },
    "request": {
      "method": "PUT",
      "url": "Organization/7ccfe37a-c075-4f8a-830d-103507f1b03b"
    }
  }, {
    "fullUrl": "https://madie.cms.gov/MeasureReport/384c6ef3-279b-4d31-b75d-262093f503d0",
    "resource": {
      "resourceType": "MeasureReport",
      "id": "384c6ef3-279b-4d31-b75d-262093f503d0",
      "meta": {
        "profile": [ "http://hl7.org/fhir/us/cqfmeasures/StructureDefinition/test-case-cqfm" ]
      },
      "contained": [ {
        "resourceType": "Parameters",
        "id": "57afbdbc-4498-4575-bcd9-9689dd9d6022-parameters",
        "parameter": [ {
          "name": "subject",
          "valueString": "320bca94-461c-4fe3-8bd2-71afa28429f3"
        } ]
      } ],
      "extension": [ {
        "url": "http://hl7.org/fhir/StructureDefinition/cqf-inputParameters",
        "valueReference": {
          "reference": "#57afbdbc-4498-4575-bcd9-9689dd9d6022-parameters"
        }
      }, {
        "url": "http://hl7.org/fhir/us/cqfmeasures/StructureDefinition/cqfm-testCaseDescription",
        "valueMarkdown": "Not Screened, No Referral, Assessed, Not/Mildly Malnourished, Diagnosis, Nutrition Care Plan"
      } ],
      "modifierExtension": [ {
        "url": "http://hl7.org/fhir/us/cqfmeasures/StructureDefinition/cqfm-isTestCase",
        "valueBoolean": true
      } ],
      "status": "complete",
      "type": "individual",
      "measure": "https://madie.cms.gov/Measure/CMS986FHIRMalnutritionScore",
      "period": {
        "start": "2026-01-01",
        "end": "2026-12-31"
      },
      "group": [ {
        "id": "Group_1",
        "population": [ {
          "id": "InitialPopulation_1",
          "code": {
            "coding": [ {
              "system": "http://terminology.hl7.org/CodeSystem/measure-population",
              "code": "initial-population",
              "display": "Initial Population"
            } ]
          },
          "count": 1
        }, {
          "id": "MeasurePopulation_1",
          "code": {
            "coding": [ {
              "system": "http://terminology.hl7.org/CodeSystem/measure-population",
              "code": "measure-population",
              "display": "Measure Population"
            } ]
          },
          "count": 1
        }, {
          "id": "MeasurePopulationExclusion_1",
          "code": {
            "coding": [ {
              "system": "http://terminology.hl7.org/CodeSystem/measure-population",
              "code": "measure-population-exclusion",
              "display": "Measure Population Exclusion"
            } ]
          },
          "count": 0
        }, {
          "id": "MeasureObservation_1_1",
          "code": {
            "coding": [ {
              "system": "http://terminology.hl7.org/CodeSystem/measure-population",
              "code": "measure-population-observation",
              "display": "Measure Population Observation"
            } ]
          },
          "count": 0
        } ],
        "measureScore": {
          "value": 0.0
        }
      }, {
        "id": "Group_2",
        "population": [ {
          "id": "InitialPopulation_2",
          "code": {
            "coding": [ {
              "system": "http://terminology.hl7.org/CodeSystem/measure-population",
              "code": "initial-population",
              "display": "Initial Population"
            } ]
          },
          "count": 1
        }, {
          "id": "MeasurePopulation_2",
          "code": {
            "coding": [ {
              "system": "http://terminology.hl7.org/CodeSystem/measure-population",
              "code": "measure-population",
              "display": "Measure Population"
            } ]
          },
          "count": 1
        }, {
          "id": "MeasurePopulationExclusion_2",
          "code": {
            "coding": [ {
              "system": "http://terminology.hl7.org/CodeSystem/measure-population",
              "code": "measure-population-exclusion",
              "display": "Measure Population Exclusion"
            } ]
          },
          "count": 0
        }, {
          "id": "MeasureObservation_2_1",
          "code": {
            "coding": [ {
              "system": "http://terminology.hl7.org/CodeSystem/measure-population",
              "code": "measure-population-observation",
              "display": "Measure Population Observation"
            } ]
          },
          "count": 0
        } ],
        "measureScore": {
          "value": 0.0
        }
      }, {
        "id": "Group_3",
        "population": [ {
          "id": "InitialPopulation_3",
          "code": {
            "coding": [ {
              "system": "http://terminology.hl7.org/CodeSystem/measure-population",
              "code": "initial-population",
              "display": "Initial Population"
            } ]
          },
          "count": 1
        }, {
          "id": "MeasurePopulation_3",
          "code": {
            "coding": [ {
              "system": "http://terminology.hl7.org/CodeSystem/measure-population",
              "code": "measure-population",
              "display": "Measure Population"
            } ]
          },
          "count": 1
        }, {
          "id": "MeasurePopulationExclusion_3",
          "code": {
            "coding": [ {
              "system": "http://terminology.hl7.org/CodeSystem/measure-population",
              "code": "measure-population-exclusion",
              "display": "Measure Population Exclusion"
            } ]
          },
          "count": 0
        }, {
          "id": "MeasureObservation_3_1",
          "code": {
            "coding": [ {
              "system": "http://terminology.hl7.org/CodeSystem/measure-population",
              "code": "measure-population-observation",
              "display": "Measure Population Observation"
            } ]
          },
          "count": 0
        } ],
        "measureScore": {
          "value": 0.0
        }
      }, {
        "id": "Group_4",
        "population": [ {
          "id": "InitialPopulation_4",
          "code": {
            "coding": [ {
              "system": "http://terminology.hl7.org/CodeSystem/measure-population",
              "code": "initial-population",
              "display": "Initial Population"
            } ]
          },
          "count": 1
        }, {
          "id": "MeasurePopulation_4",
          "code": {
            "coding": [ {
              "system": "http://terminology.hl7.org/CodeSystem/measure-population",
              "code": "measure-population",
              "display": "Measure Population"
            } ]
          },
          "count": 1
        }, {
          "id": "MeasurePopulationExclusion_4",
          "code": {
            "coding": [ {
              "system": "http://terminology.hl7.org/CodeSystem/measure-population",
              "code": "measure-population-exclusion",
              "display": "Measure Population Exclusion"
            } ]
          },
          "count": 0
        }, {
          "id": "MeasureObservation_4_1",
          "code": {
            "coding": [ {
              "system": "http://terminology.hl7.org/CodeSystem/measure-population",
              "code": "measure-population-observation",
              "display": "Measure Population Observation"
            } ]
          },
          "count": 0
        } ],
        "measureScore": {
          "value": 0.0
        }
      }, {
        "id": "Group_5",
        "population": [ {
          "id": "InitialPopulation_5",
          "code": {
            "coding": [ {
              "system": "http://terminology.hl7.org/CodeSystem/measure-population",
              "code": "initial-population",
              "display": "Initial Population"
            } ]
          },
          "count": 1
        }, {
          "id": "MeasurePopulation_5",
          "code": {
            "coding": [ {
              "system": "http://terminology.hl7.org/CodeSystem/measure-population",
              "code": "measure-population",
              "display": "Measure Population"
            } ]
          },
          "count": 1
        }, {
          "id": "MeasurePopulationExclusion_5",
          "code": {
            "coding": [ {
              "system": "http://terminology.hl7.org/CodeSystem/measure-population",
              "code": "measure-population-exclusion",
              "display": "Measure Population Exclusion"
            } ]
          },
          "count": 0
        }, {
          "id": "MeasureObservation_5_1",
          "code": {
            "coding": [ {
              "system": "http://terminology.hl7.org/CodeSystem/measure-population",
              "code": "measure-population-observation",
              "display": "Measure Population Observation"
            } ]
          },
          "count": 0
        } ],
        "measureScore": {
          "value": 0.0
        }
      }, {
        "id": "Group_6",
        "population": [ {
          "id": "InitialPopulation_6",
          "code": {
            "coding": [ {
              "system": "http://terminology.hl7.org/CodeSystem/measure-population",
              "code": "initial-population",
              "display": "Initial Population"
            } ]
          },
          "count": 1
        }, {
          "id": "MeasurePopulation_6",
          "code": {
            "coding": [ {
              "system": "http://terminology.hl7.org/CodeSystem/measure-population",
              "code": "measure-population",
              "display": "Measure Population"
            } ]
          },
          "count": 1
        }, {
          "id": "MeasurePopulationExclusion_6",
          "code": {
            "coding": [ {
              "system": "http://terminology.hl7.org/CodeSystem/measure-population",
              "code": "measure-population-exclusion",
              "display": "Measure Population Exclusion"
            } ]
          },
          "count": 0
        }, {
          "id": "MeasureObservation_6_1",
          "code": {
            "coding": [ {
              "system": "http://terminology.hl7.org/CodeSystem/measure-population",
              "code": "measure-population-observation",
              "display": "Measure Population Observation"
            } ]
          },
          "count": 0
        } ],
        "measureScore": {
          "value": 0.0
        }
      } ],
      "evaluatedResource": [ {
        "reference": "Patient/320bca94-461c-4fe3-8bd2-71afa28429f3"
      }, {
        "reference": "Encounter/7f4966ae-610a-47d2-8029-54c7c8ce0d7c"
      }, {
        "reference": "Condition/78e67d4d-95d6-4075-8032-0f0752f98317"
      }, {
        "reference": "Observation/955ec6a3-a283-457e-b6e7-314dfb332d84"
      }, {
        "reference": "Procedure/ba4d7c90-56e2-4d55-97fc-9a2aca1acfbe"
      }, {
        "reference": "Coverage/09b728e4-776a-47ec-abea-495ac2f1ec91"
      }, {
        "reference": "Organization/7ccfe37a-c075-4f8a-830d-103507f1b03b"
      } ]
    },
    "request": {
      "method": "PUT",
      "url": "MeasureReport/384c6ef3-279b-4d31-b75d-262093f503d0"
    }
  } ]
}