{
  "resourceType": "Bundle",
  "id": "64270cbea7ffa60ebe02488f",
  "type": "transaction",
  "entry": [ {
    "fullUrl": "https://madie.cms.gov/Patient/bff8345c-0962-455c-afd7-a1b26bfc50e2",
    "resource": {
      "resourceType": "Patient",
      "id": "bff8345c-0962-455c-afd7-a1b26bfc50e2",
      "meta": {
        "profile": [ "http://hl7.org/fhir/us/qicore/StructureDefinition/qicore-patient" ]
      },
      "extension": [ {
        "url": "http://hl7.org/fhir/us/core/StructureDefinition/us-core-race",
        "extension": [ {
          "url": "ombCategory",
          "valueCoding": {
            "system": "urn:oid:2.16.840.1.113883.6.238",
            "code": "2028-9",
            "display": "Asian",
            "userSelected": true
          }
        }, {
          "url": "text",
          "valueString": "Asian"
        } ]
      }, {
        "url": "http://hl7.org/fhir/us/core/StructureDefinition/us-core-ethnicity",
        "extension": [ {
          "url": "ombCategory",
          "valueCoding": {
            "system": "urn:oid:2.16.840.1.113883.6.238",
            "code": "2135-2",
            "display": "Hispanic or Latino",
            "userSelected": true
          }
        }, {
          "url": "text",
          "valueString": "Hispanic or Latino"
        } ]
      } ],
      "identifier": [ {
        "type": {
          "coding": [ {
            "system": "http://terminology.hl7.org/CodeSystem/v2-0203",
            "code": "MR"
          } ]
        },
        "system": "https://goodhealth.healthit.gov/",
        "value": "64270cbea7ffa60ebe02488f"
      } ],
      "name": [ {
        "family": "IPFail",
        "given": [ "DementiaDx1MinAfterEncEdge" ]
      } ],
      "gender": "male",
      "birthDate": "1969-03-02"
    },
    "request": {
      "method": "PUT",
      "url": "Patient/bff8345c-0962-455c-afd7-a1b26bfc50e2"
    }
  }, {
    "fullUrl": "https://madie.cms.gov/Condition/12cdadee-a8b1-4eaa-b642-c5826d3665ff",
    "resource": {
      "resourceType": "Condition",
      "id": "12cdadee-a8b1-4eaa-b642-c5826d3665ff",
      "meta": {
        "profile": [ "http://hl7.org/fhir/us/qicore/StructureDefinition/qicore-condition-problems-health-concerns" ]
      },
      "clinicalStatus": {
        "coding": [ {
          "system": "http://terminology.hl7.org/CodeSystem/condition-clinical",
          "code": "active",
          "display": "Active",
          "userSelected": true
        } ]
      },
      "verificationStatus": {
        "coding": [ {
          "system": "http://terminology.hl7.org/CodeSystem/condition-ver-status",
          "code": "confirmed",
          "display": "Confirmed",
          "userSelected": true
        } ]
      },
      "category": [ {
        "coding": [ {
          "system": "http://terminology.hl7.org/CodeSystem/condition-category",
          "code": "encounter-diagnosis",
          "display": "Encounter Diagnosis",
          "userSelected": true
        } ]
      } ],
      "code": {
        "coding": [ {
          "system": "http://snomed.info/sct",
          "version": "http://snomed.info/sct/731000124108/version/20230301",
          "code": "191463004",
          "display": "Uncomplicated arteriosclerotic dementia (disorder)"
        } ]
      },
      "subject": {
        "reference": "Patient/bff8345c-0962-455c-afd7-a1b26bfc50e2"
      },
      "onsetPeriod": {
        "start": "2026-08-15T08:36:00.000+00:00"
      }
    },
    "request": {
      "method": "PUT",
      "url": "Condition/12cdadee-a8b1-4eaa-b642-c5826d3665ff"
    }
  }, {
    "fullUrl": "https://madie.cms.gov/Encounter/3862b2a9-8cb9-4f7c-8533-cb8c1104c869",
    "resource": {
      "resourceType": "Encounter",
      "id": "3862b2a9-8cb9-4f7c-8533-cb8c1104c869",
      "meta": {
        "profile": [ "http://hl7.org/fhir/us/qicore/StructureDefinition/qicore-encounter" ]
      },
      "status": "finished",
      "class": {
        "system": "http://terminology.hl7.org/CodeSystem/v3-ActCode",
        "code": "AMB",
        "display": "ambulatory",
        "userSelected": true
      },
      "type": [ {
        "coding": [ {
          "system": "http://www.ama-assn.org/go/cpt",
          "version": "2023",
          "code": "99212",
          "userSelected": true
        } ]
      } ],
      "subject": {
        "reference": "Patient/bff8345c-0962-455c-afd7-a1b26bfc50e2"
      },
      "period": {
        "start": "2026-03-16T08:00:00.000+00:00",
        "end": "2026-03-16T08:35:00.000+00:00"
      }
    },
    "request": {
      "method": "PUT",
      "url": "Encounter/3862b2a9-8cb9-4f7c-8533-cb8c1104c869"
    }
  }, {
    "fullUrl": "https://madie.cms.gov/Encounter/3d734888-da15-4068-9f9d-c08e09fe962c",
    "resource": {
      "resourceType": "Encounter",
      "id": "3d734888-da15-4068-9f9d-c08e09fe962c",
      "meta": {
        "profile": [ "http://hl7.org/fhir/us/qicore/StructureDefinition/qicore-encounter" ]
      },
      "status": "finished",
      "class": {
        "system": "http://terminology.hl7.org/CodeSystem/v3-ActCode",
        "code": "AMB",
        "display": "ambulatory",
        "userSelected": true
      },
      "type": [ {
        "coding": [ {
          "system": "http://snomed.info/sct",
          "version": "http://snomed.info/sct/731000124108/version/20230301",
          "code": "185462000",
          "display": "Home visit request by relative (procedure)"
        } ]
      } ],
      "subject": {
        "reference": "Patient/bff8345c-0962-455c-afd7-a1b26bfc50e2"
      },
      "period": {
        "start": "2026-08-15T08:00:00.000+00:00",
        "end": "2026-08-15T08:35:00.000+00:00"
      }
    },
    "request": {
      "method": "PUT",
      "url": "Encounter/3d734888-da15-4068-9f9d-c08e09fe962c"
    }
  }, {
    "fullUrl": "https://madie.cms.gov/MeasureReport/7805dca9-a654-4e2e-8af7-cd7cd3a5ea00",
    "resource": {
      "resourceType": "MeasureReport",
      "id": "7805dca9-a654-4e2e-8af7-cd7cd3a5ea00",
      "meta": {
        "profile": [ "http://hl7.org/fhir/us/cqfmeasures/StructureDefinition/test-case-cqfm" ]
      },
      "contained": [ {
        "resourceType": "Parameters",
        "id": "22dc1309-ab06-422f-9d10-a8c956ee77e1-parameters",
        "parameter": [ {
          "name": "subject",
          "valueString": "bff8345c-0962-455c-afd7-a1b26bfc50e2"
        } ]
      } ],
      "extension": [ {
        "url": "http://hl7.org/fhir/StructureDefinition/cqf-inputParameters",
        "valueReference": {
          "reference": "#22dc1309-ab06-422f-9d10-a8c956ee77e1-parameters"
        }
      }, {
        "url": "http://hl7.org/fhir/us/cqfmeasures/StructureDefinition/cqfm-testCaseDescription",
        "valueMarkdown": "Patient has qualifying encounters and a demential diagnosis which does not overlap encounter period by starting 1 min after end of encounter"
      } ],
      "modifierExtension": [ {
        "url": "http://hl7.org/fhir/us/cqfmeasures/StructureDefinition/cqfm-isTestCase",
        "valueBoolean": true
      } ],
      "status": "complete",
      "type": "individual",
      "measure": "https://madie.cms.gov/Measure/CMS149FHIRDementiaCognitiveAssessment",
      "period": {
        "start": "2026-01-01",
        "end": "2026-12-31"
      },
      "group": [ {
        "id": "Group_1",
        "population": [ {
          "id": "InitialPopulation_1",
          "code": {
            "coding": [ {
              "system": "http://terminology.hl7.org/CodeSystem/measure-population",
              "code": "initial-population",
              "display": "Initial Population"
            } ]
          },
          "count": 0
        }, {
          "id": "Denominator_1",
          "code": {
            "coding": [ {
              "system": "http://terminology.hl7.org/CodeSystem/measure-population",
              "code": "denominator",
              "display": "Denominator"
            } ]
          },
          "count": 0
        }, {
          "id": "Numerator_1",
          "code": {
            "coding": [ {
              "system": "http://terminology.hl7.org/CodeSystem/measure-population",
              "code": "numerator",
              "display": "Numerator"
            } ]
          },
          "count": 0
        }, {
          "id": "DenominatorException_1",
          "code": {
            "coding": [ {
              "system": "http://terminology.hl7.org/CodeSystem/measure-population",
              "code": "denominator-exception",
              "display": "Denominator Exception"
            } ]
          },
          "count": 0
        } ],
        "measureScore": {
          "value": 1.0
        }
      } ],
      "evaluatedResource": [ {
        "reference": "Patient/bff8345c-0962-455c-afd7-a1b26bfc50e2"
      }, {
        "reference": "Condition/12cdadee-a8b1-4eaa-b642-c5826d3665ff"
      }, {
        "reference": "Encounter/3862b2a9-8cb9-4f7c-8533-cb8c1104c869"
      }, {
        "reference": "Encounter/3d734888-da15-4068-9f9d-c08e09fe962c"
      } ]
    },
    "request": {
      "method": "PUT",
      "url": "MeasureReport/7805dca9-a654-4e2e-8af7-cd7cd3a5ea00"
    }
  } ]
}