{
  "resourceType": "Bundle",
  "id": "62aa60bdc4be4c506d4a534b",
  "type": "transaction",
  "entry": [ {
    "fullUrl": "https://madie.cms.gov/Patient/42e6b4d6-defc-4ec5-894f-e3333e3039a3",
    "resource": {
      "resourceType": "Patient",
      "id": "42e6b4d6-defc-4ec5-894f-e3333e3039a3",
      "meta": {
        "profile": [ "http://hl7.org/fhir/us/qicore/StructureDefinition/qicore-patient" ]
      },
      "extension": [ {
        "url": "http://hl7.org/fhir/us/core/StructureDefinition/us-core-race",
        "extension": [ {
          "url": "ombCategory",
          "valueCoding": {
            "system": "urn:oid:2.16.840.1.113883.6.238",
            "code": "1002-5",
            "display": "American Indian or Alaska Native",
            "userSelected": true
          }
        }, {
          "url": "text",
          "valueString": "American Indian or Alaska Native"
        } ]
      }, {
        "url": "http://hl7.org/fhir/us/core/StructureDefinition/us-core-ethnicity",
        "extension": [ {
          "url": "ombCategory",
          "valueCoding": {
            "system": "urn:oid:2.16.840.1.113883.6.238",
            "code": "2186-5",
            "display": "Not Hispanic or Latino",
            "userSelected": true
          }
        }, {
          "url": "text",
          "valueString": "Not Hispanic or Latino"
        } ]
      } ],
      "identifier": [ {
        "type": {
          "coding": [ {
            "system": "http://terminology.hl7.org/CodeSystem/v2-0203",
            "code": "MR"
          } ]
        },
        "system": "https://bonnie-fhir.healthit.gov/",
        "value": "62aa60bdc4be4c506d4a534b"
      } ],
      "name": [ {
        "family": "NUMERPass",
        "given": [ "NormalBMIAt24pt9" ]
      } ],
      "gender": "other",
      "birthDate": "1957-11-07"
    },
    "request": {
      "method": "PUT",
      "url": "Patient/42e6b4d6-defc-4ec5-894f-e3333e3039a3"
    }
  }, {
    "fullUrl": "https://madie.cms.gov/Encounter/2a5d0e2d-50bb-4109-b852-c55c9e1eac37",
    "resource": {
      "resourceType": "Encounter",
      "id": "2a5d0e2d-50bb-4109-b852-c55c9e1eac37",
      "meta": {
        "profile": [ "http://hl7.org/fhir/us/qicore/StructureDefinition/qicore-encounter" ]
      },
      "status": "finished",
      "class": {
        "system": "http://terminology.hl7.org/CodeSystem/v3-ActCode",
        "code": "AMB",
        "display": "ambulatory"
      },
      "type": [ {
        "coding": [ {
          "system": "http://snomed.info/sct",
          "version": "2022-03",
          "code": "10197000",
          "display": "Psychiatric interview and evaluation (procedure)",
          "userSelected": true
        } ]
      } ],
      "subject": {
        "reference": "Patient/42e6b4d6-defc-4ec5-894f-e3333e3039a3"
      },
      "period": {
        "start": "2026-01-01T00:00:00.000+00:00",
        "end": "2026-01-01T00:30:00.000+00:00"
      }
    },
    "request": {
      "method": "PUT",
      "url": "Encounter/2a5d0e2d-50bb-4109-b852-c55c9e1eac37"
    }
  }, {
    "fullUrl": "https://madie.cms.gov/Observation/ce19f95a-f56f-4db1-ac33-1e218ea9519b",
    "resource": {
      "resourceType": "Observation",
      "id": "ce19f95a-f56f-4db1-ac33-1e218ea9519b",
      "meta": {
        "profile": [ "http://hl7.org/fhir/us/core/StructureDefinition/us-core-bmi" ]
      },
      "status": "final",
      "category": [ {
        "coding": [ {
          "system": "http://terminology.hl7.org/CodeSystem/observation-category",
          "code": "vital-signs",
          "display": "Vital Signs"
        } ]
      } ],
      "code": {
        "coding": [ {
          "system": "http://loinc.org",
          "code": "39156-5",
          "display": "Body mass index (BMI) [Ratio]",
          "userSelected": true
        } ]
      },
      "subject": {
        "reference": "Patient/42e6b4d6-defc-4ec5-894f-e3333e3039a3"
      },
      "effectiveDateTime": "2026-01-01T00:30:00.000+00:00",
      "valueQuantity": {
        "value": 24.9,
        "unit": "kg/m2",
        "system": "http://unitsofmeasure.org",
        "code": "kg/m2"
      }
    },
    "request": {
      "method": "PUT",
      "url": "Observation/ce19f95a-f56f-4db1-ac33-1e218ea9519b"
    }
  }, {
    "fullUrl": "https://madie.cms.gov/Coverage/6dbdf092-285c-4c0c-b188-75812c30724a",
    "resource": {
      "resourceType": "Coverage",
      "id": "6dbdf092-285c-4c0c-b188-75812c30724a",
      "meta": {
        "profile": [ "http://hl7.org/fhir/us/qicore/StructureDefinition/qicore-coverage" ]
      },
      "status": "active",
      "beneficiary": {
        "reference": "Patient/42e6b4d6-defc-4ec5-894f-e3333e3039a3"
      },
      "payor": [ {
        "reference": "Organization/15d606c2-c8f5-48c2-b0f2-9ad6b966414b"
      } ]
    },
    "request": {
      "method": "PUT",
      "url": "Coverage/6dbdf092-285c-4c0c-b188-75812c30724a"
    }
  }, {
    "fullUrl": "https://madie.cms.gov/Organization/15d606c2-c8f5-48c2-b0f2-9ad6b966414b",
    "resource": {
      "resourceType": "Organization",
      "id": "15d606c2-c8f5-48c2-b0f2-9ad6b966414b",
      "meta": {
        "profile": [ "http://hl7.org/fhir/us/qicore/StructureDefinition/qicore-organization" ]
      },
      "identifier": [ {
        "use": "temp",
        "system": "urn:oid:2.16.840.1.113883.4.4",
        "value": "21-3259825"
      } ],
      "active": true,
      "type": [ {
        "coding": [ {
          "system": "http://terminology.hl7.org/CodeSystem/organization-type",
          "code": "pay",
          "display": "Payer"
        } ]
      } ],
      "name": "Blue Cross Blue Shield of Texas",
      "telecom": [ {
        "system": "phone",
        "value": "(+1) 972-766-6900"
      } ],
      "address": [ {
        "use": "billing",
        "type": "postal",
        "line": [ "P.O. Box 660044" ],
        "city": "Dallas",
        "state": "TX",
        "postalCode": "75266-0044",
        "country": "USA"
      } ]
    },
    "request": {
      "method": "PUT",
      "url": "Organization/15d606c2-c8f5-48c2-b0f2-9ad6b966414b"
    }
  }, {
    "fullUrl": "https://madie.cms.gov/MeasureReport/e0cf0685-2fdc-430b-9e0a-77f4359be6cf",
    "resource": {
      "resourceType": "MeasureReport",
      "id": "e0cf0685-2fdc-430b-9e0a-77f4359be6cf",
      "meta": {
        "profile": [ "http://hl7.org/fhir/us/cqfmeasures/StructureDefinition/test-case-cqfm" ]
      },
      "contained": [ {
        "resourceType": "Parameters",
        "id": "715d9348-ed75-4934-b98b-a5fbaeb73d4c-parameters",
        "parameter": [ {
          "name": "subject",
          "valueString": "42e6b4d6-defc-4ec5-894f-e3333e3039a3"
        } ]
      } ],
      "extension": [ {
        "url": "http://hl7.org/fhir/StructureDefinition/cqf-inputParameters",
        "valueReference": {
          "reference": "#715d9348-ed75-4934-b98b-a5fbaeb73d4c-parameters"
        }
      }, {
        "url": "http://hl7.org/fhir/us/cqfmeasures/StructureDefinition/cqfm-testCaseDescription",
        "valueMarkdown": "Enc first day of MP, normal BMI at 24.9, no intervention needed"
      } ],
      "modifierExtension": [ {
        "url": "http://hl7.org/fhir/us/cqfmeasures/StructureDefinition/cqfm-isTestCase",
        "valueBoolean": true
      } ],
      "status": "complete",
      "type": "individual",
      "measure": "https://madie.cms.gov/Measure/CMS69FHIRPCSBMIScreenAndFollowUp",
      "period": {
        "start": "2026-01-01",
        "end": "2026-12-31"
      },
      "group": [ {
        "id": "Group_1",
        "population": [ {
          "id": "InitialPopulation_1",
          "code": {
            "coding": [ {
              "system": "http://terminology.hl7.org/CodeSystem/measure-population",
              "code": "initial-population",
              "display": "Initial Population"
            } ]
          },
          "count": 1
        }, {
          "id": "Denominator_1",
          "code": {
            "coding": [ {
              "system": "http://terminology.hl7.org/CodeSystem/measure-population",
              "code": "denominator",
              "display": "Denominator"
            } ]
          },
          "count": 1
        }, {
          "id": "DenominatorExclusion_1",
          "code": {
            "coding": [ {
              "system": "http://terminology.hl7.org/CodeSystem/measure-population",
              "code": "denominator-exclusion",
              "display": "Denominator Exclusion"
            } ]
          },
          "count": 0
        }, {
          "id": "Numerator_1",
          "code": {
            "coding": [ {
              "system": "http://terminology.hl7.org/CodeSystem/measure-population",
              "code": "numerator",
              "display": "Numerator"
            } ]
          },
          "count": 1
        }, {
          "id": "DenominatorException_1",
          "code": {
            "coding": [ {
              "system": "http://terminology.hl7.org/CodeSystem/measure-population",
              "code": "denominator-exception",
              "display": "Denominator Exception"
            } ]
          },
          "count": 0
        } ],
        "measureScore": {
          "value": 1.0
        }
      } ],
      "evaluatedResource": [ {
        "reference": "Patient/42e6b4d6-defc-4ec5-894f-e3333e3039a3"
      }, {
        "reference": "Encounter/2a5d0e2d-50bb-4109-b852-c55c9e1eac37"
      }, {
        "reference": "Observation/ce19f95a-f56f-4db1-ac33-1e218ea9519b"
      }, {
        "reference": "Coverage/6dbdf092-285c-4c0c-b188-75812c30724a"
      }, {
        "reference": "Organization/15d606c2-c8f5-48c2-b0f2-9ad6b966414b"
      } ]
    },
    "request": {
      "method": "PUT",
      "url": "MeasureReport/e0cf0685-2fdc-430b-9e0a-77f4359be6cf"
    }
  } ]
}