{
  "resourceType": "Bundle",
  "id": "4616513133030",
  "type": "transaction",
  "entry": [ {
    "fullUrl": "https://madie.cms.gov/Patient/a918259c-530d-4645-9339-e71db94323a8",
    "resource": {
      "resourceType": "Patient",
      "id": "a918259c-530d-4645-9339-e71db94323a8",
      "meta": {
        "profile": [ "http://hl7.org/fhir/us/qicore/StructureDefinition/qicore-patient" ]
      },
      "extension": [ {
        "url": "http://hl7.org/fhir/us/core/StructureDefinition/us-core-race",
        "extension": [ {
          "url": "ombCategory",
          "valueCoding": {
            "system": "urn:oid:2.16.840.1.113883.6.238",
            "code": "2076-8",
            "display": "Native Hawaiian or Other Pacific Islander"
          }
        }, {
          "url": "text",
          "valueString": "Native Hawaiian or Other Pacific Islander"
        } ]
      }, {
        "url": "http://hl7.org/fhir/us/core/StructureDefinition/us-core-ethnicity",
        "extension": [ {
          "url": "ombCategory",
          "valueCoding": {
            "system": "urn:oid:2.16.840.1.113883.6.238",
            "code": "2186-5",
            "display": "Not Hispanic or Latino"
          }
        }, {
          "url": "text",
          "valueString": "Not Hispanic or Latino"
        } ]
      } ],
      "identifier": [ {
        "type": {
          "coding": [ {
            "system": "http://terminology.hl7.org/CodeSystem/v2-0203",
            "code": "MR"
          } ]
        },
        "system": "https://bonnie-fhir.healthit.gov/",
        "value": "60d4bda907206d58cd96b128"
      } ],
      "name": [ {
        "family": "NUMERFail",
        "given": [ "InitialDxStaging2023" ]
      } ],
      "gender": "female",
      "birthDate": "1951-12-25"
    },
    "request": {
      "method": "PUT",
      "url": "Patient/a918259c-530d-4645-9339-e71db94323a8"
    }
  }, {
    "fullUrl": "https://madie.cms.gov/Encounter/ce76e5df-732c-4cab-9082-ebdd76f688ea",
    "resource": {
      "resourceType": "Encounter",
      "id": "ce76e5df-732c-4cab-9082-ebdd76f688ea",
      "meta": {
        "profile": [ "http://hl7.org/fhir/us/qicore/StructureDefinition/qicore-encounter" ]
      },
      "status": "finished",
      "class": {
        "system": "http://terminology.hl7.org/CodeSystem/v3-ActCode",
        "code": "AMB",
        "display": "ambulatory"
      },
      "type": [ {
        "coding": [ {
          "system": "http://snomed.info/sct",
          "version": "http://snomed.info/sct/731000124108/version/20240301",
          "code": "185463005",
          "display": "Visit out of hours (procedure)"
        } ]
      } ],
      "subject": {
        "reference": "Patient/a918259c-530d-4645-9339-e71db94323a8"
      },
      "period": {
        "start": "2026-04-12T08:00:00.000+00:00",
        "end": "2026-04-12T09:15:00.000+00:00"
      }
    },
    "request": {
      "method": "PUT",
      "url": "Encounter/ce76e5df-732c-4cab-9082-ebdd76f688ea"
    }
  }, {
    "fullUrl": "https://madie.cms.gov/Condition/0a83fd59-e5ed-4bbc-836d-7ca39a966137",
    "resource": {
      "resourceType": "Condition",
      "id": "0a83fd59-e5ed-4bbc-836d-7ca39a966137",
      "meta": {
        "profile": [ "http://hl7.org/fhir/us/qicore/StructureDefinition/qicore-condition-problems-health-concerns" ]
      },
      "clinicalStatus": {
        "coding": [ {
          "system": "http://terminology.hl7.org/CodeSystem/condition-clinical",
          "code": "active",
          "display": "Active"
        } ]
      },
      "verificationStatus": {
        "coding": [ {
          "system": "http://terminology.hl7.org/CodeSystem/condition-ver-status",
          "code": "confirmed",
          "display": "Confirmed"
        } ]
      },
      "category": [ {
        "coding": [ {
          "system": "http://terminology.hl7.org/CodeSystem/condition-category",
          "code": "problem-list-item",
          "display": "Problem List Item"
        } ]
      } ],
      "code": {
        "coding": [ {
          "system": "http://hl7.org/fhir/sid/icd-10-cm",
          "version": "2024",
          "code": "C67.1",
          "display": "Malignant neoplasm of dome of bladder"
        } ]
      },
      "subject": {
        "reference": "Patient/a918259c-530d-4645-9339-e71db94323a8"
      },
      "onsetPeriod": {
        "start": "2026-04-12T08:00:00.000+00:00"
      }
    },
    "request": {
      "method": "PUT",
      "url": "Condition/0a83fd59-e5ed-4bbc-836d-7ca39a966137"
    }
  }, {
    "fullUrl": "https://madie.cms.gov/Condition/0a83fd59-e5ed-4bbc-836d-7ca39a966137",
    "resource": {
      "resourceType": "Condition",
      "id": "0a83fd59-e5ed-4bbc-836d-7ca39a966137",
      "meta": {
        "profile": [ "http://hl7.org/fhir/us/qicore/StructureDefinition/qicore-condition-encounter-diagnosis" ]
      },
      "clinicalStatus": {
        "coding": [ {
          "system": "http://terminology.hl7.org/CodeSystem/condition-clinical",
          "code": "active",
          "display": "Active"
        } ]
      },
      "verificationStatus": {
        "coding": [ {
          "system": "http://terminology.hl7.org/CodeSystem/condition-ver-status",
          "code": "confirmed",
          "display": "Confirmed"
        } ]
      },
      "category": [ {
        "coding": [ {
          "system": "http://terminology.hl7.org/CodeSystem/condition-category",
          "code": "encounter-diagnosis",
          "display": "Encounter Diagnosis"
        } ]
      } ],
      "code": {
        "coding": [ {
          "system": "http://hl7.org/fhir/sid/icd-10-cm",
          "version": "2024",
          "code": "C67.1",
          "display": "Malignant neoplasm of dome of bladder"
        } ]
      },
      "subject": {
        "reference": "Patient/a918259c-530d-4645-9339-e71db94323a8"
      },
      "onsetPeriod": {
        "start": "2026-04-12T08:00:00.000+00:00"
      }
    },
    "request": {
      "method": "PUT",
      "url": "Condition/0a83fd59-e5ed-4bbc-836d-7ca39a966137"
    }
  }, {
    "fullUrl": "https://madie.cms.gov/Procedure/fd993f0d-ec5a-4da7-925b-00d02a7cab00",
    "resource": {
      "resourceType": "Procedure",
      "id": "fd993f0d-ec5a-4da7-925b-00d02a7cab00",
      "meta": {
        "profile": [ "http://hl7.org/fhir/us/qicore/StructureDefinition/qicore-procedure" ]
      },
      "extension": [ {
        "url": "http://hl7.org/fhir/us/qicore/StructureDefinition/qicore-recorded",
        "valueDateTime": "2026-04-12T08:00:00.000+00:00"
      } ],
      "status": "completed",
      "code": {
        "coding": [ {
          "system": "http://snomed.info/sct",
          "version": "http://snomed.info/sct/731000124108/version/20240301",
          "code": "254292007",
          "display": "Tumor staging"
        } ]
      },
      "subject": {
        "reference": "Patient/a918259c-530d-4645-9339-e71db94323a8"
      },
      "performedPeriod": {
        "start": "2026-04-12T08:00:00.000+00:00",
        "end": "2026-04-12T08:15:00.000+00:00"
      }
    },
    "request": {
      "method": "PUT",
      "url": "Procedure/fd993f0d-ec5a-4da7-925b-00d02a7cab00"
    }
  }, {
    "fullUrl": "https://madie.cms.gov/Observation/f1138c76-e707-493a-b5b5-4463e28a40b6",
    "resource": {
      "resourceType": "Observation",
      "id": "f1138c76-e707-493a-b5b5-4463e28a40b6",
      "meta": {
        "profile": [ "http://hl7.org/fhir/us/qicore/StructureDefinition/qicore-observation-lab" ]
      },
      "partOf": [ {
        "reference": "Procedure/fd993f0d-ec5a-4da7-925b-00d02a7cab00"
      } ],
      "status": "final",
      "category": [ {
        "coding": [ {
          "system": "http://terminology.hl7.org/CodeSystem/observation-category",
          "code": "procedure",
          "display": "Procedure"
        } ]
      } ],
      "code": {
        "coding": [ {
          "system": "http://loinc.org",
          "version": "2.76",
          "code": "21902-2",
          "display": "Stage group.pathology Cancer"
        } ]
      },
      "subject": {
        "reference": "Patient/a918259c-530d-4645-9339-e71db94323a8"
      },
      "effectivePeriod": {
        "start": "2025-06-01T08:00:00.000+00:00",
        "end": "2026-06-02T08:15:00.000+00:00"
      },
      "issued": "2026-06-02T08:15:00.000+00:00",
      "valueCodeableConcept": {
        "coding": [ {
          "system": "http://snomed.info/sct",
          "version": "http://snomed.info/sct/731000124108/version/20240301",
          "code": "1228883000",
          "display": "American Joint Committee on Cancer cTa (qualifier value)"
        } ]
      }
    },
    "request": {
      "method": "PUT",
      "url": "Observation/f1138c76-e707-493a-b5b5-4463e28a40b6"
    }
  }, {
    "fullUrl": "https://madie.cms.gov/Observation/26808ff6-e5f5-4ca1-9300-2f01cce1a4bb",
    "resource": {
      "resourceType": "Observation",
      "id": "26808ff6-e5f5-4ca1-9300-2f01cce1a4bb",
      "meta": {
        "profile": [ "http://hl7.org/fhir/us/qicore/StructureDefinition/qicore-observation-lab" ]
      },
      "partOf": [ {
        "reference": "Procedure/64646103516435"
      } ],
      "status": "final",
      "category": [ {
        "coding": [ {
          "system": "http://terminology.hl7.org/CodeSystem/observation-category",
          "code": "procedure",
          "display": "Procedure"
        } ]
      } ],
      "code": {
        "coding": [ {
          "system": "http://loinc.org",
          "version": "2.76",
          "code": "21902-2",
          "display": "Stage group.pathology Cancer"
        } ]
      },
      "subject": {
        "reference": "Patient/a918259c-530d-4645-9339-e71db94323a8"
      },
      "effectivePeriod": {
        "start": "2025-12-01T08:00:00.000+00:00",
        "end": "2025-12-02T08:15:00.000+00:00"
      },
      "issued": "2025-12-02T08:15:00.000+00:00",
      "valueCodeableConcept": {
        "coding": [ {
          "system": "http://snomed.info/sct",
          "version": "http://snomed.info/sct/731000124108/version/20240301",
          "code": "369949005",
          "display": "Ta: Noninvasive papillary carcinoma (urinary tract) (finding)"
        } ]
      }
    },
    "request": {
      "method": "PUT",
      "url": "Observation/26808ff6-e5f5-4ca1-9300-2f01cce1a4bb"
    }
  }, {
    "fullUrl": "https://madie.cms.gov/MedicationAdministration/6e1c6992-a168-404c-a605-ef24f588004f",
    "resource": {
      "resourceType": "MedicationAdministration",
      "id": "6e1c6992-a168-404c-a605-ef24f588004f",
      "meta": {
        "profile": [ "http://hl7.org/fhir/us/qicore/StructureDefinition/qicore-medicationadministration" ]
      },
      "status": "completed",
      "medicationCodeableConcept": {
        "coding": [ {
          "system": "http://www.nlm.nih.gov/research/umls/rxnorm",
          "version": "04012024",
          "code": "1653484",
          "display": "BCG, live, Tice strain 50 MG/ML Topical Suspension"
        } ]
      },
      "subject": {
        "reference": "Patient/a918259c-530d-4645-9339-e71db94323a8"
      },
      "effectivePeriod": {
        "start": "2026-04-02T08:00:00.000+00:00",
        "end": "2026-04-02T08:15:00.000+00:00"
      }
    },
    "request": {
      "method": "PUT",
      "url": "MedicationAdministration/6e1c6992-a168-404c-a605-ef24f588004f"
    }
  }, {
    "fullUrl": "https://madie.cms.gov/MeasureReport/dd73c5a2-3be0-40d3-a955-973dd85dec6c",
    "resource": {
      "resourceType": "MeasureReport",
      "id": "dd73c5a2-3be0-40d3-a955-973dd85dec6c",
      "meta": {
        "profile": [ "http://hl7.org/fhir/us/cqfmeasures/StructureDefinition/test-case-cqfm" ]
      },
      "contained": [ {
        "resourceType": "Parameters",
        "id": "9e301001-792e-4882-bb51-4acdc8c1cf0c-parameters",
        "parameter": [ {
          "name": "subject",
          "valueString": "a918259c-530d-4645-9339-e71db94323a8"
        } ]
      } ],
      "extension": [ {
        "url": "http://hl7.org/fhir/StructureDefinition/cqf-inputParameters",
        "valueReference": {
          "reference": "#9e301001-792e-4882-bb51-4acdc8c1cf0c-parameters"
        }
      }, {
        "url": "http://hl7.org/fhir/us/cqfmeasures/StructureDefinition/cqfm-testCaseDescription",
        "valueMarkdown": "Has Bladder Cancer and Cancer staging in June 2023; waited  6 months to return, staging procedure 12/05/2023;  active dx 4/10/2024; first BCG within 6 months and in the MP but not within 6 months of initial qualifying stagiing -  LCG question. Fails "
      } ],
      "modifierExtension": [ {
        "url": "http://hl7.org/fhir/us/cqfmeasures/StructureDefinition/cqfm-isTestCase",
        "valueBoolean": true
      } ],
      "status": "complete",
      "type": "individual",
      "measure": "https://madie.cms.gov/Measure/CMS646FHIRIntravesicalBacillusCalmetteGuerinForBladderCancer",
      "period": {
        "start": "2026-01-01",
        "end": "2026-12-31"
      },
      "group": [ {
        "id": "Group_1",
        "population": [ {
          "id": "InitialPopulation_1",
          "code": {
            "coding": [ {
              "system": "http://terminology.hl7.org/CodeSystem/measure-population",
              "code": "initial-population",
              "display": "Initial Population"
            } ]
          },
          "count": 1
        }, {
          "id": "Denominator_1",
          "code": {
            "coding": [ {
              "system": "http://terminology.hl7.org/CodeSystem/measure-population",
              "code": "denominator",
              "display": "Denominator"
            } ]
          },
          "count": 1
        }, {
          "id": "DenominatorExclusion_1",
          "code": {
            "coding": [ {
              "system": "http://terminology.hl7.org/CodeSystem/measure-population",
              "code": "denominator-exclusion",
              "display": "Denominator Exclusion"
            } ]
          },
          "count": 0
        }, {
          "id": "Numerator_1",
          "code": {
            "coding": [ {
              "system": "http://terminology.hl7.org/CodeSystem/measure-population",
              "code": "numerator",
              "display": "Numerator"
            } ]
          },
          "count": 0
        }, {
          "id": "DenominatorException_1",
          "code": {
            "coding": [ {
              "system": "http://terminology.hl7.org/CodeSystem/measure-population",
              "code": "denominator-exception",
              "display": "Denominator Exception"
            } ]
          },
          "count": 0
        } ],
        "measureScore": {
          "value": 1.0
        }
      } ],
      "evaluatedResource": [ {
        "reference": "Patient/a918259c-530d-4645-9339-e71db94323a8"
      }, {
        "reference": "Encounter/ce76e5df-732c-4cab-9082-ebdd76f688ea"
      }, {
        "reference": "Condition/0a83fd59-e5ed-4bbc-836d-7ca39a966137"
      }, {
        "reference": "Condition/0a83fd59-e5ed-4bbc-836d-7ca39a966137"
      }, {
        "reference": "Procedure/fd993f0d-ec5a-4da7-925b-00d02a7cab00"
      }, {
        "reference": "Observation/f1138c76-e707-493a-b5b5-4463e28a40b6"
      }, {
        "reference": "Observation/26808ff6-e5f5-4ca1-9300-2f01cce1a4bb"
      }, {
        "reference": "MedicationAdministration/6e1c6992-a168-404c-a605-ef24f588004f"
      } ]
    },
    "request": {
      "method": "PUT",
      "url": "MeasureReport/dd73c5a2-3be0-40d3-a955-973dd85dec6c"
    }
  } ]
}