{"resourceType":"Bundle","id":"tests-75a833a6-8cf4-4ab2-9da5-b650d7c4b8a5-bundle","type":"transaction","entry":[{"resource":{"resourceType":"Condition","id":"dceec86e-29bc-4670-ad63-c718de4675e2","meta":{"profile":["http://hl7.org/fhir/us/qicore/StructureDefinition/qicore-condition-problems-health-concerns"]},"clinicalStatus":{"coding":[{"system":"http://terminology.hl7.org/CodeSystem/condition-clinical","code":"active","display":"Active","userSelected":true}]},"verificationStatus":{"coding":[{"system":"http://terminology.hl7.org/CodeSystem/condition-ver-status","code":"confirmed","display":"Confirmed","userSelected":true}]},"category":[{"coding":[{"system":"http://terminology.hl7.org/CodeSystem/condition-category","code":"problem-list-item","display":"Problem List Item"}]}],"code":{"coding":[{"system":"http://snomed.info/sct","version":"http://snomed.info/sct/731000124108/version/20240401","code":"254900004","display":"Carcinoma of prostate (disorder)","userSelected":true}]},"subject":{"reference":"Patient/75a833a6-8cf4-4ab2-9da5-b650d7c4b8a5"},"onsetPeriod":{"start":"2026-03-03T08:00:00.000+00:00"}},"request":{"method":"PUT","url":"Condition/dceec86e-29bc-4670-ad63-c718de4675e2"}},{"resource":{"resourceType":"ServiceRequest","id":"1930f123-2fac-4161-85db-e24831fa862e","meta":{"profile":["http://hl7.org/fhir/us/qicore/StructureDefinition/qicore-servicerequest"]},"status":"active","intent":"order","code":{"coding":[{"system":"http://snomed.info/sct","code":"456381000124102","display":"Injection of leuprolide acetate for twelve month period (regime/therapy)","userSelected":true}]},"subject":{"reference":"Patient/75a833a6-8cf4-4ab2-9da5-b650d7c4b8a5"},"authoredOn":"2025-09-03T08:00:00.000+00:00"},"request":{"method":"PUT","url":"ServiceRequest/1930f123-2fac-4161-85db-e24831fa862e"}},{"resource":{"resourceType":"MedicationRequest","id":"056c51f1-178f-444a-a4d3-765f178c85ff","meta":{"profile":["http://hl7.org/fhir/us/qicore/StructureDefinition/qicore-medicationrequest"]},"status":"active","intent":"order","medicationCodeableConcept":{"coding":[{"system":"http://www.nlm.nih.gov/research/umls/rxnorm","version":"2025-01","code":"752884","display":"0.375 ML leuprolide acetate 120 MG/ML Prefilled Syringe","userSelected":true}]},"subject":{"reference":"Patient/75a833a6-8cf4-4ab2-9da5-b650d7c4b8a5"},"authoredOn":"2025-09-03T08:00:00.000+00:00","requester":{"reference":"http://myGoodHealthcare.com/fhir/Practitioner/646346"},"dosageInstruction":[{"timing":{"repeat":{"boundsPeriod":{"start":"2025-09-03T08:00:00.000+00:00"}}}}]},"request":{"method":"PUT","url":"MedicationRequest/056c51f1-178f-444a-a4d3-765f178c85ff"}},{"resource":{"resourceType":"Encounter","id":"6d6d7494-f4b6-471a-a65c-61747282b26a","meta":{"profile":["http://hl7.org/fhir/us/qicore/StructureDefinition/qicore-encounter"]},"status":"finished","class":{"system":"http://terminology.hl7.org/CodeSystem/v3-ActCode","code":"AMB","display":"ambulatory"},"type":[{"coding":[{"system":"http://snomed.info/sct","version":"http://snomed.info/sct/731000124108/version/20240401","code":"185463005","display":"Visit out of hours (procedure)","userSelected":true}]}],"subject":{"reference":"Patient/75a833a6-8cf4-4ab2-9da5-b650d7c4b8a5"},"period":{"start":"2026-03-03T08:00:00.000+00:00","end":"2026-03-03T08:15:00.000+00:00"}},"request":{"method":"PUT","url":"Encounter/6d6d7494-f4b6-471a-a65c-61747282b26a"}},{"resource":{"resourceType":"MeasureReport","id":"de532b44-d160-476a-8c9e-e272af332307","meta":{"profile":["http://hl7.org/fhir/us/cqfmeasures/StructureDefinition/test-case-cqfm"]},"contained":[{"resourceType":"Parameters","id":"77c14df1-5713-4806-9a03-2e2d6ceb5ee2-parameters","parameter":[{"name":"subject","valueString":"75a833a6-8cf4-4ab2-9da5-b650d7c4b8a5"}]}],"extension":[{"url":"http://hl7.org/fhir/StructureDefinition/cqf-inputParameters","valueReference":{"reference":"#77c14df1-5713-4806-9a03-2e2d6ceb5ee2-parameters"}},{"url":"http://hl7.org/fhir/us/cqfmeasures/StructureDefinition/cqfm-testCaseDescription","valueMarkdown":"Dx of Prostate Cancer, and Androgen deprivation therapy for Urology Care is not null. ADT greater than 3 months before start of MP. "}],"modifierExtension":[{"url":"http://hl7.org/fhir/us/cqfmeasures/StructureDefinition/cqfm-isTestCase","valueBoolean":true}],"status":"complete","type":"individual","measure":"https://madie.cms.gov/Measure/CMS645FHIRBoneDensityProstateCancerAndrogenDeprivationTherapy","period":{"start":"2026-01-01","end":"2026-12-31"},"group":[{"id":"Group_1","population":[{"id":"InitialPopulation_1","code":{"coding":[{"system":"http://terminology.hl7.org/CodeSystem/measure-population","code":"initial-population","display":"Initial Population"}]},"count":0},{"id":"Denominator_1","code":{"coding":[{"system":"http://terminology.hl7.org/CodeSystem/measure-population","code":"denominator","display":"Denominator"}]},"count":0},{"id":"Numerator_1","code":{"coding":[{"system":"http://terminology.hl7.org/CodeSystem/measure-population","code":"numerator","display":"Numerator"}]},"count":0},{"id":"DenominatorException_1","code":{"coding":[{"system":"http://terminology.hl7.org/CodeSystem/measure-population","code":"denominator-exception","display":"Denominator Exception"}]},"count":0}],"measureScore":{"value":1.0}}],"evaluatedResource":[{"reference":"Patient/75a833a6-8cf4-4ab2-9da5-b650d7c4b8a5"},{"reference":"Encounter/6d6d7494-f4b6-471a-a65c-61747282b26a"},{"reference":"Condition/dceec86e-29bc-4670-ad63-c718de4675e2"},{"reference":"MedicationRequest/056c51f1-178f-444a-a4d3-765f178c85ff"},{"reference":"ServiceRequest/1930f123-2fac-4161-85db-e24831fa862e"}]},"request":{"method":"PUT","url":"MeasureReport/de532b44-d160-476a-8c9e-e272af332307"}},{"resource":{"resourceType":"Patient","id":"75a833a6-8cf4-4ab2-9da5-b650d7c4b8a5","meta":{"profile":["http://hl7.org/fhir/us/qicore/StructureDefinition/qicore-patient"]},"extension":[{"url":"http://hl7.org/fhir/us/core/StructureDefinition/us-core-race","extension":[{"url":"ombCategory","valueCoding":{"system":"urn:oid:2.16.840.1.113883.6.238","code":"1002-5","display":"American Indian or Alaska Native","userSelected":true}},{"url":"text","valueString":"American Indian or Alaska Native"}]},{"url":"http://hl7.org/fhir/us/core/StructureDefinition/us-core-ethnicity","extension":[{"url":"ombCategory","valueCoding":{"system":"urn:oid:2.16.840.1.113883.6.238","code":"2135-2","display":"Hispanic or Latino","userSelected":true}},{"url":"text","valueString":"Hispanic or Latino"}]}],"identifier":[{"type":{"coding":[{"system":"http://terminology.hl7.org/CodeSystem/v2-0203","code":"MR"}]},"system":"https://bonnie-fhir.healthit.gov/","value":"62bb3859e8081f5ef5e199f5"}],"name":[{"family":"DENOMFail","given":["ADTOrderMoreThan3MonthsBeforeMP"]}],"gender":"male","birthDate":"1962-07-19"},"request":{"method":"PUT","url":"Patient/75a833a6-8cf4-4ab2-9da5-b650d7c4b8a5"}},{"resource":{"resourceType":"Bundle","id":"62bb3859e8081f5ef5e199f5","type":"transaction","entry":[{"fullUrl":"https://madie.cms.gov/Patient/75a833a6-8cf4-4ab2-9da5-b650d7c4b8a5","resource":{"resourceType":"Patient","id":"75a833a6-8cf4-4ab2-9da5-b650d7c4b8a5","meta":{"profile":["http://hl7.org/fhir/us/qicore/StructureDefinition/qicore-patient"]},"extension":[{"url":"http://hl7.org/fhir/us/core/StructureDefinition/us-core-race","extension":[{"url":"ombCategory","valueCoding":{"system":"urn:oid:2.16.840.1.113883.6.238","code":"1002-5","display":"American Indian or Alaska Native","userSelected":true}},{"url":"text","valueString":"American Indian or Alaska Native"}]},{"url":"http://hl7.org/fhir/us/core/StructureDefinition/us-core-ethnicity","extension":[{"url":"ombCategory","valueCoding":{"system":"urn:oid:2.16.840.1.113883.6.238","code":"2135-2","display":"Hispanic or Latino","userSelected":true}},{"url":"text","valueString":"Hispanic or Latino"}]}],"identifier":[{"type":{"coding":[{"system":"http://terminology.hl7.org/CodeSystem/v2-0203","code":"MR"}]},"system":"https://bonnie-fhir.healthit.gov/","value":"62bb3859e8081f5ef5e199f5"}],"name":[{"family":"DENOMFail","given":["ADTOrderMoreThan3MonthsBeforeMP"]}],"gender":"male","birthDate":"1962-07-19"},"request":{"method":"PUT","url":"Patient/75a833a6-8cf4-4ab2-9da5-b650d7c4b8a5"}},{"fullUrl":"https://madie.cms.gov/Encounter/6d6d7494-f4b6-471a-a65c-61747282b26a","resource":{"resourceType":"Encounter","id":"6d6d7494-f4b6-471a-a65c-61747282b26a","meta":{"profile":["http://hl7.org/fhir/us/qicore/StructureDefinition/qicore-encounter"]},"status":"finished","class":{"system":"http://terminology.hl7.org/CodeSystem/v3-ActCode","code":"AMB","display":"ambulatory"},"type":[{"coding":[{"system":"http://snomed.info/sct","version":"http://snomed.info/sct/731000124108/version/20240401","code":"185463005","display":"Visit out of hours (procedure)","userSelected":true}]}],"subject":{"reference":"Patient/75a833a6-8cf4-4ab2-9da5-b650d7c4b8a5"},"period":{"start":"2026-03-03T08:00:00.000+00:00","end":"2026-03-03T08:15:00.000+00:00"}},"request":{"method":"PUT","url":"Encounter/6d6d7494-f4b6-471a-a65c-61747282b26a"}},{"fullUrl":"https://madie.cms.gov/Condition/dceec86e-29bc-4670-ad63-c718de4675e2","resource":{"resourceType":"Condition","id":"dceec86e-29bc-4670-ad63-c718de4675e2","meta":{"profile":["http://hl7.org/fhir/us/qicore/StructureDefinition/qicore-condition-problems-health-concerns"]},"clinicalStatus":{"coding":[{"system":"http://terminology.hl7.org/CodeSystem/condition-clinical","code":"active","display":"Active","userSelected":true}]},"verificationStatus":{"coding":[{"system":"http://terminology.hl7.org/CodeSystem/condition-ver-status","code":"confirmed","display":"Confirmed","userSelected":true}]},"category":[{"coding":[{"system":"http://terminology.hl7.org/CodeSystem/condition-category","code":"problem-list-item","display":"Problem List Item"}]}],"code":{"coding":[{"system":"http://snomed.info/sct","version":"http://snomed.info/sct/731000124108/version/20240401","code":"254900004","display":"Carcinoma of prostate (disorder)","userSelected":true}]},"subject":{"reference":"Patient/75a833a6-8cf4-4ab2-9da5-b650d7c4b8a5"},"onsetPeriod":{"start":"2026-03-03T08:00:00.000+00:00"}},"request":{"method":"PUT","url":"Condition/dceec86e-29bc-4670-ad63-c718de4675e2"}},{"fullUrl":"https://madie.cms.gov/MedicationRequest/056c51f1-178f-444a-a4d3-765f178c85ff","resource":{"resourceType":"MedicationRequest","id":"056c51f1-178f-444a-a4d3-765f178c85ff","meta":{"profile":["http://hl7.org/fhir/us/qicore/StructureDefinition/qicore-medicationrequest"]},"status":"active","intent":"order","medicationCodeableConcept":{"coding":[{"system":"http://www.nlm.nih.gov/research/umls/rxnorm","version":"2025-01","code":"752884","display":"0.375 ML leuprolide acetate 120 MG/ML Prefilled Syringe","userSelected":true}]},"subject":{"reference":"Patient/75a833a6-8cf4-4ab2-9da5-b650d7c4b8a5"},"authoredOn":"2025-09-03T08:00:00.000+00:00","requester":{"reference":"http://myGoodHealthcare.com/fhir/Practitioner/646346"},"dosageInstruction":[{"timing":{"repeat":{"boundsPeriod":{"start":"2025-09-03T08:00:00.000+00:00"}}}}]},"request":{"method":"PUT","url":"MedicationRequest/056c51f1-178f-444a-a4d3-765f178c85ff"}},{"fullUrl":"https://madie.cms.gov/ServiceRequest/1930f123-2fac-4161-85db-e24831fa862e","resource":{"resourceType":"ServiceRequest","id":"1930f123-2fac-4161-85db-e24831fa862e","meta":{"profile":["http://hl7.org/fhir/us/qicore/StructureDefinition/qicore-servicerequest"]},"status":"active","intent":"order","code":{"coding":[{"system":"http://snomed.info/sct","code":"456381000124102","display":"Injection of leuprolide acetate for twelve month period (regime/therapy)","userSelected":true}]},"subject":{"reference":"Patient/75a833a6-8cf4-4ab2-9da5-b650d7c4b8a5"},"authoredOn":"2025-09-03T08:00:00.000+00:00"},"request":{"method":"PUT","url":"ServiceRequest/1930f123-2fac-4161-85db-e24831fa862e"}},{"fullUrl":"https://madie.cms.gov/MeasureReport/de532b44-d160-476a-8c9e-e272af332307","resource":{"resourceType":"MeasureReport","id":"de532b44-d160-476a-8c9e-e272af332307","meta":{"profile":["http://hl7.org/fhir/us/cqfmeasures/StructureDefinition/test-case-cqfm"]},"contained":[{"resourceType":"Parameters","id":"77c14df1-5713-4806-9a03-2e2d6ceb5ee2-parameters","parameter":[{"name":"subject","valueString":"75a833a6-8cf4-4ab2-9da5-b650d7c4b8a5"}]}],"extension":[{"url":"http://hl7.org/fhir/StructureDefinition/cqf-inputParameters","valueReference":{"reference":"#77c14df1-5713-4806-9a03-2e2d6ceb5ee2-parameters"}},{"url":"http://hl7.org/fhir/us/cqfmeasures/StructureDefinition/cqfm-testCaseDescription","valueMarkdown":"Dx of Prostate Cancer, and Androgen deprivation therapy for Urology Care is not null. ADT greater than 3 months before start of MP. "}],"modifierExtension":[{"url":"http://hl7.org/fhir/us/cqfmeasures/StructureDefinition/cqfm-isTestCase","valueBoolean":true}],"status":"complete","type":"individual","measure":"https://madie.cms.gov/Measure/CMS645FHIRBoneDensityProstateCancerAndrogenDeprivationTherapy","period":{"start":"2026-01-01","end":"2026-12-31"},"group":[{"id":"Group_1","population":[{"id":"InitialPopulation_1","code":{"coding":[{"system":"http://terminology.hl7.org/CodeSystem/measure-population","code":"initial-population","display":"Initial Population"}]},"count":0},{"id":"Denominator_1","code":{"coding":[{"system":"http://terminology.hl7.org/CodeSystem/measure-population","code":"denominator","display":"Denominator"}]},"count":0},{"id":"Numerator_1","code":{"coding":[{"system":"http://terminology.hl7.org/CodeSystem/measure-population","code":"numerator","display":"Numerator"}]},"count":0},{"id":"DenominatorException_1","code":{"coding":[{"system":"http://terminology.hl7.org/CodeSystem/measure-population","code":"denominator-exception","display":"Denominator Exception"}]},"count":0}],"measureScore":{"value":1.0}}],"evaluatedResource":[{"reference":"Patient/75a833a6-8cf4-4ab2-9da5-b650d7c4b8a5"},{"reference":"Encounter/6d6d7494-f4b6-471a-a65c-61747282b26a"},{"reference":"Condition/dceec86e-29bc-4670-ad63-c718de4675e2"},{"reference":"MedicationRequest/056c51f1-178f-444a-a4d3-765f178c85ff"},{"reference":"ServiceRequest/1930f123-2fac-4161-85db-e24831fa862e"}]},"request":{"method":"PUT","url":"MeasureReport/de532b44-d160-476a-8c9e-e272af332307"}}]},"request":{"method":"PUT","url":"Bundle/62bb3859e8081f5ef5e199f5"}}]}