{"resourceType":"Bundle","id":"tests-92e567b3-9d68-4c50-9be6-36e0ca7b96f5-bundle","type":"transaction","entry":[{"resource":{"resourceType":"ServiceRequest","id":"31b3c538-0eec-4b85-bd7b-3bd6c537bbcf","meta":{"profile":["http://hl7.org/fhir/us/qicore/StructureDefinition/qicore-servicerequest"]},"status":"active","intent":"order","code":{"coding":[{"system":"http://snomed.info/sct","code":"456381000124102","display":"Injection of leuprolide acetate for twelve month period (regime/therapy)","userSelected":true}]},"subject":{"reference":"Patient/92e567b3-9d68-4c50-9be6-36e0ca7b96f5"},"authoredOn":"2026-02-01T08:00:00.000+00:00"},"request":{"method":"PUT","url":"ServiceRequest/31b3c538-0eec-4b85-bd7b-3bd6c537bbcf"}},{"resource":{"resourceType":"Observation","id":"57239ace-c352-4da6-be14-ff2eb617a974","meta":{"profile":["http://hl7.org/fhir/us/qicore/StructureDefinition/qicore-observation-lab"]},"status":"final","category":[{"coding":[{"system":"http://terminology.hl7.org/CodeSystem/observation-category","code":"imaging","display":"Imaging"}]}],"code":{"coding":[{"system":"http://loinc.org","version":"2.71","code":"38265-5","display":"DXA Radius and Ulna [T-score] Bone density","userSelected":true}]},"subject":{"reference":"Patient/92e567b3-9d68-4c50-9be6-36e0ca7b96f5"},"effectivePeriod":{"start":"2026-05-03T08:00:00.000+00:00","end":"2026-05-03T08:15:00.000+00:00"}},"request":{"method":"PUT","url":"Observation/57239ace-c352-4da6-be14-ff2eb617a974"}},{"resource":{"resourceType":"Patient","id":"92e567b3-9d68-4c50-9be6-36e0ca7b96f5","meta":{"profile":["http://hl7.org/fhir/us/qicore/StructureDefinition/qicore-patient"]},"extension":[{"url":"http://hl7.org/fhir/us/core/StructureDefinition/us-core-race","extension":[{"url":"ombCategory","valueCoding":{"system":"urn:oid:2.16.840.1.113883.6.238","code":"2054-5","display":"Black or African American","userSelected":true}},{"url":"text","valueString":"Black or African American"}]},{"url":"http://hl7.org/fhir/us/core/StructureDefinition/us-core-ethnicity","extension":[{"url":"ombCategory","valueCoding":{"system":"urn:oid:2.16.840.1.113883.6.238","code":"2135-2","display":"Hispanic or Latino","userSelected":true}},{"url":"text","valueString":"Hispanic or Latino"}]},{"url":"http://hl7.org/fhir/us/core/StructureDefinition/us-core-sex","valueCode":"248152002"}],"identifier":[{"type":{"coding":[{"system":"http://terminology.hl7.org/CodeSystem/v2-0203","code":"MR"}]},"system":"https://bonnie-fhir.healthit.gov/","value":"6077319098086b6fb8f00ab2"}],"active":true,"name":[{"use":"usual","family":"NUMERPass","given":["PtDeceasedInMP"]}],"gender":"female","birthDate":"1942-07-04","deceasedDateTime":"2014-09-01T08:00:00.000Z"},"request":{"method":"PUT","url":"Patient/92e567b3-9d68-4c50-9be6-36e0ca7b96f5"}},{"resource":{"resourceType":"MedicationRequest","id":"24ab594d-2f7f-47bc-b3af-1aec2288eadb","meta":{"profile":["http://hl7.org/fhir/us/qicore/StructureDefinition/qicore-medicationrequest"]},"status":"active","intent":"order","doNotPerform":false,"medicationCodeableConcept":{"coding":[{"system":"http://www.nlm.nih.gov/research/umls/rxnorm","code":"1946519"}]},"subject":{"reference":"Patient/92e567b3-9d68-4c50-9be6-36e0ca7b96f5"},"authoredOn":"2026-02-01T08:00:00.000+00:00","requester":{"reference":"http://myGoodHealthcare.com/fhir/Practitioner/2cd9131f-3299-4ad2-a5f2-d604ce32dfd4"},"dosageInstruction":[{"timing":{"repeat":{"boundsPeriod":{"start":"2026-02-01T08:00:00.000+00:00","end":"2026-03-01T08:15:00.000+00:00"}}}}]},"request":{"method":"PUT","url":"MedicationRequest/24ab594d-2f7f-47bc-b3af-1aec2288eadb"}},{"resource":{"resourceType":"Encounter","id":"e4114eeb-ca27-4eda-b935-0b584bb3c160","meta":{"profile":["http://hl7.org/fhir/us/qicore/StructureDefinition/qicore-encounter"]},"status":"finished","class":{"system":"http://terminology.hl7.org/CodeSystem/v3-ActCode","code":"AMB","display":"ambulatory"},"type":[{"coding":[{"system":"http://www.ama-assn.org/go/cpt","code":"99203"}]}],"subject":{"reference":"Patient/92e567b3-9d68-4c50-9be6-36e0ca7b96f5"},"period":{"start":"2026-02-01T08:00:00+00:00","end":"2026-02-01T08:15:00+00:00"}},"request":{"method":"PUT","url":"Encounter/e4114eeb-ca27-4eda-b935-0b584bb3c160"}},{"resource":{"resourceType":"ServiceRequest","id":"3b0fa32b-3ee3-4051-9618-95a66ebd6430","meta":{"profile":["http://hl7.org/fhir/us/qicore/StructureDefinition/qicore-servicerequest"]},"status":"active","intent":"order","code":{"coding":[{"system":"http://loinc.org","version":"2.71","code":"38265-5","display":"DXA Radius and Ulna [T-score] Bone density","userSelected":true}]},"subject":{"reference":"Patient/92e567b3-9d68-4c50-9be6-36e0ca7b96f5"},"authoredOn":"2026-03-03T08:00:00.000+00:00"},"request":{"method":"PUT","url":"ServiceRequest/3b0fa32b-3ee3-4051-9618-95a66ebd6430"}},{"resource":{"resourceType":"MeasureReport","id":"fe9205ec-76c2-4150-946d-3a5c06167df9","meta":{"profile":["http://hl7.org/fhir/us/cqfmeasures/StructureDefinition/test-case-cqfm"]},"contained":[{"resourceType":"Parameters","id":"d961d437-e999-48b6-86ce-536383d83d9b-parameters","parameter":[{"name":"subject","valueString":"92e567b3-9d68-4c50-9be6-36e0ca7b96f5"}]}],"extension":[{"url":"http://hl7.org/fhir/StructureDefinition/cqf-inputParameters","valueReference":{"reference":"#d961d437-e999-48b6-86ce-536383d83d9b-parameters"}},{"url":"http://hl7.org/fhir/us/cqfmeasures/StructureDefinition/cqfm-testCaseDescription","valueMarkdown":"Patient has dx of Prostate Cancer, and Androgen deprivation therapy for Urology Care is not null with qualifying encounter(s) in MP.  Passes NUMER criteria.  Pt Deceased during MP.  "}],"modifierExtension":[{"url":"http://hl7.org/fhir/us/cqfmeasures/StructureDefinition/cqfm-isTestCase","valueBoolean":true}],"status":"complete","type":"individual","measure":"https://madie.cms.gov/Measure/CMS645FHIRBoneDensityProstateCancerAndrogenDeprivationTherapy","period":{"start":"2026-01-01","end":"2026-12-31"},"group":[{"id":"Group_1","population":[{"id":"InitialPopulation_1","code":{"coding":[{"system":"http://terminology.hl7.org/CodeSystem/measure-population","code":"initial-population","display":"Initial Population"}]},"count":1},{"id":"Denominator_1","code":{"coding":[{"system":"http://terminology.hl7.org/CodeSystem/measure-population","code":"denominator","display":"Denominator"}]},"count":1},{"id":"Numerator_1","code":{"coding":[{"system":"http://terminology.hl7.org/CodeSystem/measure-population","code":"numerator","display":"Numerator"}]},"count":1},{"id":"DenominatorException_1","code":{"coding":[{"system":"http://terminology.hl7.org/CodeSystem/measure-population","code":"denominator-exception","display":"Denominator Exception"}]},"count":0}],"measureScore":{"value":1.0}}],"evaluatedResource":[{"reference":"Patient/92e567b3-9d68-4c50-9be6-36e0ca7b96f5"},{"reference":"Encounter/e4114eeb-ca27-4eda-b935-0b584bb3c160"},{"reference":"Condition/276966aa-d1e2-4bee-961a-f2b1cbeaa634"},{"reference":"MedicationRequest/24ab594d-2f7f-47bc-b3af-1aec2288eadb"},{"reference":"Practitioner/2cd9131f-3299-4ad2-a5f2-d604ce32dfd4"},{"reference":"ServiceRequest/3b0fa32b-3ee3-4051-9618-95a66ebd6430"},{"reference":"Observation/57239ace-c352-4da6-be14-ff2eb617a974"},{"reference":"ServiceRequest/31b3c538-0eec-4b85-bd7b-3bd6c537bbcf"}]},"request":{"method":"PUT","url":"MeasureReport/fe9205ec-76c2-4150-946d-3a5c06167df9"}},{"resource":{"resourceType":"Bundle","id":"6077319098086b6fb8f00ab2","type":"transaction","entry":[{"fullUrl":"https://madie.cms.gov/Patient/92e567b3-9d68-4c50-9be6-36e0ca7b96f5","resource":{"resourceType":"Patient","id":"92e567b3-9d68-4c50-9be6-36e0ca7b96f5","meta":{"profile":["http://hl7.org/fhir/us/qicore/StructureDefinition/qicore-patient"]},"extension":[{"url":"http://hl7.org/fhir/us/core/StructureDefinition/us-core-race","extension":[{"url":"ombCategory","valueCoding":{"system":"urn:oid:2.16.840.1.113883.6.238","code":"2054-5","display":"Black or African American","userSelected":true}},{"url":"text","valueString":"Black or African American"}]},{"url":"http://hl7.org/fhir/us/core/StructureDefinition/us-core-ethnicity","extension":[{"url":"ombCategory","valueCoding":{"system":"urn:oid:2.16.840.1.113883.6.238","code":"2135-2","display":"Hispanic or Latino","userSelected":true}},{"url":"text","valueString":"Hispanic or Latino"}]},{"url":"http://hl7.org/fhir/us/core/StructureDefinition/us-core-sex","valueCode":"248152002"}],"identifier":[{"type":{"coding":[{"system":"http://terminology.hl7.org/CodeSystem/v2-0203","code":"MR"}]},"system":"https://bonnie-fhir.healthit.gov/","value":"6077319098086b6fb8f00ab2"}],"active":true,"name":[{"use":"usual","family":"NUMERPass","given":["PtDeceasedInMP"]}],"gender":"female","birthDate":"1942-07-04","deceasedDateTime":"2014-09-01T08:00:00.000Z"},"request":{"method":"PUT","url":"Patient/92e567b3-9d68-4c50-9be6-36e0ca7b96f5"}},{"fullUrl":"https://madie.cms.gov/Encounter/e4114eeb-ca27-4eda-b935-0b584bb3c160","resource":{"resourceType":"Encounter","id":"e4114eeb-ca27-4eda-b935-0b584bb3c160","meta":{"profile":["http://hl7.org/fhir/us/qicore/StructureDefinition/qicore-encounter"]},"status":"finished","class":{"system":"http://terminology.hl7.org/CodeSystem/v3-ActCode","code":"AMB","display":"ambulatory"},"type":[{"coding":[{"system":"http://www.ama-assn.org/go/cpt","code":"99203"}]}],"subject":{"reference":"Patient/92e567b3-9d68-4c50-9be6-36e0ca7b96f5"},"period":{"start":"2026-02-01T08:00:00+00:00","end":"2026-02-01T08:15:00+00:00"}},"request":{"method":"PUT","url":"Encounter/e4114eeb-ca27-4eda-b935-0b584bb3c160"}},{"fullUrl":"https://madie.cms.gov/Condition/276966aa-d1e2-4bee-961a-f2b1cbeaa634","resource":{"resourceType":"Condition","id":"276966aa-d1e2-4bee-961a-f2b1cbeaa634","meta":{"profile":["http://hl7.org/fhir/us/qicore/StructureDefinition/qicore-condition-problems-health-concerns"]},"clinicalStatus":{"coding":[{"system":"http://terminology.hl7.org/CodeSystem/condition-clinical","code":"active"}]},"verificationStatus":{"coding":[{"system":"http://terminology.hl7.org/CodeSystem/condition-ver-status","code":"confirmed"}]},"category":[{"coding":[{"system":"http://terminology.hl7.org/CodeSystem/condition-category","code":"problem-list-item","display":"Problem List Item"}]}],"code":{"coding":[{"system":"http://hl7.org/fhir/sid/icd-10-cm","code":"C61"}]},"subject":{"reference":"Patient/92e567b3-9d68-4c50-9be6-36e0ca7b96f5"},"onsetPeriod":{"start":"2026-02-01T08:00:00+00:00"}},"request":{"method":"PUT","url":"Condition/276966aa-d1e2-4bee-961a-f2b1cbeaa634"}},{"fullUrl":"https://madie.cms.gov/MedicationRequest/24ab594d-2f7f-47bc-b3af-1aec2288eadb","resource":{"resourceType":"MedicationRequest","id":"24ab594d-2f7f-47bc-b3af-1aec2288eadb","meta":{"profile":["http://hl7.org/fhir/us/qicore/StructureDefinition/qicore-medicationrequest"]},"status":"active","intent":"order","doNotPerform":false,"medicationCodeableConcept":{"coding":[{"system":"http://www.nlm.nih.gov/research/umls/rxnorm","code":"1946519"}]},"subject":{"reference":"Patient/92e567b3-9d68-4c50-9be6-36e0ca7b96f5"},"authoredOn":"2026-02-01T08:00:00.000+00:00","requester":{"reference":"http://myGoodHealthcare.com/fhir/Practitioner/2cd9131f-3299-4ad2-a5f2-d604ce32dfd4"},"dosageInstruction":[{"timing":{"repeat":{"boundsPeriod":{"start":"2026-02-01T08:00:00.000+00:00","end":"2026-03-01T08:15:00.000+00:00"}}}}]},"request":{"method":"PUT","url":"MedicationRequest/24ab594d-2f7f-47bc-b3af-1aec2288eadb"}},{"fullUrl":"https://madie.cms.gov/Practitioner/2cd9131f-3299-4ad2-a5f2-d604ce32dfd4","resource":{"resourceType":"Practitioner","id":"2cd9131f-3299-4ad2-a5f2-d604ce32dfd4","meta":{"profile":["http://hl7.org/fhir/us/qicore/StructureDefinition/qicore-practitioner"]},"identifier":[{"use":"temp","system":"urn:oid:2.16.840.1.113883.4.336","value":"Practitioner-23"}],"active":true,"name":[{"family":"Careful","given":["Adam"],"prefix":["Dr"]}],"address":[{"use":"home","line":["534 Erewhon St"],"city":"PleasantVille","state":"UT","postalCode":"84414"}],"qualification":[{"identifier":[{"system":"http://example.org/UniversityIdentifier","value":"12345"}],"code":{"coding":[{"system":"http://terminology.hl7.org/CodeSystem/v2-0360|2.7","code":"BS","display":"Bachelor of Science"}],"text":"Bachelor of Science"},"period":{"start":"1996"},"issuer":{"display":"Example University"}}]},"request":{"method":"PUT","url":"Practitioner/2cd9131f-3299-4ad2-a5f2-d604ce32dfd4"}},{"fullUrl":"https://madie.cms.gov/ServiceRequest/3b0fa32b-3ee3-4051-9618-95a66ebd6430","resource":{"resourceType":"ServiceRequest","id":"3b0fa32b-3ee3-4051-9618-95a66ebd6430","meta":{"profile":["http://hl7.org/fhir/us/qicore/StructureDefinition/qicore-servicerequest"]},"status":"active","intent":"order","code":{"coding":[{"system":"http://loinc.org","version":"2.71","code":"38265-5","display":"DXA Radius and Ulna [T-score] Bone density","userSelected":true}]},"subject":{"reference":"Patient/92e567b3-9d68-4c50-9be6-36e0ca7b96f5"},"authoredOn":"2026-03-03T08:00:00.000+00:00"},"request":{"method":"PUT","url":"ServiceRequest/3b0fa32b-3ee3-4051-9618-95a66ebd6430"}},{"fullUrl":"https://madie.cms.gov/Observation/57239ace-c352-4da6-be14-ff2eb617a974","resource":{"resourceType":"Observation","id":"57239ace-c352-4da6-be14-ff2eb617a974","meta":{"profile":["http://hl7.org/fhir/us/qicore/StructureDefinition/qicore-observation-lab"]},"status":"final","category":[{"coding":[{"system":"http://terminology.hl7.org/CodeSystem/observation-category","code":"imaging","display":"Imaging"}]}],"code":{"coding":[{"system":"http://loinc.org","version":"2.71","code":"38265-5","display":"DXA Radius and Ulna [T-score] Bone density","userSelected":true}]},"subject":{"reference":"Patient/92e567b3-9d68-4c50-9be6-36e0ca7b96f5"},"effectivePeriod":{"start":"2026-05-03T08:00:00.000+00:00","end":"2026-05-03T08:15:00.000+00:00"}},"request":{"method":"PUT","url":"Observation/57239ace-c352-4da6-be14-ff2eb617a974"}},{"fullUrl":"https://madie.cms.gov/ServiceRequest/31b3c538-0eec-4b85-bd7b-3bd6c537bbcf","resource":{"resourceType":"ServiceRequest","id":"31b3c538-0eec-4b85-bd7b-3bd6c537bbcf","meta":{"profile":["http://hl7.org/fhir/us/qicore/StructureDefinition/qicore-servicerequest"]},"status":"active","intent":"order","code":{"coding":[{"system":"http://snomed.info/sct","code":"456381000124102","display":"Injection of leuprolide acetate for twelve month period (regime/therapy)","userSelected":true}]},"subject":{"reference":"Patient/92e567b3-9d68-4c50-9be6-36e0ca7b96f5"},"authoredOn":"2026-02-01T08:00:00.000+00:00"},"request":{"method":"PUT","url":"ServiceRequest/31b3c538-0eec-4b85-bd7b-3bd6c537bbcf"}},{"fullUrl":"https://madie.cms.gov/MeasureReport/fe9205ec-76c2-4150-946d-3a5c06167df9","resource":{"resourceType":"MeasureReport","id":"fe9205ec-76c2-4150-946d-3a5c06167df9","meta":{"profile":["http://hl7.org/fhir/us/cqfmeasures/StructureDefinition/test-case-cqfm"]},"contained":[{"resourceType":"Parameters","id":"d961d437-e999-48b6-86ce-536383d83d9b-parameters","parameter":[{"name":"subject","valueString":"92e567b3-9d68-4c50-9be6-36e0ca7b96f5"}]}],"extension":[{"url":"http://hl7.org/fhir/StructureDefinition/cqf-inputParameters","valueReference":{"reference":"#d961d437-e999-48b6-86ce-536383d83d9b-parameters"}},{"url":"http://hl7.org/fhir/us/cqfmeasures/StructureDefinition/cqfm-testCaseDescription","valueMarkdown":"Patient has dx of Prostate Cancer, and Androgen deprivation therapy for Urology Care is not null with qualifying encounter(s) in MP.  Passes NUMER criteria.  Pt Deceased during MP.  "}],"modifierExtension":[{"url":"http://hl7.org/fhir/us/cqfmeasures/StructureDefinition/cqfm-isTestCase","valueBoolean":true}],"status":"complete","type":"individual","measure":"https://madie.cms.gov/Measure/CMS645FHIRBoneDensityProstateCancerAndrogenDeprivationTherapy","period":{"start":"2026-01-01","end":"2026-12-31"},"group":[{"id":"Group_1","population":[{"id":"InitialPopulation_1","code":{"coding":[{"system":"http://terminology.hl7.org/CodeSystem/measure-population","code":"initial-population","display":"Initial Population"}]},"count":1},{"id":"Denominator_1","code":{"coding":[{"system":"http://terminology.hl7.org/CodeSystem/measure-population","code":"denominator","display":"Denominator"}]},"count":1},{"id":"Numerator_1","code":{"coding":[{"system":"http://terminology.hl7.org/CodeSystem/measure-population","code":"numerator","display":"Numerator"}]},"count":1},{"id":"DenominatorException_1","code":{"coding":[{"system":"http://terminology.hl7.org/CodeSystem/measure-population","code":"denominator-exception","display":"Denominator Exception"}]},"count":0}],"measureScore":{"value":1.0}}],"evaluatedResource":[{"reference":"Patient/92e567b3-9d68-4c50-9be6-36e0ca7b96f5"},{"reference":"Encounter/e4114eeb-ca27-4eda-b935-0b584bb3c160"},{"reference":"Condition/276966aa-d1e2-4bee-961a-f2b1cbeaa634"},{"reference":"MedicationRequest/24ab594d-2f7f-47bc-b3af-1aec2288eadb"},{"reference":"Practitioner/2cd9131f-3299-4ad2-a5f2-d604ce32dfd4"},{"reference":"ServiceRequest/3b0fa32b-3ee3-4051-9618-95a66ebd6430"},{"reference":"Observation/57239ace-c352-4da6-be14-ff2eb617a974"},{"reference":"ServiceRequest/31b3c538-0eec-4b85-bd7b-3bd6c537bbcf"}]},"request":{"method":"PUT","url":"MeasureReport/fe9205ec-76c2-4150-946d-3a5c06167df9"}}]},"request":{"method":"PUT","url":"Bundle/6077319098086b6fb8f00ab2"}},{"resource":{"resourceType":"Practitioner","id":"2cd9131f-3299-4ad2-a5f2-d604ce32dfd4","meta":{"profile":["http://hl7.org/fhir/us/qicore/StructureDefinition/qicore-practitioner"]},"identifier":[{"use":"temp","system":"urn:oid:2.16.840.1.113883.4.336","value":"Practitioner-23"}],"active":true,"name":[{"family":"Careful","given":["Adam"],"prefix":["Dr"]}],"address":[{"use":"home","line":["534 Erewhon St"],"city":"PleasantVille","state":"UT","postalCode":"84414"}],"qualification":[{"identifier":[{"system":"http://example.org/UniversityIdentifier","value":"12345"}],"code":{"coding":[{"system":"http://terminology.hl7.org/CodeSystem/v2-0360|2.7","code":"BS","display":"Bachelor of Science"}],"text":"Bachelor of Science"},"period":{"start":"1996"},"issuer":{"display":"Example University"}}]},"request":{"method":"PUT","url":"Practitioner/2cd9131f-3299-4ad2-a5f2-d604ce32dfd4"}},{"resource":{"resourceType":"Condition","id":"276966aa-d1e2-4bee-961a-f2b1cbeaa634","meta":{"profile":["http://hl7.org/fhir/us/qicore/StructureDefinition/qicore-condition-problems-health-concerns"]},"clinicalStatus":{"coding":[{"system":"http://terminology.hl7.org/CodeSystem/condition-clinical","code":"active"}]},"verificationStatus":{"coding":[{"system":"http://terminology.hl7.org/CodeSystem/condition-ver-status","code":"confirmed"}]},"category":[{"coding":[{"system":"http://terminology.hl7.org/CodeSystem/condition-category","code":"problem-list-item","display":"Problem List Item"}]}],"code":{"coding":[{"system":"http://hl7.org/fhir/sid/icd-10-cm","code":"C61"}]},"subject":{"reference":"Patient/92e567b3-9d68-4c50-9be6-36e0ca7b96f5"},"onsetPeriod":{"start":"2026-02-01T08:00:00+00:00"}},"request":{"method":"PUT","url":"Condition/276966aa-d1e2-4bee-961a-f2b1cbeaa634"}}]}