{"resourceType":"Bundle","id":"tests-d07cf359-d46c-4adf-b2d4-e02a2f43b78e-bundle","type":"transaction","entry":[{"resource":{"resourceType":"ServiceRequest","id":"e01f4c86-9025-4ceb-a890-21834fda2954","meta":{"profile":["http://hl7.org/fhir/us/qicore/StructureDefinition/qicore-servicenotrequested"]},"extension":[{"url":"http://hl7.org/fhir/us/qicore/StructureDefinition/qicore-doNotPerformReason","valueCodeableConcept":{"coding":[{"system":"http://snomed.info/sct","code":"105480006","display":"Refusal of treatment by patient (situation)","userSelected":true}]}}],"status":"completed","intent":"order","doNotPerform":true,"code":{"coding":[{"system":"http://loinc.org","version":"2.71","code":"38265-5","display":"DXA Radius and Ulna [T-score] Bone density","userSelected":true}]},"subject":{"reference":"Patient/d07cf359-d46c-4adf-b2d4-e02a2f43b78e"},"authoredOn":"2026-04-06T08:00:00.000+00:00"},"request":{"method":"PUT","url":"ServiceRequest/e01f4c86-9025-4ceb-a890-21834fda2954"}},{"resource":{"resourceType":"Practitioner","id":"b8e0cf7e-621e-47ba-9ef6-540fb700225c","meta":{"profile":["http://hl7.org/fhir/us/qicore/StructureDefinition/qicore-practitioner"]},"identifier":[{"use":"temp","system":"urn:oid:2.16.840.1.113883.4.336","value":"Practitioner-23"}],"active":true,"name":[{"family":"Careful","given":["Adam"],"prefix":["Dr"]}],"address":[{"use":"home","line":["534 Erewhon St"],"city":"PleasantVille","state":"UT","postalCode":"84414"}],"qualification":[{"identifier":[{"system":"http://example.org/UniversityIdentifier","value":"12345"}],"code":{"coding":[{"system":"http://terminology.hl7.org/CodeSystem/v2-0360|2.7","code":"BS","display":"Bachelor of Science"}],"text":"Bachelor of Science"},"period":{"start":"1996"},"issuer":{"display":"Example University"}}]},"request":{"method":"PUT","url":"Practitioner/b8e0cf7e-621e-47ba-9ef6-540fb700225c"}},{"resource":{"resourceType":"Condition","id":"6a0b5fc9-1877-46a7-9526-a2fed106bb59","meta":{"profile":["http://hl7.org/fhir/us/qicore/StructureDefinition/qicore-condition-problems-health-concerns"]},"clinicalStatus":{"coding":[{"system":"http://terminology.hl7.org/CodeSystem/condition-clinical","code":"active"}]},"verificationStatus":{"coding":[{"system":"http://terminology.hl7.org/CodeSystem/condition-ver-status","code":"confirmed"}]},"category":[{"coding":[{"system":"http://terminology.hl7.org/CodeSystem/condition-category","code":"problem-list-item","display":"Problem List Item"}]}],"code":{"coding":[{"system":"http://snomed.info/sct","version":"2021-09","code":"254900004","display":"Carcinoma of prostate (disorder)","userSelected":true}]},"subject":{"reference":"Patient/d07cf359-d46c-4adf-b2d4-e02a2f43b78e"},"onsetPeriod":{"start":"2026-04-04T08:00:00.000+00:00"}},"request":{"method":"PUT","url":"Condition/6a0b5fc9-1877-46a7-9526-a2fed106bb59"}},{"resource":{"resourceType":"Patient","id":"d07cf359-d46c-4adf-b2d4-e02a2f43b78e","meta":{"profile":["http://hl7.org/fhir/us/qicore/StructureDefinition/qicore-patient"]},"extension":[{"url":"http://hl7.org/fhir/us/core/StructureDefinition/us-core-race","extension":[{"url":"ombCategory","valueCoding":{"system":"urn:oid:2.16.840.1.113883.6.238","code":"2028-9","display":"Asian","userSelected":true}},{"url":"text","valueString":"Asian"}]},{"url":"http://hl7.org/fhir/us/core/StructureDefinition/us-core-ethnicity","extension":[{"url":"ombCategory","valueCoding":{"system":"urn:oid:2.16.840.1.113883.6.238","code":"2186-5","display":"Not Hispanic or Latino","userSelected":true}},{"url":"text","valueString":"Not Hispanic or Latino"}]}],"identifier":[{"type":{"coding":[{"system":"http://terminology.hl7.org/CodeSystem/v2-0203","code":"MR"}]},"system":"https://bonnie-fhir.healthit.gov/","value":"60d4d72c410233651461d7bd"}],"name":[{"family":"DENEXCEPPass","given":["DEXANotPerformedPtRefused"]}],"gender":"male","birthDate":"1934-12-15"},"request":{"method":"PUT","url":"Patient/d07cf359-d46c-4adf-b2d4-e02a2f43b78e"}},{"resource":{"resourceType":"ServiceRequest","id":"83d87b86-75bb-4131-aad2-9167a52bd300","meta":{"profile":["http://hl7.org/fhir/us/qicore/StructureDefinition/qicore-servicerequest"]},"status":"active","intent":"order","code":{"coding":[{"system":"http://snomed.info/sct","code":"456381000124102","display":"Injection of leuprolide acetate for twelve month period (regime/therapy)","userSelected":true}]},"subject":{"reference":"Patient/d07cf359-d46c-4adf-b2d4-e02a2f43b78e"},"authoredOn":"2026-04-04T08:00:00.000+00:00"},"request":{"method":"PUT","url":"ServiceRequest/83d87b86-75bb-4131-aad2-9167a52bd300"}},{"resource":{"resourceType":"Bundle","id":"13546451asdf3513541654FF","type":"transaction","entry":[{"fullUrl":"https://madie.cms.gov/Patient/d07cf359-d46c-4adf-b2d4-e02a2f43b78e","resource":{"resourceType":"Patient","id":"d07cf359-d46c-4adf-b2d4-e02a2f43b78e","meta":{"profile":["http://hl7.org/fhir/us/qicore/StructureDefinition/qicore-patient"]},"extension":[{"url":"http://hl7.org/fhir/us/core/StructureDefinition/us-core-race","extension":[{"url":"ombCategory","valueCoding":{"system":"urn:oid:2.16.840.1.113883.6.238","code":"2028-9","display":"Asian","userSelected":true}},{"url":"text","valueString":"Asian"}]},{"url":"http://hl7.org/fhir/us/core/StructureDefinition/us-core-ethnicity","extension":[{"url":"ombCategory","valueCoding":{"system":"urn:oid:2.16.840.1.113883.6.238","code":"2186-5","display":"Not Hispanic or Latino","userSelected":true}},{"url":"text","valueString":"Not Hispanic or Latino"}]}],"identifier":[{"type":{"coding":[{"system":"http://terminology.hl7.org/CodeSystem/v2-0203","code":"MR"}]},"system":"https://bonnie-fhir.healthit.gov/","value":"60d4d72c410233651461d7bd"}],"name":[{"family":"DENEXCEPPass","given":["DEXANotPerformedPtRefused"]}],"gender":"male","birthDate":"1934-12-15"},"request":{"method":"PUT","url":"Patient/d07cf359-d46c-4adf-b2d4-e02a2f43b78e"}},{"fullUrl":"https://madie.cms.gov/Encounter/8dc5bb57-e889-473c-b047-e4ac719bff72","resource":{"resourceType":"Encounter","id":"8dc5bb57-e889-473c-b047-e4ac719bff72","meta":{"profile":["http://hl7.org/fhir/us/qicore/StructureDefinition/qicore-encounter"]},"status":"finished","class":{"system":"http://terminology.hl7.org/CodeSystem/v3-ActCode","code":"AMB","display":"ambulatory"},"type":[{"coding":[{"system":"http://snomed.info/sct","version":"2021-09","code":"185463005","display":"Visit out of hours (procedure)","userSelected":true}]}],"subject":{"reference":"Patient/d07cf359-d46c-4adf-b2d4-e02a2f43b78e"},"period":{"start":"2026-04-04T08:00:00.000+00:00","end":"2026-04-04T08:15:00.000+00:00"}},"request":{"method":"PUT","url":"Encounter/8dc5bb57-e889-473c-b047-e4ac719bff72"}},{"fullUrl":"https://madie.cms.gov/Condition/6a0b5fc9-1877-46a7-9526-a2fed106bb59","resource":{"resourceType":"Condition","id":"6a0b5fc9-1877-46a7-9526-a2fed106bb59","meta":{"profile":["http://hl7.org/fhir/us/qicore/StructureDefinition/qicore-condition-problems-health-concerns"]},"clinicalStatus":{"coding":[{"system":"http://terminology.hl7.org/CodeSystem/condition-clinical","code":"active"}]},"verificationStatus":{"coding":[{"system":"http://terminology.hl7.org/CodeSystem/condition-ver-status","code":"confirmed"}]},"category":[{"coding":[{"system":"http://terminology.hl7.org/CodeSystem/condition-category","code":"problem-list-item","display":"Problem List Item"}]}],"code":{"coding":[{"system":"http://snomed.info/sct","version":"2021-09","code":"254900004","display":"Carcinoma of prostate (disorder)","userSelected":true}]},"subject":{"reference":"Patient/d07cf359-d46c-4adf-b2d4-e02a2f43b78e"},"onsetPeriod":{"start":"2026-04-04T08:00:00.000+00:00"}},"request":{"method":"PUT","url":"Condition/6a0b5fc9-1877-46a7-9526-a2fed106bb59"}},{"fullUrl":"https://madie.cms.gov/MedicationRequest/f618784e-f492-4867-a57e-b11b57edbb4e","resource":{"resourceType":"MedicationRequest","id":"f618784e-f492-4867-a57e-b11b57edbb4e","meta":{"profile":["http://hl7.org/fhir/us/qicore/StructureDefinition/qicore-medicationrequest"]},"status":"active","intent":"order","medicationCodeableConcept":{"coding":[{"system":"http://www.nlm.nih.gov/research/umls/rxnorm","code":"1115257","display":"1.5 ML leuprolide acetate 30 MG/ML Prefilled Syringe","userSelected":true}]},"subject":{"reference":"Patient/d07cf359-d46c-4adf-b2d4-e02a2f43b78e"},"authoredOn":"2026-04-04T08:00:00.000+00:00","requester":{"reference":"http://myGoodHealthcare.com/fhir/Practitioner/b8e0cf7e-621e-47ba-9ef6-540fb700225c"},"dosageInstruction":[{"timing":{"repeat":{"boundsPeriod":{"start":"2026-04-04T08:00:00.000+00:00","end":"2026-05-04T08:00:00.000+00:00"}}}}]},"request":{"method":"PUT","url":"MedicationRequest/f618784e-f492-4867-a57e-b11b57edbb4e"}},{"fullUrl":"https://madie.cms.gov/ServiceRequest/83d87b86-75bb-4131-aad2-9167a52bd300","resource":{"resourceType":"ServiceRequest","id":"83d87b86-75bb-4131-aad2-9167a52bd300","meta":{"profile":["http://hl7.org/fhir/us/qicore/StructureDefinition/qicore-servicerequest"]},"status":"active","intent":"order","code":{"coding":[{"system":"http://snomed.info/sct","code":"456381000124102","display":"Injection of leuprolide acetate for twelve month period (regime/therapy)","userSelected":true}]},"subject":{"reference":"Patient/d07cf359-d46c-4adf-b2d4-e02a2f43b78e"},"authoredOn":"2026-04-04T08:00:00.000+00:00"},"request":{"method":"PUT","url":"ServiceRequest/83d87b86-75bb-4131-aad2-9167a52bd300"}},{"fullUrl":"https://madie.cms.gov/ServiceRequest/e01f4c86-9025-4ceb-a890-21834fda2954","resource":{"resourceType":"ServiceRequest","id":"e01f4c86-9025-4ceb-a890-21834fda2954","meta":{"profile":["http://hl7.org/fhir/us/qicore/StructureDefinition/qicore-servicenotrequested"]},"extension":[{"url":"http://hl7.org/fhir/us/qicore/StructureDefinition/qicore-doNotPerformReason","valueCodeableConcept":{"coding":[{"system":"http://snomed.info/sct","code":"105480006","display":"Refusal of treatment by patient (situation)","userSelected":true}]}}],"status":"completed","intent":"order","doNotPerform":true,"code":{"coding":[{"system":"http://loinc.org","version":"2.71","code":"38265-5","display":"DXA Radius and Ulna [T-score] Bone density","userSelected":true}]},"subject":{"reference":"Patient/d07cf359-d46c-4adf-b2d4-e02a2f43b78e"},"authoredOn":"2026-04-06T08:00:00.000+00:00"},"request":{"method":"PUT","url":"ServiceRequest/e01f4c86-9025-4ceb-a890-21834fda2954"}},{"fullUrl":"https://madie.cms.gov/Practitioner/b8e0cf7e-621e-47ba-9ef6-540fb700225c","resource":{"resourceType":"Practitioner","id":"b8e0cf7e-621e-47ba-9ef6-540fb700225c","meta":{"profile":["http://hl7.org/fhir/us/qicore/StructureDefinition/qicore-practitioner"]},"identifier":[{"use":"temp","system":"urn:oid:2.16.840.1.113883.4.336","value":"Practitioner-23"}],"active":true,"name":[{"family":"Careful","given":["Adam"],"prefix":["Dr"]}],"address":[{"use":"home","line":["534 Erewhon St"],"city":"PleasantVille","state":"UT","postalCode":"84414"}],"qualification":[{"identifier":[{"system":"http://example.org/UniversityIdentifier","value":"12345"}],"code":{"coding":[{"system":"http://terminology.hl7.org/CodeSystem/v2-0360|2.7","code":"BS","display":"Bachelor of Science"}],"text":"Bachelor of Science"},"period":{"start":"1996"},"issuer":{"display":"Example University"}}]},"request":{"method":"PUT","url":"Practitioner/b8e0cf7e-621e-47ba-9ef6-540fb700225c"}},{"fullUrl":"https://madie.cms.gov/MeasureReport/2551bcf3-86fa-4fbc-9ec4-25d35aa1f745","resource":{"resourceType":"MeasureReport","id":"2551bcf3-86fa-4fbc-9ec4-25d35aa1f745","meta":{"profile":["http://hl7.org/fhir/us/cqfmeasures/StructureDefinition/test-case-cqfm"]},"contained":[{"resourceType":"Parameters","id":"6648c350-6009-49b6-8975-aed51ef01b89-parameters","parameter":[{"name":"subject","valueString":"d07cf359-d46c-4adf-b2d4-e02a2f43b78e"}]}],"extension":[{"url":"http://hl7.org/fhir/StructureDefinition/cqf-inputParameters","valueReference":{"reference":"#6648c350-6009-49b6-8975-aed51ef01b89-parameters"}},{"url":"http://hl7.org/fhir/us/cqfmeasures/StructureDefinition/cqfm-testCaseDescription","valueMarkdown":"Dx of Prostate Cancer, DEXA not performed due to patient refused. DENEXCEP passes as expected."}],"modifierExtension":[{"url":"http://hl7.org/fhir/us/cqfmeasures/StructureDefinition/cqfm-isTestCase","valueBoolean":true}],"status":"complete","type":"individual","measure":"https://madie.cms.gov/Measure/CMS645FHIRBoneDensityProstateCancerAndrogenDeprivationTherapy","period":{"start":"2026-01-01","end":"2026-12-31"},"group":[{"id":"Group_1","population":[{"id":"InitialPopulation_1","code":{"coding":[{"system":"http://terminology.hl7.org/CodeSystem/measure-population","code":"initial-population","display":"Initial Population"}]},"count":1},{"id":"Denominator_1","code":{"coding":[{"system":"http://terminology.hl7.org/CodeSystem/measure-population","code":"denominator","display":"Denominator"}]},"count":1},{"id":"Numerator_1","code":{"coding":[{"system":"http://terminology.hl7.org/CodeSystem/measure-population","code":"numerator","display":"Numerator"}]},"count":0},{"id":"DenominatorException_1","code":{"coding":[{"system":"http://terminology.hl7.org/CodeSystem/measure-population","code":"denominator-exception","display":"Denominator Exception"}]},"count":0}],"measureScore":{"value":1.0}}],"evaluatedResource":[{"reference":"Patient/d07cf359-d46c-4adf-b2d4-e02a2f43b78e"},{"reference":"Encounter/8dc5bb57-e889-473c-b047-e4ac719bff72"},{"reference":"Condition/6a0b5fc9-1877-46a7-9526-a2fed106bb59"},{"reference":"MedicationRequest/f618784e-f492-4867-a57e-b11b57edbb4e"},{"reference":"ServiceRequest/83d87b86-75bb-4131-aad2-9167a52bd300"},{"reference":"ServiceRequest/e01f4c86-9025-4ceb-a890-21834fda2954"},{"reference":"Practitioner/b8e0cf7e-621e-47ba-9ef6-540fb700225c"}]},"request":{"method":"PUT","url":"MeasureReport/2551bcf3-86fa-4fbc-9ec4-25d35aa1f745"}}]},"request":{"method":"PUT","url":"Bundle/13546451asdf3513541654FF"}},{"resource":{"resourceType":"MeasureReport","id":"2551bcf3-86fa-4fbc-9ec4-25d35aa1f745","meta":{"profile":["http://hl7.org/fhir/us/cqfmeasures/StructureDefinition/test-case-cqfm"]},"contained":[{"resourceType":"Parameters","id":"6648c350-6009-49b6-8975-aed51ef01b89-parameters","parameter":[{"name":"subject","valueString":"d07cf359-d46c-4adf-b2d4-e02a2f43b78e"}]}],"extension":[{"url":"http://hl7.org/fhir/StructureDefinition/cqf-inputParameters","valueReference":{"reference":"#6648c350-6009-49b6-8975-aed51ef01b89-parameters"}},{"url":"http://hl7.org/fhir/us/cqfmeasures/StructureDefinition/cqfm-testCaseDescription","valueMarkdown":"Dx of Prostate Cancer, DEXA not performed due to patient refused. DENEXCEP passes as expected."}],"modifierExtension":[{"url":"http://hl7.org/fhir/us/cqfmeasures/StructureDefinition/cqfm-isTestCase","valueBoolean":true}],"status":"complete","type":"individual","measure":"https://madie.cms.gov/Measure/CMS645FHIRBoneDensityProstateCancerAndrogenDeprivationTherapy","period":{"start":"2026-01-01","end":"2026-12-31"},"group":[{"id":"Group_1","population":[{"id":"InitialPopulation_1","code":{"coding":[{"system":"http://terminology.hl7.org/CodeSystem/measure-population","code":"initial-population","display":"Initial Population"}]},"count":1},{"id":"Denominator_1","code":{"coding":[{"system":"http://terminology.hl7.org/CodeSystem/measure-population","code":"denominator","display":"Denominator"}]},"count":1},{"id":"Numerator_1","code":{"coding":[{"system":"http://terminology.hl7.org/CodeSystem/measure-population","code":"numerator","display":"Numerator"}]},"count":0},{"id":"DenominatorException_1","code":{"coding":[{"system":"http://terminology.hl7.org/CodeSystem/measure-population","code":"denominator-exception","display":"Denominator Exception"}]},"count":0}],"measureScore":{"value":1.0}}],"evaluatedResource":[{"reference":"Patient/d07cf359-d46c-4adf-b2d4-e02a2f43b78e"},{"reference":"Encounter/8dc5bb57-e889-473c-b047-e4ac719bff72"},{"reference":"Condition/6a0b5fc9-1877-46a7-9526-a2fed106bb59"},{"reference":"MedicationRequest/f618784e-f492-4867-a57e-b11b57edbb4e"},{"reference":"ServiceRequest/83d87b86-75bb-4131-aad2-9167a52bd300"},{"reference":"ServiceRequest/e01f4c86-9025-4ceb-a890-21834fda2954"},{"reference":"Practitioner/b8e0cf7e-621e-47ba-9ef6-540fb700225c"}]},"request":{"method":"PUT","url":"MeasureReport/2551bcf3-86fa-4fbc-9ec4-25d35aa1f745"}},{"resource":{"resourceType":"MedicationRequest","id":"f618784e-f492-4867-a57e-b11b57edbb4e","meta":{"profile":["http://hl7.org/fhir/us/qicore/StructureDefinition/qicore-medicationrequest"]},"status":"active","intent":"order","medicationCodeableConcept":{"coding":[{"system":"http://www.nlm.nih.gov/research/umls/rxnorm","code":"1115257","display":"1.5 ML leuprolide acetate 30 MG/ML Prefilled Syringe","userSelected":true}]},"subject":{"reference":"Patient/d07cf359-d46c-4adf-b2d4-e02a2f43b78e"},"authoredOn":"2026-04-04T08:00:00.000+00:00","requester":{"reference":"http://myGoodHealthcare.com/fhir/Practitioner/b8e0cf7e-621e-47ba-9ef6-540fb700225c"},"dosageInstruction":[{"timing":{"repeat":{"boundsPeriod":{"start":"2026-04-04T08:00:00.000+00:00","end":"2026-05-04T08:00:00.000+00:00"}}}}]},"request":{"method":"PUT","url":"MedicationRequest/f618784e-f492-4867-a57e-b11b57edbb4e"}},{"resource":{"resourceType":"Encounter","id":"8dc5bb57-e889-473c-b047-e4ac719bff72","meta":{"profile":["http://hl7.org/fhir/us/qicore/StructureDefinition/qicore-encounter"]},"status":"finished","class":{"system":"http://terminology.hl7.org/CodeSystem/v3-ActCode","code":"AMB","display":"ambulatory"},"type":[{"coding":[{"system":"http://snomed.info/sct","version":"2021-09","code":"185463005","display":"Visit out of hours (procedure)","userSelected":true}]}],"subject":{"reference":"Patient/d07cf359-d46c-4adf-b2d4-e02a2f43b78e"},"period":{"start":"2026-04-04T08:00:00.000+00:00","end":"2026-04-04T08:15:00.000+00:00"}},"request":{"method":"PUT","url":"Encounter/8dc5bb57-e889-473c-b047-e4ac719bff72"}}]}