{
  "resourceType": "Bundle",
  "id": "6129135402c62a011f2e74a8",
  "type": "transaction",
  "entry": [ {
    "fullUrl": "https://madie.cms.gov/Patient/48952352-d74c-491c-9420-6e999e60f52a",
    "resource": {
      "resourceType": "Patient",
      "id": "48952352-d74c-491c-9420-6e999e60f52a",
      "meta": {
        "profile": [ "http://hl7.org/fhir/us/qicore/StructureDefinition/qicore-patient" ]
      },
      "text": {
        "status": "generated",
        "div": "<div xmlns=\"http://www.w3.org/1999/xhtml\"><div class=\"hapiHeaderText\">MedRsnDuringEncIpTestOccurr <b>DENEXCEPPASS </b></div><table class=\"hapiPropertyTable\"><tbody><tr><td>Identifier</td><td>8ca9552440b4ef3fc57cfe3ca8a6d18f77ae69125f1df01b31dc50e4d278f251</td></tr><tr><td>Date of birth</td><td><span>21 August 1994</span></td></tr></tbody></table></div>"
      },
      "extension": [ {
        "url": "http://hl7.org/fhir/us/core/StructureDefinition/us-core-race",
        "extension": [ {
          "url": "ombCategory",
          "valueCoding": {
            "system": "urn:oid:2.16.840.1.113883.6.238",
            "code": "1002-5",
            "display": "American Indian or Alaska Native",
            "userSelected": true
          }
        }, {
          "url": "text",
          "valueString": "American Indian or Alaska Native"
        } ]
      }, {
        "url": "http://hl7.org/fhir/us/core/StructureDefinition/us-core-ethnicity",
        "extension": [ {
          "url": "ombCategory",
          "valueCoding": {
            "system": "urn:oid:2.16.840.1.113883.6.238",
            "code": "2135-2",
            "display": "Hispanic or Latino",
            "userSelected": true
          }
        }, {
          "url": "text",
          "valueString": "Hispanic or Latino"
        } ]
      } ],
      "identifier": [ {
        "type": {
          "coding": [ {
            "system": "http://terminology.hl7.org/CodeSystem/v2-0203",
            "code": "MR"
          } ]
        },
        "system": "https://bonnie-fhir.healthit.gov/",
        "value": "6129135402c62a011f2e74a8"
      } ],
      "active": true,
      "name": [ {
        "use": "usual",
        "family": "DENEXCEPPass",
        "given": [ "MedRsnDuringEncIpTestOccurr" ]
      } ],
      "gender": "male",
      "birthDate": "1995-08-21"
    },
    "request": {
      "method": "PUT",
      "url": "Patient/48952352-d74c-491c-9420-6e999e60f52a"
    }
  }, {
    "fullUrl": "https://madie.cms.gov/Encounter/3fa8b010-cac1-445b-bc09-d0f762beabca",
    "resource": {
      "resourceType": "Encounter",
      "id": "3fa8b010-cac1-445b-bc09-d0f762beabca",
      "meta": {
        "profile": [ "http://hl7.org/fhir/us/qicore/StructureDefinition/qicore-encounter" ]
      },
      "status": "finished",
      "class": {
        "system": "http://terminology.hl7.org/CodeSystem/v3-ActCode",
        "code": "IMP",
        "display": "inpatient encounter",
        "userSelected": true
      },
      "type": [ {
        "coding": [ {
          "system": "http://snomed.info/sct",
          "code": "32485007"
        } ]
      } ],
      "subject": {
        "reference": "Patient/48952352-d74c-491c-9420-6e999e60f52a"
      },
      "period": {
        "start": "2026-10-10T09:30:00Z",
        "end": "2026-10-12T10:30:00.000+00:00"
      },
      "length": {
        "value": 2,
        "unit": "days"
      },
      "diagnosis": [ {
        "condition": {
          "reference": "Condition/8b281cf0-2060-443b-bb35-69e8c4056fe2"
        },
        "use": {
          "coding": [ {
            "system": "http://terminology.hl7.org/CodeSystem/diagnosis-role",
            "code": "billing",
            "display": "Billing"
          } ]
        },
        "rank": 1
      } ]
    },
    "request": {
      "method": "PUT",
      "url": "Encounter/3fa8b010-cac1-445b-bc09-d0f762beabca"
    }
  }, {
    "fullUrl": "https://madie.cms.gov/Encounter/9893422f-22cc-4891-a7b9-386fa2a09fc7",
    "resource": {
      "resourceType": "Encounter",
      "id": "9893422f-22cc-4891-a7b9-386fa2a09fc7",
      "meta": {
        "profile": [ "http://hl7.org/fhir/us/qicore/StructureDefinition/qicore-encounter" ]
      },
      "status": "finished",
      "class": {
        "system": "http://terminology.hl7.org/CodeSystem/v3-ActCode",
        "code": "IMP",
        "display": "inpatient encounter",
        "userSelected": true
      },
      "type": [ {
        "coding": [ {
          "system": "http://snomed.info/sct",
          "code": "183452005"
        } ]
      } ],
      "subject": {
        "reference": "Patient/48952352-d74c-491c-9420-6e999e60f52a"
      },
      "period": {
        "start": "2026-10-12T10:30:00Z",
        "end": "2026-10-12T11:30:00.000+00:00"
      },
      "length": {
        "value": 0,
        "unit": "days"
      }
    },
    "request": {
      "method": "PUT",
      "url": "Encounter/9893422f-22cc-4891-a7b9-386fa2a09fc7"
    }
  }, {
    "fullUrl": "https://madie.cms.gov/MedicationRequest/8c4f3575-96a1-4a2b-b3fa-300a87713043",
    "resource": {
      "resourceType": "MedicationRequest",
      "id": "8c4f3575-96a1-4a2b-b3fa-300a87713043",
      "meta": {
        "profile": [ "http://hl7.org/fhir/us/qicore/StructureDefinition/qicore-medicationnotrequested" ]
      },
      "status": "completed",
      "intent": "order",
      "category": [ {
        "coding": [ {
          "system": "http://terminology.hl7.org/CodeSystem/medicationrequest-category",
          "code": "community"
        } ]
      } ],
      "doNotPerform": true,
      "medicationCodeableConcept": {
        "coding": [ {
          "system": "http://www.nlm.nih.gov/research/umls/rxnorm",
          "code": "1037045"
        } ]
      },
      "subject": {
        "reference": "Patient/48952352-d74c-491c-9420-6e999e60f52a"
      },
      "authoredOn": "2026-10-12T09:30:00Z",
      "requester": {
        "reference": "Practitioner/example"
      },
      "reasonCode": [ {
        "coding": [ {
          "system": "http://snomed.info/sct",
          "code": "183932001",
          "display": "Procedure contraindicated (situation)",
          "userSelected": true
        } ]
      } ]
    },
    "request": {
      "method": "PUT",
      "url": "MedicationRequest/8c4f3575-96a1-4a2b-b3fa-300a87713043"
    }
  }, {
    "fullUrl": "https://madie.cms.gov/claim/5ca62962b8484628b8de1ec5",
    "resource": {
      "resourceType": "Claim",
      "id": "5ca62962b8484628b8de1ec5",
      "meta": {
        "profile": [ "http://hl7.org/fhir/us/qicore/StructureDefinition/qicore-claim" ]
      },
      "status": "active",
      "type": {
        "coding": [ {
          "system": "http://terminology.hl7.org/CodeSystem/claim-type",
          "code": "institutional"
        } ]
      },
      "use": "claim",
      "patient": {
        "reference": "Patient/d170a0a8-b5ad-4303-b6df-e304dd5f92ad"
      },
      "created": "2026-12-01",
      "provider": {
        "reference": "Practitioner/practitioner-123456"
      },
      "priority": {
        "coding": [ {
          "system": "http://terminology.hl7.org/CodeSystem/processpriority",
          "code": "normal"
        } ]
      },
      "diagnosis": [ {
        "sequence": 1,
        "diagnosisCodeableConcept": {
          "coding": [ {
            "system": "http://hl7.org/fhir/sid/icd-10-cm",
            "code": "I63.00"
          } ]
        },
        "type": [ {
          "coding": [ {
            "system": "http://terminology.hl7.org/CodeSystem/ex-diagnosistype",
            "code": "principal"
          } ]
        } ]
      } ],
      "insurance": [ {
        "sequence": 1,
        "focal": true,
        "coverage": {
          "reference": "Coverage/5fa041661c76ba66d9959367"
        }
      } ],
      "item": [ {
        "sequence": 1,
        "diagnosisSequence": [ 1 ],
        "productOrService": {
          "coding": [ {
            "system": "http://terminology.hl7.org/CodeSystem/ex-USCLS",
            "code": "99555"
          } ]
        },
        "encounter": [ {
          "reference": "Encounter/3fa8b010-cac1-445b-bc09-d0f762beabca"
        } ]
      } ]
    },
    "request": {
      "method": "PUT",
      "url": "Claim/5ca62962b8484628b8de1ec5"
    }
  }, {
    "fullUrl": "https://madie.cms.gov/Condition/b82c54f0-8ff7-46fa-ba5b-cdd9d9874897",
    "resource": {
      "resourceType": "Condition",
      "id": "b82c54f0-8ff7-46fa-ba5b-cdd9d9874897",
      "meta": {
        "profile": [ "http://hl7.org/fhir/us/qicore/StructureDefinition/qicore-condition" ]
      },
      "clinicalStatus": {
        "coding": [ {
          "system": "http://terminology.hl7.org/CodeSystem/condition-clinical",
          "code": "active"
        } ]
      },
      "verificationStatus": {
        "coding": [ {
          "system": "http://terminology.hl7.org/CodeSystem/condition-ver-status",
          "code": "confirmed"
        } ]
      },
      "category": [ {
        "coding": [ {
          "system": "http://terminology.hl7.org/CodeSystem/condition-category",
          "code": "encounter-diagnosis",
          "display": "Encounter Diagnosis"
        } ]
      } ],
      "code": {
        "coding": [ {
          "system": "http://terminology.hl7.org/CodeSystem/medicationrequest-category",
          "code": "discharge",
          "display": "Discharge",
          "userSelected": true
        } ]
      },
      "subject": {
        "reference": "Patient/48952352-d74c-491c-9420-6e999e60f52a"
      },
      "recordedDate": "2026-07-14T08:00:00Z"
    },
    "request": {
      "method": "PUT",
      "url": "Condition/b82c54f0-8ff7-46fa-ba5b-cdd9d9874897"
    }
  }, {
    "fullUrl": "https://madie.cms.gov/Condition/8b281cf0-2060-443b-bb35-69e8c4056fe2",
    "resource": {
      "resourceType": "Condition",
      "id": "8b281cf0-2060-443b-bb35-69e8c4056fe2",
      "meta": {
        "profile": [ "http://hl7.org/fhir/us/qicore/StructureDefinition/qicore-condition" ]
      },
      "clinicalStatus": {
        "coding": [ {
          "system": "http://terminology.hl7.org/CodeSystem/condition-clinical",
          "code": "active"
        } ]
      },
      "verificationStatus": {
        "coding": [ {
          "system": "http://terminology.hl7.org/CodeSystem/condition-ver-status",
          "code": "confirmed"
        } ]
      },
      "category": [ {
        "coding": [ {
          "system": "http://terminology.hl7.org/CodeSystem/condition-category",
          "code": "encounter-diagnosis",
          "display": "Encounter Diagnosis"
        } ]
      } ],
      "code": {
        "coding": [ {
          "system": "http://snomed.info/sct",
          "version": "2020-09",
          "code": "111297002",
          "display": "Nonparalytic stroke (disorder)",
          "userSelected": true
        } ]
      },
      "subject": {
        "reference": "Patient/48952352-d74c-491c-9420-6e999e60f52a"
      },
      "recordedDate": "2026-07-14T08:00:00Z"
    },
    "request": {
      "method": "PUT",
      "url": "Condition/8b281cf0-2060-443b-bb35-69e8c4056fe2"
    }
  }, {
    "fullUrl": "https://madie.cms.gov/Coverage/c9b73f71-484e-4940-9b88-afc854c3647c",
    "resource": {
      "resourceType": "Coverage",
      "id": "c9b73f71-484e-4940-9b88-afc854c3647c",
      "meta": {
        "profile": [ "http://hl7.org/fhir/us/qicore/StructureDefinition/qicore-coverage" ]
      },
      "status": "active",
      "beneficiary": {
        "reference": "Patient/48952352-d74c-491c-9420-6e999e60f52a"
      },
      "payor": [ {
        "reference": "Organization/56978fa6-4e44-4f04-81d6-a0aed4b69410"
      } ]
    },
    "request": {
      "method": "PUT",
      "url": "Coverage/c9b73f71-484e-4940-9b88-afc854c3647c"
    }
  }, {
    "fullUrl": "https://madie.cms.gov/Organization/56978fa6-4e44-4f04-81d6-a0aed4b69410",
    "resource": {
      "resourceType": "Organization",
      "id": "56978fa6-4e44-4f04-81d6-a0aed4b69410",
      "meta": {
        "profile": [ "http://hl7.org/fhir/us/qicore/StructureDefinition/qicore-organization" ]
      },
      "identifier": [ {
        "use": "temp",
        "system": "urn:oid:2.16.840.1.113883.4.4",
        "value": "21-3259825"
      } ],
      "active": true,
      "type": [ {
        "coding": [ {
          "system": "http://terminology.hl7.org/CodeSystem/organization-type",
          "code": "pay",
          "display": "Payer"
        } ]
      } ],
      "name": "Blue Cross Blue Shield of Texas",
      "telecom": [ {
        "system": "phone",
        "value": "(+1) 972-766-6900"
      } ],
      "address": [ {
        "use": "billing",
        "type": "postal",
        "line": [ "P.O. Box 660044" ],
        "city": "Dallas",
        "state": "TX",
        "postalCode": "75266-0044",
        "country": "USA"
      } ]
    },
    "request": {
      "method": "PUT",
      "url": "Organization/56978fa6-4e44-4f04-81d6-a0aed4b69410"
    }
  }, {
    "fullUrl": "https://madie.cms.gov/MeasureReport/884d71af-b43d-411e-8d77-0973f1036e48",
    "resource": {
      "resourceType": "MeasureReport",
      "id": "884d71af-b43d-411e-8d77-0973f1036e48",
      "meta": {
        "profile": [ "http://hl7.org/fhir/us/cqfmeasures/StructureDefinition/test-case-cqfm" ]
      },
      "contained": [ {
        "resourceType": "Parameters",
        "id": "2bd98c2f-3b1e-4d80-818a-63086c6af1ef-parameters",
        "parameter": [ {
          "name": "subject",
          "valueString": "48952352-d74c-491c-9420-6e999e60f52a"
        } ]
      } ],
      "extension": [ {
        "url": "http://hl7.org/fhir/StructureDefinition/cqf-inputParameters",
        "valueReference": {
          "reference": "#2bd98c2f-3b1e-4d80-818a-63086c6af1ef-parameters"
        }
      }, {
        "url": "http://hl7.org/fhir/us/cqfmeasures/StructureDefinition/cqfm-testCaseDescription",
        "valueMarkdown": "Patient does not get antithrombotic medication due to medical reasons after IP encounter. Testing multiple IP encounters."
      } ],
      "modifierExtension": [ {
        "url": "http://hl7.org/fhir/us/cqfmeasures/StructureDefinition/cqfm-isTestCase",
        "valueBoolean": true
      } ],
      "status": "complete",
      "type": "individual",
      "measure": "https://madie.cms.gov/Measure/CMS104FHIRSTKDCAntithrombotic",
      "period": {
        "start": "2026-01-01",
        "end": "2026-12-31"
      },
      "group": [ {
        "id": "Group_1",
        "population": [ {
          "id": "InitialPopulation_1",
          "code": {
            "coding": [ {
              "system": "http://terminology.hl7.org/CodeSystem/measure-population",
              "code": "initial-population",
              "display": "Initial Population"
            } ]
          },
          "count": 1
        }, {
          "id": "Denominator_1",
          "code": {
            "coding": [ {
              "system": "http://terminology.hl7.org/CodeSystem/measure-population",
              "code": "denominator",
              "display": "Denominator"
            } ]
          },
          "count": 1
        }, {
          "id": "DenominatorExclusion_1",
          "code": {
            "coding": [ {
              "system": "http://terminology.hl7.org/CodeSystem/measure-population",
              "code": "denominator-exclusion",
              "display": "Denominator Exclusion"
            } ]
          },
          "count": 0
        }, {
          "id": "Numerator_1",
          "code": {
            "coding": [ {
              "system": "http://terminology.hl7.org/CodeSystem/measure-population",
              "code": "numerator",
              "display": "Numerator"
            } ]
          },
          "count": 0
        }, {
          "id": "DenominatorException_1",
          "code": {
            "coding": [ {
              "system": "http://terminology.hl7.org/CodeSystem/measure-population",
              "code": "denominator-exception",
              "display": "Denominator Exception"
            } ]
          },
          "count": 1
        } ],
        "measureScore": {
          "value": 0.0
        }
      } ],
      "evaluatedResource": [ {
        "reference": "Patient/48952352-d74c-491c-9420-6e999e60f52a"
      }, {
        "reference": "Encounter/3fa8b010-cac1-445b-bc09-d0f762beabca"
      }, {
        "reference": "Encounter/9893422f-22cc-4891-a7b9-386fa2a09fc7"
      }, {
        "reference": "MedicationRequest/8c4f3575-96a1-4a2b-b3fa-300a87713043"
      }, {
        "reference": "Claim/5ca62962b8484628b8de1ec5"
      }, {
        "reference": "Condition/b82c54f0-8ff7-46fa-ba5b-cdd9d9874897"
      }, {
        "reference": "Condition/8b281cf0-2060-443b-bb35-69e8c4056fe2"
      }, {
        "reference": "Coverage/c9b73f71-484e-4940-9b88-afc854c3647c"
      }, {
        "reference": "Organization/56978fa6-4e44-4f04-81d6-a0aed4b69410"
      } ]
    },
    "request": {
      "method": "PUT",
      "url": "MeasureReport/884d71af-b43d-411e-8d77-0973f1036e48"
    }
  } ]
}