{
  "resourceType": "Bundle",
  "id": "6109658e98086b538055b9d0",
  "type": "transaction",
  "entry": [ {
    "fullUrl": "https://madie.cms.gov/Patient/7263b5ad-e3fe-45af-8775-b827ecfd1c93",
    "resource": {
      "resourceType": "Patient",
      "id": "7263b5ad-e3fe-45af-8775-b827ecfd1c93",
      "meta": {
        "profile": [ "http://hl7.org/fhir/us/qicore/StructureDefinition/qicore-patient" ]
      },
      "extension": [ {
        "url": "http://hl7.org/fhir/us/core/StructureDefinition/us-core-race",
        "extension": [ {
          "url": "ombCategory",
          "valueCoding": {
            "system": "urn:oid:2.16.840.1.113883.6.238",
            "code": "1002-5",
            "display": "American Indian or Alaska Native",
            "userSelected": true
          }
        }, {
          "url": "text",
          "valueString": "American Indian or Alaska Native"
        } ]
      }, {
        "url": "http://hl7.org/fhir/us/core/StructureDefinition/us-core-ethnicity",
        "extension": [ {
          "url": "ombCategory",
          "valueCoding": {
            "system": "urn:oid:2.16.840.1.113883.6.238",
            "code": "2135-2",
            "display": "Hispanic or Latino",
            "userSelected": true
          }
        }, {
          "url": "text",
          "valueString": "Hispanic or Latino"
        } ]
      } ],
      "identifier": [ {
        "type": {
          "coding": [ {
            "system": "http://terminology.hl7.org/CodeSystem/v2-0203",
            "code": "MR"
          } ]
        },
        "system": "https://bonnie-fhir.healthit.gov/",
        "value": "6109658e98086b538055b9d0"
      } ],
      "active": true,
      "name": [ {
        "use": "usual",
        "family": "NUMERFail",
        "given": [ "OpticDiscExmB4EncEdge" ]
      } ],
      "gender": "female",
      "birthDate": "1948-09-18"
    },
    "request": {
      "method": "PUT",
      "url": "Patient/7263b5ad-e3fe-45af-8775-b827ecfd1c93"
    }
  }, {
    "fullUrl": "https://madie.cms.gov/Condition/60b9448c-2a8c-4c58-a338-f5c4ce5ea2bb",
    "resource": {
      "resourceType": "Condition",
      "id": "60b9448c-2a8c-4c58-a338-f5c4ce5ea2bb",
      "meta": {
        "profile": [ "http://hl7.org/fhir/us/qicore/StructureDefinition/qicore-condition-problems-health-concerns" ]
      },
      "clinicalStatus": {
        "coding": [ {
          "system": "http://terminology.hl7.org/CodeSystem/condition-clinical",
          "code": "active",
          "display": "active",
          "userSelected": true
        } ]
      },
      "category": [ {
        "coding": [ {
          "system": "http://terminology.hl7.org/CodeSystem/condition-category",
          "code": "problem-list-item",
          "display": "problem-list-item",
          "userSelected": true
        } ]
      } ],
      "code": {
        "coding": [ {
          "system": "http://hl7.org/fhir/sid/icd-10-cm",
          "code": "H40.10X0"
        } ]
      },
      "subject": {
        "reference": "Patient/7263b5ad-e3fe-45af-8775-b827ecfd1c93"
      },
      "onsetDateTime": "2016-06-15T07:00:00+00:00"
    },
    "request": {
      "method": "PUT",
      "url": "Condition/60b9448c-2a8c-4c58-a338-f5c4ce5ea2bb"
    }
  }, {
    "fullUrl": "https://madie.cms.gov/Observation/3e5fdd32-0241-4ada-bd4a-a87bf612a987",
    "resource": {
      "resourceType": "Observation",
      "id": "3e5fdd32-0241-4ada-bd4a-a87bf612a987",
      "meta": {
        "profile": [ "http://hl7.org/fhir/us/qicore/StructureDefinition/qicore-observation-clinical-result" ]
      },
      "status": "final",
      "category": [ {
        "coding": [ {
          "system": "http://terminology.hl7.org/CodeSystem/observation-category",
          "code": "laboratory",
          "display": "laboratory",
          "userSelected": true
        } ]
      } ],
      "code": {
        "coding": [ {
          "system": "http://loinc.org",
          "version": "2.73",
          "code": "71486-5"
        } ]
      },
      "subject": {
        "reference": "Patient/7263b5ad-e3fe-45af-8775-b827ecfd1c93"
      },
      "effectiveDateTime": "2026-01-22T08:00:00.000+00:00",
      "valueString": "Optic disc neural rim asymmetry of the two eyes consistent with loss of neural tissue"
    },
    "request": {
      "method": "PUT",
      "url": "Observation/3e5fdd32-0241-4ada-bd4a-a87bf612a987"
    }
  }, {
    "fullUrl": "https://madie.cms.gov/Observation/76632013-af9a-4509-b3b9-b7d4b9f24ab4",
    "resource": {
      "resourceType": "Observation",
      "id": "76632013-af9a-4509-b3b9-b7d4b9f24ab4",
      "meta": {
        "profile": [ "http://hl7.org/fhir/us/qicore/StructureDefinition/qicore-observation-clinical-result" ]
      },
      "status": "final",
      "category": [ {
        "coding": [ {
          "system": "http://terminology.hl7.org/CodeSystem/observation-category",
          "code": "laboratory",
          "display": "laboratory",
          "userSelected": true
        } ]
      } ],
      "code": {
        "coding": [ {
          "system": "http://loinc.org",
          "version": "2.73",
          "code": "71486-5",
          "display": "Left eye Optic disc or retinal nerve fiber layer structural abnormalities by Ophthalmoscopy"
        } ]
      },
      "subject": {
        "reference": "Patient/7263b5ad-e3fe-45af-8775-b827ecfd1c93"
      },
      "effectiveDateTime": "2026-01-26T07:59:00.000+00:00",
      "valueQuantity": {
        "value": 0.7
      }
    },
    "request": {
      "method": "PUT",
      "url": "Observation/76632013-af9a-4509-b3b9-b7d4b9f24ab4"
    }
  }, {
    "fullUrl": "https://madie.cms.gov/Encounter/2ee47b88-e5e5-4698-b8ea-8a95e79f7f32",
    "resource": {
      "resourceType": "Encounter",
      "id": "2ee47b88-e5e5-4698-b8ea-8a95e79f7f32",
      "meta": {
        "profile": [ "http://hl7.org/fhir/us/qicore/StructureDefinition/qicore-encounter" ]
      },
      "status": "finished",
      "class": {
        "system": "http://terminology.hl7.org/CodeSystem/v3-ActCode",
        "code": "AMB",
        "display": "ambulatory",
        "userSelected": true
      },
      "type": [ {
        "coding": [ {
          "system": "http://www.ama-assn.org/go/cpt",
          "version": "2023",
          "code": "99213"
        } ]
      } ],
      "subject": {
        "reference": "Patient/7263b5ad-e3fe-45af-8775-b827ecfd1c93"
      },
      "period": {
        "start": "2026-01-26T08:00:00.000+00:00",
        "end": "2026-01-26T08:00:00.000+00:00"
      },
      "length": {
        "value": 0.0,
        "unit": "days"
      }
    },
    "request": {
      "method": "PUT",
      "url": "Encounter/2ee47b88-e5e5-4698-b8ea-8a95e79f7f32"
    }
  }, {
    "fullUrl": "https://madie.cms.gov/MeasureReport/93bb85f8-005a-428e-a6fb-777dccff7bf9",
    "resource": {
      "resourceType": "MeasureReport",
      "id": "93bb85f8-005a-428e-a6fb-777dccff7bf9",
      "meta": {
        "profile": [ "http://hl7.org/fhir/us/cqfmeasures/StructureDefinition/test-case-cqfm" ]
      },
      "contained": [ {
        "resourceType": "Parameters",
        "id": "dfe886d5-71a3-4bad-a290-f59408eb0ea3-parameters",
        "parameter": [ {
          "name": "subject",
          "valueString": "7263b5ad-e3fe-45af-8775-b827ecfd1c93"
        } ]
      } ],
      "extension": [ {
        "url": "http://hl7.org/fhir/StructureDefinition/cqf-inputParameters",
        "valueReference": {
          "reference": "#dfe886d5-71a3-4bad-a290-f59408eb0ea3-parameters"
        }
      }, {
        "url": "http://hl7.org/fhir/us/cqfmeasures/StructureDefinition/cqfm-testCaseDescription",
        "valueMarkdown": "Required Optic Disc Exam for Patient with POAD Qualifying Encounter occurs before POAD Enc period start by 1 minute"
      } ],
      "modifierExtension": [ {
        "url": "http://hl7.org/fhir/us/cqfmeasures/StructureDefinition/cqfm-isTestCase",
        "valueBoolean": true
      } ],
      "status": "complete",
      "type": "individual",
      "measure": "https://madie.cms.gov/Measure/CMS143FHIRPOAGOpticNerveEvaluation",
      "period": {
        "start": "2026-01-01",
        "end": "2026-12-31"
      },
      "group": [ {
        "id": "Group_1",
        "population": [ {
          "id": "InitialPopulation_1",
          "code": {
            "coding": [ {
              "system": "http://terminology.hl7.org/CodeSystem/measure-population",
              "code": "initial-population",
              "display": "Initial Population"
            } ]
          },
          "count": 1
        }, {
          "id": "Denominator_1",
          "code": {
            "coding": [ {
              "system": "http://terminology.hl7.org/CodeSystem/measure-population",
              "code": "denominator",
              "display": "Denominator"
            } ]
          },
          "count": 1
        }, {
          "id": "Numerator_1",
          "code": {
            "coding": [ {
              "system": "http://terminology.hl7.org/CodeSystem/measure-population",
              "code": "numerator",
              "display": "Numerator"
            } ]
          },
          "count": 0
        }, {
          "id": "DenominatorException_1",
          "code": {
            "coding": [ {
              "system": "http://terminology.hl7.org/CodeSystem/measure-population",
              "code": "denominator-exception",
              "display": "Denominator Exception"
            } ]
          },
          "count": 0
        } ],
        "measureScore": {
          "value": 1.0
        }
      } ],
      "evaluatedResource": [ {
        "reference": "Patient/7263b5ad-e3fe-45af-8775-b827ecfd1c93"
      }, {
        "reference": "Condition/60b9448c-2a8c-4c58-a338-f5c4ce5ea2bb"
      }, {
        "reference": "Observation/3e5fdd32-0241-4ada-bd4a-a87bf612a987"
      }, {
        "reference": "Observation/76632013-af9a-4509-b3b9-b7d4b9f24ab4"
      }, {
        "reference": "Encounter/2ee47b88-e5e5-4698-b8ea-8a95e79f7f32"
      } ]
    },
    "request": {
      "method": "PUT",
      "url": "MeasureReport/93bb85f8-005a-428e-a6fb-777dccff7bf9"
    }
  } ]
}