{
  "resourceType": "Bundle",
  "id": "ipppass-age18",
  "type": "transaction",
  "entry": [ {
    "fullUrl": "https://madie.cms.gov/Patient/15f7e535-9af3-4fdf-b3b3-8fa6b9d6ca76",
    "resource": {
      "resourceType": "Patient",
      "id": "15f7e535-9af3-4fdf-b3b3-8fa6b9d6ca76",
      "meta": {
        "profile": [ "http://hl7.org/fhir/us/core/StructureDefinition/us-core-patient", "http://hl7.org/fhir/us/qicore/StructureDefinition/qicore-patient" ]
      },
      "extension": [ {
        "url": "http://hl7.org/fhir/us/core/StructureDefinition/us-core-race",
        "extension": [ {
          "url": "ombCategory",
          "valueCoding": {
            "system": "urn:oid:2.16.840.1.113883.6.238",
            "code": "2028-9",
            "display": "Asian"
          }
        }, {
          "url": "text",
          "valueString": "Asian"
        }, {
          "url": "detailed",
          "valueCoding": {
            "system": "urn:oid:2.16.840.1.113883.6.238",
            "code": "2036-2",
            "display": "Filipino"
          }
        } ]
      }, {
        "url": "http://hl7.org/fhir/us/core/StructureDefinition/us-core-ethnicity",
        "extension": [ {
          "url": "ombCategory",
          "valueCoding": {
            "system": "urn:oid:2.16.840.1.113883.6.238",
            "code": "2135-2",
            "display": "Hispanic or Latino"
          }
        }, {
          "url": "text",
          "valueString": "Hispanic or Latino"
        }, {
          "url": "detailed",
          "valueCoding": {
            "system": "urn:oid:2.16.840.1.113883.6.238",
            "code": "2143-6",
            "display": "Gallego"
          }
        } ]
      } ],
      "identifier": [ {
        "system": "http://hospital.smarthealthit.org",
        "value": "999999995"
      } ],
      "name": [ {
        "family": "Age18",
        "given": [ "IPPPass" ]
      } ],
      "gender": "female",
      "birthDate": "2005-12-31"
    },
    "request": {
      "method": "PUT",
      "url": "Patient/15f7e535-9af3-4fdf-b3b3-8fa6b9d6ca76"
    }
  }, {
    "fullUrl": "https://madie.cms.gov/Observation/eaae8b42-ddc4-472c-88e9-0b15d2dd550a",
    "resource": {
      "resourceType": "Observation",
      "id": "eaae8b42-ddc4-472c-88e9-0b15d2dd550a",
      "meta": {
        "profile": [ "http://hl7.org/fhir/us/qicore/StructureDefinition/qicore-observation-lab" ]
      },
      "status": "final",
      "category": [ {
        "coding": [ {
          "system": "http://terminology.hl7.org/CodeSystem/observation-category",
          "code": "imaging",
          "display": "Imaging"
        } ]
      } ],
      "code": {
        "coding": [ {
          "system": "http://loinc.org",
          "code": "96914-7",
          "display": "CT dose and image quality category"
        } ],
        "text": "CT dose and image quality category"
      },
      "subject": {
        "reference": "Patient/15f7e535-9af3-4fdf-b3b3-8fa6b9d6ca76"
      },
      "effectiveDateTime": "2026-01-02T00:00:00+00:00",
      "valueCodeableConcept": {
        "coding": [ {
          "system": "http://loinc.org",
          "code": "LA31752-1",
          "display": "Abdomen and Pelvis Low Dose"
        } ]
      },
      "component": [ {
        "code": {
          "coding": [ {
            "system": "http://loinc.org",
            "code": "96912-1",
            "display": "Calculated CT global noise"
          } ]
        },
        "valueQuantity": {
          "value": 63,
          "unit": "[hnsf'U]",
          "system": "http://unitsofmeasure.org",
          "code": "[hnsf'U]"
        }
      }, {
        "code": {
          "coding": [ {
            "system": "http://loinc.org",
            "code": "96913-9",
            "display": "Calculated CT size-adjusted dose"
          } ]
        },
        "valueQuantity": {
          "value": 597,
          "unit": "mGy.cm",
          "system": "http://unitsofmeasure.org",
          "code": "mGy.cm"
        }
      } ]
    },
    "request": {
      "method": "PUT",
      "url": "Observation/eaae8b42-ddc4-472c-88e9-0b15d2dd550a"
    }
  }, {
    "fullUrl": "https://madie.cms.gov/Coverage/1b656e52-acf7-4231-8344-87caedfbb724",
    "resource": {
      "resourceType": "Coverage",
      "id": "1b656e52-acf7-4231-8344-87caedfbb724",
      "meta": {
        "profile": [ "http://hl7.org/fhir/us/qicore/StructureDefinition/qicore-coverage" ]
      },
      "identifier": [ {
        "system": "http://benefitsinc.com/certificate",
        "value": "12345"
      } ],
      "status": "active",
      "type": {
        "coding": [ {
          "system": "https://nahdo.org/sopt",
          "code": "1",
          "display": "MEDICARE"
        } ]
      },
      "policyHolder": {
        "reference": "Patient/15f7e535-9af3-4fdf-b3b3-8fa6b9d6ca76"
      },
      "subscriber": {
        "reference": "Patient/15f7e535-9af3-4fdf-b3b3-8fa6b9d6ca76"
      },
      "beneficiary": {
        "reference": "Patient/15f7e535-9af3-4fdf-b3b3-8fa6b9d6ca76"
      },
      "dependent": "0",
      "relationship": {
        "coding": [ {
          "system": "http://terminology.hl7.org/CodeSystem/subscriber-relationship",
          "code": "self"
        } ]
      },
      "period": {
        "start": "2021-05-23",
        "end": "2027-05-23"
      },
      "payor": [ {
        "reference": "Organization/Org-123456"
      } ],
      "order": 9
    },
    "request": {
      "method": "PUT",
      "url": "Coverage/1b656e52-acf7-4231-8344-87caedfbb724"
    }
  }, {
    "fullUrl": "https://madie.cms.gov/MeasureReport/9775f2d8-dd08-4109-ba37-f525351bc2eb",
    "resource": {
      "resourceType": "MeasureReport",
      "id": "9775f2d8-dd08-4109-ba37-f525351bc2eb",
      "meta": {
        "profile": [ "http://hl7.org/fhir/us/cqfmeasures/StructureDefinition/test-case-cqfm" ]
      },
      "contained": [ {
        "resourceType": "Parameters",
        "id": "7c52eb95-1bda-47aa-8098-5111c300b8a7-parameters",
        "parameter": [ {
          "name": "subject",
          "valueString": "15f7e535-9af3-4fdf-b3b3-8fa6b9d6ca76"
        } ]
      } ],
      "extension": [ {
        "url": "http://hl7.org/fhir/StructureDefinition/cqf-inputParameters",
        "valueReference": {
          "reference": "#7c52eb95-1bda-47aa-8098-5111c300b8a7-parameters"
        }
      }, {
        "url": "http://hl7.org/fhir/us/cqfmeasures/StructureDefinition/cqfm-testCaseDescription",
        "valueMarkdown": "Patient has a valid CT Scan and is exactly 18 years old at the start of the Measurement Period"
      } ],
      "modifierExtension": [ {
        "url": "http://hl7.org/fhir/us/cqfmeasures/StructureDefinition/cqfm-isTestCase",
        "valueBoolean": true
      } ],
      "status": "complete",
      "type": "individual",
      "measure": "https://madie.cms.gov/Measure/CMS1056CTClinicalFHIR",
      "period": {
        "start": "2026-01-01",
        "end": "2026-12-31"
      },
      "group": [ {
        "id": "Group_1",
        "population": [ {
          "id": "InitialPopulation_1",
          "code": {
            "coding": [ {
              "system": "http://terminology.hl7.org/CodeSystem/measure-population",
              "code": "initial-population",
              "display": "Initial Population"
            } ]
          },
          "count": 1
        }, {
          "id": "Denominator_1",
          "code": {
            "coding": [ {
              "system": "http://terminology.hl7.org/CodeSystem/measure-population",
              "code": "denominator",
              "display": "Denominator"
            } ]
          },
          "count": 1
        }, {
          "id": "DenominatorExclusion_1",
          "code": {
            "coding": [ {
              "system": "http://terminology.hl7.org/CodeSystem/measure-population",
              "code": "denominator-exclusion",
              "display": "Denominator Exclusion"
            } ]
          },
          "count": 0
        }, {
          "id": "Numerator_1",
          "code": {
            "coding": [ {
              "system": "http://terminology.hl7.org/CodeSystem/measure-population",
              "code": "numerator",
              "display": "Numerator"
            } ]
          },
          "count": 0
        } ],
        "measureScore": {
          "value": 1.0
        }
      } ],
      "evaluatedResource": [ {
        "reference": "Patient/15f7e535-9af3-4fdf-b3b3-8fa6b9d6ca76"
      }, {
        "reference": "Observation/eaae8b42-ddc4-472c-88e9-0b15d2dd550a"
      }, {
        "reference": "Coverage/1b656e52-acf7-4231-8344-87caedfbb724"
      } ]
    },
    "request": {
      "method": "PUT",
      "url": "MeasureReport/9775f2d8-dd08-4109-ba37-f525351bc2eb"
    }
  } ]
}