{"resourceType":"Bundle","id":"tests-405bb76e-a162-49ad-8b52-9f6f745efb64-bundle","type":"transaction","entry":[{"fullUrl":"Bundle/ippfail-under18","resource":{"resourceType":"Bundle","id":"ippfail-under18","type":"transaction","entry":[{"fullUrl":"https://madie.cms.gov/Patient/405bb76e-a162-49ad-8b52-9f6f745efb64","resource":{"resourceType":"Patient","id":"405bb76e-a162-49ad-8b52-9f6f745efb64","meta":{"profile":["http://hl7.org/fhir/us/core/StructureDefinition/us-core-patient","http://hl7.org/fhir/us/qicore/StructureDefinition/qicore-patient"]},"extension":[{"url":"http://hl7.org/fhir/us/core/StructureDefinition/us-core-race","extension":[{"url":"ombCategory","valueCoding":{"system":"urn:oid:2.16.840.1.113883.6.238","code":"2028-9","display":"Asian"}},{"url":"text","valueString":"Asian"}]},{"url":"http://hl7.org/fhir/us/core/StructureDefinition/us-core-ethnicity","extension":[{"url":"ombCategory","valueCoding":{"system":"urn:oid:2.16.840.1.113883.6.238","code":"2135-2","display":"Hispanic or Latino"}},{"url":"text","valueString":"Hispanic or Latino"}]},{"url":"http://hl7.org/fhir/us/core/StructureDefinition/us-core-sex","valueCode":"184115007"}],"identifier":[{"system":"http://hospital.smarthealthit.org","value":"999999995"}],"name":[{"family":"Under18","given":["IPPFail"]}],"gender":"unknown","birthDate":"2007-01-02"},"request":{"method":"PUT","url":"Patient/405bb76e-a162-49ad-8b52-9f6f745efb64"}},{"fullUrl":"https://madie.cms.gov/Observation/e49c6559-f9ac-411f-bde4-4e78c9891d12","resource":{"resourceType":"Observation","id":"e49c6559-f9ac-411f-bde4-4e78c9891d12","meta":{"profile":["http://hl7.org/fhir/us/qicore/StructureDefinition/qicore-observation-lab"]},"status":"final","category":[{"coding":[{"system":"http://terminology.hl7.org/CodeSystem/observation-category","code":"imaging","display":"Imaging"}]}],"code":{"coding":[{"system":"http://loinc.org","code":"96914-7","display":"CT dose and image quality category"}],"text":"CT dose and image quality category"},"subject":{"reference":"Patient/405bb76e-a162-49ad-8b52-9f6f745efb64"},"effectiveDateTime":"2024-01-02T00:00:00.000+00:00","valueCodeableConcept":{"coding":[{"system":"http://loinc.org","code":"LA31752-1","display":"Abdomen and Pelvis Low Dose"}]},"component":[{"code":{"coding":[{"system":"http://loinc.org","code":"96912-1","display":"Calculated CT global noise"}]},"valueQuantity":{"value":63,"unit":"[hnsf'U]","system":"http://unitsofmeasure.org","code":"[hnsf'U]"}},{"code":{"coding":[{"system":"http://loinc.org","code":"96913-9","display":"Calculated CT size-adjusted dose"}]},"valueQuantity":{"value":597,"unit":"mGy.cm","system":"http://unitsofmeasure.org","code":"mGy.cm"}}]},"request":{"method":"PUT","url":"Observation/e49c6559-f9ac-411f-bde4-4e78c9891d12"}},{"fullUrl":"https://madie.cms.gov/MeasureReport/1587cf3b-0013-43d3-ae31-2a40f9054447","resource":{"resourceType":"MeasureReport","id":"1587cf3b-0013-43d3-ae31-2a40f9054447","meta":{"profile":["http://hl7.org/fhir/us/cqfmeasures/StructureDefinition/test-case-cqfm"]},"contained":[{"resourceType":"Parameters","id":"7344e27e-8248-49cd-b477-4ae46b1d47c7-parameters","parameter":[{"name":"subject","valueString":"405bb76e-a162-49ad-8b52-9f6f745efb64"}]}],"extension":[{"url":"http://hl7.org/fhir/StructureDefinition/cqf-inputParameters","valueReference":{"reference":"#7344e27e-8248-49cd-b477-4ae46b1d47c7-parameters"}},{"url":"http://hl7.org/fhir/us/cqfmeasures/StructureDefinition/cqfm-testCaseDescription","valueMarkdown":"Patient has a valid CT Scan but is 1 day under 18 at the start of the Measurement Period"}],"modifierExtension":[{"url":"http://hl7.org/fhir/us/cqfmeasures/StructureDefinition/cqfm-isTestCase","valueBoolean":true}],"status":"complete","type":"individual","measure":"https://madie.cms.gov/Measure/CMS1056CTClinicalFHIR","period":{"start":"2026-01-01","end":"2026-12-31"},"group":[{"id":"Group_1","population":[{"id":"InitialPopulation_1","code":{"coding":[{"system":"http://terminology.hl7.org/CodeSystem/measure-population","code":"initial-population","display":"Initial Population"}]},"count":0},{"id":"Denominator_1","code":{"coding":[{"system":"http://terminology.hl7.org/CodeSystem/measure-population","code":"denominator","display":"Denominator"}]},"count":0},{"id":"DenominatorExclusion_1","code":{"coding":[{"system":"http://terminology.hl7.org/CodeSystem/measure-population","code":"denominator-exclusion","display":"Denominator Exclusion"}]},"count":0},{"id":"Numerator_1","code":{"coding":[{"system":"http://terminology.hl7.org/CodeSystem/measure-population","code":"numerator","display":"Numerator"}]},"count":0}],"measureScore":{"value":1.0}}],"evaluatedResource":[{"reference":"Patient/405bb76e-a162-49ad-8b52-9f6f745efb64"},{"reference":"Observation/e49c6559-f9ac-411f-bde4-4e78c9891d12"}]},"request":{"method":"PUT","url":"MeasureReport/1587cf3b-0013-43d3-ae31-2a40f9054447"}}]},"request":{"method":"PUT","url":"Bundle/ippfail-under18"}},{"fullUrl":"MeasureReport/1587cf3b-0013-43d3-ae31-2a40f9054447","resource":{"resourceType":"MeasureReport","id":"1587cf3b-0013-43d3-ae31-2a40f9054447","meta":{"profile":["http://hl7.org/fhir/us/cqfmeasures/StructureDefinition/test-case-cqfm"]},"contained":[{"resourceType":"Parameters","id":"7344e27e-8248-49cd-b477-4ae46b1d47c7-parameters","parameter":[{"name":"subject","valueString":"405bb76e-a162-49ad-8b52-9f6f745efb64"}]}],"extension":[{"url":"http://hl7.org/fhir/StructureDefinition/cqf-inputParameters","valueReference":{"reference":"#7344e27e-8248-49cd-b477-4ae46b1d47c7-parameters"}},{"url":"http://hl7.org/fhir/us/cqfmeasures/StructureDefinition/cqfm-testCaseDescription","valueMarkdown":"Patient has a valid CT Scan but is 1 day under 18 at the start of the Measurement Period"}],"modifierExtension":[{"url":"http://hl7.org/fhir/us/cqfmeasures/StructureDefinition/cqfm-isTestCase","valueBoolean":true}],"status":"complete","type":"individual","measure":"https://madie.cms.gov/Measure/CMS1056CTClinicalFHIR","period":{"start":"2026-01-01","end":"2026-12-31"},"group":[{"id":"Group_1","population":[{"id":"InitialPopulation_1","code":{"coding":[{"system":"http://terminology.hl7.org/CodeSystem/measure-population","code":"initial-population","display":"Initial Population"}]},"count":0},{"id":"Denominator_1","code":{"coding":[{"system":"http://terminology.hl7.org/CodeSystem/measure-population","code":"denominator","display":"Denominator"}]},"count":0},{"id":"DenominatorExclusion_1","code":{"coding":[{"system":"http://terminology.hl7.org/CodeSystem/measure-population","code":"denominator-exclusion","display":"Denominator Exclusion"}]},"count":0},{"id":"Numerator_1","code":{"coding":[{"system":"http://terminology.hl7.org/CodeSystem/measure-population","code":"numerator","display":"Numerator"}]},"count":0}],"measureScore":{"value":1.0}}],"evaluatedResource":[{"reference":"Patient/405bb76e-a162-49ad-8b52-9f6f745efb64"},{"reference":"Observation/e49c6559-f9ac-411f-bde4-4e78c9891d12"}]},"request":{"method":"PUT","url":"MeasureReport/1587cf3b-0013-43d3-ae31-2a40f9054447"}},{"fullUrl":"Observation/e49c6559-f9ac-411f-bde4-4e78c9891d12","resource":{"resourceType":"Observation","id":"e49c6559-f9ac-411f-bde4-4e78c9891d12","meta":{"profile":["http://hl7.org/fhir/us/qicore/StructureDefinition/qicore-observation-lab"]},"status":"final","category":[{"coding":[{"system":"http://terminology.hl7.org/CodeSystem/observation-category","code":"imaging","display":"Imaging"}]}],"code":{"coding":[{"system":"http://loinc.org","code":"96914-7","display":"CT dose and image quality category"}],"text":"CT dose and image quality category"},"subject":{"reference":"Patient/405bb76e-a162-49ad-8b52-9f6f745efb64"},"effectiveDateTime":"2024-01-02T00:00:00.000+00:00","valueCodeableConcept":{"coding":[{"system":"http://loinc.org","code":"LA31752-1","display":"Abdomen and Pelvis Low Dose"}]},"component":[{"code":{"coding":[{"system":"http://loinc.org","code":"96912-1","display":"Calculated CT global noise"}]},"valueQuantity":{"value":63,"unit":"[hnsf'U]","system":"http://unitsofmeasure.org","code":"[hnsf'U]"}},{"code":{"coding":[{"system":"http://loinc.org","code":"96913-9","display":"Calculated CT size-adjusted dose"}]},"valueQuantity":{"value":597,"unit":"mGy.cm","system":"http://unitsofmeasure.org","code":"mGy.cm"}}]},"request":{"method":"PUT","url":"Observation/e49c6559-f9ac-411f-bde4-4e78c9891d12"}},{"fullUrl":"Patient/405bb76e-a162-49ad-8b52-9f6f745efb64","resource":{"resourceType":"Patient","id":"405bb76e-a162-49ad-8b52-9f6f745efb64","meta":{"profile":["http://hl7.org/fhir/us/core/StructureDefinition/us-core-patient","http://hl7.org/fhir/us/qicore/StructureDefinition/qicore-patient"]},"extension":[{"url":"http://hl7.org/fhir/us/core/StructureDefinition/us-core-race","extension":[{"url":"ombCategory","valueCoding":{"system":"urn:oid:2.16.840.1.113883.6.238","code":"2028-9","display":"Asian"}},{"url":"text","valueString":"Asian"}]},{"url":"http://hl7.org/fhir/us/core/StructureDefinition/us-core-ethnicity","extension":[{"url":"ombCategory","valueCoding":{"system":"urn:oid:2.16.840.1.113883.6.238","code":"2135-2","display":"Hispanic or Latino"}},{"url":"text","valueString":"Hispanic or Latino"}]},{"url":"http://hl7.org/fhir/us/core/StructureDefinition/us-core-sex","valueCode":"184115007"}],"identifier":[{"system":"http://hospital.smarthealthit.org","value":"999999995"}],"name":[{"family":"Under18","given":["IPPFail"]}],"gender":"unknown","birthDate":"2007-01-02"},"request":{"method":"PUT","url":"Patient/405bb76e-a162-49ad-8b52-9f6f745efb64"}}]}