{
  "resourceType": "Bundle",
  "id": "633b3f9f0968f80122503ce1",
  "type": "transaction",
  "entry": [ {
    "fullUrl": "https://madie.cms.gov/Patient/401ea252-58ee-4255-b537-e90af10ff0a1",
    "resource": {
      "resourceType": "Patient",
      "id": "401ea252-58ee-4255-b537-e90af10ff0a1",
      "meta": {
        "profile": [ "http://hl7.org/fhir/us/qicore/StructureDefinition/qicore-patient" ]
      },
      "text": {
        "status": "generated",
        "div": "<div xmlns=\"http://www.w3.org/1999/xhtml\"><div class=\"hapiHeaderText\">LastAssPrfEGAResultQuantityEQ20<b>DENOMPASS</b></div><table class=\"hapiPropertyTable\"><tbody><tr><td>Date of birth</td><td><span>01 February 2004</span></td></tr></tbody></table></div>"
      },
      "extension": [ {
        "url": "http://hl7.org/fhir/us/core/StructureDefinition/us-core-race",
        "extension": [ {
          "url": "ombCategory",
          "valueCoding": {
            "system": "urn:oid:2.16.840.1.113883.6.238",
            "code": "1002-5",
            "display": "American Indian or Alaska Native",
            "userSelected": true
          }
        }, {
          "url": "text",
          "valueString": "American Indian or Alaska Native"
        } ]
      }, {
        "url": "http://hl7.org/fhir/us/core/StructureDefinition/us-core-ethnicity",
        "extension": [ {
          "url": "ombCategory",
          "valueCoding": {
            "system": "urn:oid:2.16.840.1.113883.6.238",
            "code": "2135-2",
            "display": "Hispanic or Latino",
            "userSelected": true
          }
        }, {
          "url": "text",
          "valueString": "Hispanic or Latino"
        } ]
      } ],
      "identifier": [ {
        "type": {
          "coding": [ {
            "system": "http://terminology.hl7.org/CodeSystem/v2-0203",
            "code": "MR"
          } ]
        },
        "system": "https://bonnie-fhir.healthit.gov/",
        "value": "633b3f9f0968f80122503ce1"
      } ],
      "active": true,
      "name": [ {
        "use": "usual",
        "family": "DENOMPass",
        "given": [ "LastAssPrfEGAResultQuantityEQ20" ]
      } ],
      "gender": "female",
      "birthDate": "2005-02-01"
    },
    "request": {
      "method": "PUT",
      "url": "Patient/401ea252-58ee-4255-b537-e90af10ff0a1"
    }
  }, {
    "fullUrl": "https://madie.cms.gov/Observation/9b9c6d81-5977-44ad-943c-0c2a78331db9",
    "resource": {
      "resourceType": "Observation",
      "id": "9b9c6d81-5977-44ad-943c-0c2a78331db9",
      "meta": {
        "profile": [ "http://hl7.org/fhir/us/qicore/StructureDefinition/qicore-simple-observation" ]
      },
      "status": "final",
      "category": [ {
        "coding": [ {
          "system": "http://terminology.hl7.org/CodeSystem/observation-category",
          "code": "exam",
          "display": "exam",
          "userSelected": true
        } ]
      } ],
      "code": {
        "coding": [ {
          "system": "http://loinc.org",
          "code": "93857-1"
        } ]
      },
      "subject": {
        "reference": "Patient/401ea252-58ee-4255-b537-e90af10ff0a1"
      },
      "effectiveDateTime": "2026-02-01T08:00:00Z",
      "performer": [ {
        "reference": "Organization/example1",
        "display": "Hendricks Country Hospital"
      } ],
      "valueDateTime": "2026-02-01T08:00:00.000+00:00"
    },
    "request": {
      "method": "PUT",
      "url": "Observation/9b9c6d81-5977-44ad-943c-0c2a78331db9"
    }
  }, {
    "fullUrl": "https://madie.cms.gov/Observation/34550d38-b0b0-4bc7-a157-d79f9a1dd082",
    "resource": {
      "resourceType": "Observation",
      "id": "34550d38-b0b0-4bc7-a157-d79f9a1dd082",
      "meta": {
        "profile": [ "http://hl7.org/fhir/us/qicore/StructureDefinition/qicore-simple-observation" ]
      },
      "status": "final",
      "category": [ {
        "coding": [ {
          "system": "http://terminology.hl7.org/CodeSystem/observation-category",
          "code": "exam",
          "display": "exam",
          "userSelected": true
        } ]
      } ],
      "code": {
        "coding": [ {
          "system": "http://loinc.org",
          "code": "11884-4"
        } ]
      },
      "subject": {
        "reference": "Patient/401ea252-58ee-4255-b537-e90af10ff0a1"
      },
      "effectiveDateTime": "2026-02-01T08:00:00Z",
      "performer": [ {
        "reference": "Organization/example1",
        "display": "Hendricks Country Hospital"
      } ],
      "valueQuantity": {
        "value": 20,
        "unit": "wk"
      }
    },
    "request": {
      "method": "PUT",
      "url": "Observation/34550d38-b0b0-4bc7-a157-d79f9a1dd082"
    }
  }, {
    "fullUrl": "https://madie.cms.gov/Encounter/8a3bc27d-af69-4840-8f41-a625d441e2a5",
    "resource": {
      "resourceType": "Encounter",
      "id": "8a3bc27d-af69-4840-8f41-a625d441e2a5",
      "meta": {
        "profile": [ "http://hl7.org/fhir/us/qicore/StructureDefinition/qicore-encounter" ]
      },
      "status": "finished",
      "class": {
        "system": "http://terminology.hl7.org/CodeSystem/v3-ActCode",
        "code": "IMP",
        "display": "inpatient encounter"
      },
      "type": [ {
        "coding": [ {
          "system": "http://snomed.info/sct",
          "code": "183452005"
        } ]
      } ],
      "subject": {
        "reference": "Patient/401ea252-58ee-4255-b537-e90af10ff0a1"
      },
      "period": {
        "start": "2026-02-01T08:00:00Z",
        "end": "2026-02-05T08:15:00.000+00:00"
      }
    },
    "request": {
      "method": "PUT",
      "url": "Encounter/8a3bc27d-af69-4840-8f41-a625d441e2a5"
    }
  }, {
    "fullUrl": "https://madie.cms.gov/Procedure/a1145c8d-7f1b-4461-934c-1af32230680a",
    "resource": {
      "resourceType": "Procedure",
      "id": "a1145c8d-7f1b-4461-934c-1af32230680a",
      "meta": {
        "profile": [ "http://hl7.org/fhir/us/qicore/StructureDefinition/qicore-procedure" ]
      },
      "extension": [ {
        "url": "http://hl7.org/fhir/us/qicore/StructureDefinition/qicore-recorded",
        "valueDateTime": "2014-04-05T13:35:00Z"
      } ],
      "status": "completed",
      "code": {
        "coding": [ {
          "system": "http://snomed.info/sct",
          "code": "10745001"
        } ]
      },
      "subject": {
        "reference": "Patient/401ea252-58ee-4255-b537-e90af10ff0a1"
      },
      "performedPeriod": {
        "start": "2026-02-01T08:00:00Z",
        "end": "2026-02-05T08:15:00.000+00:00"
      }
    },
    "request": {
      "method": "PUT",
      "url": "Procedure/a1145c8d-7f1b-4461-934c-1af32230680a"
    }
  }, {
    "fullUrl": "https://madie.cms.gov/Coverage/c77cd945-4b7f-4f25-8ba4-1eb10cf1dc3c",
    "resource": {
      "resourceType": "Coverage",
      "id": "c77cd945-4b7f-4f25-8ba4-1eb10cf1dc3c",
      "meta": {
        "profile": [ "http://hl7.org/fhir/us/qicore/StructureDefinition/qicore-coverage" ]
      },
      "status": "active",
      "subscriberId": "523435",
      "beneficiary": {
        "reference": "Patient/401ea252-58ee-4255-b537-e90af10ff0a1"
      },
      "relationship": {
        "coding": [ {
          "system": "http://terminology.hl7.org/CodeSystem/subscriber-relationship",
          "code": "self"
        } ]
      },
      "payor": [ {
        "reference": "Organization/587d9e61-9eb9-4db9-98f2-b215cf71180e"
      } ]
    },
    "request": {
      "method": "PUT",
      "url": "Coverage/c77cd945-4b7f-4f25-8ba4-1eb10cf1dc3c"
    }
  }, {
    "fullUrl": "https://madie.cms.gov/Organization/587d9e61-9eb9-4db9-98f2-b215cf71180e",
    "resource": {
      "resourceType": "Organization",
      "id": "587d9e61-9eb9-4db9-98f2-b215cf71180e",
      "meta": {
        "profile": [ "http://hl7.org/fhir/us/qicore/StructureDefinition/qicore-organization" ]
      },
      "identifier": [ {
        "use": "temp",
        "system": "urn:oid:2.16.840.1.113883.4.4",
        "value": "21-3259825"
      } ],
      "active": true,
      "type": [ {
        "coding": [ {
          "system": "http://terminology.hl7.org/CodeSystem/organization-type",
          "code": "pay",
          "display": "Payer"
        } ]
      } ],
      "name": "Blue Cross Blue Shield of Texas",
      "telecom": [ {
        "system": "phone",
        "value": "(+1) 972-766-6900"
      } ],
      "address": [ {
        "use": "billing",
        "type": "postal",
        "line": [ "P.O. Box 660044" ],
        "city": "Dallas",
        "state": "TX",
        "postalCode": "75266-0044",
        "country": "USA"
      } ]
    },
    "request": {
      "method": "PUT",
      "url": "Organization/587d9e61-9eb9-4db9-98f2-b215cf71180e"
    }
  }, {
    "fullUrl": "https://madie.cms.gov/Practitioner/e4624db8-17e0-4880-a30e-431f5f503904",
    "resource": {
      "resourceType": "Practitioner",
      "id": "e4624db8-17e0-4880-a30e-431f5f503904",
      "meta": {
        "profile": [ "http://hl7.org/fhir/us/qicore/StructureDefinition/qicore-practitioner" ]
      },
      "identifier": [ {
        "system": "http://hl7.org/fhir/sid/us-npi",
        "value": "1234567890"
      } ],
      "name": [ {
        "family": "Evil",
        "prefix": [ "Dr" ]
      } ]
    },
    "request": {
      "method": "PUT",
      "url": "Practitioner/e4624db8-17e0-4880-a30e-431f5f503904"
    }
  }, {
    "fullUrl": "https://madie.cms.gov/MeasureReport/fbf88815-2acc-4840-9688-e792736d0bbb",
    "resource": {
      "resourceType": "MeasureReport",
      "id": "fbf88815-2acc-4840-9688-e792736d0bbb",
      "meta": {
        "profile": [ "http://hl7.org/fhir/us/cqfmeasures/StructureDefinition/test-case-cqfm" ]
      },
      "contained": [ {
        "resourceType": "Parameters",
        "id": "60d7346a-230a-403f-9904-124188ccadbe-parameters",
        "parameter": [ {
          "name": "subject",
          "valueString": "401ea252-58ee-4255-b537-e90af10ff0a1"
        } ]
      } ],
      "extension": [ {
        "url": "http://hl7.org/fhir/StructureDefinition/cqf-inputParameters",
        "valueReference": {
          "reference": "#60d7346a-230a-403f-9904-124188ccadbe-parameters"
        }
      }, {
        "url": "http://hl7.org/fhir/us/cqfmeasures/StructureDefinition/cqfm-testCaseDescription",
        "valueMarkdown": "Last Assessment Performed EGA = 20 weeks\n"
      } ],
      "modifierExtension": [ {
        "url": "http://hl7.org/fhir/us/cqfmeasures/StructureDefinition/cqfm-isTestCase",
        "valueBoolean": true
      } ],
      "status": "complete",
      "type": "individual",
      "measure": "https://madie.cms.gov/Measure/CMS1028FHIRPCSevereOBComps",
      "period": {
        "start": "2026-01-01",
        "end": "2026-12-31"
      },
      "group": [ {
        "id": "Group_1",
        "population": [ {
          "id": "InitialPopulation_1",
          "code": {
            "coding": [ {
              "system": "http://terminology.hl7.org/CodeSystem/measure-population",
              "code": "initial-population",
              "display": "Initial Population"
            } ]
          },
          "count": 1
        }, {
          "id": "Denominator_1",
          "code": {
            "coding": [ {
              "system": "http://terminology.hl7.org/CodeSystem/measure-population",
              "code": "denominator",
              "display": "Denominator"
            } ]
          },
          "count": 1
        }, {
          "id": "Numerator_1",
          "code": {
            "coding": [ {
              "system": "http://terminology.hl7.org/CodeSystem/measure-population",
              "code": "numerator",
              "display": "Numerator"
            } ]
          },
          "count": 0
        }, {
          "id": "NumeratorExclusion_1",
          "code": {
            "coding": [ {
              "system": "http://terminology.hl7.org/CodeSystem/measure-population",
              "code": "numerator-exclusion",
              "display": "Numerator Exclusion"
            } ]
          },
          "count": 0
        } ],
        "measureScore": {
          "value": 0.0
        }
      }, {
        "id": "Group_2",
        "population": [ {
          "id": "InitialPopulation_2",
          "code": {
            "coding": [ {
              "system": "http://terminology.hl7.org/CodeSystem/measure-population",
              "code": "initial-population",
              "display": "Initial Population"
            } ]
          },
          "count": 1
        }, {
          "id": "Denominator_2",
          "code": {
            "coding": [ {
              "system": "http://terminology.hl7.org/CodeSystem/measure-population",
              "code": "denominator",
              "display": "Denominator"
            } ]
          },
          "count": 1
        }, {
          "id": "Numerator_2",
          "code": {
            "coding": [ {
              "system": "http://terminology.hl7.org/CodeSystem/measure-population",
              "code": "numerator",
              "display": "Numerator"
            } ]
          },
          "count": 0
        }, {
          "id": "NumeratorExclusion_2",
          "code": {
            "coding": [ {
              "system": "http://terminology.hl7.org/CodeSystem/measure-population",
              "code": "numerator-exclusion",
              "display": "Numerator Exclusion"
            } ]
          },
          "count": 0
        } ],
        "measureScore": {
          "value": 0.0
        }
      } ],
      "evaluatedResource": [ {
        "reference": "Patient/401ea252-58ee-4255-b537-e90af10ff0a1"
      }, {
        "reference": "Observation/9b9c6d81-5977-44ad-943c-0c2a78331db9"
      }, {
        "reference": "Observation/34550d38-b0b0-4bc7-a157-d79f9a1dd082"
      }, {
        "reference": "Encounter/8a3bc27d-af69-4840-8f41-a625d441e2a5"
      }, {
        "reference": "Procedure/a1145c8d-7f1b-4461-934c-1af32230680a"
      }, {
        "reference": "Coverage/c77cd945-4b7f-4f25-8ba4-1eb10cf1dc3c"
      }, {
        "reference": "Organization/587d9e61-9eb9-4db9-98f2-b215cf71180e"
      }, {
        "reference": "Practitioner/e4624db8-17e0-4880-a30e-431f5f503904"
      } ]
    },
    "request": {
      "method": "PUT",
      "url": "MeasureReport/fbf88815-2acc-4840-9688-e792736d0bbb"
    }
  } ]
}