{
  "resourceType": "Bundle",
  "id": "DENEXPass-FrailtyDeviceRequestNotPerformedFalse",
  "type": "transaction",
  "entry": [ {
    "fullUrl": "https://madie.cms.gov/Patient/ede0ee7a-18ab-4ba7-934c-23618f1270ea",
    "resource": {
      "resourceType": "Patient",
      "id": "ede0ee7a-18ab-4ba7-934c-23618f1270ea",
      "meta": {
        "profile": [ "http://hl7.org/fhir/us/qicore/StructureDefinition/qicore-patient" ]
      },
      "extension": [ {
        "url": "http://hl7.org/fhir/us/core/StructureDefinition/us-core-race",
        "extension": [ {
          "url": "ombCategory",
          "valueCoding": {
            "system": "urn:oid:2.16.840.1.113883.6.238",
            "code": "2028-9",
            "display": "Asian",
            "userSelected": true
          }
        }, {
          "url": "text",
          "valueString": "Asian"
        } ]
      }, {
        "url": "http://hl7.org/fhir/us/core/StructureDefinition/us-core-ethnicity",
        "extension": [ {
          "url": "ombCategory",
          "valueCoding": {
            "system": "urn:oid:2.16.840.1.113883.6.238",
            "code": "2135-2",
            "display": "Hispanic or Latino",
            "userSelected": true
          }
        }, {
          "url": "text",
          "valueString": "Hispanic or Latino"
        } ]
      } ],
      "identifier": [ {
        "type": {
          "coding": [ {
            "system": "http://terminology.hl7.org/CodeSystem/v2-0203",
            "code": "MR"
          } ]
        },
        "system": "http://hospital.smarthealthit.org",
        "value": "999999995"
      } ],
      "name": [ {
        "family": "Bertha",
        "given": [ "Betty" ]
      } ],
      "gender": "female",
      "birthDate": "1955-01-01"
    },
    "request": {
      "method": "PUT",
      "url": "Patient/ede0ee7a-18ab-4ba7-934c-23618f1270ea"
    }
  }, {
    "fullUrl": "https://madie.cms.gov/Encounter/88e74920-3f9e-4cab-a9af-c2229a0c87c3",
    "resource": {
      "resourceType": "Encounter",
      "id": "88e74920-3f9e-4cab-a9af-c2229a0c87c3",
      "meta": {
        "profile": [ "http://hl7.org/fhir/us/qicore/StructureDefinition/qicore-encounter" ]
      },
      "status": "finished",
      "class": {
        "system": "http://terminology.hl7.org/CodeSystem/v3-ActCode",
        "code": "AMB",
        "display": "ambulatory"
      },
      "type": [ {
        "coding": [ {
          "system": "http://snomed.info/sct",
          "code": "185460008",
          "display": "Home visit request by patient (procedure)"
        } ]
      } ],
      "subject": {
        "reference": "Patient/ede0ee7a-18ab-4ba7-934c-23618f1270ea"
      },
      "period": {
        "start": "2026-01-01T00:00:00.000+00:00",
        "end": "2026-01-01T00:15:00.000+00:00"
      }
    },
    "request": {
      "method": "PUT",
      "url": "Encounter/88e74920-3f9e-4cab-a9af-c2229a0c87c3"
    }
  }, {
    "fullUrl": "https://madie.cms.gov/Condition/9de3f3d7-f509-4ae4-b551-f04d51b12ec2",
    "resource": {
      "resourceType": "Condition",
      "id": "9de3f3d7-f509-4ae4-b551-f04d51b12ec2",
      "meta": {
        "profile": [ "http://hl7.org/fhir/us/qicore/StructureDefinition/qicore-condition-encounter-diagnosis" ]
      },
      "clinicalStatus": {
        "coding": [ {
          "system": "http://terminology.hl7.org/CodeSystem/condition-clinical",
          "code": "active"
        } ]
      },
      "category": [ {
        "coding": [ {
          "system": "http://terminology.hl7.org/CodeSystem/condition-category",
          "code": "encounter-diagnosis",
          "display": "Encounter Diagnosis"
        } ]
      } ],
      "code": {
        "coding": [ {
          "system": "http://snomed.info/sct",
          "code": "102781000119107",
          "display": "Sensory neuropathy due to type 1 diabetes mellitus (disorder)"
        } ]
      },
      "subject": {
        "reference": "Patient/ede0ee7a-18ab-4ba7-934c-23618f1270ea"
      },
      "onsetDateTime": "2026-01-01T23:59:00.000+00:00"
    },
    "request": {
      "method": "PUT",
      "url": "Condition/9de3f3d7-f509-4ae4-b551-f04d51b12ec2"
    }
  }, {
    "fullUrl": "https://madie.cms.gov/DeviceRequest/cf6afbd0-4ba0-45b3-a9e6-40933b151295",
    "resource": {
      "resourceType": "DeviceRequest",
      "id": "cf6afbd0-4ba0-45b3-a9e6-40933b151295",
      "meta": {
        "profile": [ "http://hl7.org/fhir/us/qicore/StructureDefinition/qicore-devicerequest" ]
      },
      "modifierExtension": [ {
        "url": "http://hl7.org/fhir/5.0/StructureDefinition/extension-DeviceRequest.doNotPerform",
        "valueBoolean": false
      } ],
      "status": "completed",
      "intent": "order",
      "codeCodeableConcept": {
        "coding": [ {
          "system": "http://snomed.info/sct",
          "code": "183240000",
          "display": "Self-propelled wheelchair (physical object)"
        } ]
      },
      "subject": {
        "reference": "Patient/ede0ee7a-18ab-4ba7-934c-23618f1270ea"
      },
      "authoredOn": "2026-11-01T23:59:00.000+00:00"
    },
    "request": {
      "method": "PUT",
      "url": "DeviceRequest/cf6afbd0-4ba0-45b3-a9e6-40933b151295"
    }
  }, {
    "fullUrl": "https://madie.cms.gov/MedicationRequest/b7f3d1ae-8b32-4620-974d-5df66397237a",
    "resource": {
      "resourceType": "MedicationRequest",
      "id": "b7f3d1ae-8b32-4620-974d-5df66397237a",
      "meta": {
        "profile": [ "http://hl7.org/fhir/us/qicore/StructureDefinition/qicore-medicationrequest" ]
      },
      "status": "active",
      "intent": "order",
      "doNotPerform": false,
      "medicationCodeableConcept": {
        "coding": [ {
          "system": "http://www.nlm.nih.gov/research/umls/rxnorm",
          "code": "312836",
          "display": "rivastigmine 6 MG Oral Capsule"
        } ]
      },
      "subject": {
        "reference": "Patient/ede0ee7a-18ab-4ba7-934c-23618f1270ea"
      },
      "authoredOn": "2026-12-30T00:00:00.000+00:00",
      "requester": {
        "reference": "Practitioner/example"
      },
      "dispenseRequest": {
        "expectedSupplyDuration": {
          "value": 90,
          "system": "http://unitsofmeasure.org",
          "code": "days"
        }
      }
    },
    "request": {
      "method": "PUT",
      "url": "MedicationRequest/b7f3d1ae-8b32-4620-974d-5df66397237a"
    }
  }, {
    "fullUrl": "https://madie.cms.gov/MeasureReport/a310ef78-839e-4707-a05f-2e1e2abfa1c7",
    "resource": {
      "resourceType": "MeasureReport",
      "id": "a310ef78-839e-4707-a05f-2e1e2abfa1c7",
      "meta": {
        "profile": [ "http://hl7.org/fhir/us/cqfmeasures/StructureDefinition/test-case-cqfm" ]
      },
      "contained": [ {
        "resourceType": "Parameters",
        "id": "63cebd02-c480-476c-b64f-582f0b1b0495-parameters",
        "parameter": [ {
          "name": "subject",
          "valueString": "ede0ee7a-18ab-4ba7-934c-23618f1270ea"
        } ]
      } ],
      "extension": [ {
        "url": "http://hl7.org/fhir/StructureDefinition/cqf-inputParameters",
        "valueReference": {
          "reference": "#63cebd02-c480-476c-b64f-582f0b1b0495-parameters"
        }
      }, {
        "url": "http://hl7.org/fhir/us/cqfmeasures/StructureDefinition/cqfm-testCaseDescription",
        "valueMarkdown": "Frailty device request not performed is false"
      } ],
      "modifierExtension": [ {
        "url": "http://hl7.org/fhir/us/cqfmeasures/StructureDefinition/cqfm-isTestCase",
        "valueBoolean": true
      } ],
      "status": "complete",
      "type": "individual",
      "measure": "https://madie.cms.gov/Measure/CMS122FHIRDiabetesAssessGreaterThan9Percent",
      "period": {
        "start": "2026-01-01",
        "end": "2026-12-31"
      },
      "group": [ {
        "id": "Group_1",
        "population": [ {
          "id": "InitialPopulation_1",
          "code": {
            "coding": [ {
              "system": "http://terminology.hl7.org/CodeSystem/measure-population",
              "code": "initial-population",
              "display": "Initial Population"
            } ]
          },
          "count": 1
        }, {
          "id": "Denominator_1",
          "code": {
            "coding": [ {
              "system": "http://terminology.hl7.org/CodeSystem/measure-population",
              "code": "denominator",
              "display": "Denominator"
            } ]
          },
          "count": 1
        }, {
          "id": "DenominatorExclusion_1",
          "code": {
            "coding": [ {
              "system": "http://terminology.hl7.org/CodeSystem/measure-population",
              "code": "denominator-exclusion",
              "display": "Denominator Exclusion"
            } ]
          },
          "count": 1
        }, {
          "id": "Numerator_1",
          "code": {
            "coding": [ {
              "system": "http://terminology.hl7.org/CodeSystem/measure-population",
              "code": "numerator",
              "display": "Numerator"
            } ]
          },
          "count": 0
        } ],
        "measureScore": {
          "value": 1.0
        }
      } ],
      "evaluatedResource": [ {
        "reference": "Patient/ede0ee7a-18ab-4ba7-934c-23618f1270ea"
      }, {
        "reference": "Encounter/88e74920-3f9e-4cab-a9af-c2229a0c87c3"
      }, {
        "reference": "Condition/9de3f3d7-f509-4ae4-b551-f04d51b12ec2"
      }, {
        "reference": "DeviceRequest/cf6afbd0-4ba0-45b3-a9e6-40933b151295"
      }, {
        "reference": "MedicationRequest/b7f3d1ae-8b32-4620-974d-5df66397237a"
      } ]
    },
    "request": {
      "method": "PUT",
      "url": "MeasureReport/a310ef78-839e-4707-a05f-2e1e2abfa1c7"
    }
  } ]
}