{"resourceType":"Bundle","id":"tests-fd579f44-757b-4c98-9b09-27b17b935650-bundle","type":"transaction","entry":[{"fullUrl":"Condition/c52f331f-84b9-43e2-8abc-9c6aaaf5f7e8","resource":{"resourceType":"Condition","id":"c52f331f-84b9-43e2-8abc-9c6aaaf5f7e8","meta":{"profile":["http://hl7.org/fhir/us/qicore/StructureDefinition/qicore-condition-encounter-diagnosis"]},"clinicalStatus":{"coding":[{"system":"http://terminology.hl7.org/CodeSystem/condition-clinical","code":"active"}]},"verificationStatus":{"coding":[{"system":"http://terminology.hl7.org/CodeSystem/condition-ver-status","code":"confirmed"}]},"category":[{"coding":[{"system":"http://terminology.hl7.org/CodeSystem/condition-category","code":"encounter-diagnosis","display":"Encounter Diagnosis"}]}],"code":{"coding":[{"system":"http://snomed.info/sct","code":"46635009","display":"Diabetes Mellitus"}]},"subject":{"reference":"Patient/fd579f44-757b-4c98-9b09-27b17b935650"},"encounter":{"reference":"Encounter/3338d1b0-6e46-4e63-b1f5-f1a1648af168"},"onsetDateTime":"2025-07-11T08:00:00.000+00:00","abatementDateTime":"2026-07-31T08:00:00.000+00:00"},"request":{"method":"PUT","url":"Condition/c52f331f-84b9-43e2-8abc-9c6aaaf5f7e8"}},{"fullUrl":"Observation/adb3f065-de13-4690-a62a-f84db83ec9e6","resource":{"resourceType":"Observation","id":"adb3f065-de13-4690-a62a-f84db83ec9e6","meta":{"profile":["http://hl7.org/fhir/us/qicore/StructureDefinition/qicore-observation-lab"]},"status":"final","category":[{"coding":[{"system":"http://terminology.hl7.org/CodeSystem/observation-category","code":"laboratory","display":"Laboratory"}]}],"code":{"coding":[{"system":"http://loinc.org","version":"2.72","code":"1547-9","display":"Glucose Lab Test Mass Per Volume"}]},"subject":{"reference":"Patient/fd579f44-757b-4c98-9b09-27b17b935650"},"effectiveDateTime":"2026-07-11T10:00:00.000+00:00","valueQuantity":{"value":301,"unit":"mg/dL"}},"request":{"method":"PUT","url":"Observation/adb3f065-de13-4690-a62a-f84db83ec9e6"}},{"fullUrl":"MeasureReport/b90479da-9c78-4401-86ca-8045e4477274","resource":{"resourceType":"MeasureReport","id":"b90479da-9c78-4401-86ca-8045e4477274","meta":{"profile":["http://hl7.org/fhir/us/cqfmeasures/StructureDefinition/test-case-cqfm"]},"contained":[{"resourceType":"Parameters","id":"c84a390e-6e5e-430a-850c-9259fd01c670-parameters","parameter":[{"name":"subject","valueString":"fd579f44-757b-4c98-9b09-27b17b935650"}]}],"extension":[{"url":"http://hl7.org/fhir/StructureDefinition/cqf-inputParameters","valueReference":{"reference":"#c84a390e-6e5e-430a-850c-9259fd01c670-parameters"}},{"url":"http://hl7.org/fhir/us/cqfmeasures/StructureDefinition/cqfm-testCaseDescription","valueMarkdown":"Encounter less than a day, diagnosis, meds, and elevated lab test. Therefore Num not met, no MO."}],"modifierExtension":[{"url":"http://hl7.org/fhir/us/cqfmeasures/StructureDefinition/cqfm-isTestCase","valueBoolean":true}],"status":"complete","type":"individual","measure":"https://madie.cms.gov/Measure/CMS871HHHyperFHIR","period":{"start":"2026-01-01","end":"2026-12-31"},"group":[{"id":"Group_1","population":[{"id":"InitialPopulation_1","code":{"coding":[{"system":"http://terminology.hl7.org/CodeSystem/measure-population","code":"initial-population","display":"Initial Population"}]},"count":1},{"id":"Denominator_1","code":{"coding":[{"system":"http://terminology.hl7.org/CodeSystem/measure-population","code":"denominator","display":"Denominator"}]},"count":1},{"id":"DenominatorExclusion_1","code":{"coding":[{"system":"http://terminology.hl7.org/CodeSystem/measure-population","code":"denominator-exclusion","display":"Denominator Exclusion"}]},"count":0},{"id":"Numerator_1","code":{"coding":[{"system":"http://terminology.hl7.org/CodeSystem/measure-population","code":"numerator","display":"Numerator"}]},"count":0},{"id":"NumeratorExclusion_1","code":{"coding":[{"system":"http://terminology.hl7.org/CodeSystem/measure-population","code":"numerator-exclusion","display":"Numerator Exclusion"}]},"count":0},{"id":"MeasureObservation_1_1_1","code":{"coding":[{"system":"http://terminology.hl7.org/CodeSystem/measure-population","code":"measure-observation","display":"Measure Observation"}]},"count":0}],"measureScore":{"value":0.0}}],"evaluatedResource":[{"reference":"Condition/c52f331f-84b9-43e2-8abc-9c6aaaf5f7e8"},{"reference":"MedicationAdministration/c998821a-0261-4926-97c0-da9816c3da6d"},{"reference":"Encounter/3338d1b0-6e46-4e63-b1f5-f1a1648af168"},{"reference":"Patient/fd579f44-757b-4c98-9b09-27b17b935650"},{"reference":"Observation/adb3f065-de13-4690-a62a-f84db83ec9e6"}]},"request":{"method":"PUT","url":"MeasureReport/b90479da-9c78-4401-86ca-8045e4477274"}},{"fullUrl":"Bundle/tests-NumerFail-ShortEncounter1-bundle","resource":{"resourceType":"Bundle","id":"tests-NumerFail-ShortEncounter1-bundle","type":"transaction","entry":[{"fullUrl":"https://madie.cms.gov/Condition/c52f331f-84b9-43e2-8abc-9c6aaaf5f7e8","resource":{"resourceType":"Condition","id":"c52f331f-84b9-43e2-8abc-9c6aaaf5f7e8","meta":{"profile":["http://hl7.org/fhir/us/qicore/StructureDefinition/qicore-condition-encounter-diagnosis"]},"clinicalStatus":{"coding":[{"system":"http://terminology.hl7.org/CodeSystem/condition-clinical","code":"active"}]},"verificationStatus":{"coding":[{"system":"http://terminology.hl7.org/CodeSystem/condition-ver-status","code":"confirmed"}]},"category":[{"coding":[{"system":"http://terminology.hl7.org/CodeSystem/condition-category","code":"encounter-diagnosis","display":"Encounter Diagnosis"}]}],"code":{"coding":[{"system":"http://snomed.info/sct","code":"46635009","display":"Diabetes Mellitus"}]},"subject":{"reference":"Patient/fd579f44-757b-4c98-9b09-27b17b935650"},"encounter":{"reference":"Encounter/3338d1b0-6e46-4e63-b1f5-f1a1648af168"},"onsetDateTime":"2025-07-11T08:00:00.000+00:00","abatementDateTime":"2026-07-31T08:00:00.000+00:00"},"request":{"method":"PUT","url":"Condition/c52f331f-84b9-43e2-8abc-9c6aaaf5f7e8"}},{"fullUrl":"https://madie.cms.gov/MedicationAdministration/c998821a-0261-4926-97c0-da9816c3da6d","resource":{"resourceType":"MedicationAdministration","id":"c998821a-0261-4926-97c0-da9816c3da6d","meta":{"profile":["http://hl7.org/fhir/us/qicore/StructureDefinition/qicore-medicationadministration"]},"status":"completed","medicationCodeableConcept":{"coding":[{"system":"http://www.nlm.nih.gov/research/umls/rxnorm","code":"1368018","display":"Hypoglycemics Treatment Medications"}]},"subject":{"reference":"Patient/fd579f44-757b-4c98-9b09-27b17b935650"},"context":{"reference":"Encounter/3338d1b0-6e46-4e63-b1f5-f1a1648af168"},"effectivePeriod":{"start":"2026-07-11T09:00:00.000+00:00","end":"2026-07-11T10:00:00.000+00:00"},"dosage":{"route":{"coding":[{"system":"http://terminology.hl7.org/CodeSystem/medication-route","code":"ORAL","display":"Oral"}]}}},"request":{"method":"PUT","url":"MedicationAdministration/c998821a-0261-4926-97c0-da9816c3da6d"}},{"fullUrl":"https://madie.cms.gov/Encounter/3338d1b0-6e46-4e63-b1f5-f1a1648af168","resource":{"resourceType":"Encounter","id":"3338d1b0-6e46-4e63-b1f5-f1a1648af168","meta":{"profile":["http://hl7.org/fhir/us/qicore/StructureDefinition/qicore-encounter"]},"status":"finished","class":{"system":"http://terminology.hl7.org/CodeSystem/v3-ActCode","code":"IMP","display":"inpatient encounter"},"type":[{"coding":[{"system":"http://snomed.info/sct","code":"183452005","display":"Inpatient encounter"}]}],"subject":{"reference":"Patient/fd579f44-757b-4c98-9b09-27b17b935650"},"period":{"start":"2026-07-11T08:00:00.000+00:00","end":"2026-07-11T22:00:00.000+00:00"}},"request":{"method":"PUT","url":"Encounter/3338d1b0-6e46-4e63-b1f5-f1a1648af168"}},{"fullUrl":"https://madie.cms.gov/Patient/fd579f44-757b-4c98-9b09-27b17b935650","resource":{"resourceType":"Patient","id":"fd579f44-757b-4c98-9b09-27b17b935650","meta":{"profile":["http://hl7.org/fhir/us/qicore/StructureDefinition/qicore-patient"]},"extension":[{"url":"http://hl7.org/fhir/us/core/StructureDefinition/us-core-race","extension":[{"url":"ombCategory","valueCoding":{"system":"urn:oid:2.16.840.1.113883.6.238","code":"2106-3","display":"White"}},{"url":"text","valueString":"White"}]},{"url":"http://hl7.org/fhir/us/core/StructureDefinition/us-core-ethnicity","extension":[{"url":"ombCategory","valueCoding":{"system":"urn:oid:2.16.840.1.113883.6.238","code":"2135-2","display":"Hispanic or Latino"}},{"url":"text","valueString":"Hispanic or Latino"}]},{"url":"http://hl7.org/fhir/us/core/StructureDefinition/us-core-sex","valueCode":"248153007"}],"identifier":[{"system":"http://hospital.smarthealthit.org","value":"999999999"}],"name":[{"family":"Example","given":["Patient"]}],"gender":"female","birthDate":"1956-01-01"},"request":{"method":"PUT","url":"Patient/fd579f44-757b-4c98-9b09-27b17b935650"}},{"fullUrl":"https://madie.cms.gov/Observation/adb3f065-de13-4690-a62a-f84db83ec9e6","resource":{"resourceType":"Observation","id":"adb3f065-de13-4690-a62a-f84db83ec9e6","meta":{"profile":["http://hl7.org/fhir/us/qicore/StructureDefinition/qicore-observation-lab"]},"status":"final","category":[{"coding":[{"system":"http://terminology.hl7.org/CodeSystem/observation-category","code":"laboratory","display":"Laboratory"}]}],"code":{"coding":[{"system":"http://loinc.org","version":"2.72","code":"1547-9","display":"Glucose Lab Test Mass Per Volume"}]},"subject":{"reference":"Patient/fd579f44-757b-4c98-9b09-27b17b935650"},"effectiveDateTime":"2026-07-11T10:00:00.000+00:00","valueQuantity":{"value":301,"unit":"mg/dL"}},"request":{"method":"PUT","url":"Observation/adb3f065-de13-4690-a62a-f84db83ec9e6"}},{"fullUrl":"https://madie.cms.gov/MeasureReport/b90479da-9c78-4401-86ca-8045e4477274","resource":{"resourceType":"MeasureReport","id":"b90479da-9c78-4401-86ca-8045e4477274","meta":{"profile":["http://hl7.org/fhir/us/cqfmeasures/StructureDefinition/test-case-cqfm"]},"contained":[{"resourceType":"Parameters","id":"c84a390e-6e5e-430a-850c-9259fd01c670-parameters","parameter":[{"name":"subject","valueString":"fd579f44-757b-4c98-9b09-27b17b935650"}]}],"extension":[{"url":"http://hl7.org/fhir/StructureDefinition/cqf-inputParameters","valueReference":{"reference":"#c84a390e-6e5e-430a-850c-9259fd01c670-parameters"}},{"url":"http://hl7.org/fhir/us/cqfmeasures/StructureDefinition/cqfm-testCaseDescription","valueMarkdown":"Encounter less than a day, diagnosis, meds, and elevated lab test. Therefore Num not met, no MO."}],"modifierExtension":[{"url":"http://hl7.org/fhir/us/cqfmeasures/StructureDefinition/cqfm-isTestCase","valueBoolean":true}],"status":"complete","type":"individual","measure":"https://madie.cms.gov/Measure/CMS871HHHyperFHIR","period":{"start":"2026-01-01","end":"2026-12-31"},"group":[{"id":"Group_1","population":[{"id":"InitialPopulation_1","code":{"coding":[{"system":"http://terminology.hl7.org/CodeSystem/measure-population","code":"initial-population","display":"Initial Population"}]},"count":1},{"id":"Denominator_1","code":{"coding":[{"system":"http://terminology.hl7.org/CodeSystem/measure-population","code":"denominator","display":"Denominator"}]},"count":1},{"id":"DenominatorExclusion_1","code":{"coding":[{"system":"http://terminology.hl7.org/CodeSystem/measure-population","code":"denominator-exclusion","display":"Denominator Exclusion"}]},"count":0},{"id":"Numerator_1","code":{"coding":[{"system":"http://terminology.hl7.org/CodeSystem/measure-population","code":"numerator","display":"Numerator"}]},"count":0},{"id":"NumeratorExclusion_1","code":{"coding":[{"system":"http://terminology.hl7.org/CodeSystem/measure-population","code":"numerator-exclusion","display":"Numerator Exclusion"}]},"count":0},{"id":"MeasureObservation_1_1_1","code":{"coding":[{"system":"http://terminology.hl7.org/CodeSystem/measure-population","code":"measure-observation","display":"Measure Observation"}]},"count":0}],"measureScore":{"value":0.0}}],"evaluatedResource":[{"reference":"Condition/c52f331f-84b9-43e2-8abc-9c6aaaf5f7e8"},{"reference":"MedicationAdministration/c998821a-0261-4926-97c0-da9816c3da6d"},{"reference":"Encounter/3338d1b0-6e46-4e63-b1f5-f1a1648af168"},{"reference":"Patient/fd579f44-757b-4c98-9b09-27b17b935650"},{"reference":"Observation/adb3f065-de13-4690-a62a-f84db83ec9e6"}]},"request":{"method":"PUT","url":"MeasureReport/b90479da-9c78-4401-86ca-8045e4477274"}}]},"request":{"method":"PUT","url":"Bundle/tests-NumerFail-ShortEncounter1-bundle"}},{"fullUrl":"MedicationAdministration/c998821a-0261-4926-97c0-da9816c3da6d","resource":{"resourceType":"MedicationAdministration","id":"c998821a-0261-4926-97c0-da9816c3da6d","meta":{"profile":["http://hl7.org/fhir/us/qicore/StructureDefinition/qicore-medicationadministration"]},"status":"completed","medicationCodeableConcept":{"coding":[{"system":"http://www.nlm.nih.gov/research/umls/rxnorm","code":"1368018","display":"Hypoglycemics Treatment Medications"}]},"subject":{"reference":"Patient/fd579f44-757b-4c98-9b09-27b17b935650"},"context":{"reference":"Encounter/3338d1b0-6e46-4e63-b1f5-f1a1648af168"},"effectivePeriod":{"start":"2026-07-11T09:00:00.000+00:00","end":"2026-07-11T10:00:00.000+00:00"},"dosage":{"route":{"coding":[{"system":"http://terminology.hl7.org/CodeSystem/medication-route","code":"ORAL","display":"Oral"}]}}},"request":{"method":"PUT","url":"MedicationAdministration/c998821a-0261-4926-97c0-da9816c3da6d"}},{"fullUrl":"Patient/fd579f44-757b-4c98-9b09-27b17b935650","resource":{"resourceType":"Patient","id":"fd579f44-757b-4c98-9b09-27b17b935650","meta":{"profile":["http://hl7.org/fhir/us/qicore/StructureDefinition/qicore-patient"]},"extension":[{"url":"http://hl7.org/fhir/us/core/StructureDefinition/us-core-race","extension":[{"url":"ombCategory","valueCoding":{"system":"urn:oid:2.16.840.1.113883.6.238","code":"2106-3","display":"White"}},{"url":"text","valueString":"White"}]},{"url":"http://hl7.org/fhir/us/core/StructureDefinition/us-core-ethnicity","extension":[{"url":"ombCategory","valueCoding":{"system":"urn:oid:2.16.840.1.113883.6.238","code":"2135-2","display":"Hispanic or Latino"}},{"url":"text","valueString":"Hispanic or Latino"}]},{"url":"http://hl7.org/fhir/us/core/StructureDefinition/us-core-sex","valueCode":"248153007"}],"identifier":[{"system":"http://hospital.smarthealthit.org","value":"999999999"}],"name":[{"family":"Example","given":["Patient"]}],"gender":"female","birthDate":"1956-01-01"},"request":{"method":"PUT","url":"Patient/fd579f44-757b-4c98-9b09-27b17b935650"}},{"fullUrl":"Encounter/3338d1b0-6e46-4e63-b1f5-f1a1648af168","resource":{"resourceType":"Encounter","id":"3338d1b0-6e46-4e63-b1f5-f1a1648af168","meta":{"profile":["http://hl7.org/fhir/us/qicore/StructureDefinition/qicore-encounter"]},"status":"finished","class":{"system":"http://terminology.hl7.org/CodeSystem/v3-ActCode","code":"IMP","display":"inpatient encounter"},"type":[{"coding":[{"system":"http://snomed.info/sct","code":"183452005","display":"Inpatient encounter"}]}],"subject":{"reference":"Patient/fd579f44-757b-4c98-9b09-27b17b935650"},"period":{"start":"2026-07-11T08:00:00.000+00:00","end":"2026-07-11T22:00:00.000+00:00"}},"request":{"method":"PUT","url":"Encounter/3338d1b0-6e46-4e63-b1f5-f1a1648af168"}}]}