{"resourceType":"Bundle","id":"tests-113a6e72-7049-4a7f-90cf-5ec3435b0dee-bundle","type":"transaction","entry":[{"fullUrl":"Bundle/tests-NumerFail-0GlucoseValue-bundle","resource":{"resourceType":"Bundle","id":"tests-NumerFail-0GlucoseValue-bundle","type":"transaction","entry":[{"fullUrl":"https://madie.cms.gov/Condition/04d0c839-48f3-4f0c-b1c0-4d008c5082a0","resource":{"resourceType":"Condition","id":"04d0c839-48f3-4f0c-b1c0-4d008c5082a0","meta":{"profile":["http://hl7.org/fhir/us/qicore/StructureDefinition/qicore-condition-encounter-diagnosis"]},"clinicalStatus":{"coding":[{"system":"http://terminology.hl7.org/CodeSystem/condition-clinical","code":"active"}]},"verificationStatus":{"coding":[{"system":"http://terminology.hl7.org/CodeSystem/condition-ver-status","code":"confirmed"}]},"category":[{"coding":[{"system":"http://terminology.hl7.org/CodeSystem/condition-category","code":"encounter-diagnosis","display":"Encounter Diagnosis"}]}],"code":{"coding":[{"system":"http://snomed.info/sct","code":"46635009","display":"Diabetes Mellitus"}]},"subject":{"reference":"Patient/113a6e72-7049-4a7f-90cf-5ec3435b0dee"},"encounter":{"reference":"Encounter/3f896dce-7f09-4779-8b3b-4edb9592d854"},"onsetDateTime":"2026-07-09T08:00:00.000+00:00"},"request":{"method":"PUT","url":"Condition/04d0c839-48f3-4f0c-b1c0-4d008c5082a0"}},{"fullUrl":"https://madie.cms.gov/Encounter/3f896dce-7f09-4779-8b3b-4edb9592d854","resource":{"resourceType":"Encounter","id":"3f896dce-7f09-4779-8b3b-4edb9592d854","meta":{"profile":["http://hl7.org/fhir/us/qicore/StructureDefinition/qicore-encounter"]},"status":"finished","class":{"system":"http://terminology.hl7.org/CodeSystem/v3-ActCode","code":"IMP","display":"inpatient encounter"},"type":[{"coding":[{"system":"http://snomed.info/sct","code":"183452005","display":"Inpatient encounter"}]}],"subject":{"reference":"Patient/113a6e72-7049-4a7f-90cf-5ec3435b0dee"},"period":{"start":"2026-07-11T08:00:00.000+00:00","end":"2026-07-16T09:00:00.000+00:00"}},"request":{"method":"PUT","url":"Encounter/3f896dce-7f09-4779-8b3b-4edb9592d854"}},{"resource":{"resourceType":"Patient","meta":{"profile":["http://hl7.org/fhir/us/qicore/StructureDefinition/qicore-patient"]},"extension":[{"url":"http://hl7.org/fhir/us/core/StructureDefinition/us-core-race","extension":[{"url":"ombCategory","valueCoding":{"system":"urn:oid:2.16.840.1.113883.6.238","code":"2106-3","display":"White"}},{"url":"text","valueString":"White"}]},{"url":"http://hl7.org/fhir/us/core/StructureDefinition/us-core-ethnicity","extension":[{"url":"ombCategory","valueCoding":{"system":"urn:oid:2.16.840.1.113883.6.238","code":"2135-2","display":"Hispanic or Latino"}},{"url":"text","valueString":"Hispanic or Latino"}]},{"url":"http://hl7.org/fhir/us/core/StructureDefinition/us-core-sex","valueCode":"248153007"}],"identifier":[{"system":"http://hospital.smarthealthit.org","value":"999999999"}],"name":[{"family":"Example","given":["Patient"]}],"gender":"female","birthDate":"1956-01-01"},"request":{"method":"PUT","url":"Patient/null"}},{"fullUrl":"https://madie.cms.gov/Observation/ccede7a7-52ae-4aa2-ae73-4ab8165b9597","resource":{"resourceType":"Observation","id":"ccede7a7-52ae-4aa2-ae73-4ab8165b9597","meta":{"profile":["http://hl7.org/fhir/us/qicore/StructureDefinition/qicore-observation-lab"]},"status":"final","category":[{"coding":[{"system":"http://terminology.hl7.org/CodeSystem/observation-category","code":"laboratory","display":"Laboratory"}]}],"code":{"coding":[{"system":"http://loinc.org","version":"2.72","code":"1547-9","display":"Glucose Lab Test Mass Per Volume"}]},"subject":{"reference":"Patient/113a6e72-7049-4a7f-90cf-5ec3435b0dee"},"effectiveDateTime":"2026-07-12T08:00:00.000+00:00","valueQuantity":{"value":201,"unit":"mg/dL"}},"request":{"method":"PUT","url":"Observation/ccede7a7-52ae-4aa2-ae73-4ab8165b9597"}},{"fullUrl":"https://madie.cms.gov/Observation/bdb874e4-964c-4166-b962-f77236262b73","resource":{"resourceType":"Observation","id":"bdb874e4-964c-4166-b962-f77236262b73","meta":{"profile":["http://hl7.org/fhir/us/qicore/StructureDefinition/qicore-observation-lab"]},"status":"final","category":[{"coding":[{"system":"http://terminology.hl7.org/CodeSystem/observation-category","code":"laboratory","display":"Laboratory"}]}],"code":{"coding":[{"system":"http://loinc.org","version":"2.72","code":"1547-9","display":"Glucose Lab Test Mass Per Volume"}]},"subject":{"reference":"Patient/113a6e72-7049-4a7f-90cf-5ec3435b0dee"},"effectiveDateTime":"2026-07-14T08:00:00.000+00:00","valueQuantity":{"value":0,"unit":"mg/dL"}},"request":{"method":"PUT","url":"Observation/bdb874e4-964c-4166-b962-f77236262b73"}},{"fullUrl":"https://madie.cms.gov/Observation/d8113ca1-3dd4-40c9-8192-0887cb1b76ee","resource":{"resourceType":"Observation","id":"d8113ca1-3dd4-40c9-8192-0887cb1b76ee","meta":{"profile":["http://hl7.org/fhir/us/qicore/StructureDefinition/qicore-observation-lab"]},"status":"final","category":[{"coding":[{"system":"http://terminology.hl7.org/CodeSystem/observation-category","code":"laboratory","display":"Laboratory"}]}],"code":{"coding":[{"system":"http://loinc.org","version":"2.72","code":"1547-9","display":"Glucose Lab Test Mass Per Volume"}]},"subject":{"reference":"Patient/113a6e72-7049-4a7f-90cf-5ec3435b0dee"},"effectiveDateTime":"2026-07-13T08:00:00.000+00:00","valueQuantity":{"value":201,"unit":"mg/dL"}},"request":{"method":"PUT","url":"Observation/d8113ca1-3dd4-40c9-8192-0887cb1b76ee"}},{"fullUrl":"https://madie.cms.gov/MeasureReport/a660dd1b-20ac-4e8c-8670-bf491cfb1dc2","resource":{"resourceType":"MeasureReport","id":"a660dd1b-20ac-4e8c-8670-bf491cfb1dc2","meta":{"profile":["http://hl7.org/fhir/us/cqfmeasures/StructureDefinition/test-case-cqfm"]},"contained":[{"resourceType":"Parameters","id":"b70c70d9-213b-4c2b-adaa-b52e6cf75077-parameters","parameter":[{"name":"subject"}]}],"extension":[{"url":"http://hl7.org/fhir/StructureDefinition/cqf-inputParameters","valueReference":{"reference":"#b70c70d9-213b-4c2b-adaa-b52e6cf75077-parameters"}},{"url":"http://hl7.org/fhir/us/cqfmeasures/StructureDefinition/cqfm-testCaseDescription","valueMarkdown":"Encounter with diabetes dx. Glucose on day 4 has value = 0 mg/dL. Previous 2 days have values GT 200 mg/dL. Day 4 is NOT considered a \"no glucose day\". Numerator is therefore not met. Test is to validate CQM 6218 inquiry."}],"modifierExtension":[{"url":"http://hl7.org/fhir/us/cqfmeasures/StructureDefinition/cqfm-isTestCase","valueBoolean":true}],"status":"complete","type":"individual","measure":"https://madie.cms.gov/Measure/CMS871HHHyperFHIR","period":{"start":"2026-01-01","end":"2026-12-31"},"group":[{"id":"Group_1","population":[{"id":"InitialPopulation_1","code":{"coding":[{"system":"http://terminology.hl7.org/CodeSystem/measure-population","code":"initial-population","display":"Initial Population"}]},"count":1},{"id":"Denominator_1","code":{"coding":[{"system":"http://terminology.hl7.org/CodeSystem/measure-population","code":"denominator","display":"Denominator"}]},"count":1},{"id":"DenominatorExclusion_1","code":{"coding":[{"system":"http://terminology.hl7.org/CodeSystem/measure-population","code":"denominator-exclusion","display":"Denominator Exclusion"}]},"count":0},{"id":"Numerator_1","code":{"coding":[{"system":"http://terminology.hl7.org/CodeSystem/measure-population","code":"numerator","display":"Numerator"}]},"count":0},{"id":"NumeratorExclusion_1","code":{"coding":[{"system":"http://terminology.hl7.org/CodeSystem/measure-population","code":"numerator-exclusion","display":"Numerator Exclusion"}]},"count":0},{"id":"MeasureObservation_1_1_1","code":{"coding":[{"system":"http://terminology.hl7.org/CodeSystem/measure-population","code":"measure-observation","display":"Measure Observation"}]},"count":4}],"measureScore":{"value":0.0}}],"evaluatedResource":[{"reference":"Condition/04d0c839-48f3-4f0c-b1c0-4d008c5082a0"},{"reference":"Encounter/3f896dce-7f09-4779-8b3b-4edb9592d854"},{"reference":"Patient/null"},{"reference":"Observation/ccede7a7-52ae-4aa2-ae73-4ab8165b9597"},{"reference":"Observation/bdb874e4-964c-4166-b962-f77236262b73"},{"reference":"Observation/d8113ca1-3dd4-40c9-8192-0887cb1b76ee"}]},"request":{"method":"PUT","url":"MeasureReport/a660dd1b-20ac-4e8c-8670-bf491cfb1dc2"}}]},"request":{"method":"PUT","url":"Bundle/tests-NumerFail-0GlucoseValue-bundle"}},{"fullUrl":"Patient/patient-113a6e72-7049-4a7f-90cf-5ec3435b0dee","resource":{"resourceType":"Patient","id":"patient-113a6e72-7049-4a7f-90cf-5ec3435b0dee","meta":{"profile":["http://hl7.org/fhir/us/qicore/StructureDefinition/qicore-patient"]},"extension":[{"url":"http://hl7.org/fhir/us/core/StructureDefinition/us-core-race","extension":[{"url":"ombCategory","valueCoding":{"system":"urn:oid:2.16.840.1.113883.6.238","code":"2106-3","display":"White"}},{"url":"text","valueString":"White"}]},{"url":"http://hl7.org/fhir/us/core/StructureDefinition/us-core-ethnicity","extension":[{"url":"ombCategory","valueCoding":{"system":"urn:oid:2.16.840.1.113883.6.238","code":"2135-2","display":"Hispanic or Latino"}},{"url":"text","valueString":"Hispanic or Latino"}]},{"url":"http://hl7.org/fhir/us/core/StructureDefinition/us-core-sex","valueCode":"248153007"}],"identifier":[{"system":"http://hospital.smarthealthit.org","value":"999999999"}],"name":[{"family":"Example","given":["Patient"]}],"gender":"female","birthDate":"1956-01-01"},"request":{"method":"PUT","url":"Patient/patient-113a6e72-7049-4a7f-90cf-5ec3435b0dee"}},{"fullUrl":"Observation/bdb874e4-964c-4166-b962-f77236262b73","resource":{"resourceType":"Observation","id":"bdb874e4-964c-4166-b962-f77236262b73","meta":{"profile":["http://hl7.org/fhir/us/qicore/StructureDefinition/qicore-observation-lab"]},"status":"final","category":[{"coding":[{"system":"http://terminology.hl7.org/CodeSystem/observation-category","code":"laboratory","display":"Laboratory"}]}],"code":{"coding":[{"system":"http://loinc.org","version":"2.72","code":"1547-9","display":"Glucose Lab Test Mass Per Volume"}]},"subject":{"reference":"Patient/113a6e72-7049-4a7f-90cf-5ec3435b0dee"},"effectiveDateTime":"2026-07-14T08:00:00.000+00:00","valueQuantity":{"value":0,"unit":"mg/dL"}},"request":{"method":"PUT","url":"Observation/bdb874e4-964c-4166-b962-f77236262b73"}},{"fullUrl":"Condition/04d0c839-48f3-4f0c-b1c0-4d008c5082a0","resource":{"resourceType":"Condition","id":"04d0c839-48f3-4f0c-b1c0-4d008c5082a0","meta":{"profile":["http://hl7.org/fhir/us/qicore/StructureDefinition/qicore-condition-encounter-diagnosis"]},"clinicalStatus":{"coding":[{"system":"http://terminology.hl7.org/CodeSystem/condition-clinical","code":"active"}]},"verificationStatus":{"coding":[{"system":"http://terminology.hl7.org/CodeSystem/condition-ver-status","code":"confirmed"}]},"category":[{"coding":[{"system":"http://terminology.hl7.org/CodeSystem/condition-category","code":"encounter-diagnosis","display":"Encounter Diagnosis"}]}],"code":{"coding":[{"system":"http://snomed.info/sct","code":"46635009","display":"Diabetes Mellitus"}]},"subject":{"reference":"Patient/113a6e72-7049-4a7f-90cf-5ec3435b0dee"},"encounter":{"reference":"Encounter/3f896dce-7f09-4779-8b3b-4edb9592d854"},"onsetDateTime":"2026-07-09T08:00:00.000+00:00"},"request":{"method":"PUT","url":"Condition/04d0c839-48f3-4f0c-b1c0-4d008c5082a0"}},{"fullUrl":"Encounter/3f896dce-7f09-4779-8b3b-4edb9592d854","resource":{"resourceType":"Encounter","id":"3f896dce-7f09-4779-8b3b-4edb9592d854","meta":{"profile":["http://hl7.org/fhir/us/qicore/StructureDefinition/qicore-encounter"]},"status":"finished","class":{"system":"http://terminology.hl7.org/CodeSystem/v3-ActCode","code":"IMP","display":"inpatient encounter"},"type":[{"coding":[{"system":"http://snomed.info/sct","code":"183452005","display":"Inpatient encounter"}]}],"subject":{"reference":"Patient/113a6e72-7049-4a7f-90cf-5ec3435b0dee"},"period":{"start":"2026-07-11T08:00:00.000+00:00","end":"2026-07-16T09:00:00.000+00:00"}},"request":{"method":"PUT","url":"Encounter/3f896dce-7f09-4779-8b3b-4edb9592d854"}},{"fullUrl":"Observation/d8113ca1-3dd4-40c9-8192-0887cb1b76ee","resource":{"resourceType":"Observation","id":"d8113ca1-3dd4-40c9-8192-0887cb1b76ee","meta":{"profile":["http://hl7.org/fhir/us/qicore/StructureDefinition/qicore-observation-lab"]},"status":"final","category":[{"coding":[{"system":"http://terminology.hl7.org/CodeSystem/observation-category","code":"laboratory","display":"Laboratory"}]}],"code":{"coding":[{"system":"http://loinc.org","version":"2.72","code":"1547-9","display":"Glucose Lab Test Mass Per Volume"}]},"subject":{"reference":"Patient/113a6e72-7049-4a7f-90cf-5ec3435b0dee"},"effectiveDateTime":"2026-07-13T08:00:00.000+00:00","valueQuantity":{"value":201,"unit":"mg/dL"}},"request":{"method":"PUT","url":"Observation/d8113ca1-3dd4-40c9-8192-0887cb1b76ee"}},{"fullUrl":"MeasureReport/a660dd1b-20ac-4e8c-8670-bf491cfb1dc2","resource":{"resourceType":"MeasureReport","id":"a660dd1b-20ac-4e8c-8670-bf491cfb1dc2","meta":{"profile":["http://hl7.org/fhir/us/cqfmeasures/StructureDefinition/test-case-cqfm"]},"contained":[{"resourceType":"Parameters","id":"b70c70d9-213b-4c2b-adaa-b52e6cf75077-parameters","parameter":[{"name":"subject"}]}],"extension":[{"url":"http://hl7.org/fhir/StructureDefinition/cqf-inputParameters","valueReference":{"reference":"#b70c70d9-213b-4c2b-adaa-b52e6cf75077-parameters"}},{"url":"http://hl7.org/fhir/us/cqfmeasures/StructureDefinition/cqfm-testCaseDescription","valueMarkdown":"Encounter with diabetes dx. Glucose on day 4 has value = 0 mg/dL. Previous 2 days have values GT 200 mg/dL. Day 4 is NOT considered a \"no glucose day\". Numerator is therefore not met. Test is to validate CQM 6218 inquiry."}],"modifierExtension":[{"url":"http://hl7.org/fhir/us/cqfmeasures/StructureDefinition/cqfm-isTestCase","valueBoolean":true}],"status":"complete","type":"individual","measure":"https://madie.cms.gov/Measure/CMS871HHHyperFHIR","period":{"start":"2026-01-01","end":"2026-12-31"},"group":[{"id":"Group_1","population":[{"id":"InitialPopulation_1","code":{"coding":[{"system":"http://terminology.hl7.org/CodeSystem/measure-population","code":"initial-population","display":"Initial Population"}]},"count":1},{"id":"Denominator_1","code":{"coding":[{"system":"http://terminology.hl7.org/CodeSystem/measure-population","code":"denominator","display":"Denominator"}]},"count":1},{"id":"DenominatorExclusion_1","code":{"coding":[{"system":"http://terminology.hl7.org/CodeSystem/measure-population","code":"denominator-exclusion","display":"Denominator Exclusion"}]},"count":0},{"id":"Numerator_1","code":{"coding":[{"system":"http://terminology.hl7.org/CodeSystem/measure-population","code":"numerator","display":"Numerator"}]},"count":0},{"id":"NumeratorExclusion_1","code":{"coding":[{"system":"http://terminology.hl7.org/CodeSystem/measure-population","code":"numerator-exclusion","display":"Numerator Exclusion"}]},"count":0},{"id":"MeasureObservation_1_1_1","code":{"coding":[{"system":"http://terminology.hl7.org/CodeSystem/measure-population","code":"measure-observation","display":"Measure Observation"}]},"count":4}],"measureScore":{"value":0.0}}],"evaluatedResource":[{"reference":"Condition/04d0c839-48f3-4f0c-b1c0-4d008c5082a0"},{"reference":"Encounter/3f896dce-7f09-4779-8b3b-4edb9592d854"},{"reference":"Patient/null"},{"reference":"Observation/ccede7a7-52ae-4aa2-ae73-4ab8165b9597"},{"reference":"Observation/bdb874e4-964c-4166-b962-f77236262b73"},{"reference":"Observation/d8113ca1-3dd4-40c9-8192-0887cb1b76ee"}]},"request":{"method":"PUT","url":"MeasureReport/a660dd1b-20ac-4e8c-8670-bf491cfb1dc2"}},{"fullUrl":"Observation/ccede7a7-52ae-4aa2-ae73-4ab8165b9597","resource":{"resourceType":"Observation","id":"ccede7a7-52ae-4aa2-ae73-4ab8165b9597","meta":{"profile":["http://hl7.org/fhir/us/qicore/StructureDefinition/qicore-observation-lab"]},"status":"final","category":[{"coding":[{"system":"http://terminology.hl7.org/CodeSystem/observation-category","code":"laboratory","display":"Laboratory"}]}],"code":{"coding":[{"system":"http://loinc.org","version":"2.72","code":"1547-9","display":"Glucose Lab Test Mass Per Volume"}]},"subject":{"reference":"Patient/113a6e72-7049-4a7f-90cf-5ec3435b0dee"},"effectiveDateTime":"2026-07-12T08:00:00.000+00:00","valueQuantity":{"value":201,"unit":"mg/dL"}},"request":{"method":"PUT","url":"Observation/ccede7a7-52ae-4aa2-ae73-4ab8165b9597"}}]}