{"resourceType":"Bundle","id":"tests-baf4bf9c-5aa3-422d-a5d2-fdb37b0c8f44-bundle","type":"transaction","entry":[{"fullUrl":"Condition/056c5782-9087-42bd-85c1-1b60a5b4a58c","resource":{"resourceType":"Condition","id":"056c5782-9087-42bd-85c1-1b60a5b4a58c","meta":{"profile":["http://hl7.org/fhir/us/qicore/StructureDefinition/qicore-condition-encounter-diagnosis"]},"clinicalStatus":{"coding":[{"system":"http://terminology.hl7.org/CodeSystem/condition-clinical","code":"active"}]},"category":[{"coding":[{"system":"http://terminology.hl7.org/CodeSystem/condition-category","code":"encounter-diagnosis","display":"Encounter Diagnosis"}]}],"code":{"coding":[{"system":"http://hl7.org/fhir/sid/icd-10-cm","code":"E10.21","display":"Type 1 diabetes mellitus with diabetic nephropathy"}]},"subject":{"reference":"Patient/baf4bf9c-5aa3-422d-a5d2-fdb37b0c8f44"},"onsetDateTime":"2011-01-02"},"request":{"method":"PUT","url":"Condition/056c5782-9087-42bd-85c1-1b60a5b4a58c"}},{"fullUrl":"Encounter/140f6834-9cb5-41ac-8cb4-caf5015d6199","resource":{"resourceType":"Encounter","id":"140f6834-9cb5-41ac-8cb4-caf5015d6199","meta":{"profile":["http://hl7.org/fhir/us/qicore/StructureDefinition/qicore-encounter"]},"status":"finished","class":{"system":"http://terminology.hl7.org/CodeSystem/v3-ActCode","code":"IMP","display":"inpatient encounter"},"type":[{"coding":[{"system":"http://snomed.info/sct","code":"183452005"}]}],"subject":{"reference":"Patient/baf4bf9c-5aa3-422d-a5d2-fdb37b0c8f44"},"period":{"start":"2026-04-07T08:00:00Z","end":"2026-04-11T08:15:00.000+00:00"},"hospitalization":{"dischargeDisposition":{"coding":[{"system":"http://snomed.info/sct","code":"428371000124100"}]}}},"request":{"method":"PUT","url":"Encounter/140f6834-9cb5-41ac-8cb4-caf5015d6199"}},{"fullUrl":"Bundle/363b28a9-e77d-4fee-aaaf-73ebb35bc57c","resource":{"resourceType":"Bundle","id":"363b28a9-e77d-4fee-aaaf-73ebb35bc57c","type":"transaction","entry":[{"fullUrl":"https://madie.cms.gov/Patient/baf4bf9c-5aa3-422d-a5d2-fdb37b0c8f44","resource":{"resourceType":"Patient","id":"baf4bf9c-5aa3-422d-a5d2-fdb37b0c8f44","meta":{"profile":["http://hl7.org/fhir/us/qicore/StructureDefinition/qicore-patient"]},"extension":[{"url":"http://hl7.org/fhir/us/core/StructureDefinition/us-core-race","extension":[{"url":"ombCategory","valueCoding":{"system":"urn:oid:2.16.840.1.113883.6.238","code":"2106-3","display":"White"}},{"url":"text","valueString":"White"}]},{"url":"http://hl7.org/fhir/us/core/StructureDefinition/us-core-ethnicity","extension":[{"url":"ombCategory","valueCoding":{"system":"urn:oid:2.16.840.1.113883.6.238","code":"2135-2","display":"Hispanic or Latino"}},{"url":"text","valueString":"Hispanic or Latino"}]}],"identifier":[{"system":"http://hospital.smarthealthit.org","value":"999999999"}],"name":[{"family":"Example","given":["Patient"]}],"gender":"male","birthDate":"1956-01-01"},"request":{"method":"PUT","url":"Patient/baf4bf9c-5aa3-422d-a5d2-fdb37b0c8f44"}},{"fullUrl":"https://madie.cms.gov/Encounter/140f6834-9cb5-41ac-8cb4-caf5015d6199","resource":{"resourceType":"Encounter","id":"140f6834-9cb5-41ac-8cb4-caf5015d6199","meta":{"profile":["http://hl7.org/fhir/us/qicore/StructureDefinition/qicore-encounter"]},"status":"finished","class":{"system":"http://terminology.hl7.org/CodeSystem/v3-ActCode","code":"IMP","display":"inpatient encounter"},"type":[{"coding":[{"system":"http://snomed.info/sct","code":"183452005"}]}],"subject":{"reference":"Patient/baf4bf9c-5aa3-422d-a5d2-fdb37b0c8f44"},"period":{"start":"2026-04-07T08:00:00Z","end":"2026-04-11T08:15:00.000+00:00"},"hospitalization":{"dischargeDisposition":{"coding":[{"system":"http://snomed.info/sct","code":"428371000124100"}]}}},"request":{"method":"PUT","url":"Encounter/140f6834-9cb5-41ac-8cb4-caf5015d6199"}},{"fullUrl":"https://madie.cms.gov/Condition/056c5782-9087-42bd-85c1-1b60a5b4a58c","resource":{"resourceType":"Condition","id":"056c5782-9087-42bd-85c1-1b60a5b4a58c","meta":{"profile":["http://hl7.org/fhir/us/qicore/StructureDefinition/qicore-condition-encounter-diagnosis"]},"clinicalStatus":{"coding":[{"system":"http://terminology.hl7.org/CodeSystem/condition-clinical","code":"active"}]},"category":[{"coding":[{"system":"http://terminology.hl7.org/CodeSystem/condition-category","code":"encounter-diagnosis","display":"Encounter Diagnosis"}]}],"code":{"coding":[{"system":"http://hl7.org/fhir/sid/icd-10-cm","code":"E10.21","display":"Type 1 diabetes mellitus with diabetic nephropathy"}]},"subject":{"reference":"Patient/baf4bf9c-5aa3-422d-a5d2-fdb37b0c8f44"},"onsetDateTime":"2011-01-02"},"request":{"method":"PUT","url":"Condition/056c5782-9087-42bd-85c1-1b60a5b4a58c"}},{"fullUrl":"https://madie.cms.gov/MeasureReport/b482f271-25f5-4beb-94e7-c2e0fc7e4890","resource":{"resourceType":"MeasureReport","id":"b482f271-25f5-4beb-94e7-c2e0fc7e4890","meta":{"profile":["http://hl7.org/fhir/us/cqfmeasures/StructureDefinition/test-case-cqfm"]},"contained":[{"resourceType":"Parameters","id":"5047f107-68b4-4b2f-b827-55b5a2b56ae3-parameters","parameter":[{"name":"subject","valueString":"baf4bf9c-5aa3-422d-a5d2-fdb37b0c8f44"}]}],"extension":[{"url":"http://hl7.org/fhir/StructureDefinition/cqf-inputParameters","valueReference":{"reference":"#5047f107-68b4-4b2f-b827-55b5a2b56ae3-parameters"}},{"url":"http://hl7.org/fhir/us/cqfmeasures/StructureDefinition/cqfm-testCaseDescription","valueMarkdown":"Patient has discharge disposition to healthcare facility with hospice care. Meets denom exclusion"}],"modifierExtension":[{"url":"http://hl7.org/fhir/us/cqfmeasures/StructureDefinition/cqfm-isTestCase","valueBoolean":true}],"status":"complete","type":"individual","measure":"https://madie.cms.gov/Measure/CMS871HHHyperFHIR","period":{"start":"2026-01-01","end":"2026-12-31"},"group":[{"id":"Group_1","population":[{"id":"InitialPopulation_1","code":{"coding":[{"system":"http://terminology.hl7.org/CodeSystem/measure-population","code":"initial-population","display":"Initial Population"}]},"count":1},{"id":"Denominator_1","code":{"coding":[{"system":"http://terminology.hl7.org/CodeSystem/measure-population","code":"denominator","display":"Denominator"}]},"count":1},{"id":"DenominatorExclusion_1","code":{"coding":[{"system":"http://terminology.hl7.org/CodeSystem/measure-population","code":"denominator-exclusion","display":"Denominator Exclusion"}]},"count":1},{"id":"Numerator_1","code":{"coding":[{"system":"http://terminology.hl7.org/CodeSystem/measure-population","code":"numerator","display":"Numerator"}]},"count":0},{"id":"NumeratorExclusion_1","code":{"coding":[{"system":"http://terminology.hl7.org/CodeSystem/measure-population","code":"numerator-exclusion","display":"Numerator Exclusion"}]},"count":0}],"measureScore":{"value":0.0}}],"evaluatedResource":[{"reference":"Patient/baf4bf9c-5aa3-422d-a5d2-fdb37b0c8f44"},{"reference":"Encounter/140f6834-9cb5-41ac-8cb4-caf5015d6199"},{"reference":"Condition/056c5782-9087-42bd-85c1-1b60a5b4a58c"}]},"request":{"method":"PUT","url":"MeasureReport/b482f271-25f5-4beb-94e7-c2e0fc7e4890"}}]},"request":{"method":"PUT","url":"Bundle/363b28a9-e77d-4fee-aaaf-73ebb35bc57c"}},{"fullUrl":"MeasureReport/b482f271-25f5-4beb-94e7-c2e0fc7e4890","resource":{"resourceType":"MeasureReport","id":"b482f271-25f5-4beb-94e7-c2e0fc7e4890","meta":{"profile":["http://hl7.org/fhir/us/cqfmeasures/StructureDefinition/test-case-cqfm"]},"contained":[{"resourceType":"Parameters","id":"5047f107-68b4-4b2f-b827-55b5a2b56ae3-parameters","parameter":[{"name":"subject","valueString":"baf4bf9c-5aa3-422d-a5d2-fdb37b0c8f44"}]}],"extension":[{"url":"http://hl7.org/fhir/StructureDefinition/cqf-inputParameters","valueReference":{"reference":"#5047f107-68b4-4b2f-b827-55b5a2b56ae3-parameters"}},{"url":"http://hl7.org/fhir/us/cqfmeasures/StructureDefinition/cqfm-testCaseDescription","valueMarkdown":"Patient has discharge disposition to healthcare facility with hospice care. Meets denom exclusion"}],"modifierExtension":[{"url":"http://hl7.org/fhir/us/cqfmeasures/StructureDefinition/cqfm-isTestCase","valueBoolean":true}],"status":"complete","type":"individual","measure":"https://madie.cms.gov/Measure/CMS871HHHyperFHIR","period":{"start":"2026-01-01","end":"2026-12-31"},"group":[{"id":"Group_1","population":[{"id":"InitialPopulation_1","code":{"coding":[{"system":"http://terminology.hl7.org/CodeSystem/measure-population","code":"initial-population","display":"Initial Population"}]},"count":1},{"id":"Denominator_1","code":{"coding":[{"system":"http://terminology.hl7.org/CodeSystem/measure-population","code":"denominator","display":"Denominator"}]},"count":1},{"id":"DenominatorExclusion_1","code":{"coding":[{"system":"http://terminology.hl7.org/CodeSystem/measure-population","code":"denominator-exclusion","display":"Denominator Exclusion"}]},"count":1},{"id":"Numerator_1","code":{"coding":[{"system":"http://terminology.hl7.org/CodeSystem/measure-population","code":"numerator","display":"Numerator"}]},"count":0},{"id":"NumeratorExclusion_1","code":{"coding":[{"system":"http://terminology.hl7.org/CodeSystem/measure-population","code":"numerator-exclusion","display":"Numerator Exclusion"}]},"count":0}],"measureScore":{"value":0.0}}],"evaluatedResource":[{"reference":"Patient/baf4bf9c-5aa3-422d-a5d2-fdb37b0c8f44"},{"reference":"Encounter/140f6834-9cb5-41ac-8cb4-caf5015d6199"},{"reference":"Condition/056c5782-9087-42bd-85c1-1b60a5b4a58c"}]},"request":{"method":"PUT","url":"MeasureReport/b482f271-25f5-4beb-94e7-c2e0fc7e4890"}},{"fullUrl":"Patient/baf4bf9c-5aa3-422d-a5d2-fdb37b0c8f44","resource":{"resourceType":"Patient","id":"baf4bf9c-5aa3-422d-a5d2-fdb37b0c8f44","meta":{"profile":["http://hl7.org/fhir/us/qicore/StructureDefinition/qicore-patient"]},"extension":[{"url":"http://hl7.org/fhir/us/core/StructureDefinition/us-core-race","extension":[{"url":"ombCategory","valueCoding":{"system":"urn:oid:2.16.840.1.113883.6.238","code":"2106-3","display":"White"}},{"url":"text","valueString":"White"}]},{"url":"http://hl7.org/fhir/us/core/StructureDefinition/us-core-ethnicity","extension":[{"url":"ombCategory","valueCoding":{"system":"urn:oid:2.16.840.1.113883.6.238","code":"2135-2","display":"Hispanic or Latino"}},{"url":"text","valueString":"Hispanic or Latino"}]}],"identifier":[{"system":"http://hospital.smarthealthit.org","value":"999999999"}],"name":[{"family":"Example","given":["Patient"]}],"gender":"male","birthDate":"1956-01-01"},"request":{"method":"PUT","url":"Patient/baf4bf9c-5aa3-422d-a5d2-fdb37b0c8f44"}}]}