{"resourceType":"Bundle","id":"tests-79283b75-4588-428b-b4e6-50ebb9b9acf6-bundle","type":"transaction","entry":[{"resource":{"resourceType":"Observation","id":"451222da-5023-4436-ac12-116f891aa8e6","meta":{"profile":["http://hl7.org/fhir/us/qicore/StructureDefinition/qicore-observation-lab"]},"status":"final","category":[{"coding":[{"system":"http://terminology.hl7.org/CodeSystem/observation-category","code":"laboratory","display":"Laboratory"}]}],"code":{"coding":[{"system":"http://loinc.org","version":"2.72","code":"1547-9","display":"Glucose Lab Test Mass Per Volume"}]},"subject":{"reference":"Patient/79283b75-4588-428b-b4e6-50ebb9b9acf6"},"effectiveDateTime":"2026-10-19T09:15:00+00:00","valueQuantity":{"value":301,"unit":"mg/dL"}},"request":{"method":"PUT","url":"Observation/451222da-5023-4436-ac12-116f891aa8e6"}},{"resource":{"resourceType":"Procedure","id":"05f40999-1554-40e7-a0ef-f925a8de1c0c","meta":{"profile":["http://hl7.org/fhir/us/qicore/StructureDefinition/qicore-procedure"]},"status":"completed","code":{"coding":[{"system":"http://snomed.info/sct","code":"133918004","display":"Comfort Measures"}]},"subject":{"reference":"Patient/79283b75-4588-428b-b4e6-50ebb9b9acf6"},"performedDateTime":"2026-10-18T10:00:00+00:00"},"request":{"method":"PUT","url":"Procedure/05f40999-1554-40e7-a0ef-f925a8de1c0c"}},{"resource":{"resourceType":"Encounter","id":"a133b480-4aa6-400c-80ff-a91ce96d271a","meta":{"profile":["http://hl7.org/fhir/us/qicore/StructureDefinition/qicore-encounter"]},"status":"finished","class":{"system":"http://terminology.hl7.org/CodeSystem/v3-ActCode","code":"EMER","display":"emergency encounter"},"type":[{"coding":[{"system":"http://snomed.info/sct","code":"4525004","display":"Emergency Department Visit"}]}],"subject":{"reference":"Patient/79283b75-4588-428b-b4e6-50ebb9b9acf6"},"period":{"start":"2026-10-18T09:15:00+00:00","end":"2026-10-19T08:15:00.000+00:00"}},"request":{"method":"PUT","url":"Encounter/a133b480-4aa6-400c-80ff-a91ce96d271a"}},{"resource":{"resourceType":"Bundle","id":"tests-NumexPass-ComfortCareExclusionAndHasNumEvent-bundle","type":"transaction","entry":[{"fullUrl":"https://madie.cms.gov/Encounter/224cf51f-eeb9-4e73-bd33-24ed89903423","resource":{"resourceType":"Encounter","id":"224cf51f-eeb9-4e73-bd33-24ed89903423","meta":{"profile":["http://hl7.org/fhir/us/qicore/StructureDefinition/qicore-encounter"]},"status":"finished","class":{"system":"http://terminology.hl7.org/CodeSystem/v3-ActCode","code":"IMP","display":"inpatient encounter"},"type":[{"coding":[{"system":"http://snomed.info/sct","code":"183452005","display":"Inpatient encounter"}]}],"subject":{"reference":"Patient/79283b75-4588-428b-b4e6-50ebb9b9acf6"},"period":{"start":"2026-10-19T08:30:00+00:00","end":"2026-10-21T08:15:00.000+00:00"}},"request":{"method":"PUT","url":"Encounter/224cf51f-eeb9-4e73-bd33-24ed89903423"}},{"fullUrl":"https://madie.cms.gov/Encounter/a133b480-4aa6-400c-80ff-a91ce96d271a","resource":{"resourceType":"Encounter","id":"a133b480-4aa6-400c-80ff-a91ce96d271a","meta":{"profile":["http://hl7.org/fhir/us/qicore/StructureDefinition/qicore-encounter"]},"status":"finished","class":{"system":"http://terminology.hl7.org/CodeSystem/v3-ActCode","code":"EMER","display":"emergency encounter"},"type":[{"coding":[{"system":"http://snomed.info/sct","code":"4525004","display":"Emergency Department Visit"}]}],"subject":{"reference":"Patient/79283b75-4588-428b-b4e6-50ebb9b9acf6"},"period":{"start":"2026-10-18T09:15:00+00:00","end":"2026-10-19T08:15:00.000+00:00"}},"request":{"method":"PUT","url":"Encounter/a133b480-4aa6-400c-80ff-a91ce96d271a"}},{"fullUrl":"https://madie.cms.gov/Procedure/05f40999-1554-40e7-a0ef-f925a8de1c0c","resource":{"resourceType":"Procedure","id":"05f40999-1554-40e7-a0ef-f925a8de1c0c","meta":{"profile":["http://hl7.org/fhir/us/qicore/StructureDefinition/qicore-procedure"]},"status":"completed","code":{"coding":[{"system":"http://snomed.info/sct","code":"133918004","display":"Comfort Measures"}]},"subject":{"reference":"Patient/79283b75-4588-428b-b4e6-50ebb9b9acf6"},"performedDateTime":"2026-10-18T10:00:00+00:00"},"request":{"method":"PUT","url":"Procedure/05f40999-1554-40e7-a0ef-f925a8de1c0c"}},{"fullUrl":"https://madie.cms.gov/Patient/79283b75-4588-428b-b4e6-50ebb9b9acf6","resource":{"resourceType":"Patient","id":"79283b75-4588-428b-b4e6-50ebb9b9acf6","meta":{"profile":["http://hl7.org/fhir/us/qicore/StructureDefinition/qicore-patient"]},"extension":[{"url":"http://hl7.org/fhir/us/core/StructureDefinition/us-core-race","extension":[{"url":"ombCategory","valueCoding":{"system":"urn:oid:2.16.840.1.113883.6.238","code":"2106-3","display":"White"}},{"url":"text","valueString":"White"}]},{"url":"http://hl7.org/fhir/us/core/StructureDefinition/us-core-ethnicity","extension":[{"url":"ombCategory","valueCoding":{"system":"urn:oid:2.16.840.1.113883.6.238","code":"2135-2","display":"Hispanic or Latino"}},{"url":"text","valueString":"Hispanic or Latino"}]},{"url":"http://hl7.org/fhir/us/core/StructureDefinition/us-core-sex","valueCode":"248153007"}],"identifier":[{"system":"http://hospital.smarthealthit.org","value":"999999999"}],"name":[{"family":"Example","given":["Patient"]}],"gender":"female","birthDate":"1956-01-01"},"request":{"method":"PUT","url":"Patient/79283b75-4588-428b-b4e6-50ebb9b9acf6"}},{"fullUrl":"https://madie.cms.gov/Observation/451222da-5023-4436-ac12-116f891aa8e6","resource":{"resourceType":"Observation","id":"451222da-5023-4436-ac12-116f891aa8e6","meta":{"profile":["http://hl7.org/fhir/us/qicore/StructureDefinition/qicore-observation-lab"]},"status":"final","category":[{"coding":[{"system":"http://terminology.hl7.org/CodeSystem/observation-category","code":"laboratory","display":"Laboratory"}]}],"code":{"coding":[{"system":"http://loinc.org","version":"2.72","code":"1547-9","display":"Glucose Lab Test Mass Per Volume"}]},"subject":{"reference":"Patient/79283b75-4588-428b-b4e6-50ebb9b9acf6"},"effectiveDateTime":"2026-10-19T09:15:00+00:00","valueQuantity":{"value":301,"unit":"mg/dL"}},"request":{"method":"PUT","url":"Observation/451222da-5023-4436-ac12-116f891aa8e6"}},{"fullUrl":"https://madie.cms.gov/MeasureReport/69796f7a-b85e-4332-b992-25d3edd581c9","resource":{"resourceType":"MeasureReport","id":"69796f7a-b85e-4332-b992-25d3edd581c9","meta":{"profile":["http://hl7.org/fhir/us/cqfmeasures/StructureDefinition/test-case-cqfm"]},"contained":[{"resourceType":"Parameters","id":"61ddf2c0-568e-4aa3-8756-50678a612df8-parameters","parameter":[{"name":"subject","valueString":"79283b75-4588-428b-b4e6-50ebb9b9acf6"}]}],"extension":[{"url":"http://hl7.org/fhir/StructureDefinition/cqf-inputParameters","valueReference":{"reference":"#61ddf2c0-568e-4aa3-8756-50678a612df8-parameters"}},{"url":"http://hl7.org/fhir/us/cqfmeasures/StructureDefinition/cqfm-testCaseDescription","valueMarkdown":"Enc starts in ED prior to IP. Has glucose >200, meets IPP. \nHas comfort care while in ED. Meets Den Exclusion.\nHas hyper event (glucose 301 on 10/19) which meets Num criteria, but is excluded due to comfort care denom exclusion. \nMeets Numex."}],"modifierExtension":[{"url":"http://hl7.org/fhir/us/cqfmeasures/StructureDefinition/cqfm-isTestCase","valueBoolean":true}],"status":"complete","type":"individual","measure":"https://madie.cms.gov/Measure/CMS871HHHyperFHIR","period":{"start":"2026-01-01","end":"2026-12-31"},"group":[{"id":"Group_1","population":[{"id":"InitialPopulation_1","code":{"coding":[{"system":"http://terminology.hl7.org/CodeSystem/measure-population","code":"initial-population","display":"Initial Population"}]},"count":1},{"id":"Denominator_1","code":{"coding":[{"system":"http://terminology.hl7.org/CodeSystem/measure-population","code":"denominator","display":"Denominator"}]},"count":1},{"id":"DenominatorExclusion_1","code":{"coding":[{"system":"http://terminology.hl7.org/CodeSystem/measure-population","code":"denominator-exclusion","display":"Denominator Exclusion"}]},"count":1},{"id":"Numerator_1","code":{"coding":[{"system":"http://terminology.hl7.org/CodeSystem/measure-population","code":"numerator","display":"Numerator"}]},"count":1},{"id":"NumeratorExclusion_1","code":{"coding":[{"system":"http://terminology.hl7.org/CodeSystem/measure-population","code":"numerator-exclusion","display":"Numerator Exclusion"}]},"count":1}],"measureScore":{"value":0.0}}],"evaluatedResource":[{"reference":"Encounter/224cf51f-eeb9-4e73-bd33-24ed89903423"},{"reference":"Encounter/a133b480-4aa6-400c-80ff-a91ce96d271a"},{"reference":"Procedure/05f40999-1554-40e7-a0ef-f925a8de1c0c"},{"reference":"Patient/79283b75-4588-428b-b4e6-50ebb9b9acf6"},{"reference":"Observation/451222da-5023-4436-ac12-116f891aa8e6"}]},"request":{"method":"PUT","url":"MeasureReport/69796f7a-b85e-4332-b992-25d3edd581c9"}}]},"request":{"method":"PUT","url":"Bundle/tests-NumexPass-ComfortCareExclusionAndHasNumEvent-bundle"}},{"resource":{"resourceType":"MeasureReport","id":"69796f7a-b85e-4332-b992-25d3edd581c9","meta":{"profile":["http://hl7.org/fhir/us/cqfmeasures/StructureDefinition/test-case-cqfm"]},"contained":[{"resourceType":"Parameters","id":"61ddf2c0-568e-4aa3-8756-50678a612df8-parameters","parameter":[{"name":"subject","valueString":"79283b75-4588-428b-b4e6-50ebb9b9acf6"}]}],"extension":[{"url":"http://hl7.org/fhir/StructureDefinition/cqf-inputParameters","valueReference":{"reference":"#61ddf2c0-568e-4aa3-8756-50678a612df8-parameters"}},{"url":"http://hl7.org/fhir/us/cqfmeasures/StructureDefinition/cqfm-testCaseDescription","valueMarkdown":"Enc starts in ED prior to IP. Has glucose >200, meets IPP. \nHas comfort care while in ED. Meets Den Exclusion.\nHas hyper event (glucose 301 on 10/19) which meets Num criteria, but is excluded due to comfort care denom exclusion. \nMeets Numex."}],"modifierExtension":[{"url":"http://hl7.org/fhir/us/cqfmeasures/StructureDefinition/cqfm-isTestCase","valueBoolean":true}],"status":"complete","type":"individual","measure":"https://madie.cms.gov/Measure/CMS871HHHyperFHIR","period":{"start":"2026-01-01","end":"2026-12-31"},"group":[{"id":"Group_1","population":[{"id":"InitialPopulation_1","code":{"coding":[{"system":"http://terminology.hl7.org/CodeSystem/measure-population","code":"initial-population","display":"Initial Population"}]},"count":1},{"id":"Denominator_1","code":{"coding":[{"system":"http://terminology.hl7.org/CodeSystem/measure-population","code":"denominator","display":"Denominator"}]},"count":1},{"id":"DenominatorExclusion_1","code":{"coding":[{"system":"http://terminology.hl7.org/CodeSystem/measure-population","code":"denominator-exclusion","display":"Denominator Exclusion"}]},"count":1},{"id":"Numerator_1","code":{"coding":[{"system":"http://terminology.hl7.org/CodeSystem/measure-population","code":"numerator","display":"Numerator"}]},"count":1},{"id":"NumeratorExclusion_1","code":{"coding":[{"system":"http://terminology.hl7.org/CodeSystem/measure-population","code":"numerator-exclusion","display":"Numerator Exclusion"}]},"count":1}],"measureScore":{"value":0.0}}],"evaluatedResource":[{"reference":"Encounter/224cf51f-eeb9-4e73-bd33-24ed89903423"},{"reference":"Encounter/a133b480-4aa6-400c-80ff-a91ce96d271a"},{"reference":"Procedure/05f40999-1554-40e7-a0ef-f925a8de1c0c"},{"reference":"Patient/79283b75-4588-428b-b4e6-50ebb9b9acf6"},{"reference":"Observation/451222da-5023-4436-ac12-116f891aa8e6"}]},"request":{"method":"PUT","url":"MeasureReport/69796f7a-b85e-4332-b992-25d3edd581c9"}},{"resource":{"resourceType":"Patient","id":"79283b75-4588-428b-b4e6-50ebb9b9acf6","meta":{"profile":["http://hl7.org/fhir/us/qicore/StructureDefinition/qicore-patient"]},"extension":[{"url":"http://hl7.org/fhir/us/core/StructureDefinition/us-core-race","extension":[{"url":"ombCategory","valueCoding":{"system":"urn:oid:2.16.840.1.113883.6.238","code":"2106-3","display":"White"}},{"url":"text","valueString":"White"}]},{"url":"http://hl7.org/fhir/us/core/StructureDefinition/us-core-ethnicity","extension":[{"url":"ombCategory","valueCoding":{"system":"urn:oid:2.16.840.1.113883.6.238","code":"2135-2","display":"Hispanic or Latino"}},{"url":"text","valueString":"Hispanic or Latino"}]},{"url":"http://hl7.org/fhir/us/core/StructureDefinition/us-core-sex","valueCode":"248153007"}],"identifier":[{"system":"http://hospital.smarthealthit.org","value":"999999999"}],"name":[{"family":"Example","given":["Patient"]}],"gender":"female","birthDate":"1956-01-01"},"request":{"method":"PUT","url":"Patient/79283b75-4588-428b-b4e6-50ebb9b9acf6"}},{"resource":{"resourceType":"Encounter","id":"224cf51f-eeb9-4e73-bd33-24ed89903423","meta":{"profile":["http://hl7.org/fhir/us/qicore/StructureDefinition/qicore-encounter"]},"status":"finished","class":{"system":"http://terminology.hl7.org/CodeSystem/v3-ActCode","code":"IMP","display":"inpatient encounter"},"type":[{"coding":[{"system":"http://snomed.info/sct","code":"183452005","display":"Inpatient encounter"}]}],"subject":{"reference":"Patient/79283b75-4588-428b-b4e6-50ebb9b9acf6"},"period":{"start":"2026-10-19T08:30:00+00:00","end":"2026-10-21T08:15:00.000+00:00"}},"request":{"method":"PUT","url":"Encounter/224cf51f-eeb9-4e73-bd33-24ed89903423"}}]}