{"resourceType":"Bundle","id":"tests-98533ccd-24ee-41b3-aab2-ef6cbf89e00d-bundle","type":"transaction","entry":[{"fullUrl":"MeasureReport/88b64595-1869-4a19-9a50-2e818465cc10","resource":{"resourceType":"MeasureReport","id":"88b64595-1869-4a19-9a50-2e818465cc10","meta":{"profile":["http://hl7.org/fhir/us/cqfmeasures/StructureDefinition/test-case-cqfm"]},"contained":[{"resourceType":"Parameters","id":"4306d210-0c64-4d44-a143-f87a1a29ebe8-parameters","parameter":[{"name":"subject","valueString":"98533ccd-24ee-41b3-aab2-ef6cbf89e00d"}]}],"extension":[{"url":"http://hl7.org/fhir/StructureDefinition/cqf-inputParameters","valueReference":{"reference":"#4306d210-0c64-4d44-a143-f87a1a29ebe8-parameters"}},{"url":"http://hl7.org/fhir/us/cqfmeasures/StructureDefinition/cqfm-testCaseDescription","valueMarkdown":"Enc with diabetes dx, encounter starts in Obs 3pm. Meets exclusion - initial test > 600 within 1 hour prior to start of encounter (Obs visit start of 3pm) to 6 hours after start of the enc. "}],"modifierExtension":[{"url":"http://hl7.org/fhir/us/cqfmeasures/StructureDefinition/cqfm-isTestCase","valueBoolean":true}],"status":"complete","type":"individual","measure":"https://madie.cms.gov/Measure/CMS871HHHyperFHIR","period":{"start":"2026-01-01","end":"2026-12-31"},"group":[{"id":"Group_1","population":[{"id":"InitialPopulation_1","code":{"coding":[{"system":"http://terminology.hl7.org/CodeSystem/measure-population","code":"initial-population","display":"Initial Population"}]},"count":1},{"id":"Denominator_1","code":{"coding":[{"system":"http://terminology.hl7.org/CodeSystem/measure-population","code":"denominator","display":"Denominator"}]},"count":1},{"id":"DenominatorExclusion_1","code":{"coding":[{"system":"http://terminology.hl7.org/CodeSystem/measure-population","code":"denominator-exclusion","display":"Denominator Exclusion"}]},"count":1},{"id":"Numerator_1","code":{"coding":[{"system":"http://terminology.hl7.org/CodeSystem/measure-population","code":"numerator","display":"Numerator"}]},"count":0},{"id":"NumeratorExclusion_1","code":{"coding":[{"system":"http://terminology.hl7.org/CodeSystem/measure-population","code":"numerator-exclusion","display":"Numerator Exclusion"}]},"count":0}],"measureScore":{"value":0.0}}],"evaluatedResource":[{"reference":"Condition/aa3ced1e-ac0d-4c2a-8b20-58278aff2958"},{"reference":"Encounter/72180243-cb18-4430-b1eb-6196c89f7e92"},{"reference":"Encounter/b386e918-f142-4e13-b49c-dbeff6b48733"},{"reference":"Patient/98533ccd-24ee-41b3-aab2-ef6cbf89e00d"},{"reference":"Observation/244a42bf-32de-4ca3-91b2-344d45321cd2"},{"reference":"Observation/1f48f513-2e27-4252-a3cb-203e90a7d93d"}]},"request":{"method":"PUT","url":"MeasureReport/88b64595-1869-4a19-9a50-2e818465cc10"}},{"fullUrl":"Observation/244a42bf-32de-4ca3-91b2-344d45321cd2","resource":{"resourceType":"Observation","id":"244a42bf-32de-4ca3-91b2-344d45321cd2","meta":{"profile":["http://hl7.org/fhir/us/qicore/StructureDefinition/qicore-observation-lab"]},"status":"final","category":[{"coding":[{"system":"http://terminology.hl7.org/CodeSystem/observation-category","code":"laboratory","display":"Laboratory"}]}],"code":{"coding":[{"system":"http://loinc.org","version":"2.72","code":"1547-9","display":"Glucose [Mass/volume] in Serum or Plasma --baseline"}]},"subject":{"reference":"Patient/98533ccd-24ee-41b3-aab2-ef6cbf89e00d"},"effectiveDateTime":"2026-11-12T14:20:00+00:00","valueQuantity":{"value":610,"unit":"mg/dL"}},"request":{"method":"PUT","url":"Observation/244a42bf-32de-4ca3-91b2-344d45321cd2"}},{"fullUrl":"Encounter/b386e918-f142-4e13-b49c-dbeff6b48733","resource":{"resourceType":"Encounter","id":"b386e918-f142-4e13-b49c-dbeff6b48733","meta":{"profile":["http://hl7.org/fhir/us/qicore/StructureDefinition/qicore-encounter"]},"status":"finished","class":{"system":"http://terminology.hl7.org/CodeSystem/v3-ActCode","code":"EMER","display":"emergency encounter"},"type":[{"coding":[{"system":"http://snomed.info/sct","code":"448951000124107","display":"Admission to department (procedure)"}]}],"subject":{"reference":"Patient/98533ccd-24ee-41b3-aab2-ef6cbf89e00d"},"period":{"start":"2026-11-12T15:00:00+00:00","end":"2026-11-12T15:45:00.000+00:00"}},"request":{"method":"PUT","url":"Encounter/b386e918-f142-4e13-b49c-dbeff6b48733"}},{"fullUrl":"Bundle/tests-DenexPass-Glucose610Within7HrInterval-bundle","resource":{"resourceType":"Bundle","id":"tests-DenexPass-Glucose610Within7HrInterval-bundle","type":"transaction","entry":[{"fullUrl":"https://madie.cms.gov/Condition/aa3ced1e-ac0d-4c2a-8b20-58278aff2958","resource":{"resourceType":"Condition","id":"aa3ced1e-ac0d-4c2a-8b20-58278aff2958","meta":{"profile":["http://hl7.org/fhir/us/qicore/StructureDefinition/qicore-condition-encounter-diagnosis"]},"clinicalStatus":{"coding":[{"system":"http://terminology.hl7.org/CodeSystem/condition-clinical","code":"active"}]},"verificationStatus":{"coding":[{"system":"http://terminology.hl7.org/CodeSystem/condition-ver-status","code":"confirmed"}]},"category":[{"coding":[{"system":"http://terminology.hl7.org/CodeSystem/condition-category","code":"encounter-diagnosis","display":"Encounter Diagnosis"}]}],"code":{"coding":[{"system":"http://snomed.info/sct","code":"46635009","display":"Diabetes mellitus type 1 (disorder)"}]},"subject":{"reference":"Patient/98533ccd-24ee-41b3-aab2-ef6cbf89e00d"},"encounter":{"reference":"Encounter/b386e918-f142-4e13-b49c-dbeff6b48733"},"onsetDateTime":"2026-07-11T08:00:00+00:00"},"request":{"method":"PUT","url":"Condition/aa3ced1e-ac0d-4c2a-8b20-58278aff2958"}},{"fullUrl":"https://madie.cms.gov/Encounter/72180243-cb18-4430-b1eb-6196c89f7e92","resource":{"resourceType":"Encounter","id":"72180243-cb18-4430-b1eb-6196c89f7e92","meta":{"profile":["http://hl7.org/fhir/us/qicore/StructureDefinition/qicore-encounter"]},"status":"finished","class":{"system":"http://terminology.hl7.org/CodeSystem/v3-ActCode","code":"IMP","display":"inpatient encounter"},"type":[{"coding":[{"system":"http://snomed.info/sct","code":"183452005","display":"Emergency hospital admission"}]}],"subject":{"reference":"Patient/98533ccd-24ee-41b3-aab2-ef6cbf89e00d"},"period":{"start":"2026-11-12T16:00:00+00:00","end":"2026-11-12T19:00:00.000+00:00"}},"request":{"method":"PUT","url":"Encounter/72180243-cb18-4430-b1eb-6196c89f7e92"}},{"fullUrl":"https://madie.cms.gov/Encounter/b386e918-f142-4e13-b49c-dbeff6b48733","resource":{"resourceType":"Encounter","id":"b386e918-f142-4e13-b49c-dbeff6b48733","meta":{"profile":["http://hl7.org/fhir/us/qicore/StructureDefinition/qicore-encounter"]},"status":"finished","class":{"system":"http://terminology.hl7.org/CodeSystem/v3-ActCode","code":"EMER","display":"emergency encounter"},"type":[{"coding":[{"system":"http://snomed.info/sct","code":"448951000124107","display":"Admission to department (procedure)"}]}],"subject":{"reference":"Patient/98533ccd-24ee-41b3-aab2-ef6cbf89e00d"},"period":{"start":"2026-11-12T15:00:00+00:00","end":"2026-11-12T15:45:00.000+00:00"}},"request":{"method":"PUT","url":"Encounter/b386e918-f142-4e13-b49c-dbeff6b48733"}},{"fullUrl":"https://madie.cms.gov/Patient/98533ccd-24ee-41b3-aab2-ef6cbf89e00d","resource":{"resourceType":"Patient","id":"98533ccd-24ee-41b3-aab2-ef6cbf89e00d","meta":{"profile":["http://hl7.org/fhir/us/qicore/StructureDefinition/qicore-patient"]},"extension":[{"url":"http://hl7.org/fhir/us/core/StructureDefinition/us-core-race","extension":[{"url":"ombCategory","valueCoding":{"system":"urn:oid:2.16.840.1.113883.6.238","code":"2106-3","display":"White"}},{"url":"text","valueString":"White"}]},{"url":"http://hl7.org/fhir/us/core/StructureDefinition/us-core-ethnicity","extension":[{"url":"ombCategory","valueCoding":{"system":"urn:oid:2.16.840.1.113883.6.238","code":"2135-2","display":"Hispanic or Latino"}},{"url":"text","valueString":"Hispanic or Latino"}]},{"url":"http://hl7.org/fhir/us/core/StructureDefinition/us-core-sex","valueCode":"248153007"}],"identifier":[{"system":"http://hospital.smarthealthit.org","value":"999999999"}],"name":[{"family":"Example","given":["Patient"]}],"gender":"female","birthDate":"1956-01-01"},"request":{"method":"PUT","url":"Patient/98533ccd-24ee-41b3-aab2-ef6cbf89e00d"}},{"fullUrl":"https://madie.cms.gov/Observation/244a42bf-32de-4ca3-91b2-344d45321cd2","resource":{"resourceType":"Observation","id":"244a42bf-32de-4ca3-91b2-344d45321cd2","meta":{"profile":["http://hl7.org/fhir/us/qicore/StructureDefinition/qicore-observation-lab"]},"status":"final","category":[{"coding":[{"system":"http://terminology.hl7.org/CodeSystem/observation-category","code":"laboratory","display":"Laboratory"}]}],"code":{"coding":[{"system":"http://loinc.org","version":"2.72","code":"1547-9","display":"Glucose [Mass/volume] in Serum or Plasma --baseline"}]},"subject":{"reference":"Patient/98533ccd-24ee-41b3-aab2-ef6cbf89e00d"},"effectiveDateTime":"2026-11-12T14:20:00+00:00","valueQuantity":{"value":610,"unit":"mg/dL"}},"request":{"method":"PUT","url":"Observation/244a42bf-32de-4ca3-91b2-344d45321cd2"}},{"fullUrl":"https://madie.cms.gov/Observation/1f48f513-2e27-4252-a3cb-203e90a7d93d","resource":{"resourceType":"Observation","id":"1f48f513-2e27-4252-a3cb-203e90a7d93d","meta":{"profile":["http://hl7.org/fhir/us/qicore/StructureDefinition/qicore-observation-lab"]},"status":"final","category":[{"coding":[{"system":"http://terminology.hl7.org/CodeSystem/observation-category","code":"laboratory","display":"Laboratory"}]}],"code":{"coding":[{"system":"http://loinc.org","version":"2.72","code":"1547-9","display":"Glucose [Mass/volume] in Serum or Plasma --baseline"}]},"subject":{"reference":"Patient/98533ccd-24ee-41b3-aab2-ef6cbf89e00d"},"effectiveDateTime":"2026-11-12T14:30:00+00:00","valueQuantity":{"value":800,"unit":"mg/dL"}},"request":{"method":"PUT","url":"Observation/1f48f513-2e27-4252-a3cb-203e90a7d93d"}},{"fullUrl":"https://madie.cms.gov/MeasureReport/88b64595-1869-4a19-9a50-2e818465cc10","resource":{"resourceType":"MeasureReport","id":"88b64595-1869-4a19-9a50-2e818465cc10","meta":{"profile":["http://hl7.org/fhir/us/cqfmeasures/StructureDefinition/test-case-cqfm"]},"contained":[{"resourceType":"Parameters","id":"4306d210-0c64-4d44-a143-f87a1a29ebe8-parameters","parameter":[{"name":"subject","valueString":"98533ccd-24ee-41b3-aab2-ef6cbf89e00d"}]}],"extension":[{"url":"http://hl7.org/fhir/StructureDefinition/cqf-inputParameters","valueReference":{"reference":"#4306d210-0c64-4d44-a143-f87a1a29ebe8-parameters"}},{"url":"http://hl7.org/fhir/us/cqfmeasures/StructureDefinition/cqfm-testCaseDescription","valueMarkdown":"Enc with diabetes dx, encounter starts in Obs 3pm. Meets exclusion - initial test > 600 within 1 hour prior to start of encounter (Obs visit start of 3pm) to 6 hours after start of the enc. "}],"modifierExtension":[{"url":"http://hl7.org/fhir/us/cqfmeasures/StructureDefinition/cqfm-isTestCase","valueBoolean":true}],"status":"complete","type":"individual","measure":"https://madie.cms.gov/Measure/CMS871HHHyperFHIR","period":{"start":"2026-01-01","end":"2026-12-31"},"group":[{"id":"Group_1","population":[{"id":"InitialPopulation_1","code":{"coding":[{"system":"http://terminology.hl7.org/CodeSystem/measure-population","code":"initial-population","display":"Initial Population"}]},"count":1},{"id":"Denominator_1","code":{"coding":[{"system":"http://terminology.hl7.org/CodeSystem/measure-population","code":"denominator","display":"Denominator"}]},"count":1},{"id":"DenominatorExclusion_1","code":{"coding":[{"system":"http://terminology.hl7.org/CodeSystem/measure-population","code":"denominator-exclusion","display":"Denominator Exclusion"}]},"count":1},{"id":"Numerator_1","code":{"coding":[{"system":"http://terminology.hl7.org/CodeSystem/measure-population","code":"numerator","display":"Numerator"}]},"count":0},{"id":"NumeratorExclusion_1","code":{"coding":[{"system":"http://terminology.hl7.org/CodeSystem/measure-population","code":"numerator-exclusion","display":"Numerator Exclusion"}]},"count":0}],"measureScore":{"value":0.0}}],"evaluatedResource":[{"reference":"Condition/aa3ced1e-ac0d-4c2a-8b20-58278aff2958"},{"reference":"Encounter/72180243-cb18-4430-b1eb-6196c89f7e92"},{"reference":"Encounter/b386e918-f142-4e13-b49c-dbeff6b48733"},{"reference":"Patient/98533ccd-24ee-41b3-aab2-ef6cbf89e00d"},{"reference":"Observation/244a42bf-32de-4ca3-91b2-344d45321cd2"},{"reference":"Observation/1f48f513-2e27-4252-a3cb-203e90a7d93d"}]},"request":{"method":"PUT","url":"MeasureReport/88b64595-1869-4a19-9a50-2e818465cc10"}}]},"request":{"method":"PUT","url":"Bundle/tests-DenexPass-Glucose610Within7HrInterval-bundle"}},{"fullUrl":"Patient/98533ccd-24ee-41b3-aab2-ef6cbf89e00d","resource":{"resourceType":"Patient","id":"98533ccd-24ee-41b3-aab2-ef6cbf89e00d","meta":{"profile":["http://hl7.org/fhir/us/qicore/StructureDefinition/qicore-patient"]},"extension":[{"url":"http://hl7.org/fhir/us/core/StructureDefinition/us-core-race","extension":[{"url":"ombCategory","valueCoding":{"system":"urn:oid:2.16.840.1.113883.6.238","code":"2106-3","display":"White"}},{"url":"text","valueString":"White"}]},{"url":"http://hl7.org/fhir/us/core/StructureDefinition/us-core-ethnicity","extension":[{"url":"ombCategory","valueCoding":{"system":"urn:oid:2.16.840.1.113883.6.238","code":"2135-2","display":"Hispanic or Latino"}},{"url":"text","valueString":"Hispanic or Latino"}]},{"url":"http://hl7.org/fhir/us/core/StructureDefinition/us-core-sex","valueCode":"248153007"}],"identifier":[{"system":"http://hospital.smarthealthit.org","value":"999999999"}],"name":[{"family":"Example","given":["Patient"]}],"gender":"female","birthDate":"1956-01-01"},"request":{"method":"PUT","url":"Patient/98533ccd-24ee-41b3-aab2-ef6cbf89e00d"}},{"fullUrl":"Encounter/72180243-cb18-4430-b1eb-6196c89f7e92","resource":{"resourceType":"Encounter","id":"72180243-cb18-4430-b1eb-6196c89f7e92","meta":{"profile":["http://hl7.org/fhir/us/qicore/StructureDefinition/qicore-encounter"]},"status":"finished","class":{"system":"http://terminology.hl7.org/CodeSystem/v3-ActCode","code":"IMP","display":"inpatient encounter"},"type":[{"coding":[{"system":"http://snomed.info/sct","code":"183452005","display":"Emergency hospital admission"}]}],"subject":{"reference":"Patient/98533ccd-24ee-41b3-aab2-ef6cbf89e00d"},"period":{"start":"2026-11-12T16:00:00+00:00","end":"2026-11-12T19:00:00.000+00:00"}},"request":{"method":"PUT","url":"Encounter/72180243-cb18-4430-b1eb-6196c89f7e92"}},{"fullUrl":"Observation/1f48f513-2e27-4252-a3cb-203e90a7d93d","resource":{"resourceType":"Observation","id":"1f48f513-2e27-4252-a3cb-203e90a7d93d","meta":{"profile":["http://hl7.org/fhir/us/qicore/StructureDefinition/qicore-observation-lab"]},"status":"final","category":[{"coding":[{"system":"http://terminology.hl7.org/CodeSystem/observation-category","code":"laboratory","display":"Laboratory"}]}],"code":{"coding":[{"system":"http://loinc.org","version":"2.72","code":"1547-9","display":"Glucose [Mass/volume] in Serum or Plasma --baseline"}]},"subject":{"reference":"Patient/98533ccd-24ee-41b3-aab2-ef6cbf89e00d"},"effectiveDateTime":"2026-11-12T14:30:00+00:00","valueQuantity":{"value":800,"unit":"mg/dL"}},"request":{"method":"PUT","url":"Observation/1f48f513-2e27-4252-a3cb-203e90a7d93d"}},{"fullUrl":"Condition/aa3ced1e-ac0d-4c2a-8b20-58278aff2958","resource":{"resourceType":"Condition","id":"aa3ced1e-ac0d-4c2a-8b20-58278aff2958","meta":{"profile":["http://hl7.org/fhir/us/qicore/StructureDefinition/qicore-condition-encounter-diagnosis"]},"clinicalStatus":{"coding":[{"system":"http://terminology.hl7.org/CodeSystem/condition-clinical","code":"active"}]},"verificationStatus":{"coding":[{"system":"http://terminology.hl7.org/CodeSystem/condition-ver-status","code":"confirmed"}]},"category":[{"coding":[{"system":"http://terminology.hl7.org/CodeSystem/condition-category","code":"encounter-diagnosis","display":"Encounter Diagnosis"}]}],"code":{"coding":[{"system":"http://snomed.info/sct","code":"46635009","display":"Diabetes mellitus type 1 (disorder)"}]},"subject":{"reference":"Patient/98533ccd-24ee-41b3-aab2-ef6cbf89e00d"},"encounter":{"reference":"Encounter/b386e918-f142-4e13-b49c-dbeff6b48733"},"onsetDateTime":"2026-07-11T08:00:00+00:00"},"request":{"method":"PUT","url":"Condition/aa3ced1e-ac0d-4c2a-8b20-58278aff2958"}}]}