{"resourceType":"Bundle","id":"tests-93c2a45f-f96e-4c48-a102-a35e38e8ec40-bundle","type":"transaction","entry":[{"fullUrl":"Patient/93c2a45f-f96e-4c48-a102-a35e38e8ec40","resource":{"resourceType":"Patient","id":"93c2a45f-f96e-4c48-a102-a35e38e8ec40","meta":{"profile":["http://hl7.org/fhir/us/qicore/StructureDefinition/qicore-patient"]},"extension":[{"url":"http://hl7.org/fhir/us/core/StructureDefinition/us-core-race","extension":[{"url":"ombCategory","valueCoding":{"system":"urn:oid:2.16.840.1.113883.6.238","code":"2106-3","display":"White"}},{"url":"text","valueString":"White"}]},{"url":"http://hl7.org/fhir/us/core/StructureDefinition/us-core-ethnicity","extension":[{"url":"ombCategory","valueCoding":{"system":"urn:oid:2.16.840.1.113883.6.238","code":"2135-2","display":"Hispanic or Latino"}},{"url":"detailed","valueCoding":{"system":"urn:oid:2.16.840.1.113883.6.238","code":"2184-0","display":"Dominican"}},{"url":"detailed","valueCoding":{"system":"urn:oid:2.16.840.1.113883.6.238","code":"2148-5","display":"Mexican"}},{"url":"text","valueString":"Hispanic or Latino"}]}],"identifier":[{"system":"http://hospital.smarthealthit.org","value":"999999999"}],"name":[{"family":"Example","given":["Patient"]}],"gender":"male","birthDate":"1956-01-01"},"request":{"method":"PUT","url":"Patient/93c2a45f-f96e-4c48-a102-a35e38e8ec40"}},{"fullUrl":"Condition/63cd9722-36a3-419f-b315-491337937876","resource":{"resourceType":"Condition","id":"63cd9722-36a3-419f-b315-491337937876","meta":{"profile":["http://hl7.org/fhir/us/qicore/StructureDefinition/qicore-condition-encounter-diagnosis"]},"clinicalStatus":{"coding":[{"system":"http://terminology.hl7.org/CodeSystem/condition-clinical","code":"active"}]},"category":[{"coding":[{"system":"http://terminology.hl7.org/CodeSystem/condition-category","code":"encounter-diagnosis","display":"Encounter Diagnosis"}]}],"code":{"coding":[{"system":"http://hl7.org/fhir/sid/icd-10-cm","code":"E10.21","display":"Type 1 diabetes mellitus with diabetic nephropathy"}]},"subject":{"reference":"Patient/93c2a45f-f96e-4c48-a102-a35e38e8ec40"},"onsetDateTime":"2011-01-02"},"request":{"method":"PUT","url":"Condition/63cd9722-36a3-419f-b315-491337937876"}},{"fullUrl":"Encounter/c51ea804-78d6-45c9-9463-a8a10568eddc","resource":{"resourceType":"Encounter","id":"c51ea804-78d6-45c9-9463-a8a10568eddc","meta":{"profile":["http://hl7.org/fhir/us/qicore/StructureDefinition/qicore-encounter"]},"status":"finished","class":{"system":"http://terminology.hl7.org/CodeSystem/v3-ActCode","code":"IMP","display":"inpatient encounter"},"type":[{"coding":[{"system":"http://snomed.info/sct","code":"183452005"}]}],"subject":{"reference":"Patient/93c2a45f-f96e-4c48-a102-a35e38e8ec40"},"period":{"start":"2026-04-07T08:00:00Z","end":"2026-04-11T08:15:00.000+00:00"},"hospitalization":{"dischargeDisposition":{"coding":[{"system":"http://snomed.info/sct","code":"428361000124107","display":"Discharge to home or self care"}]}}},"request":{"method":"PUT","url":"Encounter/c51ea804-78d6-45c9-9463-a8a10568eddc"}},{"fullUrl":"MeasureReport/f374d500-4fc4-4f4c-b372-0fff3f3d9c35","resource":{"resourceType":"MeasureReport","id":"f374d500-4fc4-4f4c-b372-0fff3f3d9c35","meta":{"profile":["http://hl7.org/fhir/us/cqfmeasures/StructureDefinition/test-case-cqfm"]},"contained":[{"resourceType":"Parameters","id":"e730c515-21ca-497f-88e7-eaa2ec79f054-parameters","parameter":[{"name":"subject","valueString":"93c2a45f-f96e-4c48-a102-a35e38e8ec40"}]}],"extension":[{"url":"http://hl7.org/fhir/StructureDefinition/cqf-inputParameters","valueReference":{"reference":"#e730c515-21ca-497f-88e7-eaa2ec79f054-parameters"}},{"url":"http://hl7.org/fhir/us/cqfmeasures/StructureDefinition/cqfm-testCaseDescription","valueMarkdown":"Patient has a discharge to home with hospice care"}],"modifierExtension":[{"url":"http://hl7.org/fhir/us/cqfmeasures/StructureDefinition/cqfm-isTestCase","valueBoolean":true}],"status":"complete","type":"individual","measure":"https://madie.cms.gov/Measure/CMS871HHHyperFHIR","period":{"start":"2026-01-01","end":"2026-12-31"},"group":[{"id":"Group_1","population":[{"id":"InitialPopulation_1","code":{"coding":[{"system":"http://terminology.hl7.org/CodeSystem/measure-population","code":"initial-population","display":"Initial Population"}]},"count":1},{"id":"Denominator_1","code":{"coding":[{"system":"http://terminology.hl7.org/CodeSystem/measure-population","code":"denominator","display":"Denominator"}]},"count":1},{"id":"DenominatorExclusion_1","code":{"coding":[{"system":"http://terminology.hl7.org/CodeSystem/measure-population","code":"denominator-exclusion","display":"Denominator Exclusion"}]},"count":1},{"id":"Numerator_1","code":{"coding":[{"system":"http://terminology.hl7.org/CodeSystem/measure-population","code":"numerator","display":"Numerator"}]},"count":0},{"id":"NumeratorExclusion_1","code":{"coding":[{"system":"http://terminology.hl7.org/CodeSystem/measure-population","code":"numerator-exclusion","display":"Numerator Exclusion"}]},"count":0}],"measureScore":{"value":0.0}}],"evaluatedResource":[{"reference":"Patient/93c2a45f-f96e-4c48-a102-a35e38e8ec40"},{"reference":"Encounter/c51ea804-78d6-45c9-9463-a8a10568eddc"},{"reference":"Condition/63cd9722-36a3-419f-b315-491337937876"}]},"request":{"method":"PUT","url":"MeasureReport/f374d500-4fc4-4f4c-b372-0fff3f3d9c35"}},{"fullUrl":"Bundle/363b28a9-e77d-4fee-aaaf-73ebb35bc57c","resource":{"resourceType":"Bundle","id":"363b28a9-e77d-4fee-aaaf-73ebb35bc57c","type":"transaction","entry":[{"fullUrl":"https://madie.cms.gov/Patient/93c2a45f-f96e-4c48-a102-a35e38e8ec40","resource":{"resourceType":"Patient","id":"93c2a45f-f96e-4c48-a102-a35e38e8ec40","meta":{"profile":["http://hl7.org/fhir/us/qicore/StructureDefinition/qicore-patient"]},"extension":[{"url":"http://hl7.org/fhir/us/core/StructureDefinition/us-core-race","extension":[{"url":"ombCategory","valueCoding":{"system":"urn:oid:2.16.840.1.113883.6.238","code":"2106-3","display":"White"}},{"url":"text","valueString":"White"}]},{"url":"http://hl7.org/fhir/us/core/StructureDefinition/us-core-ethnicity","extension":[{"url":"ombCategory","valueCoding":{"system":"urn:oid:2.16.840.1.113883.6.238","code":"2135-2","display":"Hispanic or Latino"}},{"url":"detailed","valueCoding":{"system":"urn:oid:2.16.840.1.113883.6.238","code":"2184-0","display":"Dominican"}},{"url":"detailed","valueCoding":{"system":"urn:oid:2.16.840.1.113883.6.238","code":"2148-5","display":"Mexican"}},{"url":"text","valueString":"Hispanic or Latino"}]}],"identifier":[{"system":"http://hospital.smarthealthit.org","value":"999999999"}],"name":[{"family":"Example","given":["Patient"]}],"gender":"male","birthDate":"1956-01-01"},"request":{"method":"PUT","url":"Patient/93c2a45f-f96e-4c48-a102-a35e38e8ec40"}},{"fullUrl":"https://madie.cms.gov/Encounter/c51ea804-78d6-45c9-9463-a8a10568eddc","resource":{"resourceType":"Encounter","id":"c51ea804-78d6-45c9-9463-a8a10568eddc","meta":{"profile":["http://hl7.org/fhir/us/qicore/StructureDefinition/qicore-encounter"]},"status":"finished","class":{"system":"http://terminology.hl7.org/CodeSystem/v3-ActCode","code":"IMP","display":"inpatient encounter"},"type":[{"coding":[{"system":"http://snomed.info/sct","code":"183452005"}]}],"subject":{"reference":"Patient/93c2a45f-f96e-4c48-a102-a35e38e8ec40"},"period":{"start":"2026-04-07T08:00:00Z","end":"2026-04-11T08:15:00.000+00:00"},"hospitalization":{"dischargeDisposition":{"coding":[{"system":"http://snomed.info/sct","code":"428361000124107","display":"Discharge to home or self care"}]}}},"request":{"method":"PUT","url":"Encounter/c51ea804-78d6-45c9-9463-a8a10568eddc"}},{"fullUrl":"https://madie.cms.gov/Condition/63cd9722-36a3-419f-b315-491337937876","resource":{"resourceType":"Condition","id":"63cd9722-36a3-419f-b315-491337937876","meta":{"profile":["http://hl7.org/fhir/us/qicore/StructureDefinition/qicore-condition-encounter-diagnosis"]},"clinicalStatus":{"coding":[{"system":"http://terminology.hl7.org/CodeSystem/condition-clinical","code":"active"}]},"category":[{"coding":[{"system":"http://terminology.hl7.org/CodeSystem/condition-category","code":"encounter-diagnosis","display":"Encounter Diagnosis"}]}],"code":{"coding":[{"system":"http://hl7.org/fhir/sid/icd-10-cm","code":"E10.21","display":"Type 1 diabetes mellitus with diabetic nephropathy"}]},"subject":{"reference":"Patient/93c2a45f-f96e-4c48-a102-a35e38e8ec40"},"onsetDateTime":"2011-01-02"},"request":{"method":"PUT","url":"Condition/63cd9722-36a3-419f-b315-491337937876"}},{"fullUrl":"https://madie.cms.gov/MeasureReport/f374d500-4fc4-4f4c-b372-0fff3f3d9c35","resource":{"resourceType":"MeasureReport","id":"f374d500-4fc4-4f4c-b372-0fff3f3d9c35","meta":{"profile":["http://hl7.org/fhir/us/cqfmeasures/StructureDefinition/test-case-cqfm"]},"contained":[{"resourceType":"Parameters","id":"e730c515-21ca-497f-88e7-eaa2ec79f054-parameters","parameter":[{"name":"subject","valueString":"93c2a45f-f96e-4c48-a102-a35e38e8ec40"}]}],"extension":[{"url":"http://hl7.org/fhir/StructureDefinition/cqf-inputParameters","valueReference":{"reference":"#e730c515-21ca-497f-88e7-eaa2ec79f054-parameters"}},{"url":"http://hl7.org/fhir/us/cqfmeasures/StructureDefinition/cqfm-testCaseDescription","valueMarkdown":"Patient has a discharge to home with hospice care"}],"modifierExtension":[{"url":"http://hl7.org/fhir/us/cqfmeasures/StructureDefinition/cqfm-isTestCase","valueBoolean":true}],"status":"complete","type":"individual","measure":"https://madie.cms.gov/Measure/CMS871HHHyperFHIR","period":{"start":"2026-01-01","end":"2026-12-31"},"group":[{"id":"Group_1","population":[{"id":"InitialPopulation_1","code":{"coding":[{"system":"http://terminology.hl7.org/CodeSystem/measure-population","code":"initial-population","display":"Initial Population"}]},"count":1},{"id":"Denominator_1","code":{"coding":[{"system":"http://terminology.hl7.org/CodeSystem/measure-population","code":"denominator","display":"Denominator"}]},"count":1},{"id":"DenominatorExclusion_1","code":{"coding":[{"system":"http://terminology.hl7.org/CodeSystem/measure-population","code":"denominator-exclusion","display":"Denominator Exclusion"}]},"count":1},{"id":"Numerator_1","code":{"coding":[{"system":"http://terminology.hl7.org/CodeSystem/measure-population","code":"numerator","display":"Numerator"}]},"count":0},{"id":"NumeratorExclusion_1","code":{"coding":[{"system":"http://terminology.hl7.org/CodeSystem/measure-population","code":"numerator-exclusion","display":"Numerator Exclusion"}]},"count":0}],"measureScore":{"value":0.0}}],"evaluatedResource":[{"reference":"Patient/93c2a45f-f96e-4c48-a102-a35e38e8ec40"},{"reference":"Encounter/c51ea804-78d6-45c9-9463-a8a10568eddc"},{"reference":"Condition/63cd9722-36a3-419f-b315-491337937876"}]},"request":{"method":"PUT","url":"MeasureReport/f374d500-4fc4-4f4c-b372-0fff3f3d9c35"}}]},"request":{"method":"PUT","url":"Bundle/363b28a9-e77d-4fee-aaaf-73ebb35bc57c"}}]}