{"resourceType":"Bundle","id":"tests-76dc2b63-710c-4ac5-afef-f76c2ef07dcd-bundle","type":"transaction","entry":[{"resource":{"resourceType":"Observation","id":"7a5480ff-5fdf-48b1-bd58-1c6dd21eca59","meta":{"profile":["http://hl7.org/fhir/us/qicore/StructureDefinition/qicore-observation-lab"]},"status":"final","category":[{"coding":[{"system":"http://terminology.hl7.org/CodeSystem/observation-category","code":"laboratory","display":"Laboratory"}]}],"code":{"coding":[{"system":"http://loinc.org","version":"2.72","code":"1556-0","display":"Fasting glucose [Mass/volume] in Capillary blood"}]},"subject":{"reference":"Patient/76dc2b63-710c-4ac5-afef-f76c2ef07dcd"},"effectiveDateTime":"2026-10-16T09:00:00+00:00","valueQuantity":{"value":350,"unit":"mg/dL"}},"request":{"method":"PUT","url":"Observation/7a5480ff-5fdf-48b1-bd58-1c6dd21eca59"}},{"resource":{"resourceType":"Bundle","id":"tests-NumexFail-HighGlucoseMoreThan1HourPriorToEncStart-bundle","type":"transaction","entry":[{"fullUrl":"https://madie.cms.gov/Condition/ade60074-1f30-4d41-bd6d-5c129c07758c","resource":{"resourceType":"Condition","id":"ade60074-1f30-4d41-bd6d-5c129c07758c","meta":{"profile":["http://hl7.org/fhir/us/qicore/StructureDefinition/qicore-condition-encounter-diagnosis"]},"clinicalStatus":{"coding":[{"system":"http://terminology.hl7.org/CodeSystem/condition-clinical","code":"active"}]},"verificationStatus":{"coding":[{"system":"http://terminology.hl7.org/CodeSystem/condition-ver-status","code":"confirmed"}]},"category":[{"coding":[{"system":"http://terminology.hl7.org/CodeSystem/condition-category","code":"encounter-diagnosis","display":"Encounter Diagnosis"}]}],"code":{"coding":[{"system":"http://snomed.info/sct","code":"102781000119107","display":"Diabetes"}]},"subject":{"reference":"Patient/76dc2b63-710c-4ac5-afef-f76c2ef07dcd"},"encounter":{"reference":"Encounter/8f26db12-8dcf-4727-9274-2b990a8755b0"},"onsetDateTime":"2026-10-14T08:00:00+00:00"},"request":{"method":"PUT","url":"Condition/ade60074-1f30-4d41-bd6d-5c129c07758c"}},{"fullUrl":"https://madie.cms.gov/Encounter/8f26db12-8dcf-4727-9274-2b990a8755b0","resource":{"resourceType":"Encounter","id":"8f26db12-8dcf-4727-9274-2b990a8755b0","meta":{"profile":["http://hl7.org/fhir/us/qicore/StructureDefinition/qicore-encounter"]},"status":"finished","class":{"system":"http://terminology.hl7.org/CodeSystem/v3-ActCode","code":"IMP","display":"inpatient encounter"},"type":[{"coding":[{"system":"http://snomed.info/sct","code":"183452005","display":"Inpatient encounter"}]}],"subject":{"reference":"Patient/76dc2b63-710c-4ac5-afef-f76c2ef07dcd"},"period":{"start":"2026-10-14T08:00:00+00:00","end":"2026-10-21T08:15:00.000+00:00"}},"request":{"method":"PUT","url":"Encounter/8f26db12-8dcf-4727-9274-2b990a8755b0"}},{"fullUrl":"https://madie.cms.gov/Patient/76dc2b63-710c-4ac5-afef-f76c2ef07dcd","resource":{"resourceType":"Patient","id":"76dc2b63-710c-4ac5-afef-f76c2ef07dcd","meta":{"profile":["http://hl7.org/fhir/us/qicore/StructureDefinition/qicore-patient"]},"extension":[{"url":"http://hl7.org/fhir/us/core/StructureDefinition/us-core-race","extension":[{"url":"ombCategory","valueCoding":{"system":"urn:oid:2.16.840.1.113883.6.238","code":"2106-3","display":"White"}},{"url":"text","valueString":"White"}]},{"url":"http://hl7.org/fhir/us/core/StructureDefinition/us-core-ethnicity","extension":[{"url":"ombCategory","valueCoding":{"system":"urn:oid:2.16.840.1.113883.6.238","code":"2135-2","display":"Hispanic or Latino"}},{"url":"text","valueString":"Hispanic or Latino"}]},{"url":"http://hl7.org/fhir/us/core/StructureDefinition/us-core-sex","valueCode":"248153007"}],"identifier":[{"system":"http://hospital.smarthealthit.org","value":"999999999"}],"name":[{"family":"Example","given":["Patient"]}],"gender":"female","birthDate":"1956-01-01"},"request":{"method":"PUT","url":"Patient/76dc2b63-710c-4ac5-afef-f76c2ef07dcd"}},{"fullUrl":"https://madie.cms.gov/Observation/df2be101-f2b2-4b82-ad0f-7a65113e30f3","resource":{"resourceType":"Observation","id":"df2be101-f2b2-4b82-ad0f-7a65113e30f3","meta":{"profile":["http://hl7.org/fhir/us/qicore/StructureDefinition/qicore-observation-lab"]},"status":"final","category":[{"coding":[{"system":"http://terminology.hl7.org/CodeSystem/observation-category","code":"laboratory","display":"Laboratory"}]}],"code":{"coding":[{"system":"http://loinc.org","version":"2.72","code":"1547-9","display":"Glucose Lab Test Mass Per Volume"}]},"subject":{"reference":"Patient/76dc2b63-710c-4ac5-afef-f76c2ef07dcd"},"effectiveDateTime":"2026-10-14T06:59:00+00:00","valueQuantity":{"value":1001,"unit":"mg/dL"}},"request":{"method":"PUT","url":"Observation/df2be101-f2b2-4b82-ad0f-7a65113e30f3"}},{"fullUrl":"https://madie.cms.gov/Observation/7a5480ff-5fdf-48b1-bd58-1c6dd21eca59","resource":{"resourceType":"Observation","id":"7a5480ff-5fdf-48b1-bd58-1c6dd21eca59","meta":{"profile":["http://hl7.org/fhir/us/qicore/StructureDefinition/qicore-observation-lab"]},"status":"final","category":[{"coding":[{"system":"http://terminology.hl7.org/CodeSystem/observation-category","code":"laboratory","display":"Laboratory"}]}],"code":{"coding":[{"system":"http://loinc.org","version":"2.72","code":"1556-0","display":"Fasting glucose [Mass/volume] in Capillary blood"}]},"subject":{"reference":"Patient/76dc2b63-710c-4ac5-afef-f76c2ef07dcd"},"effectiveDateTime":"2026-10-16T09:00:00+00:00","valueQuantity":{"value":350,"unit":"mg/dL"}},"request":{"method":"PUT","url":"Observation/7a5480ff-5fdf-48b1-bd58-1c6dd21eca59"}},{"fullUrl":"https://madie.cms.gov/Observation/b4f07020-4f0c-4855-9b07-8fb6f47f2723","resource":{"resourceType":"Observation","id":"b4f07020-4f0c-4855-9b07-8fb6f47f2723","meta":{"profile":["http://hl7.org/fhir/us/qicore/StructureDefinition/qicore-observation-lab"]},"status":"final","category":[{"coding":[{"system":"http://terminology.hl7.org/CodeSystem/observation-category","code":"laboratory","display":"Laboratory"}]}],"code":{"coding":[{"system":"http://loinc.org","version":"2.72","code":"1556-0","display":"Fasting glucose [Mass/volume] in Capillary blood"}]},"subject":{"reference":"Patient/76dc2b63-710c-4ac5-afef-f76c2ef07dcd"},"effectiveDateTime":"2026-10-15T09:00:00+00:00","valueQuantity":{"value":301,"unit":"mg/dL"}},"request":{"method":"PUT","url":"Observation/b4f07020-4f0c-4855-9b07-8fb6f47f2723"}},{"fullUrl":"https://madie.cms.gov/Observation/b5524985-990d-4636-a77b-166941a873cc","resource":{"resourceType":"Observation","id":"b5524985-990d-4636-a77b-166941a873cc","meta":{"profile":["http://hl7.org/fhir/us/qicore/StructureDefinition/qicore-observation-lab"]},"status":"final","category":[{"coding":[{"system":"http://terminology.hl7.org/CodeSystem/observation-category","code":"laboratory","display":"Laboratory"}]}],"code":{"coding":[{"system":"http://loinc.org","version":"2.72","code":"1556-0","display":"Fasting glucose [Mass/volume] in Capillary blood"}]},"subject":{"reference":"Patient/76dc2b63-710c-4ac5-afef-f76c2ef07dcd"},"effectiveDateTime":"2026-10-18T09:00:00+00:00","valueQuantity":{"value":400,"unit":"mg/dL"}},"request":{"method":"PUT","url":"Observation/b5524985-990d-4636-a77b-166941a873cc"}},{"fullUrl":"https://madie.cms.gov/MeasureReport/0f80f005-e519-4bfb-b890-6045a45d94e5","resource":{"resourceType":"MeasureReport","id":"0f80f005-e519-4bfb-b890-6045a45d94e5","meta":{"profile":["http://hl7.org/fhir/us/cqfmeasures/StructureDefinition/test-case-cqfm"]},"contained":[{"resourceType":"Parameters","id":"6fbc108c-6b7b-48aa-9973-8e77b70709ed-parameters","parameter":[{"name":"subject","valueString":"76dc2b63-710c-4ac5-afef-f76c2ef07dcd"}]}],"extension":[{"url":"http://hl7.org/fhir/StructureDefinition/cqf-inputParameters","valueReference":{"reference":"#6fbc108c-6b7b-48aa-9973-8e77b70709ed-parameters"}},{"url":"http://hl7.org/fhir/us/cqfmeasures/StructureDefinition/cqfm-testCaseDescription","valueMarkdown":"Enc start 10/14 at 8am. Glucose 1001 at 6:59am, more than 1 hour prior to enc start, so does not meet denom exclusion. There are 4 hyperglycemic event days, and num is not excluded since this case is not excluded from denom. \nDenex fails\nNumex fails"}],"modifierExtension":[{"url":"http://hl7.org/fhir/us/cqfmeasures/StructureDefinition/cqfm-isTestCase","valueBoolean":true}],"status":"complete","type":"individual","measure":"https://madie.cms.gov/Measure/CMS871HHHyperFHIR","period":{"start":"2026-01-01","end":"2026-12-31"},"group":[{"id":"Group_1","population":[{"id":"InitialPopulation_1","code":{"coding":[{"system":"http://terminology.hl7.org/CodeSystem/measure-population","code":"initial-population","display":"Initial Population"}]},"count":1},{"id":"Denominator_1","code":{"coding":[{"system":"http://terminology.hl7.org/CodeSystem/measure-population","code":"denominator","display":"Denominator"}]},"count":1},{"id":"MeasureObservation_1_1_1","code":{"coding":[{"system":"http://terminology.hl7.org/CodeSystem/measure-population","code":"measure-observation","display":"Measure Observation"}]},"count":6},{"id":"DenominatorExclusion_1","code":{"coding":[{"system":"http://terminology.hl7.org/CodeSystem/measure-population","code":"denominator-exclusion","display":"Denominator Exclusion"}]},"count":0},{"id":"Numerator_1","code":{"coding":[{"system":"http://terminology.hl7.org/CodeSystem/measure-population","code":"numerator","display":"Numerator"}]},"count":1},{"id":"MeasureObservation_1_2_1","code":{"coding":[{"system":"http://terminology.hl7.org/CodeSystem/measure-population","code":"measure-observation","display":"Measure Observation"}]},"count":4},{"id":"NumeratorExclusion_1","code":{"coding":[{"system":"http://terminology.hl7.org/CodeSystem/measure-population","code":"numerator-exclusion","display":"Numerator Exclusion"}]},"count":0}],"measureScore":{"value":0.0}}],"evaluatedResource":[{"reference":"Condition/ade60074-1f30-4d41-bd6d-5c129c07758c"},{"reference":"Encounter/8f26db12-8dcf-4727-9274-2b990a8755b0"},{"reference":"Patient/76dc2b63-710c-4ac5-afef-f76c2ef07dcd"},{"reference":"Observation/df2be101-f2b2-4b82-ad0f-7a65113e30f3"},{"reference":"Observation/7a5480ff-5fdf-48b1-bd58-1c6dd21eca59"},{"reference":"Observation/b4f07020-4f0c-4855-9b07-8fb6f47f2723"},{"reference":"Observation/b5524985-990d-4636-a77b-166941a873cc"}]},"request":{"method":"PUT","url":"MeasureReport/0f80f005-e519-4bfb-b890-6045a45d94e5"}}]},"request":{"method":"PUT","url":"Bundle/tests-NumexFail-HighGlucoseMoreThan1HourPriorToEncStart-bundle"}},{"resource":{"resourceType":"Observation","id":"b5524985-990d-4636-a77b-166941a873cc","meta":{"profile":["http://hl7.org/fhir/us/qicore/StructureDefinition/qicore-observation-lab"]},"status":"final","category":[{"coding":[{"system":"http://terminology.hl7.org/CodeSystem/observation-category","code":"laboratory","display":"Laboratory"}]}],"code":{"coding":[{"system":"http://loinc.org","version":"2.72","code":"1556-0","display":"Fasting glucose [Mass/volume] in Capillary blood"}]},"subject":{"reference":"Patient/76dc2b63-710c-4ac5-afef-f76c2ef07dcd"},"effectiveDateTime":"2026-10-18T09:00:00+00:00","valueQuantity":{"value":400,"unit":"mg/dL"}},"request":{"method":"PUT","url":"Observation/b5524985-990d-4636-a77b-166941a873cc"}},{"resource":{"resourceType":"Observation","id":"b4f07020-4f0c-4855-9b07-8fb6f47f2723","meta":{"profile":["http://hl7.org/fhir/us/qicore/StructureDefinition/qicore-observation-lab"]},"status":"final","category":[{"coding":[{"system":"http://terminology.hl7.org/CodeSystem/observation-category","code":"laboratory","display":"Laboratory"}]}],"code":{"coding":[{"system":"http://loinc.org","version":"2.72","code":"1556-0","display":"Fasting glucose [Mass/volume] in Capillary blood"}]},"subject":{"reference":"Patient/76dc2b63-710c-4ac5-afef-f76c2ef07dcd"},"effectiveDateTime":"2026-10-15T09:00:00+00:00","valueQuantity":{"value":301,"unit":"mg/dL"}},"request":{"method":"PUT","url":"Observation/b4f07020-4f0c-4855-9b07-8fb6f47f2723"}},{"resource":{"resourceType":"MeasureReport","id":"0f80f005-e519-4bfb-b890-6045a45d94e5","meta":{"profile":["http://hl7.org/fhir/us/cqfmeasures/StructureDefinition/test-case-cqfm"]},"contained":[{"resourceType":"Parameters","id":"6fbc108c-6b7b-48aa-9973-8e77b70709ed-parameters","parameter":[{"name":"subject","valueString":"76dc2b63-710c-4ac5-afef-f76c2ef07dcd"}]}],"extension":[{"url":"http://hl7.org/fhir/StructureDefinition/cqf-inputParameters","valueReference":{"reference":"#6fbc108c-6b7b-48aa-9973-8e77b70709ed-parameters"}},{"url":"http://hl7.org/fhir/us/cqfmeasures/StructureDefinition/cqfm-testCaseDescription","valueMarkdown":"Enc start 10/14 at 8am. Glucose 1001 at 6:59am, more than 1 hour prior to enc start, so does not meet denom exclusion. There are 4 hyperglycemic event days, and num is not excluded since this case is not excluded from denom. \nDenex fails\nNumex fails"}],"modifierExtension":[{"url":"http://hl7.org/fhir/us/cqfmeasures/StructureDefinition/cqfm-isTestCase","valueBoolean":true}],"status":"complete","type":"individual","measure":"https://madie.cms.gov/Measure/CMS871HHHyperFHIR","period":{"start":"2026-01-01","end":"2026-12-31"},"group":[{"id":"Group_1","population":[{"id":"InitialPopulation_1","code":{"coding":[{"system":"http://terminology.hl7.org/CodeSystem/measure-population","code":"initial-population","display":"Initial Population"}]},"count":1},{"id":"Denominator_1","code":{"coding":[{"system":"http://terminology.hl7.org/CodeSystem/measure-population","code":"denominator","display":"Denominator"}]},"count":1},{"id":"MeasureObservation_1_1_1","code":{"coding":[{"system":"http://terminology.hl7.org/CodeSystem/measure-population","code":"measure-observation","display":"Measure Observation"}]},"count":6},{"id":"DenominatorExclusion_1","code":{"coding":[{"system":"http://terminology.hl7.org/CodeSystem/measure-population","code":"denominator-exclusion","display":"Denominator Exclusion"}]},"count":0},{"id":"Numerator_1","code":{"coding":[{"system":"http://terminology.hl7.org/CodeSystem/measure-population","code":"numerator","display":"Numerator"}]},"count":1},{"id":"MeasureObservation_1_2_1","code":{"coding":[{"system":"http://terminology.hl7.org/CodeSystem/measure-population","code":"measure-observation","display":"Measure Observation"}]},"count":4},{"id":"NumeratorExclusion_1","code":{"coding":[{"system":"http://terminology.hl7.org/CodeSystem/measure-population","code":"numerator-exclusion","display":"Numerator Exclusion"}]},"count":0}],"measureScore":{"value":0.0}}],"evaluatedResource":[{"reference":"Condition/ade60074-1f30-4d41-bd6d-5c129c07758c"},{"reference":"Encounter/8f26db12-8dcf-4727-9274-2b990a8755b0"},{"reference":"Patient/76dc2b63-710c-4ac5-afef-f76c2ef07dcd"},{"reference":"Observation/df2be101-f2b2-4b82-ad0f-7a65113e30f3"},{"reference":"Observation/7a5480ff-5fdf-48b1-bd58-1c6dd21eca59"},{"reference":"Observation/b4f07020-4f0c-4855-9b07-8fb6f47f2723"},{"reference":"Observation/b5524985-990d-4636-a77b-166941a873cc"}]},"request":{"method":"PUT","url":"MeasureReport/0f80f005-e519-4bfb-b890-6045a45d94e5"}},{"resource":{"resourceType":"Patient","id":"76dc2b63-710c-4ac5-afef-f76c2ef07dcd","meta":{"profile":["http://hl7.org/fhir/us/qicore/StructureDefinition/qicore-patient"]},"extension":[{"url":"http://hl7.org/fhir/us/core/StructureDefinition/us-core-race","extension":[{"url":"ombCategory","valueCoding":{"system":"urn:oid:2.16.840.1.113883.6.238","code":"2106-3","display":"White"}},{"url":"text","valueString":"White"}]},{"url":"http://hl7.org/fhir/us/core/StructureDefinition/us-core-ethnicity","extension":[{"url":"ombCategory","valueCoding":{"system":"urn:oid:2.16.840.1.113883.6.238","code":"2135-2","display":"Hispanic or Latino"}},{"url":"text","valueString":"Hispanic or Latino"}]},{"url":"http://hl7.org/fhir/us/core/StructureDefinition/us-core-sex","valueCode":"248153007"}],"identifier":[{"system":"http://hospital.smarthealthit.org","value":"999999999"}],"name":[{"family":"Example","given":["Patient"]}],"gender":"female","birthDate":"1956-01-01"},"request":{"method":"PUT","url":"Patient/76dc2b63-710c-4ac5-afef-f76c2ef07dcd"}},{"resource":{"resourceType":"Encounter","id":"8f26db12-8dcf-4727-9274-2b990a8755b0","meta":{"profile":["http://hl7.org/fhir/us/qicore/StructureDefinition/qicore-encounter"]},"status":"finished","class":{"system":"http://terminology.hl7.org/CodeSystem/v3-ActCode","code":"IMP","display":"inpatient encounter"},"type":[{"coding":[{"system":"http://snomed.info/sct","code":"183452005","display":"Inpatient encounter"}]}],"subject":{"reference":"Patient/76dc2b63-710c-4ac5-afef-f76c2ef07dcd"},"period":{"start":"2026-10-14T08:00:00+00:00","end":"2026-10-21T08:15:00.000+00:00"}},"request":{"method":"PUT","url":"Encounter/8f26db12-8dcf-4727-9274-2b990a8755b0"}},{"resource":{"resourceType":"Condition","id":"ade60074-1f30-4d41-bd6d-5c129c07758c","meta":{"profile":["http://hl7.org/fhir/us/qicore/StructureDefinition/qicore-condition-encounter-diagnosis"]},"clinicalStatus":{"coding":[{"system":"http://terminology.hl7.org/CodeSystem/condition-clinical","code":"active"}]},"verificationStatus":{"coding":[{"system":"http://terminology.hl7.org/CodeSystem/condition-ver-status","code":"confirmed"}]},"category":[{"coding":[{"system":"http://terminology.hl7.org/CodeSystem/condition-category","code":"encounter-diagnosis","display":"Encounter Diagnosis"}]}],"code":{"coding":[{"system":"http://snomed.info/sct","code":"102781000119107","display":"Diabetes"}]},"subject":{"reference":"Patient/76dc2b63-710c-4ac5-afef-f76c2ef07dcd"},"encounter":{"reference":"Encounter/8f26db12-8dcf-4727-9274-2b990a8755b0"},"onsetDateTime":"2026-10-14T08:00:00+00:00"},"request":{"method":"PUT","url":"Condition/ade60074-1f30-4d41-bd6d-5c129c07758c"}},{"resource":{"resourceType":"Observation","id":"df2be101-f2b2-4b82-ad0f-7a65113e30f3","meta":{"profile":["http://hl7.org/fhir/us/qicore/StructureDefinition/qicore-observation-lab"]},"status":"final","category":[{"coding":[{"system":"http://terminology.hl7.org/CodeSystem/observation-category","code":"laboratory","display":"Laboratory"}]}],"code":{"coding":[{"system":"http://loinc.org","version":"2.72","code":"1547-9","display":"Glucose Lab Test Mass Per Volume"}]},"subject":{"reference":"Patient/76dc2b63-710c-4ac5-afef-f76c2ef07dcd"},"effectiveDateTime":"2026-10-14T06:59:00+00:00","valueQuantity":{"value":1001,"unit":"mg/dL"}},"request":{"method":"PUT","url":"Observation/df2be101-f2b2-4b82-ad0f-7a65113e30f3"}}]}