{"resourceType":"Bundle","id":"tests-b61275a4-b5d3-4d47-8be2-9e6cfe03832c-bundle","type":"transaction","entry":[{"fullUrl":"MeasureReport/22851354-0914-4605-ab82-3a266fac8505","resource":{"resourceType":"MeasureReport","id":"22851354-0914-4605-ab82-3a266fac8505","meta":{"profile":["http://hl7.org/fhir/us/cqfmeasures/StructureDefinition/test-case-cqfm"]},"contained":[{"resourceType":"Parameters","id":"fa82bf48-b81b-4dbf-a2a0-2240a408b593-parameters","parameter":[{"name":"subject","valueString":"b61275a4-b5d3-4d47-8be2-9e6cfe03832c"}]}],"extension":[{"url":"http://hl7.org/fhir/StructureDefinition/cqf-inputParameters","valueReference":{"reference":"#fa82bf48-b81b-4dbf-a2a0-2240a408b593-parameters"}},{"url":"http://hl7.org/fhir/us/cqfmeasures/StructureDefinition/cqfm-testCaseDescription","valueMarkdown":"IP w/glucose 1200 same time as IP start, meets denom exc. Has high glucose of 400 on day 3 (numerator), but meets num exc. Num exc criteria is same as denom exc criteria. So if case hits denom exc, num is always excluded even if meets num criteria."}],"modifierExtension":[{"url":"http://hl7.org/fhir/us/cqfmeasures/StructureDefinition/cqfm-isTestCase","valueBoolean":true}],"status":"complete","type":"individual","measure":"https://madie.cms.gov/Measure/CMS871HHHyperFHIR","period":{"start":"2026-01-01","end":"2026-12-31"},"group":[{"id":"Group_1","population":[{"id":"InitialPopulation_1","code":{"coding":[{"system":"http://terminology.hl7.org/CodeSystem/measure-population","code":"initial-population","display":"Initial Population"}]},"count":1},{"id":"Denominator_1","code":{"coding":[{"system":"http://terminology.hl7.org/CodeSystem/measure-population","code":"denominator","display":"Denominator"}]},"count":1},{"id":"DenominatorExclusion_1","code":{"coding":[{"system":"http://terminology.hl7.org/CodeSystem/measure-population","code":"denominator-exclusion","display":"Denominator Exclusion"}]},"count":1},{"id":"Numerator_1","code":{"coding":[{"system":"http://terminology.hl7.org/CodeSystem/measure-population","code":"numerator","display":"Numerator"}]},"count":1},{"id":"NumeratorExclusion_1","code":{"coding":[{"system":"http://terminology.hl7.org/CodeSystem/measure-population","code":"numerator-exclusion","display":"Numerator Exclusion"}]},"count":1}],"measureScore":{"value":0.0}}],"evaluatedResource":[{"reference":"Patient/b61275a4-b5d3-4d47-8be2-9e6cfe03832c"},{"reference":"Condition/cac37e7f-0808-4042-af67-824621aa0233"},{"reference":"Encounter/c07babab-e076-4bfc-afb9-9d672ecc1d40"},{"reference":"Observation/9f310a09-d15e-4b6c-83e0-4dad11ecc23d"},{"reference":"Observation/e3af964a-fb8b-4b0d-9b61-049fa4099db0"}]},"request":{"method":"PUT","url":"MeasureReport/22851354-0914-4605-ab82-3a266fac8505"}},{"fullUrl":"Encounter/c07babab-e076-4bfc-afb9-9d672ecc1d40","resource":{"resourceType":"Encounter","id":"c07babab-e076-4bfc-afb9-9d672ecc1d40","meta":{"profile":["http://hl7.org/fhir/us/qicore/StructureDefinition/qicore-encounter"]},"status":"finished","class":{"system":"http://terminology.hl7.org/CodeSystem/v3-ActCode","code":"IMP","display":"inpatient encounter"},"type":[{"coding":[{"system":"http://snomed.info/sct","code":"183452005","display":"Inpatient encounter"}]}],"subject":{"reference":"Patient/b61275a4-b5d3-4d47-8be2-9e6cfe03832c"},"period":{"start":"2026-11-25T08:00:00+00:00","end":"2026-11-30T08:15:00.000+00:00"}},"request":{"method":"PUT","url":"Encounter/c07babab-e076-4bfc-afb9-9d672ecc1d40"}},{"fullUrl":"Bundle/tests-NumexPass-HasNumCriteriaButMeetsDenexNumex-bundle","resource":{"resourceType":"Bundle","id":"tests-NumexPass-HasNumCriteriaButMeetsDenexNumex-bundle","type":"transaction","entry":[{"fullUrl":"https://madie.cms.gov/Patient/b61275a4-b5d3-4d47-8be2-9e6cfe03832c","resource":{"resourceType":"Patient","id":"b61275a4-b5d3-4d47-8be2-9e6cfe03832c","meta":{"profile":["http://hl7.org/fhir/us/qicore/StructureDefinition/qicore-patient"]},"extension":[{"url":"http://hl7.org/fhir/us/core/StructureDefinition/us-core-race","extension":[{"url":"ombCategory","valueCoding":{"system":"urn:oid:2.16.840.1.113883.6.238","code":"2106-3","display":"White"}},{"url":"text","valueString":"White"}]},{"url":"http://hl7.org/fhir/us/core/StructureDefinition/us-core-ethnicity","extension":[{"url":"ombCategory","valueCoding":{"system":"urn:oid:2.16.840.1.113883.6.238","code":"2135-2","display":"Hispanic or Latino"}},{"url":"text","valueString":"Hispanic or Latino"}]},{"url":"http://hl7.org/fhir/us/core/StructureDefinition/us-core-sex","valueCode":"248153007"}],"identifier":[{"system":"http://hospital.smarthealthit.org","value":"999999999"}],"name":[{"family":"Example","given":["Patient"]}],"gender":"female","birthDate":"1956-01-01"},"request":{"method":"PUT","url":"Patient/b61275a4-b5d3-4d47-8be2-9e6cfe03832c"}},{"fullUrl":"https://madie.cms.gov/Condition/cac37e7f-0808-4042-af67-824621aa0233","resource":{"resourceType":"Condition","id":"cac37e7f-0808-4042-af67-824621aa0233","meta":{"profile":["http://hl7.org/fhir/us/qicore/StructureDefinition/qicore-condition-encounter-diagnosis"]},"clinicalStatus":{"coding":[{"system":"http://terminology.hl7.org/CodeSystem/condition-clinical","code":"active"}]},"verificationStatus":{"coding":[{"system":"http://terminology.hl7.org/CodeSystem/condition-ver-status","code":"confirmed"}]},"category":[{"coding":[{"system":"http://terminology.hl7.org/CodeSystem/condition-category","code":"encounter-diagnosis","display":"Encounter Diagnosis"}]}],"code":{"coding":[{"system":"http://snomed.info/sct","code":"102781000119107","display":"Diabetes"}]},"subject":{"reference":"Patient/b61275a4-b5d3-4d47-8be2-9e6cfe03832c"},"onsetPeriod":{"start":"2026-11-25T08:00:00+00:00","end":"2026-11-30T08:15:00.000+00:00"}},"request":{"method":"PUT","url":"Condition/cac37e7f-0808-4042-af67-824621aa0233"}},{"fullUrl":"https://madie.cms.gov/Encounter/c07babab-e076-4bfc-afb9-9d672ecc1d40","resource":{"resourceType":"Encounter","id":"c07babab-e076-4bfc-afb9-9d672ecc1d40","meta":{"profile":["http://hl7.org/fhir/us/qicore/StructureDefinition/qicore-encounter"]},"status":"finished","class":{"system":"http://terminology.hl7.org/CodeSystem/v3-ActCode","code":"IMP","display":"inpatient encounter"},"type":[{"coding":[{"system":"http://snomed.info/sct","code":"183452005","display":"Inpatient encounter"}]}],"subject":{"reference":"Patient/b61275a4-b5d3-4d47-8be2-9e6cfe03832c"},"period":{"start":"2026-11-25T08:00:00+00:00","end":"2026-11-30T08:15:00.000+00:00"}},"request":{"method":"PUT","url":"Encounter/c07babab-e076-4bfc-afb9-9d672ecc1d40"}},{"fullUrl":"https://madie.cms.gov/Observation/9f310a09-d15e-4b6c-83e0-4dad11ecc23d","resource":{"resourceType":"Observation","id":"9f310a09-d15e-4b6c-83e0-4dad11ecc23d","meta":{"profile":["http://hl7.org/fhir/us/qicore/StructureDefinition/qicore-observation-lab"]},"status":"final","category":[{"coding":[{"system":"http://terminology.hl7.org/CodeSystem/observation-category","code":"laboratory","display":"Laboratory"}]}],"code":{"coding":[{"system":"http://loinc.org","version":"2.72","code":"1556-0","display":"Fasting glucose [Mass/volume] in Capillary blood"}]},"subject":{"reference":"Patient/b61275a4-b5d3-4d47-8be2-9e6cfe03832c"},"effectiveDateTime":"2026-11-25T08:00:00+00:00","issued":"2026-11-25T08:00:00.000+00:00","valueQuantity":{"value":1200,"unit":"mg/dL"}},"request":{"method":"PUT","url":"Observation/9f310a09-d15e-4b6c-83e0-4dad11ecc23d"}},{"fullUrl":"https://madie.cms.gov/Observation/e3af964a-fb8b-4b0d-9b61-049fa4099db0","resource":{"resourceType":"Observation","id":"e3af964a-fb8b-4b0d-9b61-049fa4099db0","meta":{"profile":["http://hl7.org/fhir/us/qicore/StructureDefinition/qicore-observation-lab"]},"status":"final","category":[{"coding":[{"system":"http://terminology.hl7.org/CodeSystem/observation-category","code":"laboratory","display":"Laboratory"}]}],"code":{"coding":[{"system":"http://loinc.org","version":"2.72","code":"1556-0","display":"Fasting glucose [Mass/volume] in Capillary blood"}]},"subject":{"reference":"Patient/b61275a4-b5d3-4d47-8be2-9e6cfe03832c"},"effectiveDateTime":"2026-11-27T08:00:00+00:00","valueQuantity":{"value":400,"unit":"mg/dL"}},"request":{"method":"PUT","url":"Observation/e3af964a-fb8b-4b0d-9b61-049fa4099db0"}},{"fullUrl":"https://madie.cms.gov/MeasureReport/22851354-0914-4605-ab82-3a266fac8505","resource":{"resourceType":"MeasureReport","id":"22851354-0914-4605-ab82-3a266fac8505","meta":{"profile":["http://hl7.org/fhir/us/cqfmeasures/StructureDefinition/test-case-cqfm"]},"contained":[{"resourceType":"Parameters","id":"fa82bf48-b81b-4dbf-a2a0-2240a408b593-parameters","parameter":[{"name":"subject","valueString":"b61275a4-b5d3-4d47-8be2-9e6cfe03832c"}]}],"extension":[{"url":"http://hl7.org/fhir/StructureDefinition/cqf-inputParameters","valueReference":{"reference":"#fa82bf48-b81b-4dbf-a2a0-2240a408b593-parameters"}},{"url":"http://hl7.org/fhir/us/cqfmeasures/StructureDefinition/cqfm-testCaseDescription","valueMarkdown":"IP w/glucose 1200 same time as IP start, meets denom exc. Has high glucose of 400 on day 3 (numerator), but meets num exc. Num exc criteria is same as denom exc criteria. So if case hits denom exc, num is always excluded even if meets num criteria."}],"modifierExtension":[{"url":"http://hl7.org/fhir/us/cqfmeasures/StructureDefinition/cqfm-isTestCase","valueBoolean":true}],"status":"complete","type":"individual","measure":"https://madie.cms.gov/Measure/CMS871HHHyperFHIR","period":{"start":"2026-01-01","end":"2026-12-31"},"group":[{"id":"Group_1","population":[{"id":"InitialPopulation_1","code":{"coding":[{"system":"http://terminology.hl7.org/CodeSystem/measure-population","code":"initial-population","display":"Initial Population"}]},"count":1},{"id":"Denominator_1","code":{"coding":[{"system":"http://terminology.hl7.org/CodeSystem/measure-population","code":"denominator","display":"Denominator"}]},"count":1},{"id":"DenominatorExclusion_1","code":{"coding":[{"system":"http://terminology.hl7.org/CodeSystem/measure-population","code":"denominator-exclusion","display":"Denominator Exclusion"}]},"count":1},{"id":"Numerator_1","code":{"coding":[{"system":"http://terminology.hl7.org/CodeSystem/measure-population","code":"numerator","display":"Numerator"}]},"count":1},{"id":"NumeratorExclusion_1","code":{"coding":[{"system":"http://terminology.hl7.org/CodeSystem/measure-population","code":"numerator-exclusion","display":"Numerator Exclusion"}]},"count":1}],"measureScore":{"value":0.0}}],"evaluatedResource":[{"reference":"Patient/b61275a4-b5d3-4d47-8be2-9e6cfe03832c"},{"reference":"Condition/cac37e7f-0808-4042-af67-824621aa0233"},{"reference":"Encounter/c07babab-e076-4bfc-afb9-9d672ecc1d40"},{"reference":"Observation/9f310a09-d15e-4b6c-83e0-4dad11ecc23d"},{"reference":"Observation/e3af964a-fb8b-4b0d-9b61-049fa4099db0"}]},"request":{"method":"PUT","url":"MeasureReport/22851354-0914-4605-ab82-3a266fac8505"}}]},"request":{"method":"PUT","url":"Bundle/tests-NumexPass-HasNumCriteriaButMeetsDenexNumex-bundle"}},{"fullUrl":"Observation/e3af964a-fb8b-4b0d-9b61-049fa4099db0","resource":{"resourceType":"Observation","id":"e3af964a-fb8b-4b0d-9b61-049fa4099db0","meta":{"profile":["http://hl7.org/fhir/us/qicore/StructureDefinition/qicore-observation-lab"]},"status":"final","category":[{"coding":[{"system":"http://terminology.hl7.org/CodeSystem/observation-category","code":"laboratory","display":"Laboratory"}]}],"code":{"coding":[{"system":"http://loinc.org","version":"2.72","code":"1556-0","display":"Fasting glucose [Mass/volume] in Capillary blood"}]},"subject":{"reference":"Patient/b61275a4-b5d3-4d47-8be2-9e6cfe03832c"},"effectiveDateTime":"2026-11-27T08:00:00+00:00","valueQuantity":{"value":400,"unit":"mg/dL"}},"request":{"method":"PUT","url":"Observation/e3af964a-fb8b-4b0d-9b61-049fa4099db0"}},{"fullUrl":"Patient/b61275a4-b5d3-4d47-8be2-9e6cfe03832c","resource":{"resourceType":"Patient","id":"b61275a4-b5d3-4d47-8be2-9e6cfe03832c","meta":{"profile":["http://hl7.org/fhir/us/qicore/StructureDefinition/qicore-patient"]},"extension":[{"url":"http://hl7.org/fhir/us/core/StructureDefinition/us-core-race","extension":[{"url":"ombCategory","valueCoding":{"system":"urn:oid:2.16.840.1.113883.6.238","code":"2106-3","display":"White"}},{"url":"text","valueString":"White"}]},{"url":"http://hl7.org/fhir/us/core/StructureDefinition/us-core-ethnicity","extension":[{"url":"ombCategory","valueCoding":{"system":"urn:oid:2.16.840.1.113883.6.238","code":"2135-2","display":"Hispanic or Latino"}},{"url":"text","valueString":"Hispanic or Latino"}]},{"url":"http://hl7.org/fhir/us/core/StructureDefinition/us-core-sex","valueCode":"248153007"}],"identifier":[{"system":"http://hospital.smarthealthit.org","value":"999999999"}],"name":[{"family":"Example","given":["Patient"]}],"gender":"female","birthDate":"1956-01-01"},"request":{"method":"PUT","url":"Patient/b61275a4-b5d3-4d47-8be2-9e6cfe03832c"}},{"fullUrl":"Condition/cac37e7f-0808-4042-af67-824621aa0233","resource":{"resourceType":"Condition","id":"cac37e7f-0808-4042-af67-824621aa0233","meta":{"profile":["http://hl7.org/fhir/us/qicore/StructureDefinition/qicore-condition-encounter-diagnosis"]},"clinicalStatus":{"coding":[{"system":"http://terminology.hl7.org/CodeSystem/condition-clinical","code":"active"}]},"verificationStatus":{"coding":[{"system":"http://terminology.hl7.org/CodeSystem/condition-ver-status","code":"confirmed"}]},"category":[{"coding":[{"system":"http://terminology.hl7.org/CodeSystem/condition-category","code":"encounter-diagnosis","display":"Encounter Diagnosis"}]}],"code":{"coding":[{"system":"http://snomed.info/sct","code":"102781000119107","display":"Diabetes"}]},"subject":{"reference":"Patient/b61275a4-b5d3-4d47-8be2-9e6cfe03832c"},"onsetPeriod":{"start":"2026-11-25T08:00:00+00:00","end":"2026-11-30T08:15:00.000+00:00"}},"request":{"method":"PUT","url":"Condition/cac37e7f-0808-4042-af67-824621aa0233"}},{"fullUrl":"Observation/9f310a09-d15e-4b6c-83e0-4dad11ecc23d","resource":{"resourceType":"Observation","id":"9f310a09-d15e-4b6c-83e0-4dad11ecc23d","meta":{"profile":["http://hl7.org/fhir/us/qicore/StructureDefinition/qicore-observation-lab"]},"status":"final","category":[{"coding":[{"system":"http://terminology.hl7.org/CodeSystem/observation-category","code":"laboratory","display":"Laboratory"}]}],"code":{"coding":[{"system":"http://loinc.org","version":"2.72","code":"1556-0","display":"Fasting glucose [Mass/volume] in Capillary blood"}]},"subject":{"reference":"Patient/b61275a4-b5d3-4d47-8be2-9e6cfe03832c"},"effectiveDateTime":"2026-11-25T08:00:00+00:00","issued":"2026-11-25T08:00:00.000+00:00","valueQuantity":{"value":1200,"unit":"mg/dL"}},"request":{"method":"PUT","url":"Observation/9f310a09-d15e-4b6c-83e0-4dad11ecc23d"}}]}