{"resourceType":"Bundle","id":"tests-7507debb-a991-4de0-bd71-634a684ddcd7-bundle","type":"transaction","entry":[{"fullUrl":"Patient/7507debb-a991-4de0-bd71-634a684ddcd7","resource":{"resourceType":"Patient","id":"7507debb-a991-4de0-bd71-634a684ddcd7","meta":{"profile":["http://hl7.org/fhir/us/qicore/StructureDefinition/qicore-patient"]},"extension":[{"url":"http://hl7.org/fhir/us/core/StructureDefinition/us-core-race","extension":[{"url":"ombCategory","valueCoding":{"system":"urn:oid:2.16.840.1.113883.6.238","code":"2106-3","display":"White"}},{"url":"text","valueString":"White"}]},{"url":"http://hl7.org/fhir/us/core/StructureDefinition/us-core-ethnicity","extension":[{"url":"ombCategory","valueCoding":{"system":"urn:oid:2.16.840.1.113883.6.238","code":"2135-2","display":"Hispanic or Latino"}},{"url":"text","valueString":"Hispanic or Latino"}]},{"url":"http://hl7.org/fhir/us/core/StructureDefinition/us-core-sex","valueCode":"248153007"}],"identifier":[{"system":"http://hospital.smarthealthit.org","value":"999999999"}],"name":[{"family":"Example","given":["Patient"]}],"gender":"female","birthDate":"1956-01-01"},"request":{"method":"PUT","url":"Patient/7507debb-a991-4de0-bd71-634a684ddcd7"}},{"fullUrl":"Encounter/d74e81cd-d39d-4ee4-b5cb-e597e734cfdf","resource":{"resourceType":"Encounter","id":"d74e81cd-d39d-4ee4-b5cb-e597e734cfdf","meta":{"profile":["http://hl7.org/fhir/us/qicore/StructureDefinition/qicore-encounter"]},"status":"finished","class":{"system":"http://terminology.hl7.org/CodeSystem/v3-ActCode","code":"IMP","display":"inpatient encounter"},"type":[{"coding":[{"system":"http://snomed.info/sct","code":"183452005","display":"Inpatient encounter"}]}],"subject":{"reference":"Patient/7507debb-a991-4de0-bd71-634a684ddcd7"},"period":{"start":"2026-07-11T08:00:00.000+00:00","end":"2026-07-13T09:00:00.000+00:00"}},"request":{"method":"PUT","url":"Encounter/d74e81cd-d39d-4ee4-b5cb-e597e734cfdf"}},{"fullUrl":"Bundle/tests-NumerFail-LabTestAfterEncounter-bundle","resource":{"resourceType":"Bundle","id":"tests-NumerFail-LabTestAfterEncounter-bundle","type":"transaction","entry":[{"fullUrl":"https://madie.cms.gov/Condition/184d2963-8600-4dfa-a56e-13c8ba0617db","resource":{"resourceType":"Condition","id":"184d2963-8600-4dfa-a56e-13c8ba0617db","meta":{"profile":["http://hl7.org/fhir/us/qicore/StructureDefinition/qicore-condition-encounter-diagnosis"]},"clinicalStatus":{"coding":[{"system":"http://terminology.hl7.org/CodeSystem/condition-clinical","code":"active"}]},"verificationStatus":{"coding":[{"system":"http://terminology.hl7.org/CodeSystem/condition-ver-status","code":"confirmed"}]},"category":[{"coding":[{"system":"http://terminology.hl7.org/CodeSystem/condition-category","code":"encounter-diagnosis","display":"Encounter Diagnosis"}]}],"code":{"coding":[{"system":"http://snomed.info/sct","code":"46635009","display":"Diabetes Mellitus"}]},"subject":{"reference":"Patient/7507debb-a991-4de0-bd71-634a684ddcd7"},"encounter":{"reference":"Encounter/d74e81cd-d39d-4ee4-b5cb-e597e734cfdf"},"onsetDateTime":"2025-10-02T08:00:00.000+00:00"},"request":{"method":"PUT","url":"Condition/184d2963-8600-4dfa-a56e-13c8ba0617db"}},{"fullUrl":"https://madie.cms.gov/MedicationAdministration/f835aee9-6a6a-4b87-8a29-248b28c02ed4","resource":{"resourceType":"MedicationAdministration","id":"f835aee9-6a6a-4b87-8a29-248b28c02ed4","meta":{"profile":["http://hl7.org/fhir/us/qicore/StructureDefinition/qicore-medicationadministration"]},"status":"completed","medicationCodeableConcept":{"coding":[{"system":"http://www.nlm.nih.gov/research/umls/rxnorm","code":"1368385","display":"Hypoglycemics Treatment Medications"}]},"subject":{"reference":"Patient/7507debb-a991-4de0-bd71-634a684ddcd7"},"context":{"reference":"Encounter/d74e81cd-d39d-4ee4-b5cb-e597e734cfdf"},"effectivePeriod":{"start":"2026-07-11T08:00:00.000+00:00","end":"2026-07-11T09:00:00.000+00:00"},"dosage":{"route":{"coding":[{"system":"http://terminology.hl7.org/CodeSystem/medication-route","code":"ORAL","display":"Oral"}]}}},"request":{"method":"PUT","url":"MedicationAdministration/f835aee9-6a6a-4b87-8a29-248b28c02ed4"}},{"fullUrl":"https://madie.cms.gov/Encounter/d74e81cd-d39d-4ee4-b5cb-e597e734cfdf","resource":{"resourceType":"Encounter","id":"d74e81cd-d39d-4ee4-b5cb-e597e734cfdf","meta":{"profile":["http://hl7.org/fhir/us/qicore/StructureDefinition/qicore-encounter"]},"status":"finished","class":{"system":"http://terminology.hl7.org/CodeSystem/v3-ActCode","code":"IMP","display":"inpatient encounter"},"type":[{"coding":[{"system":"http://snomed.info/sct","code":"183452005","display":"Inpatient encounter"}]}],"subject":{"reference":"Patient/7507debb-a991-4de0-bd71-634a684ddcd7"},"period":{"start":"2026-07-11T08:00:00.000+00:00","end":"2026-07-13T09:00:00.000+00:00"}},"request":{"method":"PUT","url":"Encounter/d74e81cd-d39d-4ee4-b5cb-e597e734cfdf"}},{"fullUrl":"https://madie.cms.gov/Patient/7507debb-a991-4de0-bd71-634a684ddcd7","resource":{"resourceType":"Patient","id":"7507debb-a991-4de0-bd71-634a684ddcd7","meta":{"profile":["http://hl7.org/fhir/us/qicore/StructureDefinition/qicore-patient"]},"extension":[{"url":"http://hl7.org/fhir/us/core/StructureDefinition/us-core-race","extension":[{"url":"ombCategory","valueCoding":{"system":"urn:oid:2.16.840.1.113883.6.238","code":"2106-3","display":"White"}},{"url":"text","valueString":"White"}]},{"url":"http://hl7.org/fhir/us/core/StructureDefinition/us-core-ethnicity","extension":[{"url":"ombCategory","valueCoding":{"system":"urn:oid:2.16.840.1.113883.6.238","code":"2135-2","display":"Hispanic or Latino"}},{"url":"text","valueString":"Hispanic or Latino"}]},{"url":"http://hl7.org/fhir/us/core/StructureDefinition/us-core-sex","valueCode":"248153007"}],"identifier":[{"system":"http://hospital.smarthealthit.org","value":"999999999"}],"name":[{"family":"Example","given":["Patient"]}],"gender":"female","birthDate":"1956-01-01"},"request":{"method":"PUT","url":"Patient/7507debb-a991-4de0-bd71-634a684ddcd7"}},{"fullUrl":"https://madie.cms.gov/Observation/d7fb9197-e760-4541-99ca-ebd4f4725c9f","resource":{"resourceType":"Observation","id":"d7fb9197-e760-4541-99ca-ebd4f4725c9f","meta":{"profile":["http://hl7.org/fhir/us/qicore/StructureDefinition/qicore-observation-lab"]},"status":"final","category":[{"coding":[{"system":"http://terminology.hl7.org/CodeSystem/observation-category","code":"laboratory","display":"Laboratory"}]}],"code":{"coding":[{"system":"http://loinc.org","version":"2.72","code":"1547-9","display":"Glucose Lab Test Mass Per Volume"}]},"subject":{"reference":"Patient/7507debb-a991-4de0-bd71-634a684ddcd7"},"effectiveDateTime":"2026-07-13T09:01:00.000+00:00","valueQuantity":{"value":301,"unit":"mg/dL"}},"request":{"method":"PUT","url":"Observation/d7fb9197-e760-4541-99ca-ebd4f4725c9f"}},{"fullUrl":"https://madie.cms.gov/MeasureReport/a6502e47-2fd1-4c97-b722-179adf136585","resource":{"resourceType":"MeasureReport","id":"a6502e47-2fd1-4c97-b722-179adf136585","meta":{"profile":["http://hl7.org/fhir/us/cqfmeasures/StructureDefinition/test-case-cqfm"]},"contained":[{"resourceType":"Parameters","id":"c39c3aad-70f1-4261-a2d5-e5c594cd99a7-parameters","parameter":[{"name":"subject","valueString":"7507debb-a991-4de0-bd71-634a684ddcd7"}]}],"extension":[{"url":"http://hl7.org/fhir/StructureDefinition/cqf-inputParameters","valueReference":{"reference":"#c39c3aad-70f1-4261-a2d5-e5c594cd99a7-parameters"}},{"url":"http://hl7.org/fhir/us/cqfmeasures/StructureDefinition/cqfm-testCaseDescription","valueMarkdown":"Encounter with diagnosis and meds, elevated lab occurs 1 minute after end of encounter so does not meet Numerator."}],"modifierExtension":[{"url":"http://hl7.org/fhir/us/cqfmeasures/StructureDefinition/cqfm-isTestCase","valueBoolean":true}],"status":"complete","type":"individual","measure":"https://madie.cms.gov/Measure/CMS871HHHyperFHIR","period":{"start":"2026-01-01","end":"2026-12-31"},"group":[{"id":"Group_1","population":[{"id":"InitialPopulation_1","code":{"coding":[{"system":"http://terminology.hl7.org/CodeSystem/measure-population","code":"initial-population","display":"Initial Population"}]},"count":1},{"id":"Denominator_1","code":{"coding":[{"system":"http://terminology.hl7.org/CodeSystem/measure-population","code":"denominator","display":"Denominator"}]},"count":1},{"id":"DenominatorExclusion_1","code":{"coding":[{"system":"http://terminology.hl7.org/CodeSystem/measure-population","code":"denominator-exclusion","display":"Denominator Exclusion"}]},"count":0},{"id":"Numerator_1","code":{"coding":[{"system":"http://terminology.hl7.org/CodeSystem/measure-population","code":"numerator","display":"Numerator"}]},"count":0},{"id":"NumeratorExclusion_1","code":{"coding":[{"system":"http://terminology.hl7.org/CodeSystem/measure-population","code":"numerator-exclusion","display":"Numerator Exclusion"}]},"count":0},{"id":"MeasureObservation_1_1_1","code":{"coding":[{"system":"http://terminology.hl7.org/CodeSystem/measure-population","code":"measure-observation","display":"Measure Observation"}]},"count":1}],"measureScore":{"value":0.0}}],"evaluatedResource":[{"reference":"Condition/184d2963-8600-4dfa-a56e-13c8ba0617db"},{"reference":"MedicationAdministration/f835aee9-6a6a-4b87-8a29-248b28c02ed4"},{"reference":"Encounter/d74e81cd-d39d-4ee4-b5cb-e597e734cfdf"},{"reference":"Patient/7507debb-a991-4de0-bd71-634a684ddcd7"},{"reference":"Observation/d7fb9197-e760-4541-99ca-ebd4f4725c9f"}]},"request":{"method":"PUT","url":"MeasureReport/a6502e47-2fd1-4c97-b722-179adf136585"}}]},"request":{"method":"PUT","url":"Bundle/tests-NumerFail-LabTestAfterEncounter-bundle"}},{"fullUrl":"MeasureReport/a6502e47-2fd1-4c97-b722-179adf136585","resource":{"resourceType":"MeasureReport","id":"a6502e47-2fd1-4c97-b722-179adf136585","meta":{"profile":["http://hl7.org/fhir/us/cqfmeasures/StructureDefinition/test-case-cqfm"]},"contained":[{"resourceType":"Parameters","id":"c39c3aad-70f1-4261-a2d5-e5c594cd99a7-parameters","parameter":[{"name":"subject","valueString":"7507debb-a991-4de0-bd71-634a684ddcd7"}]}],"extension":[{"url":"http://hl7.org/fhir/StructureDefinition/cqf-inputParameters","valueReference":{"reference":"#c39c3aad-70f1-4261-a2d5-e5c594cd99a7-parameters"}},{"url":"http://hl7.org/fhir/us/cqfmeasures/StructureDefinition/cqfm-testCaseDescription","valueMarkdown":"Encounter with diagnosis and meds, elevated lab occurs 1 minute after end of encounter so does not meet Numerator."}],"modifierExtension":[{"url":"http://hl7.org/fhir/us/cqfmeasures/StructureDefinition/cqfm-isTestCase","valueBoolean":true}],"status":"complete","type":"individual","measure":"https://madie.cms.gov/Measure/CMS871HHHyperFHIR","period":{"start":"2026-01-01","end":"2026-12-31"},"group":[{"id":"Group_1","population":[{"id":"InitialPopulation_1","code":{"coding":[{"system":"http://terminology.hl7.org/CodeSystem/measure-population","code":"initial-population","display":"Initial Population"}]},"count":1},{"id":"Denominator_1","code":{"coding":[{"system":"http://terminology.hl7.org/CodeSystem/measure-population","code":"denominator","display":"Denominator"}]},"count":1},{"id":"DenominatorExclusion_1","code":{"coding":[{"system":"http://terminology.hl7.org/CodeSystem/measure-population","code":"denominator-exclusion","display":"Denominator Exclusion"}]},"count":0},{"id":"Numerator_1","code":{"coding":[{"system":"http://terminology.hl7.org/CodeSystem/measure-population","code":"numerator","display":"Numerator"}]},"count":0},{"id":"NumeratorExclusion_1","code":{"coding":[{"system":"http://terminology.hl7.org/CodeSystem/measure-population","code":"numerator-exclusion","display":"Numerator Exclusion"}]},"count":0},{"id":"MeasureObservation_1_1_1","code":{"coding":[{"system":"http://terminology.hl7.org/CodeSystem/measure-population","code":"measure-observation","display":"Measure Observation"}]},"count":1}],"measureScore":{"value":0.0}}],"evaluatedResource":[{"reference":"Condition/184d2963-8600-4dfa-a56e-13c8ba0617db"},{"reference":"MedicationAdministration/f835aee9-6a6a-4b87-8a29-248b28c02ed4"},{"reference":"Encounter/d74e81cd-d39d-4ee4-b5cb-e597e734cfdf"},{"reference":"Patient/7507debb-a991-4de0-bd71-634a684ddcd7"},{"reference":"Observation/d7fb9197-e760-4541-99ca-ebd4f4725c9f"}]},"request":{"method":"PUT","url":"MeasureReport/a6502e47-2fd1-4c97-b722-179adf136585"}},{"fullUrl":"Condition/184d2963-8600-4dfa-a56e-13c8ba0617db","resource":{"resourceType":"Condition","id":"184d2963-8600-4dfa-a56e-13c8ba0617db","meta":{"profile":["http://hl7.org/fhir/us/qicore/StructureDefinition/qicore-condition-encounter-diagnosis"]},"clinicalStatus":{"coding":[{"system":"http://terminology.hl7.org/CodeSystem/condition-clinical","code":"active"}]},"verificationStatus":{"coding":[{"system":"http://terminology.hl7.org/CodeSystem/condition-ver-status","code":"confirmed"}]},"category":[{"coding":[{"system":"http://terminology.hl7.org/CodeSystem/condition-category","code":"encounter-diagnosis","display":"Encounter Diagnosis"}]}],"code":{"coding":[{"system":"http://snomed.info/sct","code":"46635009","display":"Diabetes Mellitus"}]},"subject":{"reference":"Patient/7507debb-a991-4de0-bd71-634a684ddcd7"},"encounter":{"reference":"Encounter/d74e81cd-d39d-4ee4-b5cb-e597e734cfdf"},"onsetDateTime":"2025-10-02T08:00:00.000+00:00"},"request":{"method":"PUT","url":"Condition/184d2963-8600-4dfa-a56e-13c8ba0617db"}},{"fullUrl":"MedicationAdministration/f835aee9-6a6a-4b87-8a29-248b28c02ed4","resource":{"resourceType":"MedicationAdministration","id":"f835aee9-6a6a-4b87-8a29-248b28c02ed4","meta":{"profile":["http://hl7.org/fhir/us/qicore/StructureDefinition/qicore-medicationadministration"]},"status":"completed","medicationCodeableConcept":{"coding":[{"system":"http://www.nlm.nih.gov/research/umls/rxnorm","code":"1368385","display":"Hypoglycemics Treatment Medications"}]},"subject":{"reference":"Patient/7507debb-a991-4de0-bd71-634a684ddcd7"},"context":{"reference":"Encounter/d74e81cd-d39d-4ee4-b5cb-e597e734cfdf"},"effectivePeriod":{"start":"2026-07-11T08:00:00.000+00:00","end":"2026-07-11T09:00:00.000+00:00"},"dosage":{"route":{"coding":[{"system":"http://terminology.hl7.org/CodeSystem/medication-route","code":"ORAL","display":"Oral"}]}}},"request":{"method":"PUT","url":"MedicationAdministration/f835aee9-6a6a-4b87-8a29-248b28c02ed4"}},{"fullUrl":"Observation/d7fb9197-e760-4541-99ca-ebd4f4725c9f","resource":{"resourceType":"Observation","id":"d7fb9197-e760-4541-99ca-ebd4f4725c9f","meta":{"profile":["http://hl7.org/fhir/us/qicore/StructureDefinition/qicore-observation-lab"]},"status":"final","category":[{"coding":[{"system":"http://terminology.hl7.org/CodeSystem/observation-category","code":"laboratory","display":"Laboratory"}]}],"code":{"coding":[{"system":"http://loinc.org","version":"2.72","code":"1547-9","display":"Glucose Lab Test Mass Per Volume"}]},"subject":{"reference":"Patient/7507debb-a991-4de0-bd71-634a684ddcd7"},"effectiveDateTime":"2026-07-13T09:01:00.000+00:00","valueQuantity":{"value":301,"unit":"mg/dL"}},"request":{"method":"PUT","url":"Observation/d7fb9197-e760-4541-99ca-ebd4f4725c9f"}}]}