{
  "resourceType": "Bundle",
  "id": "63233350414ba67d4e1d1c2f",
  "type": "transaction",
  "entry": [ {
    "fullUrl": "https://madie.cms.gov/Patient/81dc5bb4-3273-492a-beff-2f7b0394f3c8",
    "resource": {
      "resourceType": "Patient",
      "id": "81dc5bb4-3273-492a-beff-2f7b0394f3c8",
      "meta": {
        "profile": [ "http://hl7.org/fhir/us/qicore/StructureDefinition/qicore-patient" ]
      },
      "extension": [ {
        "url": "http://hl7.org/fhir/us/core/StructureDefinition/us-core-race",
        "extension": [ {
          "url": "ombCategory",
          "valueCoding": {
            "system": "urn:oid:2.16.840.1.113883.6.238",
            "code": "2028-9",
            "display": "Asian",
            "userSelected": true
          }
        }, {
          "url": "text",
          "valueString": "Asian"
        } ]
      }, {
        "url": "http://hl7.org/fhir/us/core/StructureDefinition/us-core-ethnicity",
        "extension": [ {
          "url": "ombCategory",
          "valueCoding": {
            "system": "urn:oid:2.16.840.1.113883.6.238",
            "code": "2186-5",
            "display": "Not Hispanic or Latino",
            "userSelected": true
          }
        }, {
          "url": "text",
          "valueString": "Not Hispanic or Latino"
        } ]
      } ],
      "identifier": [ {
        "type": {
          "coding": [ {
            "system": "http://terminology.hl7.org/CodeSystem/v2-0203",
            "code": "MR"
          } ]
        },
        "system": "https://bonnie-fhir.healthit.gov/",
        "value": "63233350414ba67d4e1d1c2f"
      } ],
      "name": [ {
        "family": "DENEXPass",
        "given": [ "HasCancerPainHealthConcern" ]
      } ],
      "gender": "female",
      "birthDate": "1944-02-01"
    },
    "request": {
      "method": "PUT",
      "url": "Patient/81dc5bb4-3273-492a-beff-2f7b0394f3c8"
    }
  }, {
    "fullUrl": "https://madie.cms.gov/Encounter/77cf03f1-5cf2-4f26-aac6-0c196562672d",
    "resource": {
      "resourceType": "Encounter",
      "id": "77cf03f1-5cf2-4f26-aac6-0c196562672d",
      "meta": {
        "profile": [ "http://hl7.org/fhir/us/qicore/StructureDefinition/qicore-encounter" ]
      },
      "status": "finished",
      "class": {
        "system": "http://terminology.hl7.org/CodeSystem/v3-ActCode",
        "code": "AMB",
        "display": "ambulatory"
      },
      "type": [ {
        "coding": [ {
          "system": "http://snomed.info/sct",
          "version": "2022-03",
          "code": "183452005",
          "display": "Emergency hospital admission (procedure)",
          "userSelected": true
        } ]
      } ],
      "subject": {
        "reference": "Patient/81dc5bb4-3273-492a-beff-2f7b0394f3c8"
      },
      "period": {
        "start": "2026-01-01T11:45:00.000+00:00",
        "end": "2026-01-03T11:59:00.000+00:00"
      }
    },
    "request": {
      "method": "PUT",
      "url": "Encounter/77cf03f1-5cf2-4f26-aac6-0c196562672d"
    }
  }, {
    "fullUrl": "https://madie.cms.gov/MedicationRequest/0f6423dd-1188-4b30-8e82-3febf15293d6",
    "resource": {
      "resourceType": "MedicationRequest",
      "id": "0f6423dd-1188-4b30-8e82-3febf15293d6",
      "meta": {
        "profile": [ "http://hl7.org/fhir/us/qicore/StructureDefinition/qicore-medicationrequest" ]
      },
      "status": "active",
      "intent": "order",
      "category": [ {
        "coding": [ {
          "system": "http://terminology.hl7.org/CodeSystem/medicationrequest-category",
          "code": "discharge",
          "display": "Discharge",
          "userSelected": true
        } ]
      } ],
      "doNotPerform": false,
      "medicationCodeableConcept": {
        "coding": [ {
          "system": "http://www.nlm.nih.gov/research/umls/rxnorm",
          "code": "2103192",
          "display": "sufentanil 0.03 MG Sublingual Tablet",
          "userSelected": true
        } ]
      },
      "subject": {
        "reference": "Patient/81dc5bb4-3273-492a-beff-2f7b0394f3c8"
      },
      "authoredOn": "2026-01-03T11:59:00.000+00:00",
      "requester": {
        "reference": "Practitioner/c45a08b4-01a7-4e30-a47a-bac8b7c3e3f0"
      }
    },
    "request": {
      "method": "PUT",
      "url": "MedicationRequest/0f6423dd-1188-4b30-8e82-3febf15293d6"
    }
  }, {
    "fullUrl": "https://madie.cms.gov/Practitioner/c45a08b4-01a7-4e30-a47a-bac8b7c3e3f0",
    "resource": {
      "resourceType": "Practitioner",
      "id": "c45a08b4-01a7-4e30-a47a-bac8b7c3e3f0",
      "meta": {
        "profile": [ "http://hl7.org/fhir/us/qicore/StructureDefinition/qicore-practitioner" ]
      },
      "identifier": [ {
        "system": "http://hl7.org/fhir/sid/us-npi",
        "value": "9999999896"
      } ],
      "active": true,
      "name": [ {
        "family": "Ramires",
        "given": [ "Alma" ],
        "prefix": [ "Dr" ]
      } ],
      "address": [ {
        "use": "home",
        "line": [ "534 Erewhon St" ],
        "city": "Netherville",
        "state": "IN",
        "postalCode": "46131"
      } ],
      "qualification": [ {
        "identifier": [ {
          "system": "http://goodhealth.org/prIdentifier",
          "value": "12345"
        } ],
        "code": {
          "coding": [ {
            "system": "http://terminology.hl7.org/CodeSystem/v2-0360|2.7",
            "code": "BS",
            "display": "Bachelor of Science"
          } ],
          "text": "Bachelor of Science"
        },
        "period": {
          "start": "1995"
        },
        "issuer": {
          "display": "Example University"
        }
      } ]
    },
    "request": {
      "method": "PUT",
      "url": "Practitioner/c45a08b4-01a7-4e30-a47a-bac8b7c3e3f0"
    }
  }, {
    "fullUrl": "https://madie.cms.gov/Condition/fa8675ab-2039-426a-9fa7-8d1397e03635",
    "resource": {
      "resourceType": "Condition",
      "id": "fa8675ab-2039-426a-9fa7-8d1397e03635",
      "meta": {
        "profile": [ "http://hl7.org/fhir/us/qicore/StructureDefinition/qicore-condition-problems-health-concerns" ]
      },
      "clinicalStatus": {
        "coding": [ {
          "system": "http://terminology.hl7.org/CodeSystem/condition-clinical",
          "code": "active",
          "display": "active",
          "userSelected": true
        } ]
      },
      "category": [ {
        "coding": [ {
          "system": "http://hl7.org/fhir/us/core/CodeSystem/condition-category",
          "code": "health-concern",
          "display": "Health Concern"
        }, {
          "system": "http://snomed.info/sct",
          "code": "439401001",
          "display": "Diagnosis"
        } ]
      } ],
      "code": {
        "coding": [ {
          "system": "http://snomed.info/sct",
          "version": "2022-03",
          "code": "879973007",
          "display": "Breakthrough cancer pain (finding)",
          "userSelected": true
        } ]
      },
      "subject": {
        "reference": "Patient/81dc5bb4-3273-492a-beff-2f7b0394f3c8"
      },
      "onsetPeriod": {
        "start": "2024-12-31T08:00:00.000+00:00"
      }
    },
    "request": {
      "method": "PUT",
      "url": "Condition/fa8675ab-2039-426a-9fa7-8d1397e03635"
    }
  }, {
    "fullUrl": "https://madie.cms.gov/Coverage/1fc9c13c-ed0f-4cbd-906c-676c58e24e19",
    "resource": {
      "resourceType": "Coverage",
      "id": "1fc9c13c-ed0f-4cbd-906c-676c58e24e19",
      "meta": {
        "profile": [ "http://hl7.org/fhir/us/qicore/StructureDefinition/qicore-coverage" ]
      },
      "status": "active",
      "subscriberId": "523435",
      "beneficiary": {
        "reference": "Patient/81dc5bb4-3273-492a-beff-2f7b0394f3c8"
      },
      "relationship": {
        "coding": [ {
          "system": "http://terminology.hl7.org/CodeSystem/subscriber-relationship",
          "code": "self"
        } ]
      },
      "payor": [ {
        "reference": "Organization/04a379df-a631-4672-b30a-47066f72270b"
      } ]
    },
    "request": {
      "method": "PUT",
      "url": "Coverage/1fc9c13c-ed0f-4cbd-906c-676c58e24e19"
    }
  }, {
    "fullUrl": "https://madie.cms.gov/Organization/04a379df-a631-4672-b30a-47066f72270b",
    "resource": {
      "resourceType": "Organization",
      "id": "04a379df-a631-4672-b30a-47066f72270b",
      "meta": {
        "profile": [ "http://hl7.org/fhir/us/qicore/StructureDefinition/qicore-organization" ]
      },
      "identifier": [ {
        "use": "temp",
        "system": "urn:oid:2.16.840.1.113883.4.4",
        "value": "21-3259825"
      } ],
      "active": true,
      "type": [ {
        "coding": [ {
          "system": "http://terminology.hl7.org/CodeSystem/organization-type",
          "code": "pay",
          "display": "Payer"
        } ]
      } ],
      "name": "Blue Cross Blue Shield of Texas",
      "telecom": [ {
        "system": "phone",
        "value": "(+1) 972-766-6900"
      } ],
      "address": [ {
        "use": "billing",
        "type": "postal",
        "line": [ "P.O. Box 660044" ],
        "city": "Dallas",
        "state": "TX",
        "postalCode": "75266-0044",
        "country": "USA"
      } ]
    },
    "request": {
      "method": "PUT",
      "url": "Organization/04a379df-a631-4672-b30a-47066f72270b"
    }
  }, {
    "fullUrl": "https://madie.cms.gov/MeasureReport/2b5b5c23-9b6e-4d94-8271-7c88d22e8768",
    "resource": {
      "resourceType": "MeasureReport",
      "id": "2b5b5c23-9b6e-4d94-8271-7c88d22e8768",
      "meta": {
        "profile": [ "http://hl7.org/fhir/us/cqfmeasures/StructureDefinition/test-case-cqfm" ]
      },
      "contained": [ {
        "resourceType": "Parameters",
        "id": "5c377a47-345d-4ebd-b3cd-3a5060307cc1-parameters",
        "parameter": [ {
          "name": "subject",
          "valueString": "81dc5bb4-3273-492a-beff-2f7b0394f3c8"
        } ]
      } ],
      "extension": [ {
        "url": "http://hl7.org/fhir/StructureDefinition/cqf-inputParameters",
        "valueReference": {
          "reference": "#5c377a47-345d-4ebd-b3cd-3a5060307cc1-parameters"
        }
      }, {
        "url": "http://hl7.org/fhir/us/cqfmeasures/StructureDefinition/cqfm-testCaseDescription",
        "valueMarkdown": "Encounter 1/1 - 1/3 , age 18,  1 opioid at dc, has cancer that started last day of prior year"
      } ],
      "modifierExtension": [ {
        "url": "http://hl7.org/fhir/us/cqfmeasures/StructureDefinition/cqfm-isTestCase",
        "valueBoolean": true
      } ],
      "status": "complete",
      "type": "individual",
      "measure": "https://madie.cms.gov/Measure/CMS506FHIRSafeUseofOpioids",
      "period": {
        "start": "2026-01-01",
        "end": "2026-12-31"
      },
      "group": [ {
        "id": "Group_1",
        "population": [ {
          "id": "InitialPopulation_1",
          "code": {
            "coding": [ {
              "system": "http://terminology.hl7.org/CodeSystem/measure-population",
              "code": "initial-population",
              "display": "Initial Population"
            } ]
          },
          "count": 1
        }, {
          "id": "Denominator_1",
          "code": {
            "coding": [ {
              "system": "http://terminology.hl7.org/CodeSystem/measure-population",
              "code": "denominator",
              "display": "Denominator"
            } ]
          },
          "count": 1
        }, {
          "id": "DenominatorExclusion_1",
          "code": {
            "coding": [ {
              "system": "http://terminology.hl7.org/CodeSystem/measure-population",
              "code": "denominator-exclusion",
              "display": "Denominator Exclusion"
            } ]
          },
          "count": 1
        }, {
          "id": "Numerator_1",
          "code": {
            "coding": [ {
              "system": "http://terminology.hl7.org/CodeSystem/measure-population",
              "code": "numerator",
              "display": "Numerator"
            } ]
          },
          "count": 0
        } ],
        "measureScore": {
          "value": 0.0
        }
      } ],
      "evaluatedResource": [ {
        "reference": "Patient/81dc5bb4-3273-492a-beff-2f7b0394f3c8"
      }, {
        "reference": "Encounter/77cf03f1-5cf2-4f26-aac6-0c196562672d"
      }, {
        "reference": "MedicationRequest/0f6423dd-1188-4b30-8e82-3febf15293d6"
      }, {
        "reference": "Practitioner/c45a08b4-01a7-4e30-a47a-bac8b7c3e3f0"
      }, {
        "reference": "Condition/fa8675ab-2039-426a-9fa7-8d1397e03635"
      }, {
        "reference": "Coverage/1fc9c13c-ed0f-4cbd-906c-676c58e24e19"
      }, {
        "reference": "Organization/04a379df-a631-4672-b30a-47066f72270b"
      } ]
    },
    "request": {
      "method": "PUT",
      "url": "MeasureReport/2b5b5c23-9b6e-4d94-8271-7c88d22e8768"
    }
  } ]
}