{
  "resourceType": "Bundle",
  "id": "98116841646686466847",
  "type": "transaction",
  "entry": [ {
    "fullUrl": "https://madie.cms.gov/Patient/3d1903ea-dd18-420b-9f1f-0aa798664fb4",
    "resource": {
      "resourceType": "Patient",
      "id": "3d1903ea-dd18-420b-9f1f-0aa798664fb4",
      "meta": {
        "profile": [ "http://hl7.org/fhir/us/qicore/StructureDefinition/qicore-patient" ]
      },
      "extension": [ {
        "url": "http://hl7.org/fhir/us/core/StructureDefinition/us-core-race",
        "extension": [ {
          "url": "ombCategory",
          "valueCoding": {
            "system": "urn:oid:2.16.840.1.113883.6.238",
            "code": "2106-3",
            "display": "White"
          }
        }, {
          "url": "text",
          "valueString": "White"
        } ]
      }, {
        "url": "http://hl7.org/fhir/us/core/StructureDefinition/us-core-ethnicity",
        "extension": [ {
          "url": "ombCategory",
          "valueCoding": {
            "system": "urn:oid:2.16.840.1.113883.6.238",
            "code": "2186-5",
            "display": "Not Hispanic or Latino"
          }
        }, {
          "url": "text",
          "valueString": "Not Hispanic or Latino"
        } ]
      } ],
      "identifier": [ {
        "type": {
          "coding": [ {
            "system": "http://terminology.hl7.org/CodeSystem/v2-0203",
            "code": "MR"
          } ]
        },
        "system": "https://bonnie-fhir.healthit.gov/",
        "value": "6546841651641616513421"
      } ],
      "name": [ {
        "family": "DENEXPopStrat1Pass",
        "given": [ "HospiceProcedureInMP" ]
      } ],
      "gender": "female",
      "birthDate": "2011-01-01"
    },
    "request": {
      "method": "PUT",
      "url": "Patient/3d1903ea-dd18-420b-9f1f-0aa798664fb4"
    }
  }, {
    "fullUrl": "https://madie.cms.gov/Encounter/20a94616-3de6-40b1-ad0a-f698703592ec",
    "resource": {
      "resourceType": "Encounter",
      "id": "20a94616-3de6-40b1-ad0a-f698703592ec",
      "meta": {
        "profile": [ "http://hl7.org/fhir/us/qicore/StructureDefinition/qicore-encounter" ]
      },
      "status": "finished",
      "class": {
        "system": "http://terminology.hl7.org/CodeSystem/v3-ActCode",
        "code": "AMB",
        "display": "ambulatory"
      },
      "type": [ {
        "coding": [ {
          "system": "http://www.ama-assn.org/go/cpt",
          "version": "2024",
          "code": "90791"
        } ]
      } ],
      "subject": {
        "reference": "Patient/3d1903ea-dd18-420b-9f1f-0aa798664fb4"
      },
      "period": {
        "start": "2025-02-25T14:30:00+00:00",
        "end": "2025-02-25T14:50:00+00:00"
      },
      "length": {
        "value": 0,
        "unit": "days"
      }
    },
    "request": {
      "method": "PUT",
      "url": "Encounter/20a94616-3de6-40b1-ad0a-f698703592ec"
    }
  }, {
    "fullUrl": "https://madie.cms.gov/Observation/df24ca3f-a42e-47fe-8215-eb946644fd09",
    "resource": {
      "resourceType": "Observation",
      "id": "df24ca3f-a42e-47fe-8215-eb946644fd09",
      "meta": {
        "profile": [ "http://hl7.org/fhir/us/qicore/StructureDefinition/qicore-observation-screening-assessment" ]
      },
      "status": "final",
      "category": [ {
        "coding": [ {
          "system": "http://terminology.hl7.org/CodeSystem/observation-category",
          "code": "survey",
          "display": "Survey"
        } ]
      } ],
      "code": {
        "coding": [ {
          "system": "http://loinc.org",
          "version": "2.76",
          "code": "44261-6"
        } ]
      },
      "subject": {
        "reference": "Patient/3d1903ea-dd18-420b-9f1f-0aa798664fb4"
      },
      "effectiveDateTime": "2025-02-25T14:35:00+00:00",
      "valueInteger": 10
    },
    "request": {
      "method": "PUT",
      "url": "Observation/df24ca3f-a42e-47fe-8215-eb946644fd09"
    }
  }, {
    "fullUrl": "https://madie.cms.gov/Observation/23455f52-8d9b-4cd2-a488-093856b4522c",
    "resource": {
      "resourceType": "Observation",
      "id": "23455f52-8d9b-4cd2-a488-093856b4522c",
      "meta": {
        "profile": [ "http://hl7.org/fhir/us/qicore/StructureDefinition/qicore-observation-screening-assessment" ]
      },
      "status": "final",
      "category": [ {
        "coding": [ {
          "system": "http://terminology.hl7.org/CodeSystem/observation-category",
          "code": "survey",
          "display": "Survey"
        } ]
      } ],
      "code": {
        "coding": [ {
          "system": "http://loinc.org",
          "version": "2.76",
          "code": "44261-6"
        } ]
      },
      "subject": {
        "reference": "Patient/3d1903ea-dd18-420b-9f1f-0aa798664fb4"
      },
      "effectiveDateTime": "2026-02-19T14:30:00+00:00",
      "valueInteger": 3
    },
    "request": {
      "method": "PUT",
      "url": "Observation/23455f52-8d9b-4cd2-a488-093856b4522c"
    }
  }, {
    "fullUrl": "https://madie.cms.gov/Condition/b3610f3f-5b6d-4b80-827b-948cc998609c",
    "resource": {
      "resourceType": "Condition",
      "id": "b3610f3f-5b6d-4b80-827b-948cc998609c",
      "meta": {
        "profile": [ "http://hl7.org/fhir/us/qicore/StructureDefinition/qicore-condition-problems-health-concerns" ]
      },
      "clinicalStatus": {
        "coding": [ {
          "system": "http://terminology.hl7.org/CodeSystem/condition-clinical",
          "code": "active",
          "display": "active"
        } ]
      },
      "verificationStatus": {
        "coding": [ {
          "system": "http://terminology.hl7.org/CodeSystem/condition-ver-status",
          "code": "confirmed"
        } ]
      },
      "category": [ {
        "coding": [ {
          "system": "http://terminology.hl7.org/CodeSystem/condition-category",
          "code": "problem-list-item",
          "display": "Problem List Item"
        } ]
      } ],
      "code": {
        "coding": [ {
          "system": "http://hl7.org/fhir/sid/icd-10-cm",
          "version": "2024",
          "code": "F32.9"
        } ]
      },
      "subject": {
        "reference": "Patient/3d1903ea-dd18-420b-9f1f-0aa798664fb4"
      },
      "onsetDateTime": "2025-02-25T14:35:00+00:00"
    },
    "request": {
      "method": "PUT",
      "url": "Condition/b3610f3f-5b6d-4b80-827b-948cc998609c"
    }
  }, {
    "fullUrl": "https://madie.cms.gov/Procedure/e1f31f5b-c603-4781-a1ef-85da886d2725",
    "resource": {
      "resourceType": "Procedure",
      "id": "e1f31f5b-c603-4781-a1ef-85da886d2725",
      "meta": {
        "profile": [ "http://hl7.org/fhir/us/qicore/StructureDefinition/qicore-procedure" ]
      },
      "extension": [ {
        "url": "http://hl7.org/fhir/us/qicore/StructureDefinition/qicore-recorded",
        "valueDateTime": "2026-02-01T08:00:00.000+00:00"
      } ],
      "status": "not-done",
      "code": {
        "coding": [ {
          "system": "http://www.cms.gov/Medicare/Coding/HCPCSReleaseCodeSets",
          "version": "2024",
          "code": "G0182",
          "display": "Physician supervision of a patient under a medicare-approved hospice (patient not present) requiring complex and multidisciplinary care modalities involving regular physician development and/or revision of care plans, review of subsequent reports of patient status, review of laboratory and other studies, communication (including telephone calls) with other health care professionals involved in the patient's care, integration of new information into the medical treatment plan and/or adjustment of medical therapy, within a calendar month, 30 minutes or more"
        } ]
      },
      "subject": {
        "reference": "Patient/3d1903ea-dd18-420b-9f1f-0aa798664fb4"
      },
      "performedPeriod": {
        "start": "2026-01-01T08:00:00.000+00:00",
        "end": "2026-02-01T08:15:00.000+00:00"
      }
    },
    "request": {
      "method": "PUT",
      "url": "Procedure/e1f31f5b-c603-4781-a1ef-85da886d2725"
    }
  }, {
    "fullUrl": "https://madie.cms.gov/MeasureReport/ad03b410-c073-47a8-890b-3ca064be37a1",
    "resource": {
      "resourceType": "MeasureReport",
      "id": "ad03b410-c073-47a8-890b-3ca064be37a1",
      "meta": {
        "profile": [ "http://hl7.org/fhir/us/cqfmeasures/StructureDefinition/test-case-cqfm" ]
      },
      "contained": [ {
        "resourceType": "Parameters",
        "id": "2fb0afbf-8ddd-4326-bc69-204a1482647c-parameters",
        "parameter": [ {
          "name": "subject",
          "valueString": "3d1903ea-dd18-420b-9f1f-0aa798664fb4"
        } ]
      } ],
      "extension": [ {
        "url": "http://hl7.org/fhir/StructureDefinition/cqf-inputParameters",
        "valueReference": {
          "reference": "#2fb0afbf-8ddd-4326-bc69-204a1482647c-parameters"
        }
      }, {
        "url": "http://hl7.org/fhir/us/cqfmeasures/StructureDefinition/cqfm-testCaseDescription",
        "valueMarkdown": "Patient has a Major Depressive Dx and PHQ-9>9 during the denom ID period. Patient has Hospice Procedure during MP. Should be in denominator exclusion for Strat 1. Note: Stratification issue."
      } ],
      "modifierExtension": [ {
        "url": "http://hl7.org/fhir/us/cqfmeasures/StructureDefinition/cqfm-isTestCase",
        "valueBoolean": true
      } ],
      "status": "complete",
      "type": "individual",
      "measure": "https://madie.cms.gov/Measure/CMS159FHIRDepressionRemissionatTwelveMonths",
      "period": {
        "start": "2026-01-01",
        "end": "2026-12-31"
      },
      "group": [ {
        "id": "Group_1",
        "population": [ {
          "id": "InitialPopulation_1",
          "code": {
            "coding": [ {
              "system": "http://terminology.hl7.org/CodeSystem/measure-population",
              "code": "initial-population",
              "display": "Initial Population"
            } ]
          },
          "count": 1
        }, {
          "id": "Denominator_1",
          "code": {
            "coding": [ {
              "system": "http://terminology.hl7.org/CodeSystem/measure-population",
              "code": "denominator",
              "display": "Denominator"
            } ]
          },
          "count": 1
        }, {
          "id": "DenominatorExclusion_1",
          "code": {
            "coding": [ {
              "system": "http://terminology.hl7.org/CodeSystem/measure-population",
              "code": "denominator-exclusion",
              "display": "Denominator Exclusion"
            } ]
          },
          "count": 0
        }, {
          "id": "Numerator_1",
          "code": {
            "coding": [ {
              "system": "http://terminology.hl7.org/CodeSystem/measure-population",
              "code": "numerator",
              "display": "Numerator"
            } ]
          },
          "count": 1
        } ],
        "measureScore": {
          "value": 1.0
        }
      } ],
      "evaluatedResource": [ {
        "reference": "Patient/3d1903ea-dd18-420b-9f1f-0aa798664fb4"
      }, {
        "reference": "Encounter/20a94616-3de6-40b1-ad0a-f698703592ec"
      }, {
        "reference": "Observation/df24ca3f-a42e-47fe-8215-eb946644fd09"
      }, {
        "reference": "Observation/23455f52-8d9b-4cd2-a488-093856b4522c"
      }, {
        "reference": "Condition/b3610f3f-5b6d-4b80-827b-948cc998609c"
      }, {
        "reference": "Procedure/e1f31f5b-c603-4781-a1ef-85da886d2725"
      } ]
    },
    "request": {
      "method": "PUT",
      "url": "MeasureReport/ad03b410-c073-47a8-890b-3ca064be37a1"
    }
  } ]
}