{
    "entry": [
        {
            "request": {
                "method": "PUT",
                "url": "Patient/6f3808b3-69a2-4080-9529-8582b4d5c5d5"
            },
            "resource": {
                "identifier": [{
                    "system": "https://bonnie-fhir.healthit.gov/",
                    "type": {"coding": [{
                        "system": "http://terminology.hl7.org/CodeSystem/v2-0203",
                        "code": "MR"
                    }]},
                    "value": "62b1e15a3968556e5150cf3b"
                }],
                "extension": [
                    {
                        "extension": [
                            {
                                "valueCoding": {
                                    "system": "urn:oid:2.16.840.1.113883.6.238",
                                    "code": "1002-5",
                                    "userSelected": true,
                                    "display": "American Indian or Alaska Native"
                                },
                                "url": "ombCategory"
                            },
                            {
                                "valueString": "American Indian or Alaska Native",
                                "url": "text"
                            }
                        ],
                        "url": "http://hl7.org/fhir/us/core/StructureDefinition/us-core-race"
                    },
                    {
                        "extension": [
                            {
                                "valueCoding": {
                                    "system": "urn:oid:2.16.840.1.113883.6.238",
                                    "code": "2135-2",
                                    "userSelected": true,
                                    "display": "Hispanic or Latino"
                                },
                                "url": "ombCategory"
                            },
                            {
                                "valueString": "Hispanic or Latino",
                                "url": "text"
                            }
                        ],
                        "url": "http://hl7.org/fhir/us/core/StructureDefinition/us-core-ethnicity"
                    }
                ],
                "gender": "male",
                "meta": {"profile": ["http://hl7.org/fhir/us/qicore/StructureDefinition/qicore-patient"]},
                "name": [{
                    "given": ["AdultHistoryOfBipolarRelapse"],
                    "family": "DENOMEXPass"
                }],
                "id": "6f3808b3-69a2-4080-9529-8582b4d5c5d5",
                "birthDate": "2008-01-01",
                "resourceType": "Patient"
            },
            "fullUrl": "https://madie.cms.gov/Patient/6f3808b3-69a2-4080-9529-8582b4d5c5d5"
        },
        {
            "request": {
                "method": "PUT",
                "url": "Encounter/d2df9edc-18c7-41c2-9271-f489fe62d9f0"
            },
            "resource": {
                "period": {
                    "start": "2026-06-15T08:00:00.000+00:00",
                    "end": "2026-06-21T08:15:00.000+00:00"
                },
                "meta": {"profile": ["http://hl7.org/fhir/us/qicore/StructureDefinition/qicore-encounter"]},
                "subject": {"reference": "Patient/6f3808b3-69a2-4080-9529-8582b4d5c5d5"},
                "id": "d2df9edc-18c7-41c2-9271-f489fe62d9f0",
                "type": [{"coding": [{
                    "system": "http://snomed.info/sct",
                    "code": "10197000",
                    "userSelected": true,
                    "display": "Psychiatric interview and evaluation (procedure)",
                    "version": "2021-09"
                }]}],
                "class": {
                    "system": "http://terminology.hl7.org/CodeSystem/v3-ActCode",
                    "code": "AMB",
                    "display": "ambulatory"
                },
                "resourceType": "Encounter",
                "status": "finished"
            },
            "fullUrl": "https://madie.cms.gov/Encounter/d2df9edc-18c7-41c2-9271-f489fe62d9f0"
        },
        {
            "request": {
                "method": "PUT",
                "url": "Condition/774c2ea1-d2fa-4e00-bde3-b9020b4fa66e"
            },
            "resource": {
                "code": {"coding": [{
                    "system": "http://snomed.info/sct",
                    "code": "10875004",
                    "userSelected": true,
                    "display": "Severe mixed bipolar I disorder with psychotic features, mood-incongruent (disorder)",
                    "version": "2021-09"
                }]},
                "meta": {"profile": ["http://hl7.org/fhir/us/qicore/StructureDefinition/qicore-condition-problems-health-concerns"]},
                "subject": {"reference": "Patient/6f3808b3-69a2-4080-9529-8582b4d5c5d5"},
                "id": "774c2ea1-d2fa-4e00-bde3-b9020b4fa66e",
                "clinicalStatus": {"coding": [{
                    "system": "http://terminology.hl7.org/CodeSystem/condition-clinical",
                    "code": "relapse",
                    "userSelected": true,
                    "display": "relapse"
                }]},
                "category": [{"coding": [{
                    "system": "http://hl7.org/fhir/us/core/CodeSystem/condition-category",
                    "code": "health-concern",
                    "display": "Health Concern"
                }]}],
                "onsetDateTime": "2026-06-14T07:59:00.000+00:00",
                "resourceType": "Condition"
            },
            "fullUrl": "https://madie.cms.gov/Condition/774c2ea1-d2fa-4e00-bde3-b9020b4fa66e"
        },
        {
            "request": {
                "method": "PUT",
                "url": "Coverage/21946363-8683-4306-beb1-3f3307581716"
            },
            "resource": {
                "payor": [{"reference": "Organization/1bf59ef0-4736-4258-900b-685c32a92d96"}],
                "beneficiary": {"reference": "Patient/6f3808b3-69a2-4080-9529-8582b4d5c5d5"},
                "meta": {"profile": ["http://hl7.org/fhir/us/qicore/StructureDefinition/qicore-coverage"]},
                "id": "21946363-8683-4306-beb1-3f3307581716",
                "resourceType": "Coverage",
                "status": "active"
            },
            "fullUrl": "https://madie.cms.gov/Coverage/21946363-8683-4306-beb1-3f3307581716"
        },
        {
            "request": {
                "method": "PUT",
                "url": "Organization/1bf59ef0-4736-4258-900b-685c32a92d96"
            },
            "resource": {
                "identifier": [{
                    "system": "urn:oid:2.16.840.1.113883.4.4",
                    "use": "temp",
                    "value": "21-3259825"
                }],
                "address": [{
                    "country": "USA",
                    "city": "Dallas",
                    "use": "billing",
                    "line": ["P.O. Box 660044"],
                    "postalCode": "75266-0044",
                    "state": "TX",
                    "type": "postal"
                }],
                "meta": {"profile": ["http://hl7.org/fhir/us/qicore/StructureDefinition/qicore-organization"]},
                "name": "Blue Cross Blue Shield of Texas",
                "active": true,
                "telecom": [{
                    "system": "phone",
                    "value": "(+1) 972-766-6900"
                }],
                "id": "1bf59ef0-4736-4258-900b-685c32a92d96",
                "type": [{"coding": [{
                    "system": "http://terminology.hl7.org/CodeSystem/organization-type",
                    "code": "pay",
                    "display": "Payer"
                }]}],
                "resourceType": "Organization"
            },
            "fullUrl": "https://madie.cms.gov/Organization/1bf59ef0-4736-4258-900b-685c32a92d96"
        },
        {
            "request": {
                "method": "PUT",
                "url": "Practitioner/78969a42-bfc7-4fb3-a695-d6d36a72b8da"
            },
            "resource": {
                "identifier": [{
                    "system": "http://hl7.org/fhir/sid/us-npi",
                    "value": "123456"
                }],
                "meta": {"profile": ["http://hl7.org/fhir/us/qicore/StructureDefinition/qicore-practitioner"]},
                "name": [{
                    "prefix": ["Dr"],
                    "family": "Evil"
                }],
                "id": "78969a42-bfc7-4fb3-a695-d6d36a72b8da",
                "resourceType": "Practitioner"
            },
            "fullUrl": "https://madie.cms.gov/Practitioner/78969a42-bfc7-4fb3-a695-d6d36a72b8da"
        },
        {
            "request": {
                "method": "PUT",
                "url": "MeasureReport/cfa2dd40-a047-4af6-af24-1fc981f36d0e"
            },
            "resource": {
                "contained": [{
                    "parameter": [{
                        "valueString": "6f3808b3-69a2-4080-9529-8582b4d5c5d5",
                        "name": "subject"
                    }],
                    "id": "b2474133-85cd-44f2-9d98-f8afea564bc6-parameters",
                    "resourceType": "Parameters"
                }],
                "extension": [
                    {
                        "valueReference": {"reference": "#b2474133-85cd-44f2-9d98-f8afea564bc6-parameters"},
                        "url": "http://hl7.org/fhir/StructureDefinition/cqf-inputParameters"
                    },
                    {
                        "valueMarkdown": "18 yo patient with history of bipolar - relapse",
                        "url": "http://hl7.org/fhir/us/cqfmeasures/StructureDefinition/cqfm-testCaseDescription"
                    }
                ],
                "period": {
                    "start": "2026-01-01",
                    "end": "2026-12-31"
                },
                "measure": "https://madie.cms.gov/Measure/CMS2FHIRPCSDepressionScreenAndFollowUp",
                "meta": {"profile": ["http://hl7.org/fhir/us/cqfmeasures/StructureDefinition/test-case-cqfm"]},
                "modifierExtension": [{
                    "valueBoolean": true,
                    "url": "http://hl7.org/fhir/us/cqfmeasures/StructureDefinition/cqfm-isTestCase"
                }],
                "id": "cfa2dd40-a047-4af6-af24-1fc981f36d0e",
                "evaluatedResource": [
                    {"reference": "Patient/6f3808b3-69a2-4080-9529-8582b4d5c5d5"},
                    {"reference": "Encounter/d2df9edc-18c7-41c2-9271-f489fe62d9f0"},
                    {"reference": "Condition/774c2ea1-d2fa-4e00-bde3-b9020b4fa66e"},
                    {"reference": "Coverage/21946363-8683-4306-beb1-3f3307581716"},
                    {"reference": "Organization/1bf59ef0-4736-4258-900b-685c32a92d96"},
                    {"reference": "Practitioner/78969a42-bfc7-4fb3-a695-d6d36a72b8da"}
                ],
                "type": "individual",
                "resourceType": "MeasureReport",
                "status": "complete",
                "group": [{
                    "id": "Group_1",
                    "measureScore": {"value": 1},
                    "population": [
                        {
                            "code": {"coding": [{
                                "system": "http://terminology.hl7.org/CodeSystem/measure-population",
                                "code": "initial-population",
                                "display": "Initial Population"
                            }]},
                            "count": 1,
                            "id": "InitialPopulation_1"
                        },
                        {
                            "code": {"coding": [{
                                "system": "http://terminology.hl7.org/CodeSystem/measure-population",
                                "code": "denominator",
                                "display": "Denominator"
                            }]},
                            "count": 1,
                            "id": "Denominator_1"
                        },
                        {
                            "code": {"coding": [{
                                "system": "http://terminology.hl7.org/CodeSystem/measure-population",
                                "code": "denominator-exclusion",
                                "display": "Denominator Exclusion"
                            }]},
                            "count": 1,
                            "id": "DenominatorExclusion_1"
                        },
                        {
                            "code": {"coding": [{
                                "system": "http://terminology.hl7.org/CodeSystem/measure-population",
                                "code": "numerator",
                                "display": "Numerator"
                            }]},
                            "count": 0,
                            "id": "Numerator_1"
                        },
                        {
                            "code": {"coding": [{
                                "system": "http://terminology.hl7.org/CodeSystem/measure-population",
                                "code": "denominator-exception",
                                "display": "Denominator Exception"
                            }]},
                            "count": 0,
                            "id": "DenominatorException_1"
                        }
                    ]
                }]
            },
            "fullUrl": "https://madie.cms.gov/MeasureReport/cfa2dd40-a047-4af6-af24-1fc981f36d0e"
        }
    ],
    "id": "62b1e15a3968556e5150cf3b",
    "type": "transaction",
    "resourceType": "Bundle"
}