{
  "resourceType": "Bundle",
  "id": "633b3fa00968f80122503d16",
  "type": "transaction",
  "entry": [ {
    "fullUrl": "https://madie.cms.gov/Patient/0aed830d-d498-4ec6-8429-f9f24cccc127",
    "resource": {
      "resourceType": "Patient",
      "id": "0aed830d-d498-4ec6-8429-f9f24cccc127",
      "meta": {
        "profile": [ "http://hl7.org/fhir/us/qicore/StructureDefinition/qicore-patient" ]
      },
      "text": {
        "status": "generated",
        "div": "<div xmlns=\"http://www.w3.org/1999/xhtml\"><div class=\"hapiHeaderText\">DelProcRelDtTmEQOBSEnd<b>IPPASS</b></div><table class=\"hapiPropertyTable\"><tbody><tr><td>Date of birth</td><td><span>31 January 2004</span></td></tr></tbody></table></div>"
      },
      "extension": [ {
        "url": "http://hl7.org/fhir/us/core/StructureDefinition/us-core-race",
        "extension": [ {
          "url": "ombCategory",
          "valueCoding": {
            "system": "urn:oid:2.16.840.1.113883.6.238",
            "code": "1002-5",
            "display": "American Indian or Alaska Native",
            "userSelected": true
          }
        }, {
          "url": "text",
          "valueString": "American Indian or Alaska Native"
        } ]
      }, {
        "url": "http://hl7.org/fhir/us/core/StructureDefinition/us-core-ethnicity",
        "extension": [ {
          "url": "ombCategory",
          "valueCoding": {
            "system": "urn:oid:2.16.840.1.113883.6.238",
            "code": "2135-2",
            "display": "Hispanic or Latino",
            "userSelected": true
          }
        }, {
          "url": "text",
          "valueString": "Hispanic or Latino"
        } ]
      } ],
      "identifier": [ {
        "type": {
          "coding": [ {
            "system": "http://terminology.hl7.org/CodeSystem/v2-0203",
            "code": "MR"
          } ]
        },
        "system": "https://bonnie-fhir.healthit.gov/",
        "value": "633b3fa00968f80122503d16"
      } ],
      "active": true,
      "name": [ {
        "use": "usual",
        "family": "IPPass",
        "given": [ "DelProcRelDtTmEQOBSEnd" ]
      } ],
      "gender": "female",
      "birthDate": "2005-01-31"
    },
    "request": {
      "method": "PUT",
      "url": "Patient/0aed830d-d498-4ec6-8429-f9f24cccc127"
    }
  }, {
    "fullUrl": "https://madie.cms.gov/Encounter/302e5fed-73ec-4cf5-a56d-1adaf65f3efd",
    "resource": {
      "resourceType": "Encounter",
      "id": "302e5fed-73ec-4cf5-a56d-1adaf65f3efd",
      "meta": {
        "profile": [ "http://hl7.org/fhir/us/qicore/StructureDefinition/qicore-encounter" ]
      },
      "status": "finished",
      "class": {
        "system": "http://terminology.hl7.org/CodeSystem/v3-ActCode",
        "code": "IMP",
        "display": "inpatient encounter"
      },
      "type": [ {
        "coding": [ {
          "system": "http://snomed.info/sct",
          "code": "183452005"
        } ]
      } ],
      "subject": {
        "reference": "Patient/0aed830d-d498-4ec6-8429-f9f24cccc127"
      },
      "period": {
        "start": "2026-02-01T09:00:00Z",
        "end": "2026-02-05T08:15:00.000+00:00"
      }
    },
    "request": {
      "method": "PUT",
      "url": "Encounter/302e5fed-73ec-4cf5-a56d-1adaf65f3efd"
    }
  }, {
    "fullUrl": "https://madie.cms.gov/Encounter/104a3f4f-13f9-4f35-b793-df520b722c38",
    "resource": {
      "resourceType": "Encounter",
      "id": "104a3f4f-13f9-4f35-b793-df520b722c38",
      "meta": {
        "profile": [ "http://hl7.org/fhir/us/qicore/StructureDefinition/qicore-encounter" ]
      },
      "status": "finished",
      "class": {
        "system": "http://terminology.hl7.org/CodeSystem/v3-ActCode",
        "code": "IMP",
        "display": "inpatient encounter"
      },
      "type": [ {
        "coding": [ {
          "system": "http://snomed.info/sct",
          "code": "448951000124107"
        } ]
      } ],
      "subject": {
        "reference": "Patient/0aed830d-d498-4ec6-8429-f9f24cccc127"
      },
      "period": {
        "start": "2026-02-01T08:00:00Z",
        "end": "2026-02-01T08:59:00.000+00:00"
      }
    },
    "request": {
      "method": "PUT",
      "url": "Encounter/104a3f4f-13f9-4f35-b793-df520b722c38"
    }
  }, {
    "fullUrl": "https://madie.cms.gov/Encounter/39aa9656-7ed1-4021-b4cf-3a3d81808f8d",
    "resource": {
      "resourceType": "Encounter",
      "id": "39aa9656-7ed1-4021-b4cf-3a3d81808f8d",
      "meta": {
        "profile": [ "http://hl7.org/fhir/us/qicore/StructureDefinition/qicore-encounter" ]
      },
      "status": "finished",
      "class": {
        "system": "http://terminology.hl7.org/CodeSystem/v3-ActCode",
        "code": "IMP",
        "display": "inpatient encounter"
      },
      "type": [ {
        "coding": [ {
          "system": "http://snomed.info/sct",
          "code": "4525004"
        } ]
      } ],
      "subject": {
        "reference": "Patient/0aed830d-d498-4ec6-8429-f9f24cccc127"
      },
      "period": {
        "start": "2026-02-01T07:00:00Z",
        "end": "2026-02-01T07:59:00.000+00:00"
      }
    },
    "request": {
      "method": "PUT",
      "url": "Encounter/39aa9656-7ed1-4021-b4cf-3a3d81808f8d"
    }
  }, {
    "fullUrl": "https://madie.cms.gov/Procedure/74532f2e-0094-4c8c-bb24-9a333c471f53",
    "resource": {
      "resourceType": "Procedure",
      "id": "74532f2e-0094-4c8c-bb24-9a333c471f53",
      "meta": {
        "profile": [ "http://hl7.org/fhir/us/qicore/StructureDefinition/qicore-procedure" ]
      },
      "extension": [ {
        "url": "http://hl7.org/fhir/us/qicore/StructureDefinition/qicore-recorded",
        "valueDateTime": "2014-04-05T13:35:00Z"
      } ],
      "status": "completed",
      "code": {
        "coding": [ {
          "system": "http://snomed.info/sct",
          "code": "10745001"
        } ]
      },
      "subject": {
        "reference": "Patient/0aed830d-d498-4ec6-8429-f9f24cccc127"
      },
      "performedDateTime": "2026-02-01T08:59:00Z"
    },
    "request": {
      "method": "PUT",
      "url": "Procedure/74532f2e-0094-4c8c-bb24-9a333c471f53"
    }
  }, {
    "fullUrl": "https://madie.cms.gov/Coverage/4b1c44a6-697a-4448-9767-2526dc3973f5",
    "resource": {
      "resourceType": "Coverage",
      "id": "4b1c44a6-697a-4448-9767-2526dc3973f5",
      "meta": {
        "profile": [ "http://hl7.org/fhir/us/qicore/StructureDefinition/qicore-coverage" ]
      },
      "status": "active",
      "beneficiary": {
        "reference": "Patient/0aed830d-d498-4ec6-8429-f9f24cccc127"
      },
      "payor": [ {
        "reference": "Organization/6f913e5f-ef4c-4a14-ac0d-6cf3d983bf64"
      } ]
    },
    "request": {
      "method": "PUT",
      "url": "Coverage/4b1c44a6-697a-4448-9767-2526dc3973f5"
    }
  }, {
    "fullUrl": "https://madie.cms.gov/Organization/6f913e5f-ef4c-4a14-ac0d-6cf3d983bf64",
    "resource": {
      "resourceType": "Organization",
      "id": "6f913e5f-ef4c-4a14-ac0d-6cf3d983bf64",
      "meta": {
        "profile": [ "http://hl7.org/fhir/us/qicore/StructureDefinition/qicore-organization" ]
      },
      "identifier": [ {
        "use": "temp",
        "system": "urn:oid:2.16.840.1.113883.4.4",
        "value": "21-3259825"
      } ],
      "active": true,
      "type": [ {
        "coding": [ {
          "system": "http://terminology.hl7.org/CodeSystem/organization-type",
          "code": "pay",
          "display": "Payer"
        } ]
      } ],
      "name": "Blue Cross Blue Shield of Texas",
      "telecom": [ {
        "system": "phone",
        "value": "(+1) 972-766-6900"
      } ],
      "address": [ {
        "use": "billing",
        "type": "postal",
        "line": [ "P.O. Box 660044" ],
        "city": "Dallas",
        "state": "TX",
        "postalCode": "75266-0044",
        "country": "USA"
      } ]
    },
    "request": {
      "method": "PUT",
      "url": "Organization/6f913e5f-ef4c-4a14-ac0d-6cf3d983bf64"
    }
  }, {
    "fullUrl": "https://madie.cms.gov/Practitioner/18cf10f7-2e3d-48ee-b3be-f8be3a81f113",
    "resource": {
      "resourceType": "Practitioner",
      "id": "18cf10f7-2e3d-48ee-b3be-f8be3a81f113",
      "identifier": [ {
        "system": "http://hl7.org/fhir/sid/us-npi",
        "value": "123456"
      } ],
      "name": [ {
        "family": "Evil",
        "prefix": [ "Dr" ]
      } ]
    },
    "request": {
      "method": "PUT",
      "url": "Practitioner/18cf10f7-2e3d-48ee-b3be-f8be3a81f113"
    }
  }, {
    "fullUrl": "https://madie.cms.gov/MeasureReport/17ddbfa5-1e0c-4df4-9718-fc01b95ec530",
    "resource": {
      "resourceType": "MeasureReport",
      "id": "17ddbfa5-1e0c-4df4-9718-fc01b95ec530",
      "meta": {
        "profile": [ "http://hl7.org/fhir/us/cqfmeasures/StructureDefinition/test-case-cqfm" ]
      },
      "contained": [ {
        "resourceType": "Parameters",
        "id": "3e2af089-10e2-4cf2-af46-99a1c000b61b-parameters",
        "parameter": [ {
          "name": "subject",
          "valueString": "0aed830d-d498-4ec6-8429-f9f24cccc127"
        } ]
      } ],
      "extension": [ {
        "url": "http://hl7.org/fhir/StructureDefinition/cqf-inputParameters",
        "valueReference": {
          "reference": "#3e2af089-10e2-4cf2-af46-99a1c000b61b-parameters"
        }
      }, {
        "url": "http://hl7.org/fhir/us/cqfmeasures/StructureDefinition/cqfm-testCaseDescription",
        "valueMarkdown": "Delivery Procedure rel date/time = OBS end.  ED/OBS/IP all meet global hospitalization criteria.\n"
      } ],
      "modifierExtension": [ {
        "url": "http://hl7.org/fhir/us/cqfmeasures/StructureDefinition/cqfm-isTestCase",
        "valueBoolean": true
      } ],
      "status": "complete",
      "type": "individual",
      "measure": "https://madie.cms.gov/Measure/CMS1028FHIRPCSevereOBComps",
      "period": {
        "start": "2026-01-01",
        "end": "2026-12-31"
      },
      "group": [ {
        "id": "Group_1",
        "population": [ {
          "id": "InitialPopulation_1",
          "code": {
            "coding": [ {
              "system": "http://terminology.hl7.org/CodeSystem/measure-population",
              "code": "initial-population",
              "display": "Initial Population"
            } ]
          },
          "count": 1
        }, {
          "id": "Denominator_1",
          "code": {
            "coding": [ {
              "system": "http://terminology.hl7.org/CodeSystem/measure-population",
              "code": "denominator",
              "display": "Denominator"
            } ]
          },
          "count": 0
        }, {
          "id": "Numerator_1",
          "code": {
            "coding": [ {
              "system": "http://terminology.hl7.org/CodeSystem/measure-population",
              "code": "numerator",
              "display": "Numerator"
            } ]
          },
          "count": 0
        }, {
          "id": "NumeratorExclusion_1",
          "code": {
            "coding": [ {
              "system": "http://terminology.hl7.org/CodeSystem/measure-population",
              "code": "numerator-exclusion",
              "display": "Numerator Exclusion"
            } ]
          },
          "count": 0
        } ],
        "measureScore": {
          "value": 0.0
        }
      }, {
        "id": "Group_2",
        "population": [ {
          "id": "InitialPopulation_2",
          "code": {
            "coding": [ {
              "system": "http://terminology.hl7.org/CodeSystem/measure-population",
              "code": "initial-population",
              "display": "Initial Population"
            } ]
          },
          "count": 1
        }, {
          "id": "Denominator_2",
          "code": {
            "coding": [ {
              "system": "http://terminology.hl7.org/CodeSystem/measure-population",
              "code": "denominator",
              "display": "Denominator"
            } ]
          },
          "count": 0
        }, {
          "id": "Numerator_2",
          "code": {
            "coding": [ {
              "system": "http://terminology.hl7.org/CodeSystem/measure-population",
              "code": "numerator",
              "display": "Numerator"
            } ]
          },
          "count": 0
        }, {
          "id": "NumeratorExclusion_2",
          "code": {
            "coding": [ {
              "system": "http://terminology.hl7.org/CodeSystem/measure-population",
              "code": "numerator-exclusion",
              "display": "Numerator Exclusion"
            } ]
          },
          "count": 0
        } ],
        "measureScore": {
          "value": 0.0
        }
      } ],
      "evaluatedResource": [ {
        "reference": "Patient/0aed830d-d498-4ec6-8429-f9f24cccc127"
      }, {
        "reference": "Encounter/302e5fed-73ec-4cf5-a56d-1adaf65f3efd"
      }, {
        "reference": "Encounter/104a3f4f-13f9-4f35-b793-df520b722c38"
      }, {
        "reference": "Encounter/39aa9656-7ed1-4021-b4cf-3a3d81808f8d"
      }, {
        "reference": "Procedure/74532f2e-0094-4c8c-bb24-9a333c471f53"
      }, {
        "reference": "Coverage/4b1c44a6-697a-4448-9767-2526dc3973f5"
      }, {
        "reference": "Organization/6f913e5f-ef4c-4a14-ac0d-6cf3d983bf64"
      }, {
        "reference": "Practitioner/18cf10f7-2e3d-48ee-b3be-f8be3a81f113"
      } ]
    },
    "request": {
      "method": "PUT",
      "url": "MeasureReport/17ddbfa5-1e0c-4df4-9718-fc01b95ec530"
    }
  } ]
}