{
    "entry": [
        {
            "request": {
                "method": "PUT",
                "url": "Patient/d2cde80b-5a6c-48e9-b38a-de938f019096"
            },
            "resource": {
                "identifier": [{
                    "system": "https://bonnie-fhir.healthit.gov/",
                    "type": {"coding": [{
                        "system": "http://terminology.hl7.org/CodeSystem/v2-0203",
                        "code": "MR"
                    }]},
                    "value": "62b1dfab3968556e5150cf35"
                }],
                "extension": [
                    {
                        "extension": [
                            {
                                "valueCoding": {
                                    "system": "urn:oid:2.16.840.1.113883.6.238",
                                    "code": "1002-5",
                                    "userSelected": true,
                                    "display": "American Indian or Alaska Native"
                                },
                                "url": "ombCategory"
                            },
                            {
                                "valueString": "American Indian or Alaska Native",
                                "url": "text"
                            }
                        ],
                        "url": "http://hl7.org/fhir/us/core/StructureDefinition/us-core-race"
                    },
                    {
                        "extension": [
                            {
                                "valueCoding": {
                                    "system": "urn:oid:2.16.840.1.113883.6.238",
                                    "code": "2135-2",
                                    "userSelected": true,
                                    "display": "Hispanic or Latino"
                                },
                                "url": "ombCategory"
                            },
                            {
                                "valueString": "Hispanic or Latino",
                                "url": "text"
                            }
                        ],
                        "url": "http://hl7.org/fhir/us/core/StructureDefinition/us-core-ethnicity"
                    }
                ],
                "gender": "male",
                "meta": {"profile": ["http://hl7.org/fhir/us/qicore/StructureDefinition/qicore-patient"]},
                "name": [{
                    "given": ["17yoPositiveAdultDepressionScreeningandFollowUp"],
                    "family": "NUMERPass"
                }],
                "id": "d2cde80b-5a6c-48e9-b38a-de938f019096",
                "birthDate": "2009-01-01",
                "resourceType": "Patient"
            },
            "fullUrl": "https://madie.cms.gov/Patient/d2cde80b-5a6c-48e9-b38a-de938f019096"
        },
        {
            "request": {
                "method": "PUT",
                "url": "Observation/72157efe-d4fc-46a4-8162-93158d486d8e"
            },
            "resource": {
                "valueCodeableConcept": {"coding": [{
                    "system": "http://snomed.info/sct",
                    "code": "428181000124104",
                    "userSelected": true,
                    "display": "Depression screening positive (finding)"
                }]},
                "code": {"coding": [{
                    "system": "http://loinc.org",
                    "code": "73832-8",
                    "userSelected": true,
                    "display": "Adult depression screening assessment"
                }]},
                "effectiveDateTime": "2026-01-01T08:00:00.000+00:00",
                "meta": {"profile": ["http://hl7.org/fhir/us/qicore/StructureDefinition/qicore-observation-screening-assessment"]},
                "subject": {"reference": "Patient/d2cde80b-5a6c-48e9-b38a-de938f019096"},
                "id": "72157efe-d4fc-46a4-8162-93158d486d8e",
                "category": [{"coding": [{
                    "system": "http://terminology.hl7.org/CodeSystem/observation-category",
                    "code": "procedure",
                    "display": "Procedure"
                }]}],
                "resourceType": "Observation",
                "status": "final"
            },
            "fullUrl": "https://madie.cms.gov/Observation/72157efe-d4fc-46a4-8162-93158d486d8e"
        },
        {
            "request": {
                "method": "PUT",
                "url": "Encounter/05bc021d-5c67-4a16-8607-b2c392f23a18"
            },
            "resource": {
                "period": {
                    "start": "2026-01-01T08:00:00.000+00:00",
                    "end": "2026-01-01T08:15:00.000+00:00"
                },
                "meta": {"profile": ["http://hl7.org/fhir/us/qicore/StructureDefinition/qicore-encounter"]},
                "subject": {"reference": "Patient/d2cde80b-5a6c-48e9-b38a-de938f019096"},
                "id": "05bc021d-5c67-4a16-8607-b2c392f23a18",
                "type": [{"coding": [{
                    "system": "http://snomed.info/sct",
                    "code": "10197000",
                    "userSelected": true,
                    "display": "Psychiatric interview and evaluation (procedure)",
                    "version": "2021-09"
                }]}],
                "class": {
                    "system": "http://terminology.hl7.org/CodeSystem/v3-ActCode",
                    "code": "AMB",
                    "display": "ambulatory"
                },
                "resourceType": "Encounter",
                "status": "finished"
            },
            "fullUrl": "https://madie.cms.gov/Encounter/05bc021d-5c67-4a16-8607-b2c392f23a18"
        },
        {
            "request": {
                "method": "PUT",
                "url": "MedicationRequest/ed00ce98-f01a-410b-8142-93f1e6c1da16"
            },
            "resource": {
                "requester": {"reference": "Practitioner/Practitioner-123456"},
                "authoredOn": "2026-01-01T08:14:00.000+00:00",
                "dispenseRequest": {"expectedSupplyDuration": {
                    "system": "http://unitsofmeasure.org",
                    "code": "days",
                    "value": 30
                }},
                "meta": {"profile": ["http://hl7.org/fhir/us/qicore/StructureDefinition/qicore-medicationrequest"]},
                "subject": {"reference": "Patient/d2cde80b-5a6c-48e9-b38a-de938f019096"},
                "id": "ed00ce98-f01a-410b-8142-93f1e6c1da16",
                "doNotPerform": false,
                "medicationCodeableConcept": {"coding": [{
                    "system": "http://www.nlm.nih.gov/research/umls/rxnorm",
                    "code": "1000048",
                    "userSelected": true,
                    "display": "doxepin hydrochloride 10 MG Oral Capsule"
                }]},
                "intent": "order",
                "resourceType": "MedicationRequest",
                "status": "active"
            },
            "fullUrl": "https://madie.cms.gov/MedicationRequest/ed00ce98-f01a-410b-8142-93f1e6c1da16"
        },
        {
            "request": {
                "method": "PUT",
                "url": "Coverage/82241f5b-6c7a-42ef-ab99-03f9858ed1d2"
            },
            "resource": {
                "payor": [{"reference": "Organization/30c1f699-0c55-4993-b6f7-20f3c830bc1f"}],
                "beneficiary": {"reference": "Patient/d2cde80b-5a6c-48e9-b38a-de938f019096"},
                "meta": {"profile": ["http://hl7.org/fhir/us/qicore/StructureDefinition/qicore-coverage"]},
                "id": "82241f5b-6c7a-42ef-ab99-03f9858ed1d2",
                "resourceType": "Coverage",
                "status": "active"
            },
            "fullUrl": "https://madie.cms.gov/Coverage/82241f5b-6c7a-42ef-ab99-03f9858ed1d2"
        },
        {
            "request": {
                "method": "PUT",
                "url": "Organization/30c1f699-0c55-4993-b6f7-20f3c830bc1f"
            },
            "resource": {
                "identifier": [{
                    "system": "urn:oid:2.16.840.1.113883.4.4",
                    "use": "temp",
                    "value": "21-3259825"
                }],
                "address": [{
                    "country": "USA",
                    "city": "Dallas",
                    "use": "billing",
                    "line": ["P.O. Box 660044"],
                    "postalCode": "75266-0044",
                    "state": "TX",
                    "type": "postal"
                }],
                "meta": {"profile": ["http://hl7.org/fhir/us/qicore/StructureDefinition/qicore-organization"]},
                "name": "Blue Cross Blue Shield of Texas",
                "active": true,
                "telecom": [{
                    "system": "phone",
                    "value": "(+1) 972-766-6900"
                }],
                "id": "30c1f699-0c55-4993-b6f7-20f3c830bc1f",
                "type": [{"coding": [{
                    "system": "http://terminology.hl7.org/CodeSystem/organization-type",
                    "code": "pay",
                    "display": "Payer"
                }]}],
                "resourceType": "Organization"
            },
            "fullUrl": "https://madie.cms.gov/Organization/30c1f699-0c55-4993-b6f7-20f3c830bc1f"
        },
        {
            "request": {
                "method": "PUT",
                "url": "Practitioner/4292d3ae-ff62-48b3-bc9e-950df32f1e9d"
            },
            "resource": {
                "identifier": [{
                    "system": "http://hl7.org/fhir/sid/us-npi",
                    "value": "123456"
                }],
                "meta": {"profile": ["http://hl7.org/fhir/us/qicore/StructureDefinition/qicore-practitioner"]},
                "name": [{
                    "prefix": ["Dr"],
                    "family": "Evil"
                }],
                "id": "4292d3ae-ff62-48b3-bc9e-950df32f1e9d",
                "resourceType": "Practitioner"
            },
            "fullUrl": "https://madie.cms.gov/Practitioner/4292d3ae-ff62-48b3-bc9e-950df32f1e9d"
        },
        {
            "request": {
                "method": "PUT",
                "url": "MeasureReport/cde5219c-094f-4fb1-b48d-06d6f0e1ac88"
            },
            "resource": {
                "contained": [{
                    "parameter": [{
                        "valueString": "d2cde80b-5a6c-48e9-b38a-de938f019096",
                        "name": "subject"
                    }],
                    "id": "b43348c0-dbbf-4509-8a31-7c8ab41b74f4-parameters",
                    "resourceType": "Parameters"
                }],
                "extension": [
                    {
                        "valueReference": {"reference": "#b43348c0-dbbf-4509-8a31-7c8ab41b74f4-parameters"},
                        "url": "http://hl7.org/fhir/StructureDefinition/cqf-inputParameters"
                    },
                    {
                        "valueMarkdown": "17yo with previous positive adult depression screening and medication active",
                        "url": "http://hl7.org/fhir/us/cqfmeasures/StructureDefinition/cqfm-testCaseDescription"
                    }
                ],
                "period": {
                    "start": "2026-01-01",
                    "end": "2026-12-31"
                },
                "measure": "https://madie.cms.gov/Measure/CMS2FHIRPCSDepressionScreenAndFollowUp",
                "meta": {"profile": ["http://hl7.org/fhir/us/cqfmeasures/StructureDefinition/test-case-cqfm"]},
                "modifierExtension": [{
                    "valueBoolean": true,
                    "url": "http://hl7.org/fhir/us/cqfmeasures/StructureDefinition/cqfm-isTestCase"
                }],
                "id": "cde5219c-094f-4fb1-b48d-06d6f0e1ac88",
                "evaluatedResource": [
                    {"reference": "Patient/d2cde80b-5a6c-48e9-b38a-de938f019096"},
                    {"reference": "Observation/72157efe-d4fc-46a4-8162-93158d486d8e"},
                    {"reference": "Encounter/05bc021d-5c67-4a16-8607-b2c392f23a18"},
                    {"reference": "MedicationRequest/ed00ce98-f01a-410b-8142-93f1e6c1da16"},
                    {"reference": "Coverage/82241f5b-6c7a-42ef-ab99-03f9858ed1d2"},
                    {"reference": "Organization/30c1f699-0c55-4993-b6f7-20f3c830bc1f"},
                    {"reference": "Practitioner/4292d3ae-ff62-48b3-bc9e-950df32f1e9d"}
                ],
                "type": "individual",
                "resourceType": "MeasureReport",
                "status": "complete",
                "group": [{
                    "id": "Group_1",
                    "measureScore": {"value": 1},
                    "population": [
                        {
                            "code": {"coding": [{
                                "system": "http://terminology.hl7.org/CodeSystem/measure-population",
                                "code": "initial-population",
                                "display": "Initial Population"
                            }]},
                            "count": 1,
                            "id": "InitialPopulation_1"
                        },
                        {
                            "code": {"coding": [{
                                "system": "http://terminology.hl7.org/CodeSystem/measure-population",
                                "code": "denominator",
                                "display": "Denominator"
                            }]},
                            "count": 1,
                            "id": "Denominator_1"
                        },
                        {
                            "code": {"coding": [{
                                "system": "http://terminology.hl7.org/CodeSystem/measure-population",
                                "code": "denominator-exclusion",
                                "display": "Denominator Exclusion"
                            }]},
                            "count": 0,
                            "id": "DenominatorExclusion_1"
                        },
                        {
                            "code": {"coding": [{
                                "system": "http://terminology.hl7.org/CodeSystem/measure-population",
                                "code": "numerator",
                                "display": "Numerator"
                            }]},
                            "count": 1,
                            "id": "Numerator_1"
                        },
                        {
                            "code": {"coding": [{
                                "system": "http://terminology.hl7.org/CodeSystem/measure-population",
                                "code": "denominator-exception",
                                "display": "Denominator Exception"
                            }]},
                            "count": 0,
                            "id": "DenominatorException_1"
                        }
                    ]
                }]
            },
            "fullUrl": "https://madie.cms.gov/MeasureReport/cde5219c-094f-4fb1-b48d-06d6f0e1ac88"
        }
    ],
    "id": "62b1dfab3968556e5150cf35",
    "type": "transaction",
    "resourceType": "Bundle"
}