{
  "resourceType": "Bundle",
  "id": "60f82c2f98086b570510e29d",
  "type": "transaction",
  "entry": [ {
    "fullUrl": "https://madie.cms.gov/Patient/fac8c35b-89c4-4ff0-bf5b-32147a59e18f",
    "resource": {
      "resourceType": "Patient",
      "id": "fac8c35b-89c4-4ff0-bf5b-32147a59e18f",
      "meta": {
        "profile": [ "http://hl7.org/fhir/us/qicore/StructureDefinition/qicore-patient" ]
      },
      "text": {
        "status": "generated",
        "div": "<div xmlns=\"http://www.w3.org/1999/xhtml\"><div class=\"hapiHeaderText\">MedTPAdurObs_ED&lt;1hrObs&lt;1hrBFEnc <b>DENEXPASS </b></div><table class=\"hapiPropertyTable\"><tbody><tr><td>Identifier</td><td>1849d3434d2b47f16c7674f9526a9103bbee1b7e9de727db2be8290bb8155111</td></tr><tr><td>Date of birth</td><td><span>26 September 1975</span></td></tr></tbody></table></div>"
      },
      "extension": [ {
        "url": "http://hl7.org/fhir/us/core/StructureDefinition/us-core-race",
        "extension": [ {
          "url": "ombCategory",
          "valueCoding": {
            "system": "urn:oid:2.16.840.1.113883.6.238",
            "code": "2054-5",
            "display": "Black or African American",
            "userSelected": true
          }
        }, {
          "url": "text",
          "valueString": "Black or African American"
        } ]
      }, {
        "url": "http://hl7.org/fhir/us/core/StructureDefinition/us-core-ethnicity",
        "extension": [ {
          "url": "ombCategory",
          "valueCoding": {
            "system": "urn:oid:2.16.840.1.113883.6.238",
            "code": "2186-5",
            "display": "Not Hispanic or Latino",
            "userSelected": true
          }
        }, {
          "url": "text",
          "valueString": "Not Hispanic or Latino"
        } ]
      } ],
      "identifier": [ {
        "type": {
          "coding": [ {
            "system": "http://terminology.hl7.org/CodeSystem/v2-0203",
            "code": "MR"
          } ]
        },
        "system": "https://bonnie-fhir.healthit.gov/",
        "value": "60f82c2f98086b570510e29d"
      } ],
      "active": true,
      "name": [ {
        "use": "usual",
        "family": "DENEXPass",
        "given": [ "MedTPAdurObsEDLT1hrObsLT1hrBFEnc" ]
      } ],
      "gender": "female",
      "birthDate": "1976-09-26"
    },
    "request": {
      "method": "PUT",
      "url": "Patient/fac8c35b-89c4-4ff0-bf5b-32147a59e18f"
    }
  }, {
    "fullUrl": "https://madie.cms.gov/Encounter/f95e7ce3-45d4-420a-a3b1-a0330ecb8f4e",
    "resource": {
      "resourceType": "Encounter",
      "id": "f95e7ce3-45d4-420a-a3b1-a0330ecb8f4e",
      "meta": {
        "profile": [ "http://hl7.org/fhir/us/qicore/StructureDefinition/qicore-encounter" ]
      },
      "status": "finished",
      "class": {
        "system": "http://terminology.hl7.org/CodeSystem/v3-ActCode",
        "code": "EMER",
        "display": "emergency"
      },
      "type": [ {
        "coding": [ {
          "system": "http://snomed.info/sct",
          "code": "4525004"
        } ]
      } ],
      "subject": {
        "reference": "Patient/fac8c35b-89c4-4ff0-bf5b-32147a59e18f"
      },
      "period": {
        "start": "2026-10-10T06:00:00Z",
        "end": "2026-10-10T06:30:00.000+00:00"
      },
      "length": {
        "value": 0,
        "unit": "days"
      }
    },
    "request": {
      "method": "PUT",
      "url": "Encounter/f95e7ce3-45d4-420a-a3b1-a0330ecb8f4e"
    }
  }, {
    "fullUrl": "https://madie.cms.gov/Encounter/190b8d2d-125f-4d00-9efa-a2501d170048",
    "resource": {
      "resourceType": "Encounter",
      "id": "190b8d2d-125f-4d00-9efa-a2501d170048",
      "meta": {
        "profile": [ "http://hl7.org/fhir/us/qicore/StructureDefinition/qicore-encounter" ]
      },
      "status": "finished",
      "class": {
        "system": "http://terminology.hl7.org/CodeSystem/v3-ActCode",
        "code": "OBSENC",
        "display": "observation encounter"
      },
      "type": [ {
        "coding": [ {
          "system": "http://snomed.info/sct",
          "code": "448851000124103"
        } ]
      } ],
      "subject": {
        "reference": "Patient/fac8c35b-89c4-4ff0-bf5b-32147a59e18f"
      },
      "period": {
        "start": "2026-10-10T06:31:00Z",
        "end": "2026-10-10T07:30:00.000+00:00"
      },
      "length": {
        "value": 0,
        "unit": "days"
      }
    },
    "request": {
      "method": "PUT",
      "url": "Encounter/190b8d2d-125f-4d00-9efa-a2501d170048"
    }
  }, {
    "fullUrl": "https://madie.cms.gov/Encounter/0c716fe8-e060-4161-8f57-86060a842f2e",
    "resource": {
      "resourceType": "Encounter",
      "id": "0c716fe8-e060-4161-8f57-86060a842f2e",
      "meta": {
        "profile": [ "http://hl7.org/fhir/us/qicore/StructureDefinition/qicore-encounter" ]
      },
      "status": "finished",
      "class": {
        "system": "http://terminology.hl7.org/CodeSystem/v3-ActCode",
        "code": "IMP",
        "display": "inpatient encounter"
      },
      "type": [ {
        "coding": [ {
          "system": "http://snomed.info/sct",
          "code": "32485007"
        } ]
      } ],
      "subject": {
        "reference": "Patient/fac8c35b-89c4-4ff0-bf5b-32147a59e18f"
      },
      "period": {
        "start": "2026-10-10T07:31:00Z",
        "end": "2026-10-12T11:15:00.000+00:00"
      },
      "length": {
        "value": 2,
        "unit": "days"
      },
      "reasonReference": [ {
        "reference": "Condition/eb853978-7b71-445b-857b-ead64d478449"
      } ]
    },
    "request": {
      "method": "PUT",
      "url": "Encounter/0c716fe8-e060-4161-8f57-86060a842f2e"
    }
  }, {
    "fullUrl": "https://madie.cms.gov/MedicationAdministration/2e782ff0-1c48-4f36-8ac3-fa911cd33dab",
    "resource": {
      "resourceType": "MedicationAdministration",
      "id": "2e782ff0-1c48-4f36-8ac3-fa911cd33dab",
      "meta": {
        "profile": [ "http://hl7.org/fhir/us/qicore/StructureDefinition/qicore-medicationadministration" ]
      },
      "status": "completed",
      "medicationCodeableConcept": {
        "coding": [ {
          "system": "http://www.nlm.nih.gov/research/umls/rxnorm",
          "code": "1804799"
        } ]
      },
      "subject": {
        "reference": "Patient/fac8c35b-89c4-4ff0-bf5b-32147a59e18f"
      },
      "effectivePeriod": {
        "start": "2026-10-10T06:31:00Z"
      }
    },
    "request": {
      "method": "PUT",
      "url": "MedicationAdministration/2e782ff0-1c48-4f36-8ac3-fa911cd33dab"
    }
  }, {
    "fullUrl": "https://madie.cms.gov/Coverage/17ded532-c496-4eeb-99bf-513740211582",
    "resource": {
      "resourceType": "Coverage",
      "id": "17ded532-c496-4eeb-99bf-513740211582",
      "status": "active",
      "beneficiary": {
        "reference": "Patient/fac8c35b-89c4-4ff0-bf5b-32147a59e18f"
      },
      "period": {
        "start": "1976-09-26T08:00:00Z"
      },
      "payor": [ {
        "reference": "Organization/06950d3e-7af7-437e-bab5-1ef0fbe64240"
      } ]
    },
    "request": {
      "method": "PUT",
      "url": "Coverage/17ded532-c496-4eeb-99bf-513740211582"
    }
  }, {
    "fullUrl": "https://madie.cms.gov/Condition/eb853978-7b71-445b-857b-ead64d478449",
    "resource": {
      "resourceType": "Condition",
      "id": "eb853978-7b71-445b-857b-ead64d478449",
      "meta": {
        "profile": [ "http://hl7.org/fhir/us/qicore/StructureDefinition/qicore-condition-encounter-diagnosis" ]
      },
      "clinicalStatus": {
        "coding": [ {
          "system": "http://terminology.hl7.org/CodeSystem/condition-clinical",
          "code": "active"
        } ]
      },
      "verificationStatus": {
        "coding": [ {
          "system": "http://terminology.hl7.org/CodeSystem/condition-ver-status",
          "code": "confirmed"
        } ]
      },
      "category": [ {
        "coding": [ {
          "system": "http://terminology.hl7.org/CodeSystem/condition-category",
          "code": "encounter-diagnosis",
          "display": "Encounter Diagnosis"
        } ]
      } ],
      "code": {
        "coding": [ {
          "system": "http://snomed.info/sct",
          "version": "2020-09",
          "code": "111297002",
          "display": "Nonparalytic stroke (disorder)",
          "userSelected": true
        } ]
      },
      "subject": {
        "reference": "Patient/fac8c35b-89c4-4ff0-bf5b-32147a59e18f"
      },
      "encounter": {
        "reference": "Encounter/0c716fe8-e060-4161-8f57-86060a842f2e"
      },
      "recordedDate": "2026-08-13T08:00:00Z"
    },
    "request": {
      "method": "PUT",
      "url": "Condition/eb853978-7b71-445b-857b-ead64d478449"
    }
  }, {
    "fullUrl": "https://madie.cms.gov/claim/5ca62962b8484628b8de1ec5",
    "resource": {
      "resourceType": "Claim",
      "id": "5ca62962b8484628b8de1ec5",
      "meta": {
        "profile": [ "http://hl7.org/fhir/us/qicore/StructureDefinition/qicore-claim" ]
      },
      "status": "active",
      "type": {
        "coding": [ {
          "system": "http://terminology.hl7.org/CodeSystem/claim-type",
          "code": "institutional"
        } ]
      },
      "use": "claim",
      "patient": {
        "reference": "Patient/fac8c35b-89c4-4ff0-bf5b-32147a59e18f"
      },
      "created": "2026-12-01",
      "provider": {
        "reference": "Practitioner/practitioner-123456"
      },
      "priority": {
        "coding": [ {
          "system": "http://terminology.hl7.org/CodeSystem/processpriority",
          "code": "normal"
        } ]
      },
      "diagnosis": [ {
        "sequence": 1,
        "diagnosisCodeableConcept": {
          "coding": [ {
            "system": "http://hl7.org/fhir/sid/icd-10-cm",
            "code": "I63.00"
          } ]
        },
        "type": [ {
          "coding": [ {
            "system": "http://terminology.hl7.org/CodeSystem/ex-diagnosistype",
            "code": "principal"
          } ]
        } ]
      } ],
      "insurance": [ {
        "sequence": 1,
        "focal": true,
        "coverage": {
          "reference": "Coverage/5fa041661c76ba66d9959367"
        }
      } ],
      "item": [ {
        "sequence": 1,
        "diagnosisSequence": [ 1 ],
        "productOrService": {
          "coding": [ {
            "system": "http://terminology.hl7.org/CodeSystem/ex-USCLS",
            "code": "99555"
          } ]
        },
        "encounter": [ {
          "reference": "Encounter/0c716fe8-e060-4161-8f57-86060a842f2e"
        } ]
      } ]
    },
    "request": {
      "method": "PUT",
      "url": "Claim/5ca62962b8484628b8de1ec5"
    }
  }, {
    "fullUrl": "https://madie.cms.gov/Organization/06950d3e-7af7-437e-bab5-1ef0fbe64240",
    "resource": {
      "resourceType": "Organization",
      "id": "06950d3e-7af7-437e-bab5-1ef0fbe64240",
      "meta": {
        "profile": [ "http://hl7.org/fhir/us/qicore/StructureDefinition/qicore-organization" ]
      },
      "identifier": [ {
        "use": "temp",
        "system": "urn:oid:2.16.840.1.113883.4.4",
        "value": "21-3259825"
      } ],
      "active": true,
      "type": [ {
        "coding": [ {
          "system": "http://terminology.hl7.org/CodeSystem/organization-type",
          "code": "pay",
          "display": "Payer"
        } ]
      } ],
      "name": "Blue Cross Blue Shield of Texas",
      "telecom": [ {
        "system": "phone",
        "value": "(+1) 972-766-6900"
      } ],
      "address": [ {
        "use": "billing",
        "type": "postal",
        "line": [ "P.O. Box 660044" ],
        "city": "Dallas",
        "state": "TX",
        "postalCode": "75266-0044",
        "country": "USA"
      } ]
    },
    "request": {
      "method": "PUT",
      "url": "Organization/06950d3e-7af7-437e-bab5-1ef0fbe64240"
    }
  }, {
    "fullUrl": "https://madie.cms.gov/MeasureReport/61ec5ae7-e071-4b1a-bff4-3e50c969c3e0",
    "resource": {
      "resourceType": "MeasureReport",
      "id": "61ec5ae7-e071-4b1a-bff4-3e50c969c3e0",
      "meta": {
        "profile": [ "http://hl7.org/fhir/us/cqfmeasures/StructureDefinition/test-case-cqfm" ]
      },
      "contained": [ {
        "resourceType": "Parameters",
        "id": "74bc10ae-47ef-42cd-9601-03b0539d30db-parameters",
        "parameter": [ {
          "name": "subject",
          "valueString": "fac8c35b-89c4-4ff0-bf5b-32147a59e18f"
        } ]
      } ],
      "extension": [ {
        "url": "http://hl7.org/fhir/StructureDefinition/cqf-inputParameters",
        "valueReference": {
          "reference": "#74bc10ae-47ef-42cd-9601-03b0539d30db-parameters"
        }
      }, {
        "url": "http://hl7.org/fhir/us/cqfmeasures/StructureDefinition/cqfm-testCaseDescription",
        "valueMarkdown": "Patient receives TPA during Obs. ED ends 1 min before Obs. Obs ends 1 min before IP start. Testing HospitalizationWithObservation function.\n"
      } ],
      "modifierExtension": [ {
        "url": "http://hl7.org/fhir/us/cqfmeasures/StructureDefinition/cqfm-isTestCase",
        "valueBoolean": true
      } ],
      "status": "complete",
      "type": "individual",
      "measure": "https://madie.cms.gov/Measure/CMS72FHIRSTKAntithromboticDay2",
      "period": {
        "start": "2026-01-01",
        "end": "2026-12-31"
      },
      "group": [ {
        "id": "Group_1",
        "population": [ {
          "id": "InitialPopulation_1",
          "code": {
            "coding": [ {
              "system": "http://terminology.hl7.org/CodeSystem/measure-population",
              "code": "initial-population",
              "display": "Initial Population"
            } ]
          },
          "count": 1
        }, {
          "id": "Denominator_1",
          "code": {
            "coding": [ {
              "system": "http://terminology.hl7.org/CodeSystem/measure-population",
              "code": "denominator",
              "display": "Denominator"
            } ]
          },
          "count": 1
        }, {
          "id": "DenominatorExclusion_1",
          "code": {
            "coding": [ {
              "system": "http://terminology.hl7.org/CodeSystem/measure-population",
              "code": "denominator-exclusion",
              "display": "Denominator Exclusion"
            } ]
          },
          "count": 1
        }, {
          "id": "Numerator_1",
          "code": {
            "coding": [ {
              "system": "http://terminology.hl7.org/CodeSystem/measure-population",
              "code": "numerator",
              "display": "Numerator"
            } ]
          },
          "count": 0
        }, {
          "id": "DenominatorException_1",
          "code": {
            "coding": [ {
              "system": "http://terminology.hl7.org/CodeSystem/measure-population",
              "code": "denominator-exception",
              "display": "Denominator Exception"
            } ]
          },
          "count": 0
        } ],
        "measureScore": {
          "value": 0.0
        }
      } ],
      "evaluatedResource": [ {
        "reference": "Patient/fac8c35b-89c4-4ff0-bf5b-32147a59e18f"
      }, {
        "reference": "Encounter/f95e7ce3-45d4-420a-a3b1-a0330ecb8f4e"
      }, {
        "reference": "Encounter/190b8d2d-125f-4d00-9efa-a2501d170048"
      }, {
        "reference": "Encounter/0c716fe8-e060-4161-8f57-86060a842f2e"
      }, {
        "reference": "MedicationAdministration/2e782ff0-1c48-4f36-8ac3-fa911cd33dab"
      }, {
        "reference": "Coverage/17ded532-c496-4eeb-99bf-513740211582"
      }, {
        "reference": "Condition/eb853978-7b71-445b-857b-ead64d478449"
      }, {
        "reference": "Claim/5ca62962b8484628b8de1ec5"
      }, {
        "reference": "Organization/06950d3e-7af7-437e-bab5-1ef0fbe64240"
      } ]
    },
    "request": {
      "method": "PUT",
      "url": "MeasureReport/61ec5ae7-e071-4b1a-bff4-3e50c969c3e0"
    }
  } ]
}