{
  "resourceType": "Bundle",
  "id": "NotscreRefAsseNotmNodxNocp",
  "type": "transaction",
  "entry": [ {
    "fullUrl": "https://madie.cms.gov/Patient/0c3b72aa-9a9b-468d-b2fb-95153a9136bc",
    "resource": {
      "resourceType": "Patient",
      "id": "0c3b72aa-9a9b-468d-b2fb-95153a9136bc",
      "meta": {
        "profile": [ "http://hl7.org/fhir/us/qicore/StructureDefinition/qicore-patient" ]
      },
      "extension": [ {
        "url": "http://hl7.org/fhir/us/core/StructureDefinition/us-core-race",
        "extension": [ {
          "url": "ombCategory",
          "valueCoding": {
            "system": "urn:oid:2.16.840.1.113883.6.238",
            "code": "1002-5",
            "display": "American Indian or Alaska Native",
            "userSelected": true
          }
        }, {
          "url": "text",
          "valueString": "American Indian or Alaska Native"
        } ]
      }, {
        "url": "http://hl7.org/fhir/us/core/StructureDefinition/us-core-sex",
        "valueCode": "248153007"
      }, {
        "url": "http://hl7.org/fhir/us/core/StructureDefinition/us-core-ethnicity",
        "extension": [ {
          "url": "ombCategory",
          "valueCoding": {
            "system": "urn:oid:2.16.840.1.113883.6.238",
            "code": "2135-2",
            "display": "Hispanic or Latino",
            "userSelected": true
          }
        }, {
          "url": "text",
          "valueString": "Hispanic or Latino"
        } ]
      } ],
      "identifier": [ {
        "type": {
          "coding": [ {
            "system": "http://terminology.hl7.org/CodeSystem/v2-0203",
            "code": "MR"
          } ]
        },
        "system": "https://madie.cms.gov/",
        "value": "NotscreRefAsseNotmNodxNocp"
      } ],
      "active": true,
      "name": [ {
        "use": "usual",
        "text": "NotscreRefAsseNotmNodxNocp",
        "family": "MSROBSPass2",
        "given": [ "NotscreRefAsseNotmNodxNocp" ]
      } ],
      "gender": "male",
      "birthDate": "1952-01-01",
      "address": [ {
        "text": "NotscreRefAsseNotmNodxNocp, Screened Not at risk Assessed Severely Malnourished Diagnosed Care Plan, ID=NotscreRefAsseNotmNodxNocp, DOB: 01 Jan 1952"
      } ]
    },
    "request": {
      "method": "PUT",
      "url": "Patient/0c3b72aa-9a9b-468d-b2fb-95153a9136bc"
    }
  }, {
    "fullUrl": "https://madie.cms.gov/Encounter/c2cb91ea-2eb6-464e-a20f-9e986b739895",
    "resource": {
      "resourceType": "Encounter",
      "id": "c2cb91ea-2eb6-464e-a20f-9e986b739895",
      "meta": {
        "profile": [ "http://hl7.org/fhir/us/qicore/StructureDefinition/qicore-encounter" ]
      },
      "status": "finished",
      "class": {
        "system": "http://terminology.hl7.org/CodeSystem/v3-ActCode",
        "code": "IMP",
        "display": "inpatient encounter"
      },
      "type": [ {
        "coding": [ {
          "system": "http://snomed.info/sct",
          "code": "183452005"
        } ]
      } ],
      "subject": {
        "reference": "Patient/0c3b72aa-9a9b-468d-b2fb-95153a9136bc"
      },
      "period": {
        "start": "2026-11-21T08:00:00.000+00:00",
        "end": "2026-11-24T08:15:00.000+00:00"
      }
    },
    "request": {
      "method": "PUT",
      "url": "Encounter/c2cb91ea-2eb6-464e-a20f-9e986b739895"
    }
  }, {
    "fullUrl": "https://madie.cms.gov/Observation/2383b0bb-305e-44e0-86ea-f8e6b73eee82",
    "resource": {
      "resourceType": "Observation",
      "id": "2383b0bb-305e-44e0-86ea-f8e6b73eee82",
      "meta": {
        "profile": [ "http://hl7.org/fhir/us/qicore/StructureDefinition/qicore-observation-screening-assessment" ]
      },
      "status": "final",
      "category": [ {
        "coding": [ {
          "system": "http://terminology.hl7.org/CodeSystem/observation-category",
          "code": "survey",
          "display": "Survey"
        } ]
      } ],
      "code": {
        "coding": [ {
          "system": "http://loinc.org",
          "code": "75303-8",
          "display": "Nutrition assessment narrative",
          "userSelected": true
        } ]
      },
      "subject": {
        "reference": "Patient/0c3b72aa-9a9b-468d-b2fb-95153a9136bc"
      },
      "effectiveDateTime": "2026-11-21T10:00:00.000+00:00",
      "valueCodeableConcept": {
        "coding": [ {
          "system": "http://loinc.org",
          "code": "LA33702-4",
          "display": "Not malnourished",
          "userSelected": true
        } ]
      }
    },
    "request": {
      "method": "PUT",
      "url": "Observation/2383b0bb-305e-44e0-86ea-f8e6b73eee82"
    }
  }, {
    "fullUrl": "https://madie.cms.gov/Procedure/5b62d499-7328-4814-ad75-5e820a7878e2",
    "resource": {
      "resourceType": "Procedure",
      "id": "5b62d499-7328-4814-ad75-5e820a7878e2",
      "meta": {
        "profile": [ "http://hl7.org/fhir/us/qicore/StructureDefinition/qicore-procedure" ]
      },
      "extension": [ {
        "url": "http://hl7.org/fhir/us/qicore/StructureDefinition/qicore-recorded",
        "valueDateTime": "2026-02-01T11:30:00.000+00:00"
      } ],
      "status": "completed",
      "code": {
        "coding": [ {
          "system": "http://snomed.info/sct",
          "code": "306165000",
          "display": "Referral to hospital-based dietetics service (procedure)"
        } ],
        "text": "Referral to hospital-based dietetics service (procedure)"
      },
      "subject": {
        "reference": "Patient/0c3b72aa-9a9b-468d-b2fb-95153a9136bc"
      },
      "performedPeriod": {
        "start": "2026-11-23T11:30:00.000+00:00",
        "end": "2026-11-24T08:15:00.000+00:00"
      }
    },
    "request": {
      "method": "PUT",
      "url": "Procedure/5b62d499-7328-4814-ad75-5e820a7878e2"
    }
  }, {
    "fullUrl": "https://madie.cms.gov/Coverage/bfbda6ee-a514-4be6-95a4-d96ea213d0a2",
    "resource": {
      "resourceType": "Coverage",
      "id": "bfbda6ee-a514-4be6-95a4-d96ea213d0a2",
      "meta": {
        "profile": [ "http://hl7.org/fhir/us/qicore/StructureDefinition/qicore-coverage" ]
      },
      "status": "active",
      "type": {
        "coding": [ {
          "system": "https://nahdo.org/sopt",
          "version": "9.2",
          "code": "11",
          "display": "Medicare Managed Care (Includes Medicare Advantage Plans)"
        } ]
      },
      "subscriberId": "97531",
      "beneficiary": {
        "reference": "Patient/0c3b72aa-9a9b-468d-b2fb-95153a9136bc"
      },
      "dependent": "0",
      "relationship": {
        "coding": [ {
          "system": "http://terminology.hl7.org/CodeSystem/subscriber-relationship",
          "code": "self"
        } ]
      },
      "period": {
        "start": "2026-10-01T00:00:00.000+00:00"
      },
      "payor": [ {
        "reference": "Organization/976fe337-1528-443a-b06d-a26f9d43347f"
      } ]
    },
    "request": {
      "method": "PUT",
      "url": "Coverage/bfbda6ee-a514-4be6-95a4-d96ea213d0a2"
    }
  }, {
    "fullUrl": "https://madie.cms.gov/Organization/976fe337-1528-443a-b06d-a26f9d43347f",
    "resource": {
      "resourceType": "Organization",
      "id": "976fe337-1528-443a-b06d-a26f9d43347f",
      "meta": {
        "profile": [ "http://hl7.org/fhir/us/qicore/StructureDefinition/qicore-organization" ]
      },
      "identifier": [ {
        "use": "temp",
        "system": "urn:oid:2.16.840.1.113883.4.4",
        "value": "21-3259825"
      } ],
      "active": true,
      "type": [ {
        "coding": [ {
          "system": "http://terminology.hl7.org/CodeSystem/organization-type",
          "code": "pay",
          "display": "Payer"
        } ]
      } ],
      "name": "Blue Cross Blue Shield of Texas",
      "telecom": [ {
        "system": "phone",
        "value": "(+1) 972-766-6900"
      } ],
      "address": [ {
        "use": "billing",
        "type": "postal",
        "line": [ "P.O. Box 660044" ],
        "city": "Dallas",
        "state": "TX",
        "postalCode": "75266-0044",
        "country": "USA"
      } ]
    },
    "request": {
      "method": "PUT",
      "url": "Organization/976fe337-1528-443a-b06d-a26f9d43347f"
    }
  }, {
    "fullUrl": "https://madie.cms.gov/MeasureReport/fc508ffa-baee-44fb-93e7-93a947d9d686",
    "resource": {
      "resourceType": "MeasureReport",
      "id": "fc508ffa-baee-44fb-93e7-93a947d9d686",
      "meta": {
        "profile": [ "http://hl7.org/fhir/us/cqfmeasures/StructureDefinition/test-case-cqfm" ]
      },
      "contained": [ {
        "resourceType": "Parameters",
        "id": "2ca60e3b-9cd0-43d8-8ed9-5d23fbf5214a-parameters",
        "parameter": [ {
          "name": "subject",
          "valueString": "0c3b72aa-9a9b-468d-b2fb-95153a9136bc"
        } ]
      } ],
      "extension": [ {
        "url": "http://hl7.org/fhir/StructureDefinition/cqf-inputParameters",
        "valueReference": {
          "reference": "#2ca60e3b-9cd0-43d8-8ed9-5d23fbf5214a-parameters"
        }
      }, {
        "url": "http://hl7.org/fhir/us/cqfmeasures/StructureDefinition/cqfm-testCaseDescription",
        "valueMarkdown": "Not Screened, Referral, Assessed, Not/Mildly Malnourished, No Diagnosis, No Nutrition Care Plan"
      } ],
      "modifierExtension": [ {
        "url": "http://hl7.org/fhir/us/cqfmeasures/StructureDefinition/cqfm-isTestCase",
        "valueBoolean": true
      } ],
      "status": "complete",
      "type": "individual",
      "measure": "https://madie.cms.gov/Measure/CMS986FHIRMalnutritionScore",
      "period": {
        "start": "2026-01-01",
        "end": "2026-12-31"
      },
      "group": [ {
        "id": "Group_1",
        "population": [ {
          "id": "InitialPopulation_1",
          "code": {
            "coding": [ {
              "system": "http://terminology.hl7.org/CodeSystem/measure-population",
              "code": "initial-population",
              "display": "Initial Population"
            } ]
          },
          "count": 1
        }, {
          "id": "MeasurePopulation_1",
          "code": {
            "coding": [ {
              "system": "http://terminology.hl7.org/CodeSystem/measure-population",
              "code": "measure-population",
              "display": "Measure Population"
            } ]
          },
          "count": 1
        }, {
          "id": "MeasurePopulationExclusion_1",
          "code": {
            "coding": [ {
              "system": "http://terminology.hl7.org/CodeSystem/measure-population",
              "code": "measure-population-exclusion",
              "display": "Measure Population Exclusion"
            } ]
          },
          "count": 0
        }, {
          "id": "MeasureObservation_1_1",
          "code": {
            "coding": [ {
              "system": "http://terminology.hl7.org/CodeSystem/measure-population",
              "code": "measure-population-observation",
              "display": "Measure Population Observation"
            } ]
          },
          "count": 1
        } ],
        "measureScore": {
          "value": 0.0
        }
      }, {
        "id": "Group_2",
        "population": [ {
          "id": "InitialPopulation_2",
          "code": {
            "coding": [ {
              "system": "http://terminology.hl7.org/CodeSystem/measure-population",
              "code": "initial-population",
              "display": "Initial Population"
            } ]
          },
          "count": 1
        }, {
          "id": "MeasurePopulation_2",
          "code": {
            "coding": [ {
              "system": "http://terminology.hl7.org/CodeSystem/measure-population",
              "code": "measure-population",
              "display": "Measure Population"
            } ]
          },
          "count": 1
        }, {
          "id": "MeasurePopulationExclusion_2",
          "code": {
            "coding": [ {
              "system": "http://terminology.hl7.org/CodeSystem/measure-population",
              "code": "measure-population-exclusion",
              "display": "Measure Population Exclusion"
            } ]
          },
          "count": 0
        }, {
          "id": "MeasureObservation_2_1",
          "code": {
            "coding": [ {
              "system": "http://terminology.hl7.org/CodeSystem/measure-population",
              "code": "measure-population-observation",
              "display": "Measure Population Observation"
            } ]
          },
          "count": 1
        } ],
        "measureScore": {
          "value": 0.0
        }
      }, {
        "id": "Group_3",
        "population": [ {
          "id": "InitialPopulation_3",
          "code": {
            "coding": [ {
              "system": "http://terminology.hl7.org/CodeSystem/measure-population",
              "code": "initial-population",
              "display": "Initial Population"
            } ]
          },
          "count": 1
        }, {
          "id": "MeasurePopulation_3",
          "code": {
            "coding": [ {
              "system": "http://terminology.hl7.org/CodeSystem/measure-population",
              "code": "measure-population",
              "display": "Measure Population"
            } ]
          },
          "count": 1
        }, {
          "id": "MeasurePopulationExclusion_3",
          "code": {
            "coding": [ {
              "system": "http://terminology.hl7.org/CodeSystem/measure-population",
              "code": "measure-population-exclusion",
              "display": "Measure Population Exclusion"
            } ]
          },
          "count": 0
        }, {
          "id": "MeasureObservation_3_1",
          "code": {
            "coding": [ {
              "system": "http://terminology.hl7.org/CodeSystem/measure-population",
              "code": "measure-population-observation",
              "display": "Measure Population Observation"
            } ]
          },
          "count": 0
        } ],
        "measureScore": {
          "value": 0.0
        }
      }, {
        "id": "Group_4",
        "population": [ {
          "id": "InitialPopulation_4",
          "code": {
            "coding": [ {
              "system": "http://terminology.hl7.org/CodeSystem/measure-population",
              "code": "initial-population",
              "display": "Initial Population"
            } ]
          },
          "count": 1
        }, {
          "id": "MeasurePopulation_4",
          "code": {
            "coding": [ {
              "system": "http://terminology.hl7.org/CodeSystem/measure-population",
              "code": "measure-population",
              "display": "Measure Population"
            } ]
          },
          "count": 1
        }, {
          "id": "MeasurePopulationExclusion_4",
          "code": {
            "coding": [ {
              "system": "http://terminology.hl7.org/CodeSystem/measure-population",
              "code": "measure-population-exclusion",
              "display": "Measure Population Exclusion"
            } ]
          },
          "count": 0
        }, {
          "id": "MeasureObservation_4_1",
          "code": {
            "coding": [ {
              "system": "http://terminology.hl7.org/CodeSystem/measure-population",
              "code": "measure-population-observation",
              "display": "Measure Population Observation"
            } ]
          },
          "count": 0
        } ],
        "measureScore": {
          "value": 0.0
        }
      }, {
        "id": "Group_5",
        "population": [ {
          "id": "InitialPopulation_5",
          "code": {
            "coding": [ {
              "system": "http://terminology.hl7.org/CodeSystem/measure-population",
              "code": "initial-population",
              "display": "Initial Population"
            } ]
          },
          "count": 1
        }, {
          "id": "MeasurePopulation_5",
          "code": {
            "coding": [ {
              "system": "http://terminology.hl7.org/CodeSystem/measure-population",
              "code": "measure-population",
              "display": "Measure Population"
            } ]
          },
          "count": 1
        }, {
          "id": "MeasurePopulationExclusion_5",
          "code": {
            "coding": [ {
              "system": "http://terminology.hl7.org/CodeSystem/measure-population",
              "code": "measure-population-exclusion",
              "display": "Measure Population Exclusion"
            } ]
          },
          "count": 0
        }, {
          "id": "MeasureObservation_5_1",
          "code": {
            "coding": [ {
              "system": "http://terminology.hl7.org/CodeSystem/measure-population",
              "code": "measure-population-observation",
              "display": "Measure Population Observation"
            } ]
          },
          "count": 2
        } ],
        "measureScore": {
          "value": 0.0
        }
      }, {
        "id": "Group_6",
        "population": [ {
          "id": "InitialPopulation_6",
          "code": {
            "coding": [ {
              "system": "http://terminology.hl7.org/CodeSystem/measure-population",
              "code": "initial-population",
              "display": "Initial Population"
            } ]
          },
          "count": 1
        }, {
          "id": "MeasurePopulation_6",
          "code": {
            "coding": [ {
              "system": "http://terminology.hl7.org/CodeSystem/measure-population",
              "code": "measure-population",
              "display": "Measure Population"
            } ]
          },
          "count": 1
        }, {
          "id": "MeasurePopulationExclusion_6",
          "code": {
            "coding": [ {
              "system": "http://terminology.hl7.org/CodeSystem/measure-population",
              "code": "measure-population-exclusion",
              "display": "Measure Population Exclusion"
            } ]
          },
          "count": 0
        }, {
          "id": "MeasureObservation_6_1",
          "code": {
            "coding": [ {
              "system": "http://terminology.hl7.org/CodeSystem/measure-population",
              "code": "measure-population-observation",
              "display": "Measure Population Observation"
            } ]
          },
          "count": 100
        } ],
        "measureScore": {
          "value": 0.0
        }
      } ],
      "evaluatedResource": [ {
        "reference": "Patient/0c3b72aa-9a9b-468d-b2fb-95153a9136bc"
      }, {
        "reference": "Encounter/c2cb91ea-2eb6-464e-a20f-9e986b739895"
      }, {
        "reference": "Observation/2383b0bb-305e-44e0-86ea-f8e6b73eee82"
      }, {
        "reference": "Procedure/5b62d499-7328-4814-ad75-5e820a7878e2"
      }, {
        "reference": "Coverage/bfbda6ee-a514-4be6-95a4-d96ea213d0a2"
      }, {
        "reference": "Organization/976fe337-1528-443a-b06d-a26f9d43347f"
      } ]
    },
    "request": {
      "method": "PUT",
      "url": "MeasureReport/fc508ffa-baee-44fb-93e7-93a947d9d686"
    }
  } ]
}