{
  "resourceType": "Bundle",
  "id": "61095b0998086b53805591a5",
  "type": "transaction",
  "entry": [ {
    "fullUrl": "https://madie.cms.gov/Patient/34a7b6cd-b70b-4983-8d12-d13862ced1bf",
    "resource": {
      "resourceType": "Patient",
      "id": "34a7b6cd-b70b-4983-8d12-d13862ced1bf",
      "meta": {
        "profile": [ "http://hl7.org/fhir/us/qicore/StructureDefinition/qicore-patient" ]
      },
      "extension": [ {
        "url": "http://hl7.org/fhir/us/core/StructureDefinition/us-core-race",
        "extension": [ {
          "url": "ombCategory",
          "valueCoding": {
            "system": "urn:oid:2.16.840.1.113883.6.238",
            "code": "1002-5",
            "display": "American Indian or Alaska Native",
            "userSelected": true
          }
        }, {
          "url": "text",
          "valueString": "American Indian or Alaska Native"
        } ]
      }, {
        "url": "http://hl7.org/fhir/us/core/StructureDefinition/us-core-ethnicity",
        "extension": [ {
          "url": "ombCategory",
          "valueCoding": {
            "system": "urn:oid:2.16.840.1.113883.6.238",
            "code": "2135-2",
            "display": "Hispanic or Latino",
            "userSelected": true
          }
        }, {
          "url": "text",
          "valueString": "Hispanic or Latino"
        } ]
      } ],
      "identifier": [ {
        "type": {
          "coding": [ {
            "system": "http://terminology.hl7.org/CodeSystem/v2-0203",
            "code": "MR"
          } ]
        },
        "system": "https://bonnie-fhir.healthit.gov/",
        "value": "61095b0998086b53805591a5"
      } ],
      "active": true,
      "name": [ {
        "use": "usual",
        "family": "IPPass",
        "given": [ "Age18Jan1" ]
      } ],
      "gender": "female",
      "birthDate": "2022-01-01"
    },
    "request": {
      "method": "PUT",
      "url": "Patient/34a7b6cd-b70b-4983-8d12-d13862ced1bf"
    }
  }, {
    "fullUrl": "https://madie.cms.gov/Observation/8b568241-3337-4034-b3cf-65001543b331",
    "resource": {
      "resourceType": "Observation",
      "id": "8b568241-3337-4034-b3cf-65001543b331",
      "meta": {
        "profile": [ "http://hl7.org/fhir/us/qicore/StructureDefinition/qicore-observation-clinical-result" ]
      },
      "status": "final",
      "category": [ {
        "coding": [ {
          "system": "http://terminology.hl7.org/CodeSystem/observation-category",
          "code": "exam",
          "display": "Exam"
        } ]
      } ],
      "code": {
        "coding": [ {
          "system": "http://snomed.info/sct",
          "code": "419775003"
        } ]
      },
      "subject": {
        "reference": "Patient/34a7b6cd-b70b-4983-8d12-d13862ced1bf"
      },
      "effectivePeriod": {
        "start": "2025-03-13T09:00:00+00:00",
        "end": "2025-03-13T09:30:00+00:00"
      }
    },
    "request": {
      "method": "PUT",
      "url": "Observation/8b568241-3337-4034-b3cf-65001543b331"
    }
  }, {
    "fullUrl": "https://madie.cms.gov/Procedure/86e3139e-bb57-4840-a9c6-79f0f8942c1e",
    "resource": {
      "resourceType": "Procedure",
      "id": "86e3139e-bb57-4840-a9c6-79f0f8942c1e",
      "meta": {
        "profile": [ "http://hl7.org/fhir/us/qicore/StructureDefinition/qicore-procedure" ]
      },
      "extension": [ {
        "url": "http://hl7.org/fhir/us/qicore/StructureDefinition/qicore-recorded",
        "valueDateTime": "2025-03-05T09:35:00-04:00"
      } ],
      "status": "completed",
      "code": {
        "coding": [ {
          "system": "http://snomed.info/sct",
          "code": "84149000"
        } ]
      },
      "subject": {
        "reference": "Patient/34a7b6cd-b70b-4983-8d12-d13862ced1bf"
      },
      "performedPeriod": {
        "start": "2025-03-05T09:20:00-04:00",
        "end": "2025-04-05T10:30:00-04:00"
      }
    },
    "request": {
      "method": "PUT",
      "url": "Procedure/86e3139e-bb57-4840-a9c6-79f0f8942c1e"
    }
  }, {
    "fullUrl": "https://madie.cms.gov/Coverage/9bc8d512-d680-45da-a868-9acdb171703e",
    "resource": {
      "resourceType": "Coverage",
      "id": "9bc8d512-d680-45da-a868-9acdb171703e",
      "meta": {
        "profile": [ "http://hl7.org/fhir/us/qicore/StructureDefinition/qicore-coverage" ]
      },
      "status": "active",
      "beneficiary": {
        "reference": "Patient/34a7b6cd-b70b-4983-8d12-d13862ced1bf"
      },
      "payor": [ {
        "reference": "Organization/f57a9007-c8a3-4e38-b2de-c42bd2f1bcf7"
      } ]
    },
    "request": {
      "method": "PUT",
      "url": "Coverage/9bc8d512-d680-45da-a868-9acdb171703e"
    }
  }, {
    "fullUrl": "https://madie.cms.gov/Organization/f57a9007-c8a3-4e38-b2de-c42bd2f1bcf7",
    "resource": {
      "resourceType": "Organization",
      "id": "f57a9007-c8a3-4e38-b2de-c42bd2f1bcf7",
      "meta": {
        "profile": [ "http://hl7.org/fhir/us/qicore/StructureDefinition/qicore-organization" ]
      },
      "identifier": [ {
        "use": "temp",
        "system": "urn:oid:2.16.840.1.113883.4.4",
        "value": "21-3259825"
      } ],
      "active": true,
      "type": [ {
        "coding": [ {
          "system": "http://terminology.hl7.org/CodeSystem/organization-type",
          "code": "pay",
          "display": "Payer"
        } ]
      } ],
      "name": "Blue Cross Blue Shield of Texas",
      "telecom": [ {
        "system": "phone",
        "value": "(+1) 972-766-6900"
      } ],
      "address": [ {
        "use": "billing",
        "type": "postal",
        "line": [ "P.O. Box 660044" ],
        "city": "Dallas",
        "state": "TX",
        "postalCode": "75266-0044",
        "country": "USA"
      } ]
    },
    "request": {
      "method": "PUT",
      "url": "Organization/f57a9007-c8a3-4e38-b2de-c42bd2f1bcf7"
    }
  }, {
    "fullUrl": "https://madie.cms.gov/Practitioner/b8526e43-be0d-46ae-b20d-448bb51aa257",
    "resource": {
      "resourceType": "Practitioner",
      "id": "b8526e43-be0d-46ae-b20d-448bb51aa257",
      "meta": {
        "profile": [ "http://hl7.org/fhir/us/qicore/StructureDefinition/qicore-practitioner" ]
      },
      "identifier": [ {
        "system": "http://hl7.org/fhir/sid/us-npi",
        "value": "123456"
      } ],
      "name": [ {
        "family": "Evil",
        "prefix": [ "Dr" ]
      } ]
    },
    "request": {
      "method": "PUT",
      "url": "Practitioner/b8526e43-be0d-46ae-b20d-448bb51aa257"
    }
  }, {
    "fullUrl": "https://madie.cms.gov/MeasureReport/fdbbd134-9a79-40f9-acdd-13a27e9fcbbe",
    "resource": {
      "resourceType": "MeasureReport",
      "id": "fdbbd134-9a79-40f9-acdd-13a27e9fcbbe",
      "meta": {
        "profile": [ "http://hl7.org/fhir/us/cqfmeasures/StructureDefinition/test-case-cqfm" ]
      },
      "contained": [ {
        "resourceType": "Parameters",
        "id": "1434af84-50aa-4263-899b-0a9b96f15a14-parameters",
        "parameter": [ {
          "name": "subject",
          "valueString": "34a7b6cd-b70b-4983-8d12-d13862ced1bf"
        } ]
      } ],
      "extension": [ {
        "url": "http://hl7.org/fhir/StructureDefinition/cqf-inputParameters",
        "valueReference": {
          "reference": "#1434af84-50aa-4263-899b-0a9b96f15a14-parameters"
        }
      }, {
        "url": "http://hl7.org/fhir/us/cqfmeasures/StructureDefinition/cqfm-testCaseDescription",
        "valueMarkdown": "Patient is less than 18 years of age"
      } ],
      "modifierExtension": [ {
        "url": "http://hl7.org/fhir/us/cqfmeasures/StructureDefinition/cqfm-isTestCase",
        "valueBoolean": true
      } ],
      "status": "complete",
      "type": "individual",
      "measure": "https://madie.cms.gov/Measure/CMS133FHIRCataracts2040BCVAwithin90Days",
      "period": {
        "start": "2026-01-01",
        "end": "2026-12-31"
      },
      "group": [ {
        "id": "Group_1",
        "population": [ {
          "id": "InitialPopulation_1",
          "code": {
            "coding": [ {
              "system": "http://terminology.hl7.org/CodeSystem/measure-population",
              "code": "initial-population",
              "display": "Initial Population"
            } ]
          },
          "count": 0
        }, {
          "id": "Denominator_1",
          "code": {
            "coding": [ {
              "system": "http://terminology.hl7.org/CodeSystem/measure-population",
              "code": "denominator",
              "display": "Denominator"
            } ]
          },
          "count": 0
        }, {
          "id": "DenominatorExclusion_1",
          "code": {
            "coding": [ {
              "system": "http://terminology.hl7.org/CodeSystem/measure-population",
              "code": "denominator-exclusion",
              "display": "Denominator Exclusion"
            } ]
          },
          "count": 0
        }, {
          "id": "Numerator_1",
          "code": {
            "coding": [ {
              "system": "http://terminology.hl7.org/CodeSystem/measure-population",
              "code": "numerator",
              "display": "Numerator"
            } ]
          },
          "count": 0
        } ],
        "measureScore": {
          "value": 0.0
        }
      } ],
      "evaluatedResource": [ {
        "reference": "Patient/34a7b6cd-b70b-4983-8d12-d13862ced1bf"
      }, {
        "reference": "Observation/8b568241-3337-4034-b3cf-65001543b331"
      }, {
        "reference": "Procedure/86e3139e-bb57-4840-a9c6-79f0f8942c1e"
      }, {
        "reference": "Coverage/9bc8d512-d680-45da-a868-9acdb171703e"
      }, {
        "reference": "Organization/f57a9007-c8a3-4e38-b2de-c42bd2f1bcf7"
      }, {
        "reference": "Practitioner/b8526e43-be0d-46ae-b20d-448bb51aa257"
      } ]
    },
    "request": {
      "method": "PUT",
      "url": "MeasureReport/fdbbd134-9a79-40f9-acdd-13a27e9fcbbe"
    }
  } ]
}