{
  "resourceType": "Bundle",
  "id": "46313213416131",
  "type": "transaction",
  "entry": [ {
    "fullUrl": "https://madie.cms.gov/Patient/5914457a-816c-43fe-86da-07fcc42ebe61",
    "resource": {
      "resourceType": "Patient",
      "id": "5914457a-816c-43fe-86da-07fcc42ebe61",
      "meta": {
        "profile": [ "http://hl7.org/fhir/us/qicore/StructureDefinition/qicore-patient" ]
      },
      "extension": [ {
        "url": "http://hl7.org/fhir/us/core/StructureDefinition/us-core-race",
        "extension": [ {
          "url": "ombCategory",
          "valueCoding": {
            "system": "urn:oid:2.16.840.1.113883.6.238",
            "code": "2076-8",
            "display": "Native Hawaiian or Other Pacific Islander"
          }
        }, {
          "url": "text",
          "valueString": "Native Hawaiian or Other Pacific Islander"
        } ]
      }, {
        "url": "http://hl7.org/fhir/us/core/StructureDefinition/us-core-ethnicity",
        "extension": [ {
          "url": "ombCategory",
          "valueCoding": {
            "system": "urn:oid:2.16.840.1.113883.6.238",
            "code": "2186-5",
            "display": "Not Hispanic or Latino"
          }
        }, {
          "url": "text",
          "valueString": "Not Hispanic or Latino"
        } ]
      } ],
      "identifier": [ {
        "type": {
          "coding": [ {
            "system": "http://terminology.hl7.org/CodeSystem/v2-0203",
            "code": "MR"
          } ]
        },
        "system": "https://bonnie-fhir.healthit.gov/",
        "value": "46431231346541"
      } ],
      "active": true,
      "name": [ {
        "use": "usual",
        "family": "DENOMEXCEPFail",
        "given": [ "AVBlockDxCardiacPacemaker" ]
      } ],
      "gender": "male",
      "birthDate": "1972-12-30"
    },
    "request": {
      "method": "PUT",
      "url": "Patient/5914457a-816c-43fe-86da-07fcc42ebe61"
    }
  }, {
    "fullUrl": "https://madie.cms.gov/Encounter/8378c30f-21fa-49aa-b748-88c05f74f607",
    "resource": {
      "resourceType": "Encounter",
      "id": "8378c30f-21fa-49aa-b748-88c05f74f607",
      "meta": {
        "profile": [ "http://hl7.org/fhir/us/qicore/StructureDefinition/qicore-encounter" ]
      },
      "status": "finished",
      "class": {
        "system": "http://terminology.hl7.org/CodeSystem/v3-ActCode",
        "code": "AMB",
        "display": "ambulatory"
      },
      "type": [ {
        "coding": [ {
          "system": "http://www.ama-assn.org/go/cpt",
          "version": "2024",
          "code": "99213"
        } ]
      } ],
      "subject": {
        "reference": "Patient/5914457a-816c-43fe-86da-07fcc42ebe61"
      },
      "period": {
        "start": "2026-04-14T14:40:00.000+00:00",
        "end": "2026-04-14T14:50:00.000+00:00"
      },
      "length": {
        "value": 0,
        "unit": "days"
      }
    },
    "request": {
      "method": "PUT",
      "url": "Encounter/8378c30f-21fa-49aa-b748-88c05f74f607"
    }
  }, {
    "fullUrl": "https://madie.cms.gov/Encounter/c8cdcdf8-a960-4841-92b4-a5ab9b53062c",
    "resource": {
      "resourceType": "Encounter",
      "id": "c8cdcdf8-a960-4841-92b4-a5ab9b53062c",
      "meta": {
        "profile": [ "http://hl7.org/fhir/us/qicore/StructureDefinition/qicore-encounter" ]
      },
      "status": "finished",
      "class": {
        "system": "http://terminology.hl7.org/CodeSystem/v3-ActCode",
        "code": "AMB",
        "display": "ambulatory"
      },
      "type": [ {
        "coding": [ {
          "system": "http://www.ama-assn.org/go/cpt",
          "version": "2024",
          "code": "99212"
        } ]
      } ],
      "subject": {
        "reference": "Patient/5914457a-816c-43fe-86da-07fcc42ebe61"
      },
      "period": {
        "start": "2026-07-20T11:50:00.000+00:00",
        "end": "2026-07-20T11:50:00.000+00:00"
      },
      "length": {
        "value": 0,
        "unit": "days"
      }
    },
    "request": {
      "method": "PUT",
      "url": "Encounter/c8cdcdf8-a960-4841-92b4-a5ab9b53062c"
    }
  }, {
    "fullUrl": "https://madie.cms.gov/Condition/5a746861-a99a-4c4d-8d1c-931809ee75f4",
    "resource": {
      "resourceType": "Condition",
      "id": "5a746861-a99a-4c4d-8d1c-931809ee75f4",
      "meta": {
        "profile": [ "http://hl7.org/fhir/us/qicore/StructureDefinition/qicore-condition-problems-health-concerns" ]
      },
      "clinicalStatus": {
        "coding": [ {
          "system": "http://terminology.hl7.org/CodeSystem/condition-clinical",
          "code": "active",
          "display": "Active"
        } ]
      },
      "verificationStatus": {
        "coding": [ {
          "system": "http://terminology.hl7.org/CodeSystem/condition-ver-status",
          "code": "confirmed",
          "display": "Confirmed"
        } ]
      },
      "category": [ {
        "coding": [ {
          "system": "http://terminology.hl7.org/CodeSystem/condition-category",
          "code": "problem-list-item",
          "display": "Problem List Item"
        } ]
      } ],
      "code": {
        "coding": [ {
          "system": "http://hl7.org/fhir/sid/icd-10-cm",
          "version": "2024",
          "code": "I11.0"
        } ]
      },
      "subject": {
        "reference": "Patient/5914457a-816c-43fe-86da-07fcc42ebe61"
      },
      "onsetPeriod": {
        "start": "2026-04-11T10:00:00.000+00:00"
      }
    },
    "request": {
      "method": "PUT",
      "url": "Condition/5a746861-a99a-4c4d-8d1c-931809ee75f4"
    }
  }, {
    "fullUrl": "https://madie.cms.gov/Condition/2728cb33-65a7-4b69-b71c-4faace85c1e1",
    "resource": {
      "resourceType": "Condition",
      "id": "2728cb33-65a7-4b69-b71c-4faace85c1e1",
      "meta": {
        "profile": [ "http://hl7.org/fhir/us/qicore/StructureDefinition/qicore-condition-problems-health-concerns" ]
      },
      "clinicalStatus": {
        "coding": [ {
          "system": "http://terminology.hl7.org/CodeSystem/condition-clinical",
          "code": "active",
          "display": "Active"
        } ]
      },
      "verificationStatus": {
        "coding": [ {
          "system": "http://terminology.hl7.org/CodeSystem/condition-ver-status",
          "code": "confirmed",
          "display": "Confirmed"
        } ]
      },
      "category": [ {
        "coding": [ {
          "system": "http://terminology.hl7.org/CodeSystem/condition-category",
          "code": "problem-list-item",
          "display": "Problem List Item"
        } ]
      } ],
      "severity": {
        "coding": [ {
          "system": "http://snomed.info/sct",
          "version": "http://snomed.info/sct/731000124108/version/20240301",
          "code": "24484000",
          "display": "Severe (severity modifier) (qualifier value)"
        } ]
      },
      "code": {
        "coding": [ {
          "system": "http://snomed.info/sct",
          "version": "http://snomed.info/sct/731000124108/version/20240301",
          "code": "134401001",
          "display": "Left ventricular systolic dysfunction (disorder)"
        } ]
      },
      "subject": {
        "reference": "Patient/5914457a-816c-43fe-86da-07fcc42ebe61"
      },
      "onsetPeriod": {
        "start": "2026-04-14T14:41:00.000+00:00"
      }
    },
    "request": {
      "method": "PUT",
      "url": "Condition/2728cb33-65a7-4b69-b71c-4faace85c1e1"
    }
  }, {
    "fullUrl": "https://madie.cms.gov/Condition/4b70a96a-82ba-43a7-8819-6dddb3070b88",
    "resource": {
      "resourceType": "Condition",
      "id": "4b70a96a-82ba-43a7-8819-6dddb3070b88",
      "meta": {
        "profile": [ "http://hl7.org/fhir/us/qicore/StructureDefinition/qicore-condition-problems-health-concerns" ]
      },
      "clinicalStatus": {
        "coding": [ {
          "system": "http://terminology.hl7.org/CodeSystem/condition-clinical",
          "code": "active",
          "display": "Active"
        } ]
      },
      "verificationStatus": {
        "coding": [ {
          "system": "http://terminology.hl7.org/CodeSystem/condition-ver-status",
          "code": "confirmed",
          "display": "Confirmed"
        } ]
      },
      "category": [ {
        "coding": [ {
          "system": "http://terminology.hl7.org/CodeSystem/condition-category",
          "code": "problem-list-item",
          "display": "Problem List Item"
        } ]
      } ],
      "code": {
        "coding": [ {
          "system": "http://snomed.info/sct",
          "version": "http://snomed.info/sct/731000124108/version/20240301",
          "code": "195042002",
          "display": "Second degree atrioventricular block (disorder)"
        } ]
      },
      "subject": {
        "reference": "Patient/5914457a-816c-43fe-86da-07fcc42ebe61"
      },
      "onsetPeriod": {
        "start": "2026-01-20T14:32:00.000+00:00"
      }
    },
    "request": {
      "method": "PUT",
      "url": "Condition/4b70a96a-82ba-43a7-8819-6dddb3070b88"
    }
  }, {
    "fullUrl": "https://madie.cms.gov/Procedure/8241555c-24f1-4834-a782-45dba3a76a8b",
    "resource": {
      "resourceType": "Procedure",
      "id": "8241555c-24f1-4834-a782-45dba3a76a8b",
      "meta": {
        "profile": [ "http://hl7.org/fhir/us/qicore/StructureDefinition/qicore-procedure" ]
      },
      "extension": [ {
        "url": "http://hl7.org/fhir/us/qicore/StructureDefinition/qicore-recorded",
        "valueDateTime": "2025-06-05T13:20:00.000+00:00"
      } ],
      "status": "completed",
      "code": {
        "coding": [ {
          "system": "http://snomed.info/sct",
          "version": "http://snomed.info/sct/731000124108/version/20230301",
          "code": "175142009",
          "display": "Implantation of permanent intravenous cardiac pacemaker (procedure)"
        } ]
      },
      "subject": {
        "reference": "Patient/5914457a-816c-43fe-86da-07fcc42ebe61"
      },
      "performedPeriod": {
        "start": "2025-06-05T13:20:00.000+00:00",
        "end": "2025-06-05T14:30:00.000+00:00"
      }
    },
    "request": {
      "method": "PUT",
      "url": "Procedure/8241555c-24f1-4834-a782-45dba3a76a8b"
    }
  }, {
    "fullUrl": "https://madie.cms.gov/MeasureReport/d763316c-8774-4883-92b5-9f425d00059c",
    "resource": {
      "resourceType": "MeasureReport",
      "id": "d763316c-8774-4883-92b5-9f425d00059c",
      "meta": {
        "profile": [ "http://hl7.org/fhir/us/cqfmeasures/StructureDefinition/test-case-cqfm" ]
      },
      "contained": [ {
        "resourceType": "Parameters",
        "id": "b903642f-fa77-496c-9ab0-3c8840eeea48-parameters",
        "parameter": [ {
          "name": "subject",
          "valueString": "5914457a-816c-43fe-86da-07fcc42ebe61"
        } ]
      } ],
      "extension": [ {
        "url": "http://hl7.org/fhir/StructureDefinition/cqf-inputParameters",
        "valueReference": {
          "reference": "#b903642f-fa77-496c-9ab0-3c8840eeea48-parameters"
        }
      }, {
        "url": "http://hl7.org/fhir/us/cqfmeasures/StructureDefinition/cqfm-testCaseDescription",
        "valueMarkdown": "Patient has qualifying AV Block for denominator exception but also has hx of Cardiac Pacemaker which negates denominator exception."
      } ],
      "modifierExtension": [ {
        "url": "http://hl7.org/fhir/us/cqfmeasures/StructureDefinition/cqfm-isTestCase",
        "valueBoolean": true
      } ],
      "status": "complete",
      "type": "individual",
      "measure": "https://madie.cms.gov/Measure/CMS144FHIRHFBetaBlockerTherapyforLVSD",
      "period": {
        "start": "2026-01-01",
        "end": "2026-12-31"
      },
      "group": [ {
        "id": "Group_1",
        "population": [ {
          "id": "InitialPopulation_1",
          "code": {
            "coding": [ {
              "system": "http://terminology.hl7.org/CodeSystem/measure-population",
              "code": "initial-population",
              "display": "Initial Population"
            } ]
          },
          "count": 1
        }, {
          "id": "Denominator_1",
          "code": {
            "coding": [ {
              "system": "http://terminology.hl7.org/CodeSystem/measure-population",
              "code": "denominator",
              "display": "Denominator"
            } ]
          },
          "count": 1
        }, {
          "id": "DenominatorExclusion_1",
          "code": {
            "coding": [ {
              "system": "http://terminology.hl7.org/CodeSystem/measure-population",
              "code": "denominator-exclusion",
              "display": "Denominator Exclusion"
            } ]
          },
          "count": 0
        }, {
          "id": "Numerator_1",
          "code": {
            "coding": [ {
              "system": "http://terminology.hl7.org/CodeSystem/measure-population",
              "code": "numerator",
              "display": "Numerator"
            } ]
          },
          "count": 0
        }, {
          "id": "DenominatorException_1",
          "code": {
            "coding": [ {
              "system": "http://terminology.hl7.org/CodeSystem/measure-population",
              "code": "denominator-exception",
              "display": "Denominator Exception"
            } ]
          },
          "count": 0
        } ],
        "measureScore": {
          "value": 1.0
        }
      } ],
      "evaluatedResource": [ {
        "reference": "Patient/5914457a-816c-43fe-86da-07fcc42ebe61"
      }, {
        "reference": "Encounter/8378c30f-21fa-49aa-b748-88c05f74f607"
      }, {
        "reference": "Encounter/c8cdcdf8-a960-4841-92b4-a5ab9b53062c"
      }, {
        "reference": "Condition/5a746861-a99a-4c4d-8d1c-931809ee75f4"
      }, {
        "reference": "Condition/2728cb33-65a7-4b69-b71c-4faace85c1e1"
      }, {
        "reference": "Condition/4b70a96a-82ba-43a7-8819-6dddb3070b88"
      }, {
        "reference": "Procedure/8241555c-24f1-4834-a782-45dba3a76a8b"
      } ]
    },
    "request": {
      "method": "PUT",
      "url": "MeasureReport/d763316c-8774-4883-92b5-9f425d00059c"
    }
  } ]
}