{
  "resourceType": "Bundle",
  "id": "612e6aef02c62a011f2ebd2e",
  "type": "transaction",
  "entry": [ {
    "fullUrl": "https://madie.cms.gov/Patient/bc83eb4d-4953-4995-9a14-5e2a764a6728",
    "resource": {
      "resourceType": "Patient",
      "id": "bc83eb4d-4953-4995-9a14-5e2a764a6728",
      "meta": {
        "profile": [ "http://hl7.org/fhir/us/qicore/StructureDefinition/qicore-patient" ]
      },
      "text": {
        "status": "generated",
        "div": "<div xmlns=\"http://www.w3.org/1999/xhtml\"><div class=\"hapiHeaderText\">TestMultipleOccur_1inExcl1inNum <b>NUMERPASS </b></div><table class=\"hapiPropertyTable\"><tbody><tr><td>Identifier</td><td>c25140d0e4b4dc40f8f038d62a9837e3e354787555978149ab2cc0d8c8c47525</td></tr><tr><td>Date of birth</td><td><span>02 January 1974</span></td></tr></tbody></table></div>"
      },
      "extension": [ {
        "url": "http://hl7.org/fhir/us/core/StructureDefinition/us-core-race",
        "extension": [ {
          "url": "ombCategory",
          "valueCoding": {
            "system": "urn:oid:2.16.840.1.113883.6.238",
            "code": "1002-5",
            "display": "American Indian or Alaska Native",
            "userSelected": true
          }
        }, {
          "url": "text",
          "valueString": "American Indian or Alaska Native"
        } ]
      }, {
        "url": "http://hl7.org/fhir/us/core/StructureDefinition/us-core-ethnicity",
        "extension": [ {
          "url": "ombCategory",
          "valueCoding": {
            "system": "urn:oid:2.16.840.1.113883.6.238",
            "code": "2135-2",
            "display": "Hispanic or Latino",
            "userSelected": true
          }
        }, {
          "url": "text",
          "valueString": "Hispanic or Latino"
        } ]
      } ],
      "identifier": [ {
        "type": {
          "coding": [ {
            "system": "http://terminology.hl7.org/CodeSystem/v2-0203",
            "code": "MR"
          } ]
        },
        "system": "https://bonnie-fhir.healthit.gov/",
        "value": "612e6aef02c62a011f2ebd2e"
      } ],
      "active": true,
      "name": [ {
        "use": "usual",
        "family": "NUMERPass",
        "given": [ "TestMultipleOccur_1inExcl1inNum" ]
      } ],
      "gender": "male",
      "birthDate": "1975-01-02"
    },
    "request": {
      "method": "PUT",
      "url": "Patient/bc83eb4d-4953-4995-9a14-5e2a764a6728"
    }
  }, {
    "fullUrl": "https://madie.cms.gov/Encounter/68eb693f-18fe-40f8-9d91-90a01a3e5690",
    "resource": {
      "resourceType": "Encounter",
      "id": "68eb693f-18fe-40f8-9d91-90a01a3e5690",
      "meta": {
        "profile": [ "http://hl7.org/fhir/us/qicore/StructureDefinition/qicore-encounter" ]
      },
      "status": "finished",
      "class": {
        "system": "http://terminology.hl7.org/CodeSystem/v3-ActCode",
        "code": "IMP",
        "display": "inpatient encounter"
      },
      "type": [ {
        "coding": [ {
          "system": "http://snomed.info/sct",
          "code": "183452005"
        } ]
      } ],
      "subject": {
        "reference": "Patient/bc83eb4d-4953-4995-9a14-5e2a764a6728"
      },
      "period": {
        "start": "2026-04-01T08:00:00.000+00:00",
        "end": "2026-04-05T08:15:00.000+00:00"
      },
      "length": {
        "value": 4.0,
        "unit": "days"
      }
    },
    "request": {
      "method": "PUT",
      "url": "Encounter/68eb693f-18fe-40f8-9d91-90a01a3e5690"
    }
  }, {
    "fullUrl": "https://madie.cms.gov/Encounter/d177670e-fc8a-4423-aa68-64341628f687",
    "resource": {
      "resourceType": "Encounter",
      "id": "d177670e-fc8a-4423-aa68-64341628f687",
      "meta": {
        "profile": [ "http://hl7.org/fhir/us/qicore/StructureDefinition/qicore-encounter" ]
      },
      "status": "finished",
      "class": {
        "system": "http://terminology.hl7.org/CodeSystem/v3-ActCode",
        "code": "IMP",
        "display": "inpatient encounter"
      },
      "type": [ {
        "coding": [ {
          "system": "http://snomed.info/sct",
          "code": "8715000"
        } ]
      } ],
      "subject": {
        "reference": "Patient/bc83eb4d-4953-4995-9a14-5e2a764a6728"
      },
      "period": {
        "start": "2026-11-01T08:00:00.000+00:00",
        "end": "2026-11-26T08:15:00.000+00:00"
      },
      "length": {
        "value": 25.0,
        "unit": "days"
      }
    },
    "request": {
      "method": "PUT",
      "url": "Encounter/d177670e-fc8a-4423-aa68-64341628f687"
    }
  }, {
    "fullUrl": "https://madie.cms.gov/Procedure/0e53d87e-1588-4f02-a50f-0a4b27ff67fc",
    "resource": {
      "resourceType": "Procedure",
      "id": "0e53d87e-1588-4f02-a50f-0a4b27ff67fc",
      "meta": {
        "profile": [ "http://hl7.org/fhir/us/qicore/StructureDefinition/qicore-procedure" ]
      },
      "extension": [ {
        "url": "http://hl7.org/fhir/us/qicore/StructureDefinition/qicore-recorded",
        "valueDateTime": "2013-04-03T13:35:00.000+00:00"
      } ],
      "status": "completed",
      "code": {
        "coding": [ {
          "system": "http://snomed.info/sct",
          "code": "133918004"
        } ]
      },
      "subject": {
        "reference": "Patient/bc83eb4d-4953-4995-9a14-5e2a764a6728"
      },
      "performedPeriod": {
        "start": "2026-04-01T08:00:00.000+00:00",
        "end": "2026-04-01T08:15:00.000+00:00"
      }
    },
    "request": {
      "method": "PUT",
      "url": "Procedure/0e53d87e-1588-4f02-a50f-0a4b27ff67fc"
    }
  }, {
    "fullUrl": "https://madie.cms.gov/Coverage/9070b384-4660-41e1-85f6-730d67e6cc21",
    "resource": {
      "resourceType": "Coverage",
      "id": "9070b384-4660-41e1-85f6-730d67e6cc21",
      "status": "active",
      "beneficiary": {
        "reference": "Patient/bc83eb4d-4953-4995-9a14-5e2a764a6728"
      },
      "period": {
        "start": "1975-01-02T08:00:00.000+00:00"
      },
      "payor": [ {
        "reference": "Organization/b314990f-be44-4850-8319-e22198baac80"
      } ]
    },
    "request": {
      "method": "PUT",
      "url": "Coverage/9070b384-4660-41e1-85f6-730d67e6cc21"
    }
  }, {
    "fullUrl": "https://madie.cms.gov/MedicationAdministration/92813335-f925-4cc0-a9c5-ccf3a7e236d3",
    "resource": {
      "resourceType": "MedicationAdministration",
      "id": "92813335-f925-4cc0-a9c5-ccf3a7e236d3",
      "meta": {
        "profile": [ "http://hl7.org/fhir/us/qicore/StructureDefinition/qicore-medicationadministration" ]
      },
      "status": "completed",
      "medicationCodeableConcept": {
        "coding": [ {
          "system": "http://www.nlm.nih.gov/research/umls/rxnorm",
          "code": "855288",
          "display": "warfarin sodium 1 MG Oral Tablet",
          "userSelected": true
        } ]
      },
      "subject": {
        "reference": "Patient/bc83eb4d-4953-4995-9a14-5e2a764a6728"
      },
      "effectiveDateTime": "2026-11-01T10:00:00.000+00:00"
    },
    "request": {
      "method": "PUT",
      "url": "MedicationAdministration/92813335-f925-4cc0-a9c5-ccf3a7e236d3"
    }
  }, {
    "fullUrl": "https://madie.cms.gov/Organization/b314990f-be44-4850-8319-e22198baac80",
    "resource": {
      "resourceType": "Organization",
      "id": "b314990f-be44-4850-8319-e22198baac80",
      "meta": {
        "profile": [ "http://hl7.org/fhir/us/qicore/StructureDefinition/qicore-organization" ]
      },
      "identifier": [ {
        "use": "temp",
        "system": "urn:oid:2.16.840.1.113883.4.4",
        "value": "21-3259825"
      } ],
      "active": true,
      "type": [ {
        "coding": [ {
          "system": "http://terminology.hl7.org/CodeSystem/organization-type",
          "code": "pay",
          "display": "Payer"
        } ]
      } ],
      "name": "Blue Cross Blue Shield of Texas",
      "telecom": [ {
        "system": "phone",
        "value": "(+1) 972-766-6900"
      } ],
      "address": [ {
        "use": "billing",
        "type": "postal",
        "line": [ "P.O. Box 660044" ],
        "city": "Dallas",
        "state": "TX",
        "postalCode": "75266-0044",
        "country": "USA"
      } ]
    },
    "request": {
      "method": "PUT",
      "url": "Organization/b314990f-be44-4850-8319-e22198baac80"
    }
  }, {
    "fullUrl": "https://madie.cms.gov/Practitioner/44bd508b-ae01-423e-960f-2ea0936fbad7",
    "resource": {
      "resourceType": "Practitioner",
      "id": "44bd508b-ae01-423e-960f-2ea0936fbad7",
      "identifier": [ {
        "system": "http://hl7.org/fhir/sid/us-npi",
        "value": "123456"
      } ],
      "name": [ {
        "family": "Evil",
        "prefix": [ "Dr" ]
      } ]
    },
    "request": {
      "method": "PUT",
      "url": "Practitioner/44bd508b-ae01-423e-960f-2ea0936fbad7"
    }
  }, {
    "fullUrl": "https://madie.cms.gov/MeasureReport/fa22357b-253b-435b-87a8-db4bf4b28638",
    "resource": {
      "resourceType": "MeasureReport",
      "id": "fa22357b-253b-435b-87a8-db4bf4b28638",
      "meta": {
        "profile": [ "http://hl7.org/fhir/us/cqfmeasures/StructureDefinition/test-case-cqfm" ]
      },
      "contained": [ {
        "resourceType": "Parameters",
        "id": "1c3b3423-6c06-44a6-8bdf-0d5f011c48b5-parameters",
        "parameter": [ {
          "name": "subject",
          "valueString": "bc83eb4d-4953-4995-9a14-5e2a764a6728"
        } ]
      } ],
      "extension": [ {
        "url": "http://hl7.org/fhir/StructureDefinition/cqf-inputParameters",
        "valueReference": {
          "reference": "#1c3b3423-6c06-44a6-8bdf-0d5f011c48b5-parameters"
        }
      }, {
        "url": "http://hl7.org/fhir/us/cqfmeasures/StructureDefinition/cqfm-testCaseDescription",
        "valueMarkdown": "TestMultipleOccur - 2 occurrences one is excluded due to COMP and one pass numerator\n"
      } ],
      "modifierExtension": [ {
        "url": "http://hl7.org/fhir/us/cqfmeasures/StructureDefinition/cqfm-isTestCase",
        "valueBoolean": true
      } ],
      "status": "complete",
      "type": "individual",
      "measure": "https://madie.cms.gov/Measure/CMS108FHIRVTEProphylaxis",
      "period": {
        "start": "2026-01-01",
        "end": "2026-12-31"
      },
      "group": [ {
        "id": "Group_1",
        "population": [ {
          "id": "InitialPopulation_1",
          "code": {
            "coding": [ {
              "system": "http://terminology.hl7.org/CodeSystem/measure-population",
              "code": "initial-population",
              "display": "Initial Population"
            } ]
          },
          "count": 2
        }, {
          "id": "Denominator_1",
          "code": {
            "coding": [ {
              "system": "http://terminology.hl7.org/CodeSystem/measure-population",
              "code": "denominator",
              "display": "Denominator"
            } ]
          },
          "count": 2
        }, {
          "id": "DenominatorExclusion_1",
          "code": {
            "coding": [ {
              "system": "http://terminology.hl7.org/CodeSystem/measure-population",
              "code": "denominator-exclusion",
              "display": "Denominator Exclusion"
            } ]
          },
          "count": 1
        }, {
          "id": "Numerator_1",
          "code": {
            "coding": [ {
              "system": "http://terminology.hl7.org/CodeSystem/measure-population",
              "code": "numerator",
              "display": "Numerator"
            } ]
          },
          "count": 1
        } ],
        "measureScore": {
          "value": 0.0
        }
      } ],
      "evaluatedResource": [ {
        "reference": "Patient/bc83eb4d-4953-4995-9a14-5e2a764a6728"
      }, {
        "reference": "Encounter/68eb693f-18fe-40f8-9d91-90a01a3e5690"
      }, {
        "reference": "Encounter/d177670e-fc8a-4423-aa68-64341628f687"
      }, {
        "reference": "Procedure/0e53d87e-1588-4f02-a50f-0a4b27ff67fc"
      }, {
        "reference": "Coverage/9070b384-4660-41e1-85f6-730d67e6cc21"
      }, {
        "reference": "MedicationAdministration/92813335-f925-4cc0-a9c5-ccf3a7e236d3"
      }, {
        "reference": "Organization/b314990f-be44-4850-8319-e22198baac80"
      }, {
        "reference": "Practitioner/44bd508b-ae01-423e-960f-2ea0936fbad7"
      } ]
    },
    "request": {
      "method": "PUT",
      "url": "MeasureReport/fa22357b-253b-435b-87a8-db4bf4b28638"
    }
  } ]
}