{
  "resourceType": "Bundle",
  "id": "610965b898086b538055c148",
  "type": "transaction",
  "entry": [ {
    "fullUrl": "https://madie.cms.gov/Patient/b8161404-686d-4ce4-b291-e7a02ffe7b7e",
    "resource": {
      "resourceType": "Patient",
      "id": "b8161404-686d-4ce4-b291-e7a02ffe7b7e",
      "meta": {
        "profile": [ "http://hl7.org/fhir/us/qicore/StructureDefinition/qicore-patient" ]
      },
      "text": {
        "status": "generated",
        "div": "<div xmlns=\"http://www.w3.org/1999/xhtml\"><div class=\"hapiHeaderText\">HIVDxStartsBeforeMP <b>DENEXPASS </b></div><table class=\"hapiPropertyTable\"><tbody><tr><td>Identifier</td><td>2e018364c6429d86aa80f683de5e74e7a50fffb7aca212439727c6b1a84ba85b</td></tr><tr><td>Date of birth</td><td><span>31 July 1992</span></td></tr></tbody></table></div>"
      },
      "extension": [ {
        "url": "http://hl7.org/fhir/us/core/StructureDefinition/us-core-race",
        "extension": [ {
          "url": "ombCategory",
          "valueCoding": {
            "system": "urn:oid:2.16.840.1.113883.6.238",
            "code": "2076-8",
            "display": "Native Hawaiian or Other Pacific Islander",
            "userSelected": true
          }
        }, {
          "url": "text",
          "valueString": "Native Hawaiian or Other Pacific Islander"
        } ]
      }, {
        "url": "http://hl7.org/fhir/us/core/StructureDefinition/us-core-ethnicity",
        "extension": [ {
          "url": "ombCategory",
          "valueCoding": {
            "system": "urn:oid:2.16.840.1.113883.6.238",
            "code": "2135-2",
            "display": "Hispanic or Latino",
            "userSelected": true
          }
        }, {
          "url": "text",
          "valueString": "Hispanic or Latino"
        } ]
      } ],
      "identifier": [ {
        "type": {
          "coding": [ {
            "system": "http://terminology.hl7.org/CodeSystem/v2-0203",
            "code": "MR"
          } ]
        },
        "system": "https://bonnie-fhir.healthit.gov/",
        "value": "610965b898086b538055c148"
      } ],
      "active": true,
      "name": [ {
        "use": "usual",
        "family": "DENEXPass",
        "given": [ "HIVDxStartsBeforeMP" ]
      } ],
      "gender": "male",
      "birthDate": "1994-07-31"
    },
    "request": {
      "method": "PUT",
      "url": "Patient/b8161404-686d-4ce4-b291-e7a02ffe7b7e"
    }
  }, {
    "fullUrl": "https://madie.cms.gov/Encounter/eda811b1-8529-4c2d-baba-37941bee6c87",
    "resource": {
      "resourceType": "Encounter",
      "id": "eda811b1-8529-4c2d-baba-37941bee6c87",
      "meta": {
        "profile": [ "http://hl7.org/fhir/us/qicore/StructureDefinition/qicore-encounter" ]
      },
      "status": "finished",
      "class": {
        "system": "http://terminology.hl7.org/CodeSystem/v3-ActCode",
        "code": "AMB",
        "display": "ambulatory",
        "userSelected": true
      },
      "type": [ {
        "coding": [ {
          "system": "http://www.ama-assn.org/go/cpt",
          "code": "99385"
        } ]
      } ],
      "subject": {
        "reference": "Patient/b8161404-686d-4ce4-b291-e7a02ffe7b7e"
      },
      "period": {
        "start": "2026-10-24T08:00:00.000+00:00",
        "end": "2026-10-24T08:15:00.000+00:00"
      }
    },
    "request": {
      "method": "PUT",
      "url": "Encounter/eda811b1-8529-4c2d-baba-37941bee6c87"
    }
  }, {
    "fullUrl": "https://madie.cms.gov/Condition/93584bd9-a8e0-4f4a-aa82-f6300931d5e2",
    "resource": {
      "resourceType": "Condition",
      "id": "93584bd9-a8e0-4f4a-aa82-f6300931d5e2",
      "meta": {
        "profile": [ "http://hl7.org/fhir/us/qicore/StructureDefinition/qicore-condition-encounter-diagnosis" ]
      },
      "clinicalStatus": {
        "coding": [ {
          "system": "http://terminology.hl7.org/CodeSystem/condition-clinical",
          "code": "active",
          "display": "active",
          "userSelected": true
        } ]
      },
      "category": [ {
        "coding": [ {
          "system": "http://terminology.hl7.org/CodeSystem/condition-category",
          "code": "encounter-diagnosis",
          "display": "Encounter Diagnosis",
          "userSelected": true
        } ]
      } ],
      "code": {
        "coding": [ {
          "system": "http://snomed.info/sct",
          "code": "165816005",
          "userSelected": true
        } ]
      },
      "subject": {
        "reference": "Patient/b8161404-686d-4ce4-b291-e7a02ffe7b7e"
      },
      "onsetDateTime": "2013-03-29T08:00:00.000+00:00"
    },
    "request": {
      "method": "PUT",
      "url": "Condition/93584bd9-a8e0-4f4a-aa82-f6300931d5e2"
    }
  }, {
    "fullUrl": "https://madie.cms.gov/MeasureReport/16db9b7a-b042-4b36-8ba2-72f043640dc4",
    "resource": {
      "resourceType": "MeasureReport",
      "id": "16db9b7a-b042-4b36-8ba2-72f043640dc4",
      "meta": {
        "profile": [ "http://hl7.org/fhir/us/cqfmeasures/StructureDefinition/test-case-cqfm" ]
      },
      "contained": [ {
        "resourceType": "Parameters",
        "id": "2866074d-5e5c-42ff-8cb7-a25c51b56a54-parameters",
        "parameter": [ {
          "name": "subject",
          "valueString": "b8161404-686d-4ce4-b291-e7a02ffe7b7e"
        } ]
      } ],
      "extension": [ {
        "url": "http://hl7.org/fhir/StructureDefinition/cqf-inputParameters",
        "valueReference": {
          "reference": "#2866074d-5e5c-42ff-8cb7-a25c51b56a54-parameters"
        }
      }, {
        "url": "http://hl7.org/fhir/us/cqfmeasures/StructureDefinition/cqfm-testCaseDescription",
        "valueMarkdown": "Patient 31 at start of MP, qualifying encounter during MP, HIV diagnosis starts before MP. and does not end (active)"
      } ],
      "modifierExtension": [ {
        "url": "http://hl7.org/fhir/us/cqfmeasures/StructureDefinition/cqfm-isTestCase",
        "valueBoolean": true
      } ],
      "status": "complete",
      "type": "individual",
      "measure": "https://madie.cms.gov/Measure/CMS349FHIRHIVScreening",
      "period": {
        "start": "2026-01-01",
        "end": "2026-12-31"
      },
      "group": [ {
        "id": "Group_1",
        "population": [ {
          "id": "InitialPopulation_1",
          "code": {
            "coding": [ {
              "system": "http://terminology.hl7.org/CodeSystem/measure-population",
              "code": "initial-population",
              "display": "Initial Population"
            } ]
          },
          "count": 1
        }, {
          "id": "Denominator_1",
          "code": {
            "coding": [ {
              "system": "http://terminology.hl7.org/CodeSystem/measure-population",
              "code": "denominator",
              "display": "Denominator"
            } ]
          },
          "count": 1
        }, {
          "id": "DenominatorExclusion_1",
          "code": {
            "coding": [ {
              "system": "http://terminology.hl7.org/CodeSystem/measure-population",
              "code": "denominator-exclusion",
              "display": "Denominator Exclusion"
            } ]
          },
          "count": 1
        }, {
          "id": "Numerator_1",
          "code": {
            "coding": [ {
              "system": "http://terminology.hl7.org/CodeSystem/measure-population",
              "code": "numerator",
              "display": "Numerator"
            } ]
          },
          "count": 0
        }, {
          "id": "DenominatorException_1",
          "code": {
            "coding": [ {
              "system": "http://terminology.hl7.org/CodeSystem/measure-population",
              "code": "denominator-exception",
              "display": "Denominator Exception"
            } ]
          },
          "count": 0
        } ],
        "measureScore": {
          "value": 1.0
        }
      } ],
      "evaluatedResource": [ {
        "reference": "Patient/b8161404-686d-4ce4-b291-e7a02ffe7b7e"
      }, {
        "reference": "Encounter/eda811b1-8529-4c2d-baba-37941bee6c87"
      }, {
        "reference": "Condition/93584bd9-a8e0-4f4a-aa82-f6300931d5e2"
      } ]
    },
    "request": {
      "method": "PUT",
      "url": "MeasureReport/16db9b7a-b042-4b36-8ba2-72f043640dc4"
    }
  } ]
}