{
  "resourceType": "Bundle",
  "id": "64a710b8d5b5ccbc63c46847",
  "type": "transaction",
  "entry": [ {
    "fullUrl": "https://madie.cms.gov/Patient/bd10b739-a303-497c-8b23-e673bee363f5",
    "resource": {
      "resourceType": "Patient",
      "id": "bd10b739-a303-497c-8b23-e673bee363f5",
      "meta": {
        "profile": [ "http://hl7.org/fhir/us/qicore/StructureDefinition/qicore-patient" ]
      },
      "extension": [ {
        "url": "http://hl7.org/fhir/us/core/StructureDefinition/us-core-race",
        "extension": [ {
          "url": "ombCategory",
          "valueCoding": {
            "system": "urn:oid:2.16.840.1.113883.6.238",
            "code": "1002-5",
            "display": "American Indian or Alaska Native",
            "userSelected": true
          }
        }, {
          "url": "text",
          "valueString": "American Indian or Alaska Native"
        } ]
      }, {
        "url": "http://hl7.org/fhir/us/core/StructureDefinition/us-core-ethnicity",
        "extension": [ {
          "url": "ombCategory",
          "valueCoding": {
            "system": "urn:oid:2.16.840.1.113883.6.238",
            "code": "2135-2",
            "display": "Hispanic or Latino",
            "userSelected": true
          }
        }, {
          "url": "text",
          "valueString": "Hispanic or Latino"
        } ]
      } ],
      "identifier": [ {
        "type": {
          "coding": [ {
            "system": "http://terminology.hl7.org/CodeSystem/v2-0203",
            "code": "MR"
          } ]
        },
        "system": "https://bonnie-fhir.healthit.gov/",
        "value": "64a710b8d5b5ccbc63c46847"
      } ],
      "name": [ {
        "family": "DENOMPass",
        "given": [ "Age16InitialVisit" ]
      } ],
      "gender": "male",
      "birthDate": "2008-02-23"
    },
    "request": {
      "method": "PUT",
      "url": "Patient/bd10b739-a303-497c-8b23-e673bee363f5"
    }
  }, {
    "fullUrl": "https://madie.cms.gov/Encounter/87107c8a-e382-44d2-8820-5a9b138d088f",
    "resource": {
      "resourceType": "Encounter",
      "id": "87107c8a-e382-44d2-8820-5a9b138d088f",
      "meta": {
        "profile": [ "http://hl7.org/fhir/us/qicore/StructureDefinition/qicore-encounter" ]
      },
      "status": "finished",
      "class": {
        "system": "http://terminology.hl7.org/CodeSystem/v3-ActCode",
        "code": "AMB",
        "display": "ambulatory",
        "userSelected": true
      },
      "type": [ {
        "coding": [ {
          "system": "http://www.ama-assn.org/go/cpt",
          "version": "2021",
          "code": "99394",
          "display": "Periodic comprehensive preventive medicine reevaluation and management of an individual including an age and gender appropriate history, examination, counseling/anticipatory guidance/risk factor reduction interventions, and the ordering of laboratory/diagnostic procedures, established patient; adolescent (age 12 through 17 years)",
          "userSelected": true
        } ]
      } ],
      "subject": {
        "reference": "Patient/bd10b739-a303-497c-8b23-e673bee363f5"
      },
      "period": {
        "start": "2026-07-06T08:00:00.000+00:00",
        "end": "2026-07-06T08:15:00.000+00:00"
      }
    },
    "request": {
      "method": "PUT",
      "url": "Encounter/87107c8a-e382-44d2-8820-5a9b138d088f"
    }
  }, {
    "fullUrl": "https://madie.cms.gov/MeasureReport/5394e643-052f-4149-ad2f-d8255fe97591",
    "resource": {
      "resourceType": "MeasureReport",
      "id": "5394e643-052f-4149-ad2f-d8255fe97591",
      "meta": {
        "profile": [ "http://hl7.org/fhir/us/cqfmeasures/StructureDefinition/test-case-cqfm" ]
      },
      "contained": [ {
        "resourceType": "Parameters",
        "id": "facadaf2-3f9e-4d75-aad7-1b6f77e481f0-parameters",
        "parameter": [ {
          "name": "subject",
          "valueString": "bd10b739-a303-497c-8b23-e673bee363f5"
        } ]
      } ],
      "extension": [ {
        "url": "http://hl7.org/fhir/StructureDefinition/cqf-inputParameters",
        "valueReference": {
          "reference": "#facadaf2-3f9e-4d75-aad7-1b6f77e481f0-parameters"
        }
      }, {
        "url": "http://hl7.org/fhir/us/cqfmeasures/StructureDefinition/cqfm-testCaseDescription",
        "valueMarkdown": "Patient is 16 and has a qualifying encounter during the measurement period. This tests the denominator criteria."
      } ],
      "modifierExtension": [ {
        "url": "http://hl7.org/fhir/us/cqfmeasures/StructureDefinition/cqfm-isTestCase",
        "valueBoolean": true
      } ],
      "status": "complete",
      "type": "individual",
      "measure": "https://madie.cms.gov/Measure/CMS349FHIRHIVScreening",
      "period": {
        "start": "2026-01-01",
        "end": "2026-12-31"
      },
      "group": [ {
        "id": "Group_1",
        "population": [ {
          "id": "InitialPopulation_1",
          "code": {
            "coding": [ {
              "system": "http://terminology.hl7.org/CodeSystem/measure-population",
              "code": "initial-population",
              "display": "Initial Population"
            } ]
          },
          "count": 1
        }, {
          "id": "Denominator_1",
          "code": {
            "coding": [ {
              "system": "http://terminology.hl7.org/CodeSystem/measure-population",
              "code": "denominator",
              "display": "Denominator"
            } ]
          },
          "count": 1
        }, {
          "id": "DenominatorExclusion_1",
          "code": {
            "coding": [ {
              "system": "http://terminology.hl7.org/CodeSystem/measure-population",
              "code": "denominator-exclusion",
              "display": "Denominator Exclusion"
            } ]
          },
          "count": 0
        }, {
          "id": "Numerator_1",
          "code": {
            "coding": [ {
              "system": "http://terminology.hl7.org/CodeSystem/measure-population",
              "code": "numerator",
              "display": "Numerator"
            } ]
          },
          "count": 0
        }, {
          "id": "DenominatorException_1",
          "code": {
            "coding": [ {
              "system": "http://terminology.hl7.org/CodeSystem/measure-population",
              "code": "denominator-exception",
              "display": "Denominator Exception"
            } ]
          },
          "count": 0
        } ],
        "measureScore": {
          "value": 1.0
        }
      } ],
      "evaluatedResource": [ {
        "reference": "Patient/bd10b739-a303-497c-8b23-e673bee363f5"
      }, {
        "reference": "Encounter/87107c8a-e382-44d2-8820-5a9b138d088f"
      } ]
    },
    "request": {
      "method": "PUT",
      "url": "MeasureReport/5394e643-052f-4149-ad2f-d8255fe97591"
    }
  } ]
}