{"resourceType":"Bundle","id":"tests-8b1bcbaa-01df-486d-b243-9399e7515074-bundle","type":"transaction","entry":[{"resource":{"resourceType":"Bundle","id":"610965b998086b538055c15b","type":"transaction","entry":[{"fullUrl":"https://madie.cms.gov/Patient/8b1bcbaa-01df-486d-b243-9399e7515074","resource":{"resourceType":"Patient","id":"8b1bcbaa-01df-486d-b243-9399e7515074","meta":{"profile":["http://hl7.org/fhir/us/qicore/StructureDefinition/qicore-patient"]},"text":{"status":"generated","div":"<div xmlns=\"http://www.w3.org/1999/xhtml\"><div class=\"hapiHeaderText\">TwoHIVDxBothInvalidTiming <b>DENEXFAIL </b></div><table class=\"hapiPropertyTable\"><tbody><tr><td>Identifier</td><td>9c54a4dd540c4bea149b36532d75fcb36030130b66a16274ae97dc73d2d880c3</td></tr><tr><td>Date of birth</td><td><span>31 July 1992</span></td></tr></tbody></table></div>"},"extension":[{"url":"http://hl7.org/fhir/us/core/StructureDefinition/us-core-race","extension":[{"url":"ombCategory","valueCoding":{"system":"urn:oid:2.16.840.1.113883.6.238","code":"2106-3","display":"White","userSelected":true}},{"url":"text","valueString":"White"}]},{"url":"http://hl7.org/fhir/us/core/StructureDefinition/us-core-ethnicity","extension":[{"url":"ombCategory","valueCoding":{"system":"urn:oid:2.16.840.1.113883.6.238","code":"2135-2","display":"Hispanic or Latino","userSelected":true}},{"url":"text","valueString":"Hispanic or Latino"}]}],"identifier":[{"type":{"coding":[{"system":"http://terminology.hl7.org/CodeSystem/v2-0203","code":"MR"}]},"system":"https://bonnie-fhir.healthit.gov/","value":"610965b998086b538055c15b"}],"active":true,"name":[{"use":"usual","family":"DENEXFail","given":["TwoHIVDxBothInvalidTiming"]}],"gender":"male","birthDate":"1994-07-31"},"request":{"method":"PUT","url":"Patient/8b1bcbaa-01df-486d-b243-9399e7515074"}},{"fullUrl":"https://madie.cms.gov/Condition/670c03e5-ef0b-48c4-b380-f6b0bac42e00","resource":{"resourceType":"Condition","id":"670c03e5-ef0b-48c4-b380-f6b0bac42e00","meta":{"profile":["http://hl7.org/fhir/us/qicore/StructureDefinition/qicore-condition-encounter-diagnosis"]},"clinicalStatus":{"coding":[{"system":"http://terminology.hl7.org/CodeSystem/condition-clinical","code":"active","display":"Active","userSelected":true}]},"category":[{"coding":[{"system":"http://terminology.hl7.org/CodeSystem/condition-category","code":"encounter-diagnosis","display":"Encounter Diagnosis","userSelected":true}]}],"code":{"coding":[{"system":"http://hl7.org/fhir/sid/icd-9-cm","code":"042"}]},"subject":{"reference":"Patient/8b1bcbaa-01df-486d-b243-9399e7515074"},"recordedDate":"2013-10-24T08:00:00+00:00"},"request":{"method":"PUT","url":"Condition/670c03e5-ef0b-48c4-b380-f6b0bac42e00"}},{"fullUrl":"https://madie.cms.gov/Condition/ba46987d-5f27-4818-892a-e5028fed056d","resource":{"resourceType":"Condition","id":"ba46987d-5f27-4818-892a-e5028fed056d","meta":{"profile":["http://hl7.org/fhir/us/qicore/StructureDefinition/qicore-condition-encounter-diagnosis"]},"clinicalStatus":{"coding":[{"system":"http://terminology.hl7.org/CodeSystem/condition-clinical","code":"active","display":"active","userSelected":true}]},"category":[{"coding":[{"system":"http://terminology.hl7.org/CodeSystem/condition-category","code":"encounter-diagnosis","display":"Encounter Diagnosis","userSelected":true}]}],"code":{"coding":[{"system":"http://hl7.org/fhir/sid/icd-9-cm","code":"042"}]},"subject":{"reference":"Patient/8b1bcbaa-01df-486d-b243-9399e7515074"},"onsetDateTime":"2026-05-10T08:00:00.000+00:00"},"request":{"method":"PUT","url":"Condition/ba46987d-5f27-4818-892a-e5028fed056d"}},{"fullUrl":"https://madie.cms.gov/Encounter/d0fc35d1-eafe-4430-baa5-23f6d33cc7f1","resource":{"resourceType":"Encounter","id":"d0fc35d1-eafe-4430-baa5-23f6d33cc7f1","meta":{"profile":["http://hl7.org/fhir/us/qicore/StructureDefinition/qicore-encounter"]},"status":"finished","class":{"system":"http://terminology.hl7.org/CodeSystem/v3-ActCode","code":"AMB","display":"ambulatory","userSelected":true},"type":[{"coding":[{"system":"http://www.ama-assn.org/go/cpt","code":"99395"}]}],"subject":{"reference":"Patient/8b1bcbaa-01df-486d-b243-9399e7515074"},"period":{"start":"2026-10-24T08:00:00.000+00:00","end":"2026-10-24T08:30:00.000+00:00"}},"request":{"method":"PUT","url":"Encounter/d0fc35d1-eafe-4430-baa5-23f6d33cc7f1"}},{"fullUrl":"https://madie.cms.gov/MeasureReport/1481d329-4bd8-4f06-b89d-3a315024e794","resource":{"resourceType":"MeasureReport","id":"1481d329-4bd8-4f06-b89d-3a315024e794","meta":{"profile":["http://hl7.org/fhir/us/cqfmeasures/StructureDefinition/test-case-cqfm"]},"contained":[{"resourceType":"Parameters","id":"f8c85201-5091-48f2-b9f7-c32b3d29aaea-parameters","parameter":[{"name":"subject","valueString":"8b1bcbaa-01df-486d-b243-9399e7515074"}]}],"extension":[{"url":"http://hl7.org/fhir/StructureDefinition/cqf-inputParameters","valueReference":{"reference":"#f8c85201-5091-48f2-b9f7-c32b3d29aaea-parameters"}},{"url":"http://hl7.org/fhir/us/cqfmeasures/StructureDefinition/cqfm-testCaseDescription","valueMarkdown":"Patient 20 at start of MP, qual encounter during MP, two HIV diagnoses, one authorDatetime before MP, one valid during MP."}],"modifierExtension":[{"url":"http://hl7.org/fhir/us/cqfmeasures/StructureDefinition/cqfm-isTestCase","valueBoolean":true}],"status":"complete","type":"individual","measure":"https://madie.cms.gov/Measure/CMS349FHIRHIVScreening","period":{"start":"2026-01-01","end":"2026-12-31"},"group":[{"id":"Group_1","population":[{"id":"InitialPopulation_1","code":{"coding":[{"system":"http://terminology.hl7.org/CodeSystem/measure-population","code":"initial-population","display":"Initial Population"}]},"count":1},{"id":"Denominator_1","code":{"coding":[{"system":"http://terminology.hl7.org/CodeSystem/measure-population","code":"denominator","display":"Denominator"}]},"count":1},{"id":"DenominatorExclusion_1","code":{"coding":[{"system":"http://terminology.hl7.org/CodeSystem/measure-population","code":"denominator-exclusion","display":"Denominator Exclusion"}]},"count":0},{"id":"Numerator_1","code":{"coding":[{"system":"http://terminology.hl7.org/CodeSystem/measure-population","code":"numerator","display":"Numerator"}]},"count":0},{"id":"DenominatorException_1","code":{"coding":[{"system":"http://terminology.hl7.org/CodeSystem/measure-population","code":"denominator-exception","display":"Denominator Exception"}]},"count":0}],"measureScore":{"value":1.0}}],"evaluatedResource":[{"reference":"Patient/8b1bcbaa-01df-486d-b243-9399e7515074"},{"reference":"Condition/670c03e5-ef0b-48c4-b380-f6b0bac42e00"},{"reference":"Condition/ba46987d-5f27-4818-892a-e5028fed056d"},{"reference":"Encounter/d0fc35d1-eafe-4430-baa5-23f6d33cc7f1"}]},"request":{"method":"PUT","url":"MeasureReport/1481d329-4bd8-4f06-b89d-3a315024e794"}}]},"request":{"method":"PUT","url":"Bundle/610965b998086b538055c15b"}},{"resource":{"resourceType":"Patient","id":"8b1bcbaa-01df-486d-b243-9399e7515074","meta":{"profile":["http://hl7.org/fhir/us/qicore/StructureDefinition/qicore-patient"]},"text":{"status":"generated","div":"<div xmlns=\"http://www.w3.org/1999/xhtml\"><div class=\"hapiHeaderText\">TwoHIVDxBothInvalidTiming <b>DENEXFAIL </b></div><table class=\"hapiPropertyTable\"><tbody><tr><td>Identifier</td><td>9c54a4dd540c4bea149b36532d75fcb36030130b66a16274ae97dc73d2d880c3</td></tr><tr><td>Date of birth</td><td><span>31 July 1992</span></td></tr></tbody></table></div>"},"extension":[{"url":"http://hl7.org/fhir/us/core/StructureDefinition/us-core-race","extension":[{"url":"ombCategory","valueCoding":{"system":"urn:oid:2.16.840.1.113883.6.238","code":"2106-3","display":"White","userSelected":true}},{"url":"text","valueString":"White"}]},{"url":"http://hl7.org/fhir/us/core/StructureDefinition/us-core-ethnicity","extension":[{"url":"ombCategory","valueCoding":{"system":"urn:oid:2.16.840.1.113883.6.238","code":"2135-2","display":"Hispanic or Latino","userSelected":true}},{"url":"text","valueString":"Hispanic or Latino"}]}],"identifier":[{"type":{"coding":[{"system":"http://terminology.hl7.org/CodeSystem/v2-0203","code":"MR"}]},"system":"https://bonnie-fhir.healthit.gov/","value":"610965b998086b538055c15b"}],"active":true,"name":[{"use":"usual","family":"DENEXFail","given":["TwoHIVDxBothInvalidTiming"]}],"gender":"male","birthDate":"1994-07-31"},"request":{"method":"PUT","url":"Patient/8b1bcbaa-01df-486d-b243-9399e7515074"}},{"resource":{"resourceType":"MeasureReport","id":"1481d329-4bd8-4f06-b89d-3a315024e794","meta":{"profile":["http://hl7.org/fhir/us/cqfmeasures/StructureDefinition/test-case-cqfm"]},"contained":[{"resourceType":"Parameters","id":"f8c85201-5091-48f2-b9f7-c32b3d29aaea-parameters","parameter":[{"name":"subject","valueString":"8b1bcbaa-01df-486d-b243-9399e7515074"}]}],"extension":[{"url":"http://hl7.org/fhir/StructureDefinition/cqf-inputParameters","valueReference":{"reference":"#f8c85201-5091-48f2-b9f7-c32b3d29aaea-parameters"}},{"url":"http://hl7.org/fhir/us/cqfmeasures/StructureDefinition/cqfm-testCaseDescription","valueMarkdown":"Patient 20 at start of MP, qual encounter during MP, two HIV diagnoses, one authorDatetime before MP, one valid during MP."}],"modifierExtension":[{"url":"http://hl7.org/fhir/us/cqfmeasures/StructureDefinition/cqfm-isTestCase","valueBoolean":true}],"status":"complete","type":"individual","measure":"https://madie.cms.gov/Measure/CMS349FHIRHIVScreening","period":{"start":"2026-01-01","end":"2026-12-31"},"group":[{"id":"Group_1","population":[{"id":"InitialPopulation_1","code":{"coding":[{"system":"http://terminology.hl7.org/CodeSystem/measure-population","code":"initial-population","display":"Initial Population"}]},"count":1},{"id":"Denominator_1","code":{"coding":[{"system":"http://terminology.hl7.org/CodeSystem/measure-population","code":"denominator","display":"Denominator"}]},"count":1},{"id":"DenominatorExclusion_1","code":{"coding":[{"system":"http://terminology.hl7.org/CodeSystem/measure-population","code":"denominator-exclusion","display":"Denominator Exclusion"}]},"count":0},{"id":"Numerator_1","code":{"coding":[{"system":"http://terminology.hl7.org/CodeSystem/measure-population","code":"numerator","display":"Numerator"}]},"count":0},{"id":"DenominatorException_1","code":{"coding":[{"system":"http://terminology.hl7.org/CodeSystem/measure-population","code":"denominator-exception","display":"Denominator Exception"}]},"count":0}],"measureScore":{"value":1.0}}],"evaluatedResource":[{"reference":"Patient/8b1bcbaa-01df-486d-b243-9399e7515074"},{"reference":"Condition/670c03e5-ef0b-48c4-b380-f6b0bac42e00"},{"reference":"Condition/ba46987d-5f27-4818-892a-e5028fed056d"},{"reference":"Encounter/d0fc35d1-eafe-4430-baa5-23f6d33cc7f1"}]},"request":{"method":"PUT","url":"MeasureReport/1481d329-4bd8-4f06-b89d-3a315024e794"}},{"resource":{"resourceType":"Condition","id":"ba46987d-5f27-4818-892a-e5028fed056d","meta":{"profile":["http://hl7.org/fhir/us/qicore/StructureDefinition/qicore-condition-encounter-diagnosis"]},"clinicalStatus":{"coding":[{"system":"http://terminology.hl7.org/CodeSystem/condition-clinical","code":"active","display":"active","userSelected":true}]},"category":[{"coding":[{"system":"http://terminology.hl7.org/CodeSystem/condition-category","code":"encounter-diagnosis","display":"Encounter Diagnosis","userSelected":true}]}],"code":{"coding":[{"system":"http://hl7.org/fhir/sid/icd-9-cm","code":"042"}]},"subject":{"reference":"Patient/8b1bcbaa-01df-486d-b243-9399e7515074"},"onsetDateTime":"2026-05-10T08:00:00.000+00:00"},"request":{"method":"PUT","url":"Condition/ba46987d-5f27-4818-892a-e5028fed056d"}},{"resource":{"resourceType":"Condition","id":"670c03e5-ef0b-48c4-b380-f6b0bac42e00","meta":{"profile":["http://hl7.org/fhir/us/qicore/StructureDefinition/qicore-condition-encounter-diagnosis"]},"clinicalStatus":{"coding":[{"system":"http://terminology.hl7.org/CodeSystem/condition-clinical","code":"active","display":"Active","userSelected":true}]},"category":[{"coding":[{"system":"http://terminology.hl7.org/CodeSystem/condition-category","code":"encounter-diagnosis","display":"Encounter Diagnosis","userSelected":true}]}],"code":{"coding":[{"system":"http://hl7.org/fhir/sid/icd-9-cm","code":"042"}]},"subject":{"reference":"Patient/8b1bcbaa-01df-486d-b243-9399e7515074"},"recordedDate":"2013-10-24T08:00:00+00:00"},"request":{"method":"PUT","url":"Condition/670c03e5-ef0b-48c4-b380-f6b0bac42e00"}},{"resource":{"resourceType":"Encounter","id":"d0fc35d1-eafe-4430-baa5-23f6d33cc7f1","meta":{"profile":["http://hl7.org/fhir/us/qicore/StructureDefinition/qicore-encounter"]},"status":"finished","class":{"system":"http://terminology.hl7.org/CodeSystem/v3-ActCode","code":"AMB","display":"ambulatory","userSelected":true},"type":[{"coding":[{"system":"http://www.ama-assn.org/go/cpt","code":"99395"}]}],"subject":{"reference":"Patient/8b1bcbaa-01df-486d-b243-9399e7515074"},"period":{"start":"2026-10-24T08:00:00.000+00:00","end":"2026-10-24T08:30:00.000+00:00"}},"request":{"method":"PUT","url":"Encounter/d0fc35d1-eafe-4430-baa5-23f6d33cc7f1"}}]}