{"resourceType":"Bundle","id":"tests-720428de-44f9-48d8-86c9-262b6bd5fa46-bundle","type":"transaction","entry":[{"fullUrl":"Encounter/1d954553-a753-43be-b78a-69f134d832bc","resource":{"resourceType":"Encounter","id":"1d954553-a753-43be-b78a-69f134d832bc","meta":{"profile":["http://hl7.org/fhir/us/qicore/StructureDefinition/qicore-encounter"]},"status":"finished","class":{"system":"http://terminology.hl7.org/CodeSystem/v3-ActCode","code":"AMB","display":"ambulatory","userSelected":true},"type":[{"coding":[{"system":"http://www.ama-assn.org/go/cpt","code":"99395"}]}],"subject":{"reference":"Patient/720428de-44f9-48d8-86c9-262b6bd5fa46"},"period":{"start":"2026-10-24T08:00:00.000+00:00","end":"2026-10-24T08:15:00.000+00:00"}},"request":{"method":"PUT","url":"Encounter/1d954553-a753-43be-b78a-69f134d832bc"}},{"fullUrl":"Condition/be0dc29c-eeb5-47e4-865e-cc4f83aa686b","resource":{"resourceType":"Condition","id":"be0dc29c-eeb5-47e4-865e-cc4f83aa686b","meta":{"profile":["http://hl7.org/fhir/us/qicore/StructureDefinition/qicore-condition-encounter-diagnosis"]},"clinicalStatus":{"coding":[{"system":"http://terminology.hl7.org/CodeSystem/condition-clinical","code":"active","display":"active","userSelected":true}]},"verificationStatus":{"coding":[{"system":"http://terminology.hl7.org/CodeSystem/condition-ver-status","code":"confirmed"}]},"category":[{"coding":[{"system":"http://terminology.hl7.org/CodeSystem/condition-category","code":"encounter-diagnosis","display":"Encounter Diagnosis","userSelected":true}]}],"code":{"coding":[{"system":"http://hl7.org/fhir/sid/icd-9-cm","version":"2013","code":"042","display":"Human immunodeficiency virus [HIV] disease","userSelected":true},{"system":"http://snomed.info/sct","code":"165816005","userSelected":true}]},"subject":{"reference":"Patient/720428de-44f9-48d8-86c9-262b6bd5fa46"},"onsetDateTime":"2026-03-29T08:00:00.000+00:00","recordedDate":"2026-03-29T08:00:00.000+00:00"},"request":{"method":"PUT","url":"Condition/be0dc29c-eeb5-47e4-865e-cc4f83aa686b"}},{"fullUrl":"MeasureReport/0a7c19b1-5b77-45ae-9e14-22f4735d796a","resource":{"resourceType":"MeasureReport","id":"0a7c19b1-5b77-45ae-9e14-22f4735d796a","meta":{"profile":["http://hl7.org/fhir/us/cqfmeasures/StructureDefinition/test-case-cqfm"]},"contained":[{"resourceType":"Parameters","id":"379a2f2d-4ed3-4224-8284-23d0f71ef005-parameters","parameter":[{"name":"subject","valueString":"720428de-44f9-48d8-86c9-262b6bd5fa46"}]}],"extension":[{"url":"http://hl7.org/fhir/StructureDefinition/cqf-inputParameters","valueReference":{"reference":"#379a2f2d-4ed3-4224-8284-23d0f71ef005-parameters"}},{"url":"http://hl7.org/fhir/us/cqfmeasures/StructureDefinition/cqfm-testCaseDescription","valueMarkdown":"Patient 31 at start of MP, qualifying encounter during MP, HIV diagnosis starts during MP."}],"modifierExtension":[{"url":"http://hl7.org/fhir/us/cqfmeasures/StructureDefinition/cqfm-isTestCase","valueBoolean":true}],"status":"complete","type":"individual","measure":"https://madie.cms.gov/Measure/CMS349FHIRHIVScreening","period":{"start":"2026-01-01","end":"2026-12-31"},"group":[{"id":"Group_1","population":[{"id":"InitialPopulation_1","code":{"coding":[{"system":"http://terminology.hl7.org/CodeSystem/measure-population","code":"initial-population","display":"Initial Population"}]},"count":1},{"id":"Denominator_1","code":{"coding":[{"system":"http://terminology.hl7.org/CodeSystem/measure-population","code":"denominator","display":"Denominator"}]},"count":1},{"id":"DenominatorExclusion_1","code":{"coding":[{"system":"http://terminology.hl7.org/CodeSystem/measure-population","code":"denominator-exclusion","display":"Denominator Exclusion"}]},"count":0},{"id":"Numerator_1","code":{"coding":[{"system":"http://terminology.hl7.org/CodeSystem/measure-population","code":"numerator","display":"Numerator"}]},"count":0},{"id":"DenominatorException_1","code":{"coding":[{"system":"http://terminology.hl7.org/CodeSystem/measure-population","code":"denominator-exception","display":"Denominator Exception"}]},"count":0}],"measureScore":{"value":1.0}}],"evaluatedResource":[{"reference":"Patient/720428de-44f9-48d8-86c9-262b6bd5fa46"},{"reference":"Encounter/1d954553-a753-43be-b78a-69f134d832bc"},{"reference":"Condition/be0dc29c-eeb5-47e4-865e-cc4f83aa686b"}]},"request":{"method":"PUT","url":"MeasureReport/0a7c19b1-5b77-45ae-9e14-22f4735d796a"}},{"fullUrl":"Patient/720428de-44f9-48d8-86c9-262b6bd5fa46","resource":{"resourceType":"Patient","id":"720428de-44f9-48d8-86c9-262b6bd5fa46","meta":{"profile":["http://hl7.org/fhir/us/qicore/StructureDefinition/qicore-patient"]},"text":{"status":"generated","div":"<div xmlns=\"http://www.w3.org/1999/xhtml\"><div class=\"hapiHeaderText\">HIVDxStartsDuringMP <b>DENEXFAIL </b></div><table class=\"hapiPropertyTable\"><tbody><tr><td>Identifier</td><td>a7dd2df328fa2276f91b533eb53429c7adfb893d94ea60345f454e9af370ab3d</td></tr><tr><td>Date of birth</td><td><span>31 July 1992</span></td></tr></tbody></table></div>"},"extension":[{"url":"http://hl7.org/fhir/us/core/StructureDefinition/us-core-race","extension":[{"url":"ombCategory","valueCoding":{"system":"urn:oid:2.16.840.1.113883.6.238","code":"2106-3","display":"White","userSelected":true}},{"url":"text","valueString":"White"}]},{"url":"http://hl7.org/fhir/us/core/StructureDefinition/us-core-ethnicity","extension":[{"url":"ombCategory","valueCoding":{"system":"urn:oid:2.16.840.1.113883.6.238","code":"2186-5","display":"Not Hispanic or Latino","userSelected":true}},{"url":"text","valueString":"Not Hispanic or Latino"}]}],"identifier":[{"type":{"coding":[{"system":"http://terminology.hl7.org/CodeSystem/v2-0203","code":"MR"}]},"system":"https://bonnie-fhir.healthit.gov/","value":"610965b898086b538055c149"}],"active":true,"name":[{"use":"usual","family":"DENEXFail","given":["HIVDxStartsDuringMP "]}],"gender":"male","birthDate":"1994-07-31"},"request":{"method":"PUT","url":"Patient/720428de-44f9-48d8-86c9-262b6bd5fa46"}},{"fullUrl":"Bundle/610965b898086b538055c149","resource":{"resourceType":"Bundle","id":"610965b898086b538055c149","type":"transaction","entry":[{"fullUrl":"https://madie.cms.gov/Patient/720428de-44f9-48d8-86c9-262b6bd5fa46","resource":{"resourceType":"Patient","id":"720428de-44f9-48d8-86c9-262b6bd5fa46","meta":{"profile":["http://hl7.org/fhir/us/qicore/StructureDefinition/qicore-patient"]},"text":{"status":"generated","div":"<div xmlns=\"http://www.w3.org/1999/xhtml\"><div class=\"hapiHeaderText\">HIVDxStartsDuringMP <b>DENEXFAIL </b></div><table class=\"hapiPropertyTable\"><tbody><tr><td>Identifier</td><td>a7dd2df328fa2276f91b533eb53429c7adfb893d94ea60345f454e9af370ab3d</td></tr><tr><td>Date of birth</td><td><span>31 July 1992</span></td></tr></tbody></table></div>"},"extension":[{"url":"http://hl7.org/fhir/us/core/StructureDefinition/us-core-race","extension":[{"url":"ombCategory","valueCoding":{"system":"urn:oid:2.16.840.1.113883.6.238","code":"2106-3","display":"White","userSelected":true}},{"url":"text","valueString":"White"}]},{"url":"http://hl7.org/fhir/us/core/StructureDefinition/us-core-ethnicity","extension":[{"url":"ombCategory","valueCoding":{"system":"urn:oid:2.16.840.1.113883.6.238","code":"2186-5","display":"Not Hispanic or Latino","userSelected":true}},{"url":"text","valueString":"Not Hispanic or Latino"}]}],"identifier":[{"type":{"coding":[{"system":"http://terminology.hl7.org/CodeSystem/v2-0203","code":"MR"}]},"system":"https://bonnie-fhir.healthit.gov/","value":"610965b898086b538055c149"}],"active":true,"name":[{"use":"usual","family":"DENEXFail","given":["HIVDxStartsDuringMP "]}],"gender":"male","birthDate":"1994-07-31"},"request":{"method":"PUT","url":"Patient/720428de-44f9-48d8-86c9-262b6bd5fa46"}},{"fullUrl":"https://madie.cms.gov/Encounter/1d954553-a753-43be-b78a-69f134d832bc","resource":{"resourceType":"Encounter","id":"1d954553-a753-43be-b78a-69f134d832bc","meta":{"profile":["http://hl7.org/fhir/us/qicore/StructureDefinition/qicore-encounter"]},"status":"finished","class":{"system":"http://terminology.hl7.org/CodeSystem/v3-ActCode","code":"AMB","display":"ambulatory","userSelected":true},"type":[{"coding":[{"system":"http://www.ama-assn.org/go/cpt","code":"99395"}]}],"subject":{"reference":"Patient/720428de-44f9-48d8-86c9-262b6bd5fa46"},"period":{"start":"2026-10-24T08:00:00.000+00:00","end":"2026-10-24T08:15:00.000+00:00"}},"request":{"method":"PUT","url":"Encounter/1d954553-a753-43be-b78a-69f134d832bc"}},{"fullUrl":"https://madie.cms.gov/Condition/be0dc29c-eeb5-47e4-865e-cc4f83aa686b","resource":{"resourceType":"Condition","id":"be0dc29c-eeb5-47e4-865e-cc4f83aa686b","meta":{"profile":["http://hl7.org/fhir/us/qicore/StructureDefinition/qicore-condition-encounter-diagnosis"]},"clinicalStatus":{"coding":[{"system":"http://terminology.hl7.org/CodeSystem/condition-clinical","code":"active","display":"active","userSelected":true}]},"verificationStatus":{"coding":[{"system":"http://terminology.hl7.org/CodeSystem/condition-ver-status","code":"confirmed"}]},"category":[{"coding":[{"system":"http://terminology.hl7.org/CodeSystem/condition-category","code":"encounter-diagnosis","display":"Encounter Diagnosis","userSelected":true}]}],"code":{"coding":[{"system":"http://hl7.org/fhir/sid/icd-9-cm","version":"2013","code":"042","display":"Human immunodeficiency virus [HIV] disease","userSelected":true},{"system":"http://snomed.info/sct","code":"165816005","userSelected":true}]},"subject":{"reference":"Patient/720428de-44f9-48d8-86c9-262b6bd5fa46"},"onsetDateTime":"2026-03-29T08:00:00.000+00:00","recordedDate":"2026-03-29T08:00:00.000+00:00"},"request":{"method":"PUT","url":"Condition/be0dc29c-eeb5-47e4-865e-cc4f83aa686b"}},{"fullUrl":"https://madie.cms.gov/MeasureReport/0a7c19b1-5b77-45ae-9e14-22f4735d796a","resource":{"resourceType":"MeasureReport","id":"0a7c19b1-5b77-45ae-9e14-22f4735d796a","meta":{"profile":["http://hl7.org/fhir/us/cqfmeasures/StructureDefinition/test-case-cqfm"]},"contained":[{"resourceType":"Parameters","id":"379a2f2d-4ed3-4224-8284-23d0f71ef005-parameters","parameter":[{"name":"subject","valueString":"720428de-44f9-48d8-86c9-262b6bd5fa46"}]}],"extension":[{"url":"http://hl7.org/fhir/StructureDefinition/cqf-inputParameters","valueReference":{"reference":"#379a2f2d-4ed3-4224-8284-23d0f71ef005-parameters"}},{"url":"http://hl7.org/fhir/us/cqfmeasures/StructureDefinition/cqfm-testCaseDescription","valueMarkdown":"Patient 31 at start of MP, qualifying encounter during MP, HIV diagnosis starts during MP."}],"modifierExtension":[{"url":"http://hl7.org/fhir/us/cqfmeasures/StructureDefinition/cqfm-isTestCase","valueBoolean":true}],"status":"complete","type":"individual","measure":"https://madie.cms.gov/Measure/CMS349FHIRHIVScreening","period":{"start":"2026-01-01","end":"2026-12-31"},"group":[{"id":"Group_1","population":[{"id":"InitialPopulation_1","code":{"coding":[{"system":"http://terminology.hl7.org/CodeSystem/measure-population","code":"initial-population","display":"Initial Population"}]},"count":1},{"id":"Denominator_1","code":{"coding":[{"system":"http://terminology.hl7.org/CodeSystem/measure-population","code":"denominator","display":"Denominator"}]},"count":1},{"id":"DenominatorExclusion_1","code":{"coding":[{"system":"http://terminology.hl7.org/CodeSystem/measure-population","code":"denominator-exclusion","display":"Denominator Exclusion"}]},"count":0},{"id":"Numerator_1","code":{"coding":[{"system":"http://terminology.hl7.org/CodeSystem/measure-population","code":"numerator","display":"Numerator"}]},"count":0},{"id":"DenominatorException_1","code":{"coding":[{"system":"http://terminology.hl7.org/CodeSystem/measure-population","code":"denominator-exception","display":"Denominator Exception"}]},"count":0}],"measureScore":{"value":1.0}}],"evaluatedResource":[{"reference":"Patient/720428de-44f9-48d8-86c9-262b6bd5fa46"},{"reference":"Encounter/1d954553-a753-43be-b78a-69f134d832bc"},{"reference":"Condition/be0dc29c-eeb5-47e4-865e-cc4f83aa686b"}]},"request":{"method":"PUT","url":"MeasureReport/0a7c19b1-5b77-45ae-9e14-22f4735d796a"}}]},"request":{"method":"PUT","url":"Bundle/610965b898086b538055c149"}}]}