{"resourceType":"Bundle","id":"tests-e98529d7-5196-4523-bbc9-cbf48b5525d1-bundle","type":"transaction","entry":[{"fullUrl":"Encounter/8ef1c0de-2169-4d12-8449-8f32efac475c","resource":{"resourceType":"Encounter","id":"8ef1c0de-2169-4d12-8449-8f32efac475c","meta":{"profile":["http://hl7.org/fhir/us/qicore/StructureDefinition/qicore-encounter"]},"status":"finished","class":{"system":"http://terminology.hl7.org/CodeSystem/v3-ActCode","code":"AMB","display":"ambulatory","userSelected":true},"type":[{"coding":[{"system":"http://www.ama-assn.org/go/cpt","code":"99395"}]}],"subject":{"reference":"Patient/e98529d7-5196-4523-bbc9-cbf48b5525d1"},"period":{"start":"2026-10-24T08:00:00.000+00:00","end":"2026-10-24T08:15:00.000+00:00"}},"request":{"method":"PUT","url":"Encounter/8ef1c0de-2169-4d12-8449-8f32efac475c"}},{"fullUrl":"Patient/e98529d7-5196-4523-bbc9-cbf48b5525d1","resource":{"resourceType":"Patient","id":"e98529d7-5196-4523-bbc9-cbf48b5525d1","meta":{"profile":["http://hl7.org/fhir/us/qicore/StructureDefinition/qicore-patient"]},"text":{"status":"generated","div":"<div xmlns=\"http://www.w3.org/1999/xhtml\"><div class=\"hapiHeaderText\">NoHIVDiag <b>DENEXFAIL </b></div><table class=\"hapiPropertyTable\"><tbody><tr><td>Identifier</td><td>8de0ab14b056fcd32f87b213d0f959e9c5ee73f04fd5302ce5e21711fa269223</td></tr><tr><td>Date of birth</td><td><span>31 July 1992</span></td></tr></tbody></table></div>"},"extension":[{"url":"http://hl7.org/fhir/us/core/StructureDefinition/us-core-race","extension":[{"url":"ombCategory","valueCoding":{"system":"urn:oid:2.16.840.1.113883.6.238","code":"2076-8","display":"Native Hawaiian or Other Pacific Islander","userSelected":true}},{"url":"text","valueString":"Native Hawaiian or Other Pacific Islander"}]},{"url":"http://hl7.org/fhir/us/core/StructureDefinition/us-core-ethnicity","extension":[{"url":"ombCategory","valueCoding":{"system":"urn:oid:2.16.840.1.113883.6.238","code":"2135-2","display":"Hispanic or Latino","userSelected":true}},{"url":"text","valueString":"Hispanic or Latino"}]}],"identifier":[{"type":{"coding":[{"system":"http://terminology.hl7.org/CodeSystem/v2-0203","code":"MR"}]},"system":"https://bonnie-fhir.healthit.gov/","value":"610965b898086b538055c14b"}],"active":true,"name":[{"use":"usual","family":"DENEXFail","given":["NoHIVDiag"]}],"gender":"male","birthDate":"1994-07-31"},"request":{"method":"PUT","url":"Patient/e98529d7-5196-4523-bbc9-cbf48b5525d1"}},{"fullUrl":"MeasureReport/dd3f89cc-b903-4f9d-9320-fd40dfb38ebf","resource":{"resourceType":"MeasureReport","id":"dd3f89cc-b903-4f9d-9320-fd40dfb38ebf","meta":{"profile":["http://hl7.org/fhir/us/cqfmeasures/StructureDefinition/test-case-cqfm"]},"contained":[{"resourceType":"Parameters","id":"44cad309-c5f9-48d3-b0ae-b5e5ec9d46d2-parameters","parameter":[{"name":"subject","valueString":"e98529d7-5196-4523-bbc9-cbf48b5525d1"}]}],"extension":[{"url":"http://hl7.org/fhir/StructureDefinition/cqf-inputParameters","valueReference":{"reference":"#44cad309-c5f9-48d3-b0ae-b5e5ec9d46d2-parameters"}},{"url":"http://hl7.org/fhir/us/cqfmeasures/StructureDefinition/cqfm-testCaseDescription","valueMarkdown":"Patient 31 at start of MP, qualifying encounter during MP, no HIV diagnosis."}],"modifierExtension":[{"url":"http://hl7.org/fhir/us/cqfmeasures/StructureDefinition/cqfm-isTestCase","valueBoolean":true}],"status":"complete","type":"individual","measure":"https://madie.cms.gov/Measure/CMS349FHIRHIVScreening","period":{"start":"2026-01-01","end":"2026-12-31"},"group":[{"id":"Group_1","population":[{"id":"InitialPopulation_1","code":{"coding":[{"system":"http://terminology.hl7.org/CodeSystem/measure-population","code":"initial-population","display":"Initial Population"}]},"count":1},{"id":"Denominator_1","code":{"coding":[{"system":"http://terminology.hl7.org/CodeSystem/measure-population","code":"denominator","display":"Denominator"}]},"count":1},{"id":"DenominatorExclusion_1","code":{"coding":[{"system":"http://terminology.hl7.org/CodeSystem/measure-population","code":"denominator-exclusion","display":"Denominator Exclusion"}]},"count":0},{"id":"Numerator_1","code":{"coding":[{"system":"http://terminology.hl7.org/CodeSystem/measure-population","code":"numerator","display":"Numerator"}]},"count":0},{"id":"DenominatorException_1","code":{"coding":[{"system":"http://terminology.hl7.org/CodeSystem/measure-population","code":"denominator-exception","display":"Denominator Exception"}]},"count":0}],"measureScore":{"value":1.0}}],"evaluatedResource":[{"reference":"Patient/e98529d7-5196-4523-bbc9-cbf48b5525d1"},{"reference":"Encounter/8ef1c0de-2169-4d12-8449-8f32efac475c"}]},"request":{"method":"PUT","url":"MeasureReport/dd3f89cc-b903-4f9d-9320-fd40dfb38ebf"}},{"fullUrl":"Bundle/610965b898086b538055c14b","resource":{"resourceType":"Bundle","id":"610965b898086b538055c14b","type":"transaction","entry":[{"fullUrl":"https://madie.cms.gov/Patient/e98529d7-5196-4523-bbc9-cbf48b5525d1","resource":{"resourceType":"Patient","id":"e98529d7-5196-4523-bbc9-cbf48b5525d1","meta":{"profile":["http://hl7.org/fhir/us/qicore/StructureDefinition/qicore-patient"]},"text":{"status":"generated","div":"<div xmlns=\"http://www.w3.org/1999/xhtml\"><div class=\"hapiHeaderText\">NoHIVDiag <b>DENEXFAIL </b></div><table class=\"hapiPropertyTable\"><tbody><tr><td>Identifier</td><td>8de0ab14b056fcd32f87b213d0f959e9c5ee73f04fd5302ce5e21711fa269223</td></tr><tr><td>Date of birth</td><td><span>31 July 1992</span></td></tr></tbody></table></div>"},"extension":[{"url":"http://hl7.org/fhir/us/core/StructureDefinition/us-core-race","extension":[{"url":"ombCategory","valueCoding":{"system":"urn:oid:2.16.840.1.113883.6.238","code":"2076-8","display":"Native Hawaiian or Other Pacific Islander","userSelected":true}},{"url":"text","valueString":"Native Hawaiian or Other Pacific Islander"}]},{"url":"http://hl7.org/fhir/us/core/StructureDefinition/us-core-ethnicity","extension":[{"url":"ombCategory","valueCoding":{"system":"urn:oid:2.16.840.1.113883.6.238","code":"2135-2","display":"Hispanic or Latino","userSelected":true}},{"url":"text","valueString":"Hispanic or Latino"}]}],"identifier":[{"type":{"coding":[{"system":"http://terminology.hl7.org/CodeSystem/v2-0203","code":"MR"}]},"system":"https://bonnie-fhir.healthit.gov/","value":"610965b898086b538055c14b"}],"active":true,"name":[{"use":"usual","family":"DENEXFail","given":["NoHIVDiag"]}],"gender":"male","birthDate":"1994-07-31"},"request":{"method":"PUT","url":"Patient/e98529d7-5196-4523-bbc9-cbf48b5525d1"}},{"fullUrl":"https://madie.cms.gov/Encounter/8ef1c0de-2169-4d12-8449-8f32efac475c","resource":{"resourceType":"Encounter","id":"8ef1c0de-2169-4d12-8449-8f32efac475c","meta":{"profile":["http://hl7.org/fhir/us/qicore/StructureDefinition/qicore-encounter"]},"status":"finished","class":{"system":"http://terminology.hl7.org/CodeSystem/v3-ActCode","code":"AMB","display":"ambulatory","userSelected":true},"type":[{"coding":[{"system":"http://www.ama-assn.org/go/cpt","code":"99395"}]}],"subject":{"reference":"Patient/e98529d7-5196-4523-bbc9-cbf48b5525d1"},"period":{"start":"2026-10-24T08:00:00.000+00:00","end":"2026-10-24T08:15:00.000+00:00"}},"request":{"method":"PUT","url":"Encounter/8ef1c0de-2169-4d12-8449-8f32efac475c"}},{"fullUrl":"https://madie.cms.gov/MeasureReport/dd3f89cc-b903-4f9d-9320-fd40dfb38ebf","resource":{"resourceType":"MeasureReport","id":"dd3f89cc-b903-4f9d-9320-fd40dfb38ebf","meta":{"profile":["http://hl7.org/fhir/us/cqfmeasures/StructureDefinition/test-case-cqfm"]},"contained":[{"resourceType":"Parameters","id":"44cad309-c5f9-48d3-b0ae-b5e5ec9d46d2-parameters","parameter":[{"name":"subject","valueString":"e98529d7-5196-4523-bbc9-cbf48b5525d1"}]}],"extension":[{"url":"http://hl7.org/fhir/StructureDefinition/cqf-inputParameters","valueReference":{"reference":"#44cad309-c5f9-48d3-b0ae-b5e5ec9d46d2-parameters"}},{"url":"http://hl7.org/fhir/us/cqfmeasures/StructureDefinition/cqfm-testCaseDescription","valueMarkdown":"Patient 31 at start of MP, qualifying encounter during MP, no HIV diagnosis."}],"modifierExtension":[{"url":"http://hl7.org/fhir/us/cqfmeasures/StructureDefinition/cqfm-isTestCase","valueBoolean":true}],"status":"complete","type":"individual","measure":"https://madie.cms.gov/Measure/CMS349FHIRHIVScreening","period":{"start":"2026-01-01","end":"2026-12-31"},"group":[{"id":"Group_1","population":[{"id":"InitialPopulation_1","code":{"coding":[{"system":"http://terminology.hl7.org/CodeSystem/measure-population","code":"initial-population","display":"Initial Population"}]},"count":1},{"id":"Denominator_1","code":{"coding":[{"system":"http://terminology.hl7.org/CodeSystem/measure-population","code":"denominator","display":"Denominator"}]},"count":1},{"id":"DenominatorExclusion_1","code":{"coding":[{"system":"http://terminology.hl7.org/CodeSystem/measure-population","code":"denominator-exclusion","display":"Denominator Exclusion"}]},"count":0},{"id":"Numerator_1","code":{"coding":[{"system":"http://terminology.hl7.org/CodeSystem/measure-population","code":"numerator","display":"Numerator"}]},"count":0},{"id":"DenominatorException_1","code":{"coding":[{"system":"http://terminology.hl7.org/CodeSystem/measure-population","code":"denominator-exception","display":"Denominator Exception"}]},"count":0}],"measureScore":{"value":1.0}}],"evaluatedResource":[{"reference":"Patient/e98529d7-5196-4523-bbc9-cbf48b5525d1"},{"reference":"Encounter/8ef1c0de-2169-4d12-8449-8f32efac475c"}]},"request":{"method":"PUT","url":"MeasureReport/dd3f89cc-b903-4f9d-9320-fd40dfb38ebf"}}]},"request":{"method":"PUT","url":"Bundle/610965b898086b538055c14b"}}]}