{"resourceType":"Bundle","id":"tests-198a8ffe-cd3f-45f7-931b-897796c67247-bundle","type":"transaction","entry":[{"fullUrl":"Patient/198a8ffe-cd3f-45f7-931b-897796c67247","resource":{"resourceType":"Patient","id":"198a8ffe-cd3f-45f7-931b-897796c67247","meta":{"profile":["http://hl7.org/fhir/us/qicore/StructureDefinition/qicore-patient"]},"text":{"status":"generated","div":"<div xmlns=\"http://www.w3.org/1999/xhtml\"><div class=\"hapiHeaderText\">LabTestTooOld <b>NUMERFAIL </b></div><table class=\"hapiPropertyTable\"><tbody><tr><td>Identifier</td><td>3a3b648e0cc14e200f2d48b72852219e3b95e5787df1549ba35aedfebdf90868</td></tr><tr><td>Date of birth</td><td><span>02 January 1946</span></td></tr></tbody></table></div>"},"extension":[{"url":"http://hl7.org/fhir/us/core/StructureDefinition/us-core-race","extension":[{"url":"ombCategory","valueCoding":{"system":"urn:oid:2.16.840.1.113883.6.238","code":"1002-5","display":"American Indian or Alaska Native","userSelected":true}},{"url":"text","valueString":"American Indian or Alaska Native"}]},{"url":"http://hl7.org/fhir/us/core/StructureDefinition/us-core-ethnicity","extension":[{"url":"ombCategory","valueCoding":{"system":"urn:oid:2.16.840.1.113883.6.238","code":"2135-2","display":"Hispanic or Latino","userSelected":true}},{"url":"text","valueString":"Hispanic or Latino"}]}],"identifier":[{"type":{"coding":[{"system":"http://terminology.hl7.org/CodeSystem/v2-0203","code":"MR"}]},"system":"https://bonnie-fhir.healthit.gov/","value":"610965b898086b538055c14e"}],"active":true,"name":[{"use":"usual","family":"NUMERFail","given":["LabTestTooOld"]}],"gender":"male","birthDate":"1960-01-02"},"request":{"method":"PUT","url":"Patient/198a8ffe-cd3f-45f7-931b-897796c67247"}},{"fullUrl":"MeasureReport/049cfecc-8f1d-494d-a265-36179b35fe3a","resource":{"resourceType":"MeasureReport","id":"049cfecc-8f1d-494d-a265-36179b35fe3a","meta":{"profile":["http://hl7.org/fhir/us/cqfmeasures/StructureDefinition/test-case-cqfm"]},"contained":[{"resourceType":"Parameters","id":"2fdbe336-52b6-4af9-8df0-7276a87f7c86-parameters","parameter":[{"name":"subject","valueString":"198a8ffe-cd3f-45f7-931b-897796c67247"}]}],"extension":[{"url":"http://hl7.org/fhir/StructureDefinition/cqf-inputParameters","valueReference":{"reference":"#2fdbe336-52b6-4af9-8df0-7276a87f7c86-parameters"}},{"url":"http://hl7.org/fhir/us/cqfmeasures/StructureDefinition/cqfm-testCaseDescription","valueMarkdown":"Patient 65 at start of MP, qual encounter during MP, lab test at 66 during MP."}],"modifierExtension":[{"url":"http://hl7.org/fhir/us/cqfmeasures/StructureDefinition/cqfm-isTestCase","valueBoolean":true}],"status":"complete","type":"individual","measure":"https://madie.cms.gov/Measure/CMS349FHIRHIVScreening","period":{"start":"2026-01-01","end":"2026-12-31"},"group":[{"id":"Group_1","population":[{"id":"InitialPopulation_1","code":{"coding":[{"system":"http://terminology.hl7.org/CodeSystem/measure-population","code":"initial-population","display":"Initial Population"}]},"count":1},{"id":"Denominator_1","code":{"coding":[{"system":"http://terminology.hl7.org/CodeSystem/measure-population","code":"denominator","display":"Denominator"}]},"count":1},{"id":"DenominatorExclusion_1","code":{"coding":[{"system":"http://terminology.hl7.org/CodeSystem/measure-population","code":"denominator-exclusion","display":"Denominator Exclusion"}]},"count":0},{"id":"Numerator_1","code":{"coding":[{"system":"http://terminology.hl7.org/CodeSystem/measure-population","code":"numerator","display":"Numerator"}]},"count":0},{"id":"DenominatorException_1","code":{"coding":[{"system":"http://terminology.hl7.org/CodeSystem/measure-population","code":"denominator-exception","display":"Denominator Exception"}]},"count":0}],"measureScore":{"value":1.0}}],"evaluatedResource":[{"reference":"Patient/198a8ffe-cd3f-45f7-931b-897796c67247"},{"reference":"Encounter/6813c5cf-12fd-47bd-80ae-54d85082440a"},{"reference":"Observation/e11e9472-60d2-4a2e-8468-bd7210d83e56"}]},"request":{"method":"PUT","url":"MeasureReport/049cfecc-8f1d-494d-a265-36179b35fe3a"}},{"fullUrl":"Bundle/610965b898086b538055c14e","resource":{"resourceType":"Bundle","id":"610965b898086b538055c14e","type":"transaction","entry":[{"fullUrl":"https://madie.cms.gov/Patient/198a8ffe-cd3f-45f7-931b-897796c67247","resource":{"resourceType":"Patient","id":"198a8ffe-cd3f-45f7-931b-897796c67247","meta":{"profile":["http://hl7.org/fhir/us/qicore/StructureDefinition/qicore-patient"]},"text":{"status":"generated","div":"<div xmlns=\"http://www.w3.org/1999/xhtml\"><div class=\"hapiHeaderText\">LabTestTooOld <b>NUMERFAIL </b></div><table class=\"hapiPropertyTable\"><tbody><tr><td>Identifier</td><td>3a3b648e0cc14e200f2d48b72852219e3b95e5787df1549ba35aedfebdf90868</td></tr><tr><td>Date of birth</td><td><span>02 January 1946</span></td></tr></tbody></table></div>"},"extension":[{"url":"http://hl7.org/fhir/us/core/StructureDefinition/us-core-race","extension":[{"url":"ombCategory","valueCoding":{"system":"urn:oid:2.16.840.1.113883.6.238","code":"1002-5","display":"American Indian or Alaska Native","userSelected":true}},{"url":"text","valueString":"American Indian or Alaska Native"}]},{"url":"http://hl7.org/fhir/us/core/StructureDefinition/us-core-ethnicity","extension":[{"url":"ombCategory","valueCoding":{"system":"urn:oid:2.16.840.1.113883.6.238","code":"2135-2","display":"Hispanic or Latino","userSelected":true}},{"url":"text","valueString":"Hispanic or Latino"}]}],"identifier":[{"type":{"coding":[{"system":"http://terminology.hl7.org/CodeSystem/v2-0203","code":"MR"}]},"system":"https://bonnie-fhir.healthit.gov/","value":"610965b898086b538055c14e"}],"active":true,"name":[{"use":"usual","family":"NUMERFail","given":["LabTestTooOld"]}],"gender":"male","birthDate":"1960-01-02"},"request":{"method":"PUT","url":"Patient/198a8ffe-cd3f-45f7-931b-897796c67247"}},{"fullUrl":"https://madie.cms.gov/Encounter/6813c5cf-12fd-47bd-80ae-54d85082440a","resource":{"resourceType":"Encounter","id":"6813c5cf-12fd-47bd-80ae-54d85082440a","meta":{"profile":["http://hl7.org/fhir/us/qicore/StructureDefinition/qicore-encounter"]},"status":"finished","class":{"system":"http://terminology.hl7.org/CodeSystem/v3-ActCode","code":"AMB","display":"ambulatory","userSelected":true},"type":[{"coding":[{"system":"http://www.ama-assn.org/go/cpt","code":"99395"}]}],"subject":{"reference":"Patient/198a8ffe-cd3f-45f7-931b-897796c67247"},"period":{"start":"2026-02-06T08:00:00.000+00:00","end":"2026-02-06T08:15:00.000+00:00"}},"request":{"method":"PUT","url":"Encounter/6813c5cf-12fd-47bd-80ae-54d85082440a"}},{"fullUrl":"https://madie.cms.gov/Observation/e11e9472-60d2-4a2e-8468-bd7210d83e56","resource":{"resourceType":"Observation","id":"e11e9472-60d2-4a2e-8468-bd7210d83e56","meta":{"profile":["http://hl7.org/fhir/us/qicore/StructureDefinition/qicore-observation-lab"]},"status":"final","category":[{"coding":[{"system":"http://terminology.hl7.org/CodeSystem/observation-category","code":"laboratory","display":"Laboratory","userSelected":true}]}],"code":{"coding":[{"system":"http://loinc.org","code":"10901-7"}]},"subject":{"reference":"Patient/198a8ffe-cd3f-45f7-931b-897796c67247"},"effectiveDateTime":"2026-04-06T08:00:00.000+00:00","valueBoolean":true},"request":{"method":"PUT","url":"Observation/e11e9472-60d2-4a2e-8468-bd7210d83e56"}},{"fullUrl":"https://madie.cms.gov/MeasureReport/049cfecc-8f1d-494d-a265-36179b35fe3a","resource":{"resourceType":"MeasureReport","id":"049cfecc-8f1d-494d-a265-36179b35fe3a","meta":{"profile":["http://hl7.org/fhir/us/cqfmeasures/StructureDefinition/test-case-cqfm"]},"contained":[{"resourceType":"Parameters","id":"2fdbe336-52b6-4af9-8df0-7276a87f7c86-parameters","parameter":[{"name":"subject","valueString":"198a8ffe-cd3f-45f7-931b-897796c67247"}]}],"extension":[{"url":"http://hl7.org/fhir/StructureDefinition/cqf-inputParameters","valueReference":{"reference":"#2fdbe336-52b6-4af9-8df0-7276a87f7c86-parameters"}},{"url":"http://hl7.org/fhir/us/cqfmeasures/StructureDefinition/cqfm-testCaseDescription","valueMarkdown":"Patient 65 at start of MP, qual encounter during MP, lab test at 66 during MP."}],"modifierExtension":[{"url":"http://hl7.org/fhir/us/cqfmeasures/StructureDefinition/cqfm-isTestCase","valueBoolean":true}],"status":"complete","type":"individual","measure":"https://madie.cms.gov/Measure/CMS349FHIRHIVScreening","period":{"start":"2026-01-01","end":"2026-12-31"},"group":[{"id":"Group_1","population":[{"id":"InitialPopulation_1","code":{"coding":[{"system":"http://terminology.hl7.org/CodeSystem/measure-population","code":"initial-population","display":"Initial Population"}]},"count":1},{"id":"Denominator_1","code":{"coding":[{"system":"http://terminology.hl7.org/CodeSystem/measure-population","code":"denominator","display":"Denominator"}]},"count":1},{"id":"DenominatorExclusion_1","code":{"coding":[{"system":"http://terminology.hl7.org/CodeSystem/measure-population","code":"denominator-exclusion","display":"Denominator Exclusion"}]},"count":0},{"id":"Numerator_1","code":{"coding":[{"system":"http://terminology.hl7.org/CodeSystem/measure-population","code":"numerator","display":"Numerator"}]},"count":0},{"id":"DenominatorException_1","code":{"coding":[{"system":"http://terminology.hl7.org/CodeSystem/measure-population","code":"denominator-exception","display":"Denominator Exception"}]},"count":0}],"measureScore":{"value":1.0}}],"evaluatedResource":[{"reference":"Patient/198a8ffe-cd3f-45f7-931b-897796c67247"},{"reference":"Encounter/6813c5cf-12fd-47bd-80ae-54d85082440a"},{"reference":"Observation/e11e9472-60d2-4a2e-8468-bd7210d83e56"}]},"request":{"method":"PUT","url":"MeasureReport/049cfecc-8f1d-494d-a265-36179b35fe3a"}}]},"request":{"method":"PUT","url":"Bundle/610965b898086b538055c14e"}},{"fullUrl":"Observation/e11e9472-60d2-4a2e-8468-bd7210d83e56","resource":{"resourceType":"Observation","id":"e11e9472-60d2-4a2e-8468-bd7210d83e56","meta":{"profile":["http://hl7.org/fhir/us/qicore/StructureDefinition/qicore-observation-lab"]},"status":"final","category":[{"coding":[{"system":"http://terminology.hl7.org/CodeSystem/observation-category","code":"laboratory","display":"Laboratory","userSelected":true}]}],"code":{"coding":[{"system":"http://loinc.org","code":"10901-7"}]},"subject":{"reference":"Patient/198a8ffe-cd3f-45f7-931b-897796c67247"},"effectiveDateTime":"2026-04-06T08:00:00.000+00:00","valueBoolean":true},"request":{"method":"PUT","url":"Observation/e11e9472-60d2-4a2e-8468-bd7210d83e56"}},{"fullUrl":"Encounter/6813c5cf-12fd-47bd-80ae-54d85082440a","resource":{"resourceType":"Encounter","id":"6813c5cf-12fd-47bd-80ae-54d85082440a","meta":{"profile":["http://hl7.org/fhir/us/qicore/StructureDefinition/qicore-encounter"]},"status":"finished","class":{"system":"http://terminology.hl7.org/CodeSystem/v3-ActCode","code":"AMB","display":"ambulatory","userSelected":true},"type":[{"coding":[{"system":"http://www.ama-assn.org/go/cpt","code":"99395"}]}],"subject":{"reference":"Patient/198a8ffe-cd3f-45f7-931b-897796c67247"},"period":{"start":"2026-02-06T08:00:00.000+00:00","end":"2026-02-06T08:15:00.000+00:00"}},"request":{"method":"PUT","url":"Encounter/6813c5cf-12fd-47bd-80ae-54d85082440a"}}]}