{"resourceType":"Bundle","id":"tests-40677ab0-38af-4fe1-8cc0-bcd41c14d37d-bundle","type":"transaction","entry":[{"fullUrl":"Encounter/1f7808c3-856e-47b1-83e5-80f62d062702","resource":{"resourceType":"Encounter","id":"1f7808c3-856e-47b1-83e5-80f62d062702","meta":{"profile":["http://hl7.org/fhir/us/qicore/StructureDefinition/qicore-encounter"]},"status":"finished","class":{"system":"http://terminology.hl7.org/CodeSystem/v3-ActCode","code":"AMB","display":"ambulatory","userSelected":true},"type":[{"coding":[{"system":"http://snomed.info/sct","code":"185463005"},{"system":"http://www.ama-assn.org/go/cpt","code":"99204"}]}],"subject":{"reference":"Patient/40677ab0-38af-4fe1-8cc0-bcd41c14d37d"},"period":{"start":"2026-10-24T08:00:00.000+00:00","end":"2026-10-24T08:15:00.000+00:00"}},"request":{"method":"PUT","url":"Encounter/1f7808c3-856e-47b1-83e5-80f62d062702"}},{"fullUrl":"Patient/40677ab0-38af-4fe1-8cc0-bcd41c14d37d","resource":{"resourceType":"Patient","id":"40677ab0-38af-4fe1-8cc0-bcd41c14d37d","meta":{"profile":["http://hl7.org/fhir/us/qicore/StructureDefinition/qicore-patient"]},"text":{"status":"generated","div":"<div xmlns=\"http://www.w3.org/1999/xhtml\"><div class=\"hapiHeaderText\">LabTestHIVDxBeforeMP <b>NUMERFAIL </b></div><table class=\"hapiPropertyTable\"><tbody><tr><td>Date of birth</td><td><span>31 July 1992</span></td></tr></tbody></table></div>"},"extension":[{"url":"http://hl7.org/fhir/us/core/StructureDefinition/us-core-race","extension":[{"url":"ombCategory","valueCoding":{"system":"urn:oid:2.16.840.1.113883.6.238","code":"2054-5","display":"Black or African American","userSelected":true}},{"url":"text","valueString":"Black or African American"}]},{"url":"http://hl7.org/fhir/us/core/StructureDefinition/us-core-ethnicity","extension":[{"url":"ombCategory","valueCoding":{"system":"urn:oid:2.16.840.1.113883.6.238","code":"2186-5","display":"Not Hispanic or Latino","userSelected":true}},{"url":"text","valueString":"Not Hispanic or Latino"}]}],"identifier":[{"type":{"coding":[{"system":"http://terminology.hl7.org/CodeSystem/v2-0203","code":"MR"}]},"system":"https://bonnie-fhir.healthit.gov/","value":"610965b898086b538055c154"}],"active":true,"name":[{"use":"usual","family":"NUMERFail","given":["LabTestHIVDxBeforeMP"]}],"gender":"female","birthDate":"2004-07-31"},"request":{"method":"PUT","url":"Patient/40677ab0-38af-4fe1-8cc0-bcd41c14d37d"}},{"fullUrl":"MeasureReport/0c73cf22-3859-4f13-9ace-282109c712e3","resource":{"resourceType":"MeasureReport","id":"0c73cf22-3859-4f13-9ace-282109c712e3","meta":{"profile":["http://hl7.org/fhir/us/cqfmeasures/StructureDefinition/test-case-cqfm"]},"contained":[{"resourceType":"Parameters","id":"9286d51b-de16-406d-b9a3-7ae16f370eef-parameters","parameter":[{"name":"subject","valueString":"40677ab0-38af-4fe1-8cc0-bcd41c14d37d"}]}],"extension":[{"url":"http://hl7.org/fhir/StructureDefinition/cqf-inputParameters","valueReference":{"reference":"#9286d51b-de16-406d-b9a3-7ae16f370eef-parameters"}},{"url":"http://hl7.org/fhir/us/cqfmeasures/StructureDefinition/cqfm-testCaseDescription","valueMarkdown":"Patient 20 at start of MP, qual encounter during MP, HIV diagnosis starts before MP and ends during MP, lab test at 20 during MP.\n*Kim: this fails num in Bonnie but passes here. In Bonnie the lab has to be before MP, but here it can be during"}],"modifierExtension":[{"url":"http://hl7.org/fhir/us/cqfmeasures/StructureDefinition/cqfm-isTestCase","valueBoolean":true}],"status":"complete","type":"individual","measure":"https://madie.cms.gov/Measure/CMS349FHIRHIVScreening","period":{"start":"2026-01-01","end":"2026-12-31"},"group":[{"id":"Group_1","population":[{"id":"InitialPopulation_1","code":{"coding":[{"system":"http://terminology.hl7.org/CodeSystem/measure-population","code":"initial-population","display":"Initial Population"}]},"count":1},{"id":"Denominator_1","code":{"coding":[{"system":"http://terminology.hl7.org/CodeSystem/measure-population","code":"denominator","display":"Denominator"}]},"count":1},{"id":"DenominatorExclusion_1","code":{"coding":[{"system":"http://terminology.hl7.org/CodeSystem/measure-population","code":"denominator-exclusion","display":"Denominator Exclusion"}]},"count":0},{"id":"Numerator_1","code":{"coding":[{"system":"http://terminology.hl7.org/CodeSystem/measure-population","code":"numerator","display":"Numerator"}]},"count":1},{"id":"DenominatorException_1","code":{"coding":[{"system":"http://terminology.hl7.org/CodeSystem/measure-population","code":"denominator-exception","display":"Denominator Exception"}]},"count":0}],"measureScore":{"value":1.0}}],"evaluatedResource":[{"reference":"Patient/40677ab0-38af-4fe1-8cc0-bcd41c14d37d"},{"reference":"Condition/f356707b-470a-44b1-942d-1387049bce6b"},{"reference":"Encounter/1f7808c3-856e-47b1-83e5-80f62d062702"},{"reference":"Observation/7f4ee8b5-bec9-466f-8d6b-d4c9d17b3b11"}]},"request":{"method":"PUT","url":"MeasureReport/0c73cf22-3859-4f13-9ace-282109c712e3"}},{"fullUrl":"Condition/f356707b-470a-44b1-942d-1387049bce6b","resource":{"resourceType":"Condition","id":"f356707b-470a-44b1-942d-1387049bce6b","meta":{"profile":["http://hl7.org/fhir/us/qicore/StructureDefinition/qicore-condition-encounter-diagnosis"]},"clinicalStatus":{"coding":[{"system":"http://terminology.hl7.org/CodeSystem/condition-clinical","version":"4.0.1","code":"inactive","display":"Inactive","userSelected":true}]},"category":[{"coding":[{"system":"http://terminology.hl7.org/CodeSystem/condition-category","code":"encounter-diagnosis","display":"Encounter Diagnosis","userSelected":true}]}],"code":{"coding":[{"system":"http://hl7.org/fhir/sid/icd-9-cm","code":"042"}]},"subject":{"reference":"Patient/40677ab0-38af-4fe1-8cc0-bcd41c14d37d"},"onsetDateTime":"2013-10-24T08:00:00+00:00","abatementDateTime":"2026-04-06T08:00:00.000+00:00"},"request":{"method":"PUT","url":"Condition/f356707b-470a-44b1-942d-1387049bce6b"}},{"fullUrl":"Observation/7f4ee8b5-bec9-466f-8d6b-d4c9d17b3b11","resource":{"resourceType":"Observation","id":"7f4ee8b5-bec9-466f-8d6b-d4c9d17b3b11","meta":{"profile":["http://hl7.org/fhir/us/qicore/StructureDefinition/qicore-observation-lab"]},"status":"amended","category":[{"coding":[{"system":"http://terminology.hl7.org/CodeSystem/observation-category","code":"laboratory","display":"Laboratory","userSelected":true}]}],"code":{"coding":[{"system":"http://loinc.org","code":"75622-1","display":"HIV 1 and 2 tests - Meaningful Use set","userSelected":true}]},"subject":{"reference":"Patient/40677ab0-38af-4fe1-8cc0-bcd41c14d37d"},"effectiveDateTime":"2026-04-06T08:00:00.000+00:00","valueBoolean":true},"request":{"method":"PUT","url":"Observation/7f4ee8b5-bec9-466f-8d6b-d4c9d17b3b11"}},{"fullUrl":"Bundle/610965b898086b538055c154","resource":{"resourceType":"Bundle","id":"610965b898086b538055c154","type":"transaction","entry":[{"fullUrl":"https://madie.cms.gov/Patient/40677ab0-38af-4fe1-8cc0-bcd41c14d37d","resource":{"resourceType":"Patient","id":"40677ab0-38af-4fe1-8cc0-bcd41c14d37d","meta":{"profile":["http://hl7.org/fhir/us/qicore/StructureDefinition/qicore-patient"]},"text":{"status":"generated","div":"<div xmlns=\"http://www.w3.org/1999/xhtml\"><div class=\"hapiHeaderText\">LabTestHIVDxBeforeMP <b>NUMERFAIL </b></div><table class=\"hapiPropertyTable\"><tbody><tr><td>Date of birth</td><td><span>31 July 1992</span></td></tr></tbody></table></div>"},"extension":[{"url":"http://hl7.org/fhir/us/core/StructureDefinition/us-core-race","extension":[{"url":"ombCategory","valueCoding":{"system":"urn:oid:2.16.840.1.113883.6.238","code":"2054-5","display":"Black or African American","userSelected":true}},{"url":"text","valueString":"Black or African American"}]},{"url":"http://hl7.org/fhir/us/core/StructureDefinition/us-core-ethnicity","extension":[{"url":"ombCategory","valueCoding":{"system":"urn:oid:2.16.840.1.113883.6.238","code":"2186-5","display":"Not Hispanic or Latino","userSelected":true}},{"url":"text","valueString":"Not Hispanic or Latino"}]}],"identifier":[{"type":{"coding":[{"system":"http://terminology.hl7.org/CodeSystem/v2-0203","code":"MR"}]},"system":"https://bonnie-fhir.healthit.gov/","value":"610965b898086b538055c154"}],"active":true,"name":[{"use":"usual","family":"NUMERFail","given":["LabTestHIVDxBeforeMP"]}],"gender":"female","birthDate":"2004-07-31"},"request":{"method":"PUT","url":"Patient/40677ab0-38af-4fe1-8cc0-bcd41c14d37d"}},{"fullUrl":"https://madie.cms.gov/Condition/f356707b-470a-44b1-942d-1387049bce6b","resource":{"resourceType":"Condition","id":"f356707b-470a-44b1-942d-1387049bce6b","meta":{"profile":["http://hl7.org/fhir/us/qicore/StructureDefinition/qicore-condition-encounter-diagnosis"]},"clinicalStatus":{"coding":[{"system":"http://terminology.hl7.org/CodeSystem/condition-clinical","version":"4.0.1","code":"inactive","display":"Inactive","userSelected":true}]},"category":[{"coding":[{"system":"http://terminology.hl7.org/CodeSystem/condition-category","code":"encounter-diagnosis","display":"Encounter Diagnosis","userSelected":true}]}],"code":{"coding":[{"system":"http://hl7.org/fhir/sid/icd-9-cm","code":"042"}]},"subject":{"reference":"Patient/40677ab0-38af-4fe1-8cc0-bcd41c14d37d"},"onsetDateTime":"2013-10-24T08:00:00+00:00","abatementDateTime":"2026-04-06T08:00:00.000+00:00"},"request":{"method":"PUT","url":"Condition/f356707b-470a-44b1-942d-1387049bce6b"}},{"fullUrl":"https://madie.cms.gov/Encounter/1f7808c3-856e-47b1-83e5-80f62d062702","resource":{"resourceType":"Encounter","id":"1f7808c3-856e-47b1-83e5-80f62d062702","meta":{"profile":["http://hl7.org/fhir/us/qicore/StructureDefinition/qicore-encounter"]},"status":"finished","class":{"system":"http://terminology.hl7.org/CodeSystem/v3-ActCode","code":"AMB","display":"ambulatory","userSelected":true},"type":[{"coding":[{"system":"http://snomed.info/sct","code":"185463005"},{"system":"http://www.ama-assn.org/go/cpt","code":"99204"}]}],"subject":{"reference":"Patient/40677ab0-38af-4fe1-8cc0-bcd41c14d37d"},"period":{"start":"2026-10-24T08:00:00.000+00:00","end":"2026-10-24T08:15:00.000+00:00"}},"request":{"method":"PUT","url":"Encounter/1f7808c3-856e-47b1-83e5-80f62d062702"}},{"fullUrl":"https://madie.cms.gov/Observation/7f4ee8b5-bec9-466f-8d6b-d4c9d17b3b11","resource":{"resourceType":"Observation","id":"7f4ee8b5-bec9-466f-8d6b-d4c9d17b3b11","meta":{"profile":["http://hl7.org/fhir/us/qicore/StructureDefinition/qicore-observation-lab"]},"status":"amended","category":[{"coding":[{"system":"http://terminology.hl7.org/CodeSystem/observation-category","code":"laboratory","display":"Laboratory","userSelected":true}]}],"code":{"coding":[{"system":"http://loinc.org","code":"75622-1","display":"HIV 1 and 2 tests - Meaningful Use set","userSelected":true}]},"subject":{"reference":"Patient/40677ab0-38af-4fe1-8cc0-bcd41c14d37d"},"effectiveDateTime":"2026-04-06T08:00:00.000+00:00","valueBoolean":true},"request":{"method":"PUT","url":"Observation/7f4ee8b5-bec9-466f-8d6b-d4c9d17b3b11"}},{"fullUrl":"https://madie.cms.gov/MeasureReport/0c73cf22-3859-4f13-9ace-282109c712e3","resource":{"resourceType":"MeasureReport","id":"0c73cf22-3859-4f13-9ace-282109c712e3","meta":{"profile":["http://hl7.org/fhir/us/cqfmeasures/StructureDefinition/test-case-cqfm"]},"contained":[{"resourceType":"Parameters","id":"9286d51b-de16-406d-b9a3-7ae16f370eef-parameters","parameter":[{"name":"subject","valueString":"40677ab0-38af-4fe1-8cc0-bcd41c14d37d"}]}],"extension":[{"url":"http://hl7.org/fhir/StructureDefinition/cqf-inputParameters","valueReference":{"reference":"#9286d51b-de16-406d-b9a3-7ae16f370eef-parameters"}},{"url":"http://hl7.org/fhir/us/cqfmeasures/StructureDefinition/cqfm-testCaseDescription","valueMarkdown":"Patient 20 at start of MP, qual encounter during MP, HIV diagnosis starts before MP and ends during MP, lab test at 20 during MP.\n*Kim: this fails num in Bonnie but passes here. In Bonnie the lab has to be before MP, but here it can be during"}],"modifierExtension":[{"url":"http://hl7.org/fhir/us/cqfmeasures/StructureDefinition/cqfm-isTestCase","valueBoolean":true}],"status":"complete","type":"individual","measure":"https://madie.cms.gov/Measure/CMS349FHIRHIVScreening","period":{"start":"2026-01-01","end":"2026-12-31"},"group":[{"id":"Group_1","population":[{"id":"InitialPopulation_1","code":{"coding":[{"system":"http://terminology.hl7.org/CodeSystem/measure-population","code":"initial-population","display":"Initial Population"}]},"count":1},{"id":"Denominator_1","code":{"coding":[{"system":"http://terminology.hl7.org/CodeSystem/measure-population","code":"denominator","display":"Denominator"}]},"count":1},{"id":"DenominatorExclusion_1","code":{"coding":[{"system":"http://terminology.hl7.org/CodeSystem/measure-population","code":"denominator-exclusion","display":"Denominator Exclusion"}]},"count":0},{"id":"Numerator_1","code":{"coding":[{"system":"http://terminology.hl7.org/CodeSystem/measure-population","code":"numerator","display":"Numerator"}]},"count":1},{"id":"DenominatorException_1","code":{"coding":[{"system":"http://terminology.hl7.org/CodeSystem/measure-population","code":"denominator-exception","display":"Denominator Exception"}]},"count":0}],"measureScore":{"value":1.0}}],"evaluatedResource":[{"reference":"Patient/40677ab0-38af-4fe1-8cc0-bcd41c14d37d"},{"reference":"Condition/f356707b-470a-44b1-942d-1387049bce6b"},{"reference":"Encounter/1f7808c3-856e-47b1-83e5-80f62d062702"},{"reference":"Observation/7f4ee8b5-bec9-466f-8d6b-d4c9d17b3b11"}]},"request":{"method":"PUT","url":"MeasureReport/0c73cf22-3859-4f13-9ace-282109c712e3"}}]},"request":{"method":"PUT","url":"Bundle/610965b898086b538055c154"}}]}