{"resourceType":"Bundle","id":"tests-a05a0ed5-b57d-4ce6-adc8-b4b9ec0403ae-bundle","type":"transaction","entry":[{"fullUrl":"MeasureReport/cd5819ab-99d3-45e7-93ba-eb161bce0373","resource":{"resourceType":"MeasureReport","id":"cd5819ab-99d3-45e7-93ba-eb161bce0373","meta":{"profile":["http://hl7.org/fhir/us/cqfmeasures/StructureDefinition/test-case-cqfm"]},"contained":[{"resourceType":"Parameters","id":"859bf000-7e0c-4209-a116-05f88caa09dc-parameters","parameter":[{"name":"subject","valueString":"a05a0ed5-b57d-4ce6-adc8-b4b9ec0403ae"}]}],"extension":[{"url":"http://hl7.org/fhir/StructureDefinition/cqf-inputParameters","valueReference":{"reference":"#859bf000-7e0c-4209-a116-05f88caa09dc-parameters"}},{"url":"http://hl7.org/fhir/us/cqfmeasures/StructureDefinition/cqfm-testCaseDescription","valueMarkdown":"Patient qualifies by name but does not have a qualifying encounter."}],"modifierExtension":[{"url":"http://hl7.org/fhir/us/cqfmeasures/StructureDefinition/cqfm-isTestCase","valueBoolean":true}],"status":"complete","type":"individual","measure":"https://madie.cms.gov/Measure/CMS349FHIRHIVScreening","period":{"start":"2026-01-01","end":"2026-12-31"},"group":[{"id":"Group_1","population":[{"id":"InitialPopulation_1","code":{"coding":[{"system":"http://terminology.hl7.org/CodeSystem/measure-population","code":"initial-population","display":"Initial Population"}]},"count":0},{"id":"Denominator_1","code":{"coding":[{"system":"http://terminology.hl7.org/CodeSystem/measure-population","code":"denominator","display":"Denominator"}]},"count":0},{"id":"DenominatorExclusion_1","code":{"coding":[{"system":"http://terminology.hl7.org/CodeSystem/measure-population","code":"denominator-exclusion","display":"Denominator Exclusion"}]},"count":0},{"id":"Numerator_1","code":{"coding":[{"system":"http://terminology.hl7.org/CodeSystem/measure-population","code":"numerator","display":"Numerator"}]},"count":0},{"id":"DenominatorException_1","code":{"coding":[{"system":"http://terminology.hl7.org/CodeSystem/measure-population","code":"denominator-exception","display":"Denominator Exception"}]},"count":0}],"measureScore":{"value":1.0}}],"evaluatedResource":[{"reference":"Patient/a05a0ed5-b57d-4ce6-adc8-b4b9ec0403ae"}]},"request":{"method":"PUT","url":"MeasureReport/cd5819ab-99d3-45e7-93ba-eb161bce0373"}},{"fullUrl":"Patient/a05a0ed5-b57d-4ce6-adc8-b4b9ec0403ae","resource":{"resourceType":"Patient","id":"a05a0ed5-b57d-4ce6-adc8-b4b9ec0403ae","meta":{"profile":["http://hl7.org/fhir/us/qicore/StructureDefinition/qicore-patient"]},"text":{"status":"generated","div":"<div xmlns=\"http://www.w3.org/1999/xhtml\"><div class=\"hapiHeaderText\">NoEncounter <b>IPPFAIL </b></div><table class=\"hapiPropertyTable\"><tbody><tr><td>Identifier</td><td>3f32d52744f86ba776a08958282d8c783d541b6e898e64a7e1df9ffd69c42a02</td></tr><tr><td>Date of birth</td><td><span>31 July 1992</span></td></tr></tbody></table></div>"},"extension":[{"url":"http://hl7.org/fhir/us/core/StructureDefinition/us-core-race","extension":[{"url":"ombCategory","valueCoding":{"system":"urn:oid:2.16.840.1.113883.6.238","code":"1002-5","display":"American Indian or Alaska Native","userSelected":true}},{"url":"text","valueString":"American Indian or Alaska Native"}]},{"url":"http://hl7.org/fhir/us/core/StructureDefinition/us-core-ethnicity","extension":[{"url":"ombCategory","valueCoding":{"system":"urn:oid:2.16.840.1.113883.6.238","code":"2135-2","display":"Hispanic or Latino","userSelected":true}},{"url":"text","valueString":"Hispanic or Latino"}]}],"identifier":[{"type":{"coding":[{"system":"http://terminology.hl7.org/CodeSystem/v2-0203","code":"MR"}]},"system":"https://bonnie-fhir.healthit.gov/","value":"610965b898086b538055c14d"}],"active":true,"name":[{"use":"usual","family":"IPPFail","given":["NoEncounter"]}],"gender":"male","birthDate":"1995-07-31"},"request":{"method":"PUT","url":"Patient/a05a0ed5-b57d-4ce6-adc8-b4b9ec0403ae"}},{"fullUrl":"Bundle/610965b898086b538055c14d","resource":{"resourceType":"Bundle","id":"610965b898086b538055c14d","type":"transaction","entry":[{"fullUrl":"https://madie.cms.gov/Patient/a05a0ed5-b57d-4ce6-adc8-b4b9ec0403ae","resource":{"resourceType":"Patient","id":"a05a0ed5-b57d-4ce6-adc8-b4b9ec0403ae","meta":{"profile":["http://hl7.org/fhir/us/qicore/StructureDefinition/qicore-patient"]},"text":{"status":"generated","div":"<div xmlns=\"http://www.w3.org/1999/xhtml\"><div class=\"hapiHeaderText\">NoEncounter <b>IPPFAIL </b></div><table class=\"hapiPropertyTable\"><tbody><tr><td>Identifier</td><td>3f32d52744f86ba776a08958282d8c783d541b6e898e64a7e1df9ffd69c42a02</td></tr><tr><td>Date of birth</td><td><span>31 July 1992</span></td></tr></tbody></table></div>"},"extension":[{"url":"http://hl7.org/fhir/us/core/StructureDefinition/us-core-race","extension":[{"url":"ombCategory","valueCoding":{"system":"urn:oid:2.16.840.1.113883.6.238","code":"1002-5","display":"American Indian or Alaska Native","userSelected":true}},{"url":"text","valueString":"American Indian or Alaska Native"}]},{"url":"http://hl7.org/fhir/us/core/StructureDefinition/us-core-ethnicity","extension":[{"url":"ombCategory","valueCoding":{"system":"urn:oid:2.16.840.1.113883.6.238","code":"2135-2","display":"Hispanic or Latino","userSelected":true}},{"url":"text","valueString":"Hispanic or Latino"}]}],"identifier":[{"type":{"coding":[{"system":"http://terminology.hl7.org/CodeSystem/v2-0203","code":"MR"}]},"system":"https://bonnie-fhir.healthit.gov/","value":"610965b898086b538055c14d"}],"active":true,"name":[{"use":"usual","family":"IPPFail","given":["NoEncounter"]}],"gender":"male","birthDate":"1995-07-31"},"request":{"method":"PUT","url":"Patient/a05a0ed5-b57d-4ce6-adc8-b4b9ec0403ae"}},{"fullUrl":"https://madie.cms.gov/MeasureReport/cd5819ab-99d3-45e7-93ba-eb161bce0373","resource":{"resourceType":"MeasureReport","id":"cd5819ab-99d3-45e7-93ba-eb161bce0373","meta":{"profile":["http://hl7.org/fhir/us/cqfmeasures/StructureDefinition/test-case-cqfm"]},"contained":[{"resourceType":"Parameters","id":"859bf000-7e0c-4209-a116-05f88caa09dc-parameters","parameter":[{"name":"subject","valueString":"a05a0ed5-b57d-4ce6-adc8-b4b9ec0403ae"}]}],"extension":[{"url":"http://hl7.org/fhir/StructureDefinition/cqf-inputParameters","valueReference":{"reference":"#859bf000-7e0c-4209-a116-05f88caa09dc-parameters"}},{"url":"http://hl7.org/fhir/us/cqfmeasures/StructureDefinition/cqfm-testCaseDescription","valueMarkdown":"Patient qualifies by name but does not have a qualifying encounter."}],"modifierExtension":[{"url":"http://hl7.org/fhir/us/cqfmeasures/StructureDefinition/cqfm-isTestCase","valueBoolean":true}],"status":"complete","type":"individual","measure":"https://madie.cms.gov/Measure/CMS349FHIRHIVScreening","period":{"start":"2026-01-01","end":"2026-12-31"},"group":[{"id":"Group_1","population":[{"id":"InitialPopulation_1","code":{"coding":[{"system":"http://terminology.hl7.org/CodeSystem/measure-population","code":"initial-population","display":"Initial Population"}]},"count":0},{"id":"Denominator_1","code":{"coding":[{"system":"http://terminology.hl7.org/CodeSystem/measure-population","code":"denominator","display":"Denominator"}]},"count":0},{"id":"DenominatorExclusion_1","code":{"coding":[{"system":"http://terminology.hl7.org/CodeSystem/measure-population","code":"denominator-exclusion","display":"Denominator Exclusion"}]},"count":0},{"id":"Numerator_1","code":{"coding":[{"system":"http://terminology.hl7.org/CodeSystem/measure-population","code":"numerator","display":"Numerator"}]},"count":0},{"id":"DenominatorException_1","code":{"coding":[{"system":"http://terminology.hl7.org/CodeSystem/measure-population","code":"denominator-exception","display":"Denominator Exception"}]},"count":0}],"measureScore":{"value":1.0}}],"evaluatedResource":[{"reference":"Patient/a05a0ed5-b57d-4ce6-adc8-b4b9ec0403ae"}]},"request":{"method":"PUT","url":"MeasureReport/cd5819ab-99d3-45e7-93ba-eb161bce0373"}}]},"request":{"method":"PUT","url":"Bundle/610965b898086b538055c14d"}}]}