{"resourceType":"Bundle","id":"tests-18ad99cd-c0b1-48c9-ab0b-bb3ab66e1c18-bundle","type":"transaction","entry":[{"resource":{"resourceType":"Encounter","id":"560413b6-6810-48fb-98ae-f17be3b702ee","meta":{"profile":["http://hl7.org/fhir/us/qicore/StructureDefinition/qicore-encounter"]},"status":"finished","class":{"system":"http://terminology.hl7.org/CodeSystem/v3-ActCode","code":"AMB","display":"ambulatory","userSelected":true},"type":[{"coding":[{"system":"http://www.ama-assn.org/go/cpt","code":"99386"}]}],"subject":{"reference":"Patient/18ad99cd-c0b1-48c9-ab0b-bb3ab66e1c18"},"period":{"start":"2026-02-15T08:00:00.000+00:00","end":"2026-02-15T08:15:00.000+00:00"}},"request":{"method":"PUT","url":"Encounter/560413b6-6810-48fb-98ae-f17be3b702ee"}},{"resource":{"resourceType":"MeasureReport","id":"67c95f1e-2a29-4013-8c5b-9eb6f5ee0636","meta":{"profile":["http://hl7.org/fhir/us/cqfmeasures/StructureDefinition/test-case-cqfm"]},"contained":[{"resourceType":"Parameters","id":"26cd35ba-1aa8-453b-b240-26d95ccc935a-parameters","parameter":[{"name":"subject","valueString":"18ad99cd-c0b1-48c9-ab0b-bb3ab66e1c18"}]}],"extension":[{"url":"http://hl7.org/fhir/StructureDefinition/cqf-inputParameters","valueReference":{"reference":"#26cd35ba-1aa8-453b-b240-26d95ccc935a-parameters"}},{"url":"http://hl7.org/fhir/us/cqfmeasures/StructureDefinition/cqfm-testCaseDescription","valueMarkdown":"Patient is age 65 on start of MP with a qualifying encounter"}],"modifierExtension":[{"url":"http://hl7.org/fhir/us/cqfmeasures/StructureDefinition/cqfm-isTestCase","valueBoolean":true}],"status":"complete","type":"individual","measure":"https://madie.cms.gov/Measure/CMS349FHIRHIVScreening","period":{"start":"2026-01-01","end":"2026-12-31"},"group":[{"id":"Group_1","population":[{"id":"InitialPopulation_1","code":{"coding":[{"system":"http://terminology.hl7.org/CodeSystem/measure-population","code":"initial-population","display":"Initial Population"}]},"count":1},{"id":"Denominator_1","code":{"coding":[{"system":"http://terminology.hl7.org/CodeSystem/measure-population","code":"denominator","display":"Denominator"}]},"count":1},{"id":"DenominatorExclusion_1","code":{"coding":[{"system":"http://terminology.hl7.org/CodeSystem/measure-population","code":"denominator-exclusion","display":"Denominator Exclusion"}]},"count":0},{"id":"Numerator_1","code":{"coding":[{"system":"http://terminology.hl7.org/CodeSystem/measure-population","code":"numerator","display":"Numerator"}]},"count":0},{"id":"DenominatorException_1","code":{"coding":[{"system":"http://terminology.hl7.org/CodeSystem/measure-population","code":"denominator-exception","display":"Denominator Exception"}]},"count":1}],"measureScore":{"value":1.0}}],"evaluatedResource":[{"reference":"Patient/18ad99cd-c0b1-48c9-ab0b-bb3ab66e1c18"},{"reference":"Encounter/560413b6-6810-48fb-98ae-f17be3b702ee"}]},"request":{"method":"PUT","url":"MeasureReport/67c95f1e-2a29-4013-8c5b-9eb6f5ee0636"}},{"resource":{"resourceType":"Patient","id":"18ad99cd-c0b1-48c9-ab0b-bb3ab66e1c18","meta":{"profile":["http://hl7.org/fhir/us/qicore/StructureDefinition/qicore-patient"]},"text":{"status":"generated","div":"<div xmlns=\"http://www.w3.org/1999/xhtml\"><div class=\"hapiHeaderText\">Age65atstartofMP <b>IPPASS </b></div><table class=\"hapiPropertyTable\"><tbody><tr><td>Date of birth</td><td><span>01 January 1947</span></td></tr></tbody></table></div>"},"extension":[{"url":"http://hl7.org/fhir/us/core/StructureDefinition/us-core-race","extension":[{"url":"ombCategory","valueCoding":{"system":"urn:oid:2.16.840.1.113883.6.238","code":"2028-9","display":"Asian","userSelected":true}},{"url":"text","valueString":"Asian"}]},{"url":"http://hl7.org/fhir/us/core/StructureDefinition/us-core-ethnicity","extension":[{"url":"ombCategory","valueCoding":{"system":"urn:oid:2.16.840.1.113883.6.238","code":"2186-5","display":"Not Hispanic or Latino","userSelected":true}},{"url":"text","valueString":"Not Hispanic or Latino"}]}],"identifier":[{"type":{"coding":[{"system":"http://terminology.hl7.org/CodeSystem/v2-0203","code":"MR"}]},"system":"https://bonnie-fhir.healthit.gov/","value":"610965b998086b538055c162"}],"active":true,"name":[{"use":"usual","family":"IPPPass","given":["Age65Jan1"]}],"gender":"male","birthDate":"1961-01-01","deceasedDateTime":"2026-06-01T00:00:00.000Z"},"request":{"method":"PUT","url":"Patient/18ad99cd-c0b1-48c9-ab0b-bb3ab66e1c18"}},{"resource":{"resourceType":"Bundle","id":"610965b998086b538055c162","type":"transaction","entry":[{"fullUrl":"https://madie.cms.gov/Patient/18ad99cd-c0b1-48c9-ab0b-bb3ab66e1c18","resource":{"resourceType":"Patient","id":"18ad99cd-c0b1-48c9-ab0b-bb3ab66e1c18","meta":{"profile":["http://hl7.org/fhir/us/qicore/StructureDefinition/qicore-patient"]},"text":{"status":"generated","div":"<div xmlns=\"http://www.w3.org/1999/xhtml\"><div class=\"hapiHeaderText\">Age65atstartofMP <b>IPPASS </b></div><table class=\"hapiPropertyTable\"><tbody><tr><td>Date of birth</td><td><span>01 January 1947</span></td></tr></tbody></table></div>"},"extension":[{"url":"http://hl7.org/fhir/us/core/StructureDefinition/us-core-race","extension":[{"url":"ombCategory","valueCoding":{"system":"urn:oid:2.16.840.1.113883.6.238","code":"2028-9","display":"Asian","userSelected":true}},{"url":"text","valueString":"Asian"}]},{"url":"http://hl7.org/fhir/us/core/StructureDefinition/us-core-ethnicity","extension":[{"url":"ombCategory","valueCoding":{"system":"urn:oid:2.16.840.1.113883.6.238","code":"2186-5","display":"Not Hispanic or Latino","userSelected":true}},{"url":"text","valueString":"Not Hispanic or Latino"}]}],"identifier":[{"type":{"coding":[{"system":"http://terminology.hl7.org/CodeSystem/v2-0203","code":"MR"}]},"system":"https://bonnie-fhir.healthit.gov/","value":"610965b998086b538055c162"}],"active":true,"name":[{"use":"usual","family":"IPPPass","given":["Age65Jan1"]}],"gender":"male","birthDate":"1961-01-01","deceasedDateTime":"2026-06-01T00:00:00.000Z"},"request":{"method":"PUT","url":"Patient/18ad99cd-c0b1-48c9-ab0b-bb3ab66e1c18"}},{"fullUrl":"https://madie.cms.gov/Encounter/560413b6-6810-48fb-98ae-f17be3b702ee","resource":{"resourceType":"Encounter","id":"560413b6-6810-48fb-98ae-f17be3b702ee","meta":{"profile":["http://hl7.org/fhir/us/qicore/StructureDefinition/qicore-encounter"]},"status":"finished","class":{"system":"http://terminology.hl7.org/CodeSystem/v3-ActCode","code":"AMB","display":"ambulatory","userSelected":true},"type":[{"coding":[{"system":"http://www.ama-assn.org/go/cpt","code":"99386"}]}],"subject":{"reference":"Patient/18ad99cd-c0b1-48c9-ab0b-bb3ab66e1c18"},"period":{"start":"2026-02-15T08:00:00.000+00:00","end":"2026-02-15T08:15:00.000+00:00"}},"request":{"method":"PUT","url":"Encounter/560413b6-6810-48fb-98ae-f17be3b702ee"}},{"fullUrl":"https://madie.cms.gov/MeasureReport/67c95f1e-2a29-4013-8c5b-9eb6f5ee0636","resource":{"resourceType":"MeasureReport","id":"67c95f1e-2a29-4013-8c5b-9eb6f5ee0636","meta":{"profile":["http://hl7.org/fhir/us/cqfmeasures/StructureDefinition/test-case-cqfm"]},"contained":[{"resourceType":"Parameters","id":"26cd35ba-1aa8-453b-b240-26d95ccc935a-parameters","parameter":[{"name":"subject","valueString":"18ad99cd-c0b1-48c9-ab0b-bb3ab66e1c18"}]}],"extension":[{"url":"http://hl7.org/fhir/StructureDefinition/cqf-inputParameters","valueReference":{"reference":"#26cd35ba-1aa8-453b-b240-26d95ccc935a-parameters"}},{"url":"http://hl7.org/fhir/us/cqfmeasures/StructureDefinition/cqfm-testCaseDescription","valueMarkdown":"Patient is age 65 on start of MP with a qualifying encounter"}],"modifierExtension":[{"url":"http://hl7.org/fhir/us/cqfmeasures/StructureDefinition/cqfm-isTestCase","valueBoolean":true}],"status":"complete","type":"individual","measure":"https://madie.cms.gov/Measure/CMS349FHIRHIVScreening","period":{"start":"2026-01-01","end":"2026-12-31"},"group":[{"id":"Group_1","population":[{"id":"InitialPopulation_1","code":{"coding":[{"system":"http://terminology.hl7.org/CodeSystem/measure-population","code":"initial-population","display":"Initial Population"}]},"count":1},{"id":"Denominator_1","code":{"coding":[{"system":"http://terminology.hl7.org/CodeSystem/measure-population","code":"denominator","display":"Denominator"}]},"count":1},{"id":"DenominatorExclusion_1","code":{"coding":[{"system":"http://terminology.hl7.org/CodeSystem/measure-population","code":"denominator-exclusion","display":"Denominator Exclusion"}]},"count":0},{"id":"Numerator_1","code":{"coding":[{"system":"http://terminology.hl7.org/CodeSystem/measure-population","code":"numerator","display":"Numerator"}]},"count":0},{"id":"DenominatorException_1","code":{"coding":[{"system":"http://terminology.hl7.org/CodeSystem/measure-population","code":"denominator-exception","display":"Denominator Exception"}]},"count":1}],"measureScore":{"value":1.0}}],"evaluatedResource":[{"reference":"Patient/18ad99cd-c0b1-48c9-ab0b-bb3ab66e1c18"},{"reference":"Encounter/560413b6-6810-48fb-98ae-f17be3b702ee"}]},"request":{"method":"PUT","url":"MeasureReport/67c95f1e-2a29-4013-8c5b-9eb6f5ee0636"}}]},"request":{"method":"PUT","url":"Bundle/610965b998086b538055c162"}}]}