{"resourceType":"Bundle","id":"tests-ffb7a0c4-fcef-46ff-9593-f3cebe574e21-bundle","type":"transaction","entry":[{"fullUrl":"Patient/ffb7a0c4-fcef-46ff-9593-f3cebe574e21","resource":{"resourceType":"Patient","id":"ffb7a0c4-fcef-46ff-9593-f3cebe574e21","meta":{"profile":["http://hl7.org/fhir/us/qicore/StructureDefinition/qicore-patient"]},"text":{"status":"generated","div":"<div xmlns=\"http://www.w3.org/1999/xhtml\"><div class=\"hapiHeaderText\">LabTestHIVDxDuringMPrelevantDatetime <b>NUMERPASS </b></div><table class=\"hapiPropertyTable\"><tbody><tr><td>Date of birth</td><td><span>31 July 1992</span></td></tr></tbody></table></div>"},"extension":[{"url":"http://hl7.org/fhir/us/core/StructureDefinition/us-core-race","extension":[{"url":"ombCategory","valueCoding":{"system":"urn:oid:2.16.840.1.113883.6.238","code":"1002-5","display":"American Indian or Alaska Native","userSelected":true}},{"url":"text","valueString":"American Indian or Alaska Native"},{"url":"detailed","valueCoding":{"system":"urn:oid:2.16.840.1.113883.6.238","code":"1653-5","display":"Tohono O'Odham"}}]},{"url":"http://hl7.org/fhir/us/core/StructureDefinition/us-core-ethnicity","extension":[{"url":"ombCategory","valueCoding":{"system":"urn:oid:2.16.840.1.113883.6.238","code":"2135-2","display":"Hispanic or Latino","userSelected":true}},{"url":"text","valueString":"Not Hispanic or Latino"},{"url":"detailed","valueCoding":{"system":"urn:oid:2.16.840.1.113883.6.238","code":"2153-5","display":"Mexican American Indian"}}]}],"identifier":[{"type":{"coding":[{"system":"http://terminology.hl7.org/CodeSystem/v2-0203","code":"MR"}]},"system":"https://bonnie-fhir.healthit.gov/","value":"610965b898086b538055c153"}],"active":true,"name":[{"use":"usual","family":"NUMERPass","given":["LabTestHIVDxDuringMPrelevantDatetime"]}],"gender":"male","birthDate":"1994-07-31"},"request":{"method":"PUT","url":"Patient/ffb7a0c4-fcef-46ff-9593-f3cebe574e21"}},{"fullUrl":"Observation/c0db2486-c272-4a5a-899e-0b6eb05425dc","resource":{"resourceType":"Observation","id":"c0db2486-c272-4a5a-899e-0b6eb05425dc","meta":{"profile":["http://hl7.org/fhir/us/qicore/StructureDefinition/qicore-observation-lab"]},"status":"final","category":[{"coding":[{"system":"http://terminology.hl7.org/CodeSystem/observation-category","code":"laboratory","display":"Laboratory","userSelected":true}]}],"code":{"coding":[{"system":"http://loinc.org","code":"75622-1"}]},"subject":{"reference":"Patient/ffb7a0c4-fcef-46ff-9593-f3cebe574e21"},"effectiveDateTime":"2026-07-31T08:00:00.000+00:00","valueBoolean":true},"request":{"method":"PUT","url":"Observation/c0db2486-c272-4a5a-899e-0b6eb05425dc"}},{"fullUrl":"MeasureReport/05df64ab-d81b-479f-8454-681ad603f9b2","resource":{"resourceType":"MeasureReport","id":"05df64ab-d81b-479f-8454-681ad603f9b2","meta":{"profile":["http://hl7.org/fhir/us/cqfmeasures/StructureDefinition/test-case-cqfm"]},"contained":[{"resourceType":"Parameters","id":"b5b1d146-3d10-4cfe-903d-e96a70c8f42c-parameters","parameter":[{"name":"subject","valueString":"ffb7a0c4-fcef-46ff-9593-f3cebe574e21"}]}],"extension":[{"url":"http://hl7.org/fhir/StructureDefinition/cqf-inputParameters","valueReference":{"reference":"#b5b1d146-3d10-4cfe-903d-e96a70c8f42c-parameters"}},{"url":"http://hl7.org/fhir/us/cqfmeasures/StructureDefinition/cqfm-testCaseDescription","valueMarkdown":"Patient 31 at start of MP, qual encounter during MP, HIV diagnosis starts during MP, invalid lab test at 31 during MP. - relevantDatetime"}],"modifierExtension":[{"url":"http://hl7.org/fhir/us/cqfmeasures/StructureDefinition/cqfm-isTestCase","valueBoolean":true}],"status":"complete","type":"individual","measure":"https://madie.cms.gov/Measure/CMS349FHIRHIVScreening","period":{"start":"2026-01-01","end":"2026-12-31"},"group":[{"id":"Group_1","population":[{"id":"InitialPopulation_1","code":{"coding":[{"system":"http://terminology.hl7.org/CodeSystem/measure-population","code":"initial-population","display":"Initial Population"}]},"count":1},{"id":"Denominator_1","code":{"coding":[{"system":"http://terminology.hl7.org/CodeSystem/measure-population","code":"denominator","display":"Denominator"}]},"count":1},{"id":"DenominatorExclusion_1","code":{"coding":[{"system":"http://terminology.hl7.org/CodeSystem/measure-population","code":"denominator-exclusion","display":"Denominator Exclusion"}]},"count":0},{"id":"Numerator_1","code":{"coding":[{"system":"http://terminology.hl7.org/CodeSystem/measure-population","code":"numerator","display":"Numerator"}]},"count":1},{"id":"DenominatorException_1","code":{"coding":[{"system":"http://terminology.hl7.org/CodeSystem/measure-population","code":"denominator-exception","display":"Denominator Exception"}]},"count":0}],"measureScore":{"value":1.0}}],"evaluatedResource":[{"reference":"Patient/ffb7a0c4-fcef-46ff-9593-f3cebe574e21"},{"reference":"Condition/5f5b7fcc-81ec-42b3-8207-a46f68af14d2"},{"reference":"Encounter/8eabbfb5-4358-4862-885f-7f688d2fe884"},{"reference":"Observation/c0db2486-c272-4a5a-899e-0b6eb05425dc"}]},"request":{"method":"PUT","url":"MeasureReport/05df64ab-d81b-479f-8454-681ad603f9b2"}},{"fullUrl":"Encounter/8eabbfb5-4358-4862-885f-7f688d2fe884","resource":{"resourceType":"Encounter","id":"8eabbfb5-4358-4862-885f-7f688d2fe884","meta":{"profile":["http://hl7.org/fhir/us/qicore/StructureDefinition/qicore-encounter"]},"status":"finished","class":{"system":"http://terminology.hl7.org/CodeSystem/v3-ActCode","code":"AMB","display":"ambulatory","userSelected":true},"type":[{"coding":[{"system":"http://www.ama-assn.org/go/cpt","code":"99214"}]}],"subject":{"reference":"Patient/ffb7a0c4-fcef-46ff-9593-f3cebe574e21"},"period":{"start":"2026-10-24T08:00:00.000+00:00","end":"2026-10-24T08:15:00.000+00:00"}},"request":{"method":"PUT","url":"Encounter/8eabbfb5-4358-4862-885f-7f688d2fe884"}},{"fullUrl":"Condition/5f5b7fcc-81ec-42b3-8207-a46f68af14d2","resource":{"resourceType":"Condition","id":"5f5b7fcc-81ec-42b3-8207-a46f68af14d2","meta":{"profile":["http://hl7.org/fhir/us/qicore/StructureDefinition/qicore-condition-problems-health-concerns"]},"clinicalStatus":{"coding":[{"system":"http://terminology.hl7.org/CodeSystem/condition-clinical","code":"active"}]},"verificationStatus":{"coding":[{"system":"http://terminology.hl7.org/CodeSystem/condition-ver-status","code":"confirmed","display":"Confirmed","userSelected":true}]},"category":[{"coding":[{"system":"http://terminology.hl7.org/CodeSystem/condition-category","code":"problems-list-item","display":"Problem List Item","userSelected":true}]}],"code":{"coding":[{"system":"http://hl7.org/fhir/sid/icd-9-cm","code":"042"}]},"subject":{"reference":"Patient/ffb7a0c4-fcef-46ff-9593-f3cebe574e21"},"onsetDateTime":"2026-07-31T08:00:00.000+00:00","abatementDateTime":"2026-10-24T08:00:00.000+00:00"},"request":{"method":"PUT","url":"Condition/5f5b7fcc-81ec-42b3-8207-a46f68af14d2"}},{"fullUrl":"Bundle/610965b898086b538055c153","resource":{"resourceType":"Bundle","id":"610965b898086b538055c153","type":"transaction","entry":[{"fullUrl":"https://madie.cms.gov/Patient/ffb7a0c4-fcef-46ff-9593-f3cebe574e21","resource":{"resourceType":"Patient","id":"ffb7a0c4-fcef-46ff-9593-f3cebe574e21","meta":{"profile":["http://hl7.org/fhir/us/qicore/StructureDefinition/qicore-patient"]},"text":{"status":"generated","div":"<div xmlns=\"http://www.w3.org/1999/xhtml\"><div class=\"hapiHeaderText\">LabTestHIVDxDuringMPrelevantDatetime <b>NUMERPASS </b></div><table class=\"hapiPropertyTable\"><tbody><tr><td>Date of birth</td><td><span>31 July 1992</span></td></tr></tbody></table></div>"},"extension":[{"url":"http://hl7.org/fhir/us/core/StructureDefinition/us-core-race","extension":[{"url":"ombCategory","valueCoding":{"system":"urn:oid:2.16.840.1.113883.6.238","code":"1002-5","display":"American Indian or Alaska Native","userSelected":true}},{"url":"text","valueString":"American Indian or Alaska Native"},{"url":"detailed","valueCoding":{"system":"urn:oid:2.16.840.1.113883.6.238","code":"1653-5","display":"Tohono O'Odham"}}]},{"url":"http://hl7.org/fhir/us/core/StructureDefinition/us-core-ethnicity","extension":[{"url":"ombCategory","valueCoding":{"system":"urn:oid:2.16.840.1.113883.6.238","code":"2135-2","display":"Hispanic or Latino","userSelected":true}},{"url":"text","valueString":"Not Hispanic or Latino"},{"url":"detailed","valueCoding":{"system":"urn:oid:2.16.840.1.113883.6.238","code":"2153-5","display":"Mexican American Indian"}}]}],"identifier":[{"type":{"coding":[{"system":"http://terminology.hl7.org/CodeSystem/v2-0203","code":"MR"}]},"system":"https://bonnie-fhir.healthit.gov/","value":"610965b898086b538055c153"}],"active":true,"name":[{"use":"usual","family":"NUMERPass","given":["LabTestHIVDxDuringMPrelevantDatetime"]}],"gender":"male","birthDate":"1994-07-31"},"request":{"method":"PUT","url":"Patient/ffb7a0c4-fcef-46ff-9593-f3cebe574e21"}},{"fullUrl":"https://madie.cms.gov/Condition/5f5b7fcc-81ec-42b3-8207-a46f68af14d2","resource":{"resourceType":"Condition","id":"5f5b7fcc-81ec-42b3-8207-a46f68af14d2","meta":{"profile":["http://hl7.org/fhir/us/qicore/StructureDefinition/qicore-condition-problems-health-concerns"]},"clinicalStatus":{"coding":[{"system":"http://terminology.hl7.org/CodeSystem/condition-clinical","code":"active"}]},"verificationStatus":{"coding":[{"system":"http://terminology.hl7.org/CodeSystem/condition-ver-status","code":"confirmed","display":"Confirmed","userSelected":true}]},"category":[{"coding":[{"system":"http://terminology.hl7.org/CodeSystem/condition-category","code":"problems-list-item","display":"Problem List Item","userSelected":true}]}],"code":{"coding":[{"system":"http://hl7.org/fhir/sid/icd-9-cm","code":"042"}]},"subject":{"reference":"Patient/ffb7a0c4-fcef-46ff-9593-f3cebe574e21"},"onsetDateTime":"2026-07-31T08:00:00.000+00:00","abatementDateTime":"2026-10-24T08:00:00.000+00:00"},"request":{"method":"PUT","url":"Condition/5f5b7fcc-81ec-42b3-8207-a46f68af14d2"}},{"fullUrl":"https://madie.cms.gov/Encounter/8eabbfb5-4358-4862-885f-7f688d2fe884","resource":{"resourceType":"Encounter","id":"8eabbfb5-4358-4862-885f-7f688d2fe884","meta":{"profile":["http://hl7.org/fhir/us/qicore/StructureDefinition/qicore-encounter"]},"status":"finished","class":{"system":"http://terminology.hl7.org/CodeSystem/v3-ActCode","code":"AMB","display":"ambulatory","userSelected":true},"type":[{"coding":[{"system":"http://www.ama-assn.org/go/cpt","code":"99214"}]}],"subject":{"reference":"Patient/ffb7a0c4-fcef-46ff-9593-f3cebe574e21"},"period":{"start":"2026-10-24T08:00:00.000+00:00","end":"2026-10-24T08:15:00.000+00:00"}},"request":{"method":"PUT","url":"Encounter/8eabbfb5-4358-4862-885f-7f688d2fe884"}},{"fullUrl":"https://madie.cms.gov/Observation/c0db2486-c272-4a5a-899e-0b6eb05425dc","resource":{"resourceType":"Observation","id":"c0db2486-c272-4a5a-899e-0b6eb05425dc","meta":{"profile":["http://hl7.org/fhir/us/qicore/StructureDefinition/qicore-observation-lab"]},"status":"final","category":[{"coding":[{"system":"http://terminology.hl7.org/CodeSystem/observation-category","code":"laboratory","display":"Laboratory","userSelected":true}]}],"code":{"coding":[{"system":"http://loinc.org","code":"75622-1"}]},"subject":{"reference":"Patient/ffb7a0c4-fcef-46ff-9593-f3cebe574e21"},"effectiveDateTime":"2026-07-31T08:00:00.000+00:00","valueBoolean":true},"request":{"method":"PUT","url":"Observation/c0db2486-c272-4a5a-899e-0b6eb05425dc"}},{"fullUrl":"https://madie.cms.gov/MeasureReport/05df64ab-d81b-479f-8454-681ad603f9b2","resource":{"resourceType":"MeasureReport","id":"05df64ab-d81b-479f-8454-681ad603f9b2","meta":{"profile":["http://hl7.org/fhir/us/cqfmeasures/StructureDefinition/test-case-cqfm"]},"contained":[{"resourceType":"Parameters","id":"b5b1d146-3d10-4cfe-903d-e96a70c8f42c-parameters","parameter":[{"name":"subject","valueString":"ffb7a0c4-fcef-46ff-9593-f3cebe574e21"}]}],"extension":[{"url":"http://hl7.org/fhir/StructureDefinition/cqf-inputParameters","valueReference":{"reference":"#b5b1d146-3d10-4cfe-903d-e96a70c8f42c-parameters"}},{"url":"http://hl7.org/fhir/us/cqfmeasures/StructureDefinition/cqfm-testCaseDescription","valueMarkdown":"Patient 31 at start of MP, qual encounter during MP, HIV diagnosis starts during MP, invalid lab test at 31 during MP. - relevantDatetime"}],"modifierExtension":[{"url":"http://hl7.org/fhir/us/cqfmeasures/StructureDefinition/cqfm-isTestCase","valueBoolean":true}],"status":"complete","type":"individual","measure":"https://madie.cms.gov/Measure/CMS349FHIRHIVScreening","period":{"start":"2026-01-01","end":"2026-12-31"},"group":[{"id":"Group_1","population":[{"id":"InitialPopulation_1","code":{"coding":[{"system":"http://terminology.hl7.org/CodeSystem/measure-population","code":"initial-population","display":"Initial Population"}]},"count":1},{"id":"Denominator_1","code":{"coding":[{"system":"http://terminology.hl7.org/CodeSystem/measure-population","code":"denominator","display":"Denominator"}]},"count":1},{"id":"DenominatorExclusion_1","code":{"coding":[{"system":"http://terminology.hl7.org/CodeSystem/measure-population","code":"denominator-exclusion","display":"Denominator Exclusion"}]},"count":0},{"id":"Numerator_1","code":{"coding":[{"system":"http://terminology.hl7.org/CodeSystem/measure-population","code":"numerator","display":"Numerator"}]},"count":1},{"id":"DenominatorException_1","code":{"coding":[{"system":"http://terminology.hl7.org/CodeSystem/measure-population","code":"denominator-exception","display":"Denominator Exception"}]},"count":0}],"measureScore":{"value":1.0}}],"evaluatedResource":[{"reference":"Patient/ffb7a0c4-fcef-46ff-9593-f3cebe574e21"},{"reference":"Condition/5f5b7fcc-81ec-42b3-8207-a46f68af14d2"},{"reference":"Encounter/8eabbfb5-4358-4862-885f-7f688d2fe884"},{"reference":"Observation/c0db2486-c272-4a5a-899e-0b6eb05425dc"}]},"request":{"method":"PUT","url":"MeasureReport/05df64ab-d81b-479f-8454-681ad603f9b2"}}]},"request":{"method":"PUT","url":"Bundle/610965b898086b538055c153"}}]}