{
    "entry": [
        {
            "request": {
                "method": "PUT",
                "url": "Condition/887238ac-fe86-48ff-855a-763b080f8d2f"
            },
            "resource": {
                "severity": {"coding": [{
                    "system": "http://snomed.info/sct",
                    "code": "24484000",
                    "display": "Severe (severity modifier)"
                }]},
                "code": {"coding": [{
                    "system": "http://snomed.info/sct",
                    "code": "788891004",
                    "userSelected": true,
                    "display": "Chronic pain after cancer treatment (finding)"
                }]},
                "verificationStatus": {"coding": [{
                    "system": "http://terminology.hl7.org/CodeSystem/condition-ver-status",
                    "code": "confirmed"
                }]},
                "meta": {"profile": ["http://hl7.org/fhir/us/qicore/StructureDefinition/qicore-condition-encounter-diagnosis"]},
                "subject": {"reference": "Patient/fa4e4971-3ff2-44f0-bfd6-0821a89a3f84"},
                "id": "887238ac-fe86-48ff-855a-763b080f8d2f",
                "encounter": {"reference": "Encounter/c9af5eeb-faa6-45cb-ac98-24b93fe14d72"},
                "clinicalStatus": {"coding": [{
                    "system": "http://terminology.hl7.org/CodeSystem/condition-clinical",
                    "code": "active",
                    "userSelected": true,
                    "display": "active"
                }]},
                "category": [{"coding": [{
                    "system": "http://terminology.hl7.org/CodeSystem/condition-category",
                    "code": "encounter-diagnosis",
                    "display": "Encounter Diagnosis"
                }]}],
                "onsetDateTime": "2025-12-31T00:00:00+00:00",
                "resourceType": "Condition"
            }
        },
        {
            "request": {
                "method": "PUT",
                "url": "Coverage/665dcdcf-c9ed-4187-b2b5-1f9119db46c0"
            },
            "resource": {
                "payor": [{"reference": "Organization/973255a3-1f6a-4a56-be33-227eb3966e93"}],
                "beneficiary": {"reference": "Patient/fa4e4971-3ff2-44f0-bfd6-0821a89a3f84"},
                "meta": {"profile": ["http://hl7.org/fhir/us/qicore/StructureDefinition/qicore-coverage"]},
                "subscriberId": "523435",
                "id": "665dcdcf-c9ed-4187-b2b5-1f9119db46c0",
                "relationship": {"coding": [{
                    "system": "http://terminology.hl7.org/CodeSystem/subscriber-relationship",
                    "code": "self"
                }]},
                "resourceType": "Coverage",
                "status": "active"
            }
        },
        {
            "request": {
                "method": "PUT",
                "url": "Encounter/c9af5eeb-faa6-45cb-ac98-24b93fe14d72"
            },
            "resource": {
                "period": {
                    "start": "2026-01-01T11:45:00.000+00:00",
                    "end": "2026-01-03T11:59:00.000+00:00"
                },
                "meta": {"profile": ["http://hl7.org/fhir/us/qicore/StructureDefinition/qicore-encounter"]},
                "subject": {"reference": "Patient/fa4e4971-3ff2-44f0-bfd6-0821a89a3f84"},
                "reasonReference": [{"reference": "Condition/887238ac-fe86-48ff-855a-763b080f8d2f"}],
                "id": "c9af5eeb-faa6-45cb-ac98-24b93fe14d72",
                "type": [{"coding": [{
                    "system": "http://snomed.info/sct",
                    "code": "183452005",
                    "userSelected": true,
                    "display": "Emergency hospital admission (procedure)",
                    "version": "2022-03"
                }]}],
                "class": {
                    "system": "http://terminology.hl7.org/CodeSystem/v3-ActCode",
                    "code": "IMP",
                    "display": "inpatient encounter"
                },
                "resourceType": "Encounter",
                "status": "finished"
            }
        },
        {
            "request": {
                "method": "PUT",
                "url": "MeasureReport/ecd5d1e5-ad87-4aae-aacf-75bd13d34ea0"
            },
            "resource": {
                "contained": [{
                    "parameter": [{
                        "valueString": "fa4e4971-3ff2-44f0-bfd6-0821a89a3f84",
                        "name": "subject"
                    }],
                    "id": "e895b580-5d04-427d-8281-814f7cafde6b-parameters",
                    "resourceType": "Parameters"
                }],
                "extension": [
                    {
                        "valueReference": {"reference": "#e895b580-5d04-427d-8281-814f7cafde6b-parameters"},
                        "url": "http://hl7.org/fhir/us/cqfmeasures/StructureDefinition/cqfm-inputParameters"
                    },
                    {
                        "valueMarkdown": "Encounter 1/1 - 1/3 , age 18, 1 opioid completed at dc , has cancer that started last day of prior year ",
                        "url": "http://hl7.org/fhir/us/cqfmeasures/StructureDefinition/cqfm-testCaseDescription"
                    }
                ],
                "period": {
                    "start": "2026-01-01",
                    "end": "2026-12-31"
                },
                "measure": "https://madie.cms.gov/Measure/CMS506FHIRSafeUseofOpioids",
                "meta": {"profile": ["http://hl7.org/fhir/us/cqfmeasures/StructureDefinition/test-case-cqfm"]},
                "modifierExtension": [{
                    "valueBoolean": true,
                    "url": "http://hl7.org/fhir/us/cqfmeasures/StructureDefinition/cqfm-isTestCase"
                }],
                "id": "ecd5d1e5-ad87-4aae-aacf-75bd13d34ea0",
                "evaluatedResource": [
                    {"reference": "Patient/fa4e4971-3ff2-44f0-bfd6-0821a89a3f84"},
                    {"reference": "Encounter/c9af5eeb-faa6-45cb-ac98-24b93fe14d72"},
                    {"reference": "MedicationRequest/b33ce76f-27cc-4b76-9170-b26d7a173395"},
                    {"reference": "Condition/887238ac-fe86-48ff-855a-763b080f8d2f"},
                    {"reference": "Coverage/665dcdcf-c9ed-4187-b2b5-1f9119db46c0"},
                    {"reference": "Organization/973255a3-1f6a-4a56-be33-227eb3966e93"}
                ],
                "type": "individual",
                "resourceType": "MeasureReport",
                "status": "complete",
                "group": [{
                    "id": "6781a5c2450fe330a8ef3c14",
                    "measureScore": {"value": 0},
                    "population": [
                        {
                            "code": {"coding": [{
                                "system": "http://terminology.hl7.org/CodeSystem/measure-population",
                                "code": "initial-population",
                                "display": "Initial Population"
                            }]},
                            "count": 1,
                            "id": "345E1255-3623-402A-9016-2B5C9E096C26"
                        },
                        {
                            "code": {"coding": [{
                                "system": "http://terminology.hl7.org/CodeSystem/measure-population",
                                "code": "denominator",
                                "display": "Denominator"
                            }]},
                            "count": 1,
                            "id": "9ED4F80C-B465-4CDB-BFDD-CE376A165DD0"
                        },
                        {
                            "code": {"coding": [{
                                "system": "http://terminology.hl7.org/CodeSystem/measure-population",
                                "code": "denominator-exclusion",
                                "display": "Denominator Exclusion"
                            }]},
                            "count": 1,
                            "id": "25C57870-241A-428F-BDA8-63C5B4685EE4"
                        },
                        {
                            "code": {"coding": [{
                                "system": "http://terminology.hl7.org/CodeSystem/measure-population",
                                "code": "numerator",
                                "display": "Numerator"
                            }]},
                            "count": 0,
                            "id": "C36B952C-8CCF-436F-A9E2-423A00C56A1A"
                        }
                    ]
                }]
            }
        },
        {
            "request": {
                "method": "PUT",
                "url": "MedicationRequest/b33ce76f-27cc-4b76-9170-b26d7a173395"
            },
            "resource": {
                "requester": {
                    "reference": "Practitioner/f007",
                    "display": "Patrick Pump"
                },
                "authoredOn": "2026-01-03T11:59:00.000+00:00",
                "meta": {"profile": ["http://hl7.org/fhir/us/qicore/StructureDefinition/qicore-medicationrequest"]},
                "subject": {"reference": "Patient/fa4e4971-3ff2-44f0-bfd6-0821a89a3f84"},
                "id": "b33ce76f-27cc-4b76-9170-b26d7a173395",
                "category": [{"coding": [{
                    "system": "http://terminology.hl7.org/CodeSystem/medicationrequest-category",
                    "code": "discharge",
                    "userSelected": true,
                    "display": "Discharge"
                }]}],
                "doNotPerform": false,
                "medicationCodeableConcept": {"coding": [{
                    "system": "http://www.nlm.nih.gov/research/umls/rxnorm",
                    "code": "2103192",
                    "userSelected": true,
                    "display": "sufentanil 0.03 MG Sublingual Tablet"
                }]},
                "intent": "order",
                "resourceType": "MedicationRequest",
                "status": "completed"
            }
        },
        {
            "request": {
                "method": "PUT",
                "url": "Organization/973255a3-1f6a-4a56-be33-227eb3966e93"
            },
            "resource": {
                "identifier": [{
                    "system": "urn:oid:2.16.840.1.113883.4.4",
                    "use": "temp",
                    "value": "21-3259825"
                }],
                "address": [{
                    "country": "USA",
                    "city": "Dallas",
                    "use": "billing",
                    "line": ["P.O. Box 660044"],
                    "postalCode": "75266-0044",
                    "state": "TX",
                    "type": "postal"
                }],
                "meta": {"profile": ["http://hl7.org/fhir/us/qicore/StructureDefinition/qicore-organization"]},
                "name": "Blue Cross Blue Shield of Texas",
                "active": true,
                "telecom": [{
                    "system": "phone",
                    "value": "(+1) 972-766-6900"
                }],
                "id": "973255a3-1f6a-4a56-be33-227eb3966e93",
                "type": [{"coding": [{
                    "system": "http://terminology.hl7.org/CodeSystem/organization-type",
                    "code": "pay",
                    "display": "Payer"
                }]}],
                "resourceType": "Organization"
            }
        },
        {
            "request": {
                "method": "PUT",
                "url": "Patient/fa4e4971-3ff2-44f0-bfd6-0821a89a3f84"
            },
            "resource": {
                "identifier": [{
                    "system": "http://hospital.smarthealthit.org",
                    "value": "999999999"
                }],
                "extension": [
                    {
                        "extension": [
                            {
                                "valueCoding": {
                                    "system": "urn:oid:2.16.840.1.113883.6.238",
                                    "code": "2028-9",
                                    "userSelected": true,
                                    "display": "Asian"
                                },
                                "url": "ombCategory"
                            },
                            {
                                "valueString": "Asian",
                                "url": "text"
                            }
                        ],
                        "url": "http://hl7.org/fhir/us/core/StructureDefinition/us-core-race"
                    },
                    {
                        "extension": [
                            {
                                "valueCoding": {
                                    "system": "urn:oid:2.16.840.1.113883.6.238",
                                    "code": "2186-5",
                                    "userSelected": true,
                                    "display": "Not Hispanic or Latino"
                                },
                                "url": "ombCategory"
                            },
                            {
                                "valueString": "Not Hispanic or Latino",
                                "url": "text"
                            }
                        ],
                        "url": "http://hl7.org/fhir/us/core/StructureDefinition/us-core-ethnicity"
                    }
                ],
                "gender": "female",
                "meta": {"profile": ["http://hl7.org/fhir/us/qicore/StructureDefinition/qicore-patient"]},
                "name": [{
                    "given": ["CancerRelatedPainEncounterDx"],
                    "family": "DENEXPass"
                }],
                "id": "fa4e4971-3ff2-44f0-bfd6-0821a89a3f84",
                "birthDate": "1944-02-01",
                "resourceType": "Patient"
            }
        }
    ],
    "id": "tests-fa4e4971-3ff2-44f0-bfd6-0821a89a3f84-bundle",
    "type": "transaction",
    "resourceType": "Bundle"
}