{"resourceType":"Bundle","id":"tests-fa4e4971-3ff2-44f0-bfd6-0821a89a3f84-bundle","type":"transaction","entry":[{"resource":{"resourceType":"Condition","id":"887238ac-fe86-48ff-855a-763b080f8d2f","meta":{"profile":["http://hl7.org/fhir/us/qicore/StructureDefinition/qicore-condition-encounter-diagnosis"]},"clinicalStatus":{"coding":[{"system":"http://terminology.hl7.org/CodeSystem/condition-clinical","code":"active","display":"active","userSelected":true}]},"verificationStatus":{"coding":[{"system":"http://terminology.hl7.org/CodeSystem/condition-ver-status","code":"confirmed"}]},"category":[{"coding":[{"system":"http://terminology.hl7.org/CodeSystem/condition-category","code":"encounter-diagnosis","display":"Encounter Diagnosis"}]}],"severity":{"coding":[{"system":"http://snomed.info/sct","code":"24484000","display":"Severe (severity modifier)"}]},"code":{"coding":[{"system":"http://snomed.info/sct","code":"788891004","display":"Chronic pain after cancer treatment (finding)","userSelected":true}]},"subject":{"reference":"Patient/fa4e4971-3ff2-44f0-bfd6-0821a89a3f84"},"encounter":{"reference":"Encounter/c9af5eeb-faa6-45cb-ac98-24b93fe14d72"},"onsetDateTime":"2025-12-31T00:00:00+00:00"},"request":{"method":"PUT","url":"Condition/887238ac-fe86-48ff-855a-763b080f8d2f"}},{"resource":{"resourceType":"Coverage","id":"665dcdcf-c9ed-4187-b2b5-1f9119db46c0","meta":{"profile":["http://hl7.org/fhir/us/qicore/StructureDefinition/qicore-coverage"]},"status":"active","subscriberId":"523435","beneficiary":{"reference":"Patient/fa4e4971-3ff2-44f0-bfd6-0821a89a3f84"},"relationship":{"coding":[{"system":"http://terminology.hl7.org/CodeSystem/subscriber-relationship","code":"self"}]},"payor":[{"reference":"Organization/973255a3-1f6a-4a56-be33-227eb3966e93"}]},"request":{"method":"PUT","url":"Coverage/665dcdcf-c9ed-4187-b2b5-1f9119db46c0"}},{"resource":{"resourceType":"Encounter","id":"c9af5eeb-faa6-45cb-ac98-24b93fe14d72","meta":{"profile":["http://hl7.org/fhir/us/qicore/StructureDefinition/qicore-encounter"]},"status":"finished","class":{"system":"http://terminology.hl7.org/CodeSystem/v3-ActCode","code":"IMP","display":"inpatient encounter"},"type":[{"coding":[{"system":"http://snomed.info/sct","version":"2022-03","code":"183452005","display":"Emergency hospital admission (procedure)","userSelected":true}]}],"subject":{"reference":"Patient/fa4e4971-3ff2-44f0-bfd6-0821a89a3f84"},"period":{"start":"2026-01-01T11:45:00.000+00:00","end":"2026-01-03T11:59:00.000+00:00"},"reasonReference":[{"reference":"Condition/887238ac-fe86-48ff-855a-763b080f8d2f"}]},"request":{"method":"PUT","url":"Encounter/c9af5eeb-faa6-45cb-ac98-24b93fe14d72"}},{"resource":{"resourceType":"MeasureReport","id":"ecd5d1e5-ad87-4aae-aacf-75bd13d34ea0","meta":{"profile":["http://hl7.org/fhir/us/cqfmeasures/StructureDefinition/test-case-cqfm"]},"contained":[{"resourceType":"Parameters","id":"e895b580-5d04-427d-8281-814f7cafde6b-parameters","parameter":[{"name":"subject","valueString":"fa4e4971-3ff2-44f0-bfd6-0821a89a3f84"}]}],"extension":[{"url":"http://hl7.org/fhir/us/cqfmeasures/StructureDefinition/cqfm-inputParameters","valueReference":{"reference":"#e895b580-5d04-427d-8281-814f7cafde6b-parameters"}},{"url":"http://hl7.org/fhir/us/cqfmeasures/StructureDefinition/cqfm-testCaseDescription","valueMarkdown":"Encounter 1/1 - 1/3 , age 18, 1 opioid completed at dc , has cancer that started last day of prior year "}],"modifierExtension":[{"url":"http://hl7.org/fhir/us/cqfmeasures/StructureDefinition/cqfm-isTestCase","valueBoolean":true}],"status":"complete","type":"individual","measure":"https://madie.cms.gov/Measure/CMS506FHIRSafeUseofOpioids","period":{"start":"2026-01-01","end":"2026-12-31"},"group":[{"id":"6781a5c2450fe330a8ef3c14","population":[{"id":"345E1255-3623-402A-9016-2B5C9E096C26","code":{"coding":[{"system":"http://terminology.hl7.org/CodeSystem/measure-population","code":"initial-population","display":"Initial Population"}]},"count":1},{"id":"9ED4F80C-B465-4CDB-BFDD-CE376A165DD0","code":{"coding":[{"system":"http://terminology.hl7.org/CodeSystem/measure-population","code":"denominator","display":"Denominator"}]},"count":1},{"id":"25C57870-241A-428F-BDA8-63C5B4685EE4","code":{"coding":[{"system":"http://terminology.hl7.org/CodeSystem/measure-population","code":"denominator-exclusion","display":"Denominator Exclusion"}]},"count":1},{"id":"C36B952C-8CCF-436F-A9E2-423A00C56A1A","code":{"coding":[{"system":"http://terminology.hl7.org/CodeSystem/measure-population","code":"numerator","display":"Numerator"}]},"count":0}],"measureScore":{"value":0.0}}],"evaluatedResource":[{"reference":"Patient/fa4e4971-3ff2-44f0-bfd6-0821a89a3f84"},{"reference":"Encounter/c9af5eeb-faa6-45cb-ac98-24b93fe14d72"},{"reference":"MedicationRequest/b33ce76f-27cc-4b76-9170-b26d7a173395"},{"reference":"Condition/887238ac-fe86-48ff-855a-763b080f8d2f"},{"reference":"Coverage/665dcdcf-c9ed-4187-b2b5-1f9119db46c0"},{"reference":"Organization/973255a3-1f6a-4a56-be33-227eb3966e93"}]},"request":{"method":"PUT","url":"MeasureReport/ecd5d1e5-ad87-4aae-aacf-75bd13d34ea0"}},{"resource":{"resourceType":"MedicationRequest","id":"b33ce76f-27cc-4b76-9170-b26d7a173395","meta":{"profile":["http://hl7.org/fhir/us/qicore/StructureDefinition/qicore-medicationrequest"]},"status":"completed","intent":"order","category":[{"coding":[{"system":"http://terminology.hl7.org/CodeSystem/medicationrequest-category","code":"discharge","display":"Discharge","userSelected":true}]}],"doNotPerform":false,"medicationCodeableConcept":{"coding":[{"system":"http://www.nlm.nih.gov/research/umls/rxnorm","code":"2103192","display":"sufentanil 0.03 MG Sublingual Tablet","userSelected":true}]},"subject":{"reference":"Patient/fa4e4971-3ff2-44f0-bfd6-0821a89a3f84"},"authoredOn":"2026-01-03T11:59:00.000+00:00","requester":{"reference":"Practitioner/f007","display":"Patrick Pump"}},"request":{"method":"PUT","url":"MedicationRequest/b33ce76f-27cc-4b76-9170-b26d7a173395"}},{"resource":{"resourceType":"Organization","id":"973255a3-1f6a-4a56-be33-227eb3966e93","meta":{"profile":["http://hl7.org/fhir/us/qicore/StructureDefinition/qicore-organization"]},"identifier":[{"use":"temp","system":"urn:oid:2.16.840.1.113883.4.4","value":"21-3259825"}],"active":true,"type":[{"coding":[{"system":"http://terminology.hl7.org/CodeSystem/organization-type","code":"pay","display":"Payer"}]}],"name":"Blue Cross Blue Shield of Texas","telecom":[{"system":"phone","value":"(+1) 972-766-6900"}],"address":[{"use":"billing","type":"postal","line":["P.O. Box 660044"],"city":"Dallas","state":"TX","postalCode":"75266-0044","country":"USA"}]},"request":{"method":"PUT","url":"Organization/973255a3-1f6a-4a56-be33-227eb3966e93"}},{"resource":{"resourceType":"Patient","id":"fa4e4971-3ff2-44f0-bfd6-0821a89a3f84","meta":{"profile":["http://hl7.org/fhir/us/qicore/StructureDefinition/qicore-patient"]},"extension":[{"url":"http://hl7.org/fhir/us/core/StructureDefinition/us-core-race","extension":[{"url":"ombCategory","valueCoding":{"system":"urn:oid:2.16.840.1.113883.6.238","code":"2028-9","display":"Asian","userSelected":true}},{"url":"text","valueString":"Asian"}]},{"url":"http://hl7.org/fhir/us/core/StructureDefinition/us-core-ethnicity","extension":[{"url":"ombCategory","valueCoding":{"system":"urn:oid:2.16.840.1.113883.6.238","code":"2186-5","display":"Not Hispanic or Latino","userSelected":true}},{"url":"text","valueString":"Not Hispanic or Latino"}]}],"identifier":[{"system":"http://hospital.smarthealthit.org","value":"999999999"}],"name":[{"family":"DENEXPass","given":["CancerRelatedPainEncounterDx"]}],"gender":"female","birthDate":"1944-02-01"},"request":{"method":"PUT","url":"Patient/fa4e4971-3ff2-44f0-bfd6-0821a89a3f84"}}]}