{
  "resourceType": "Bundle",
  "id": "60f82c2f98086b570510e2b9",
  "type": "transaction",
  "entry": [ {
    "fullUrl": "https://madie.cms.gov/Patient/c48c3487-44cf-4a09-bc17-e60e66d19002",
    "resource": {
      "resourceType": "Patient",
      "id": "c48c3487-44cf-4a09-bc17-e60e66d19002",
      "meta": {
        "profile": [ "http://hl7.org/fhir/us/qicore/StructureDefinition/qicore-patient" ]
      },
      "text": {
        "status": "generated",
        "div": "<div xmlns=\"http://www.w3.org/1999/xhtml\"><div class=\"hapiHeaderText\">PharmContraDayAftObs_ED&lt;1hrDayOfObs&lt;1hrDayAftBFEnc <b>DENEXCEPPASS </b></div><table class=\"hapiPropertyTable\"><tbody><tr><td>Identifier</td><td>d9b55839595aaa52c16083ee418cfa62f77b33abf90f91ffa69d9dec0524b571</td></tr><tr><td>Date of birth</td><td><span>26 September 1975</span></td></tr></tbody></table></div>"
      },
      "extension": [ {
        "url": "http://hl7.org/fhir/us/core/StructureDefinition/us-core-race",
        "extension": [ {
          "url": "ombCategory",
          "valueCoding": {
            "system": "urn:oid:2.16.840.1.113883.6.238",
            "code": "2054-5",
            "display": "Black or African American",
            "userSelected": true
          }
        }, {
          "url": "text",
          "valueString": "Black or African American"
        } ]
      }, {
        "url": "http://hl7.org/fhir/us/core/StructureDefinition/us-core-ethnicity",
        "extension": [ {
          "url": "ombCategory",
          "valueCoding": {
            "system": "urn:oid:2.16.840.1.113883.6.238",
            "code": "2135-2",
            "display": "Hispanic or Latino",
            "userSelected": true
          }
        }, {
          "url": "text",
          "valueString": "Hispanic or Latino"
        } ]
      } ],
      "identifier": [ {
        "type": {
          "coding": [ {
            "system": "http://terminology.hl7.org/CodeSystem/v2-0203",
            "code": "MR"
          } ]
        },
        "system": "https://bonnie-fhir.healthit.gov/",
        "value": "60f82c2f98086b570510e2b9"
      } ],
      "active": true,
      "name": [ {
        "use": "usual",
        "family": "DENEXCEPPass",
        "given": [ "PharmContraDayAftObs_ED<1hrDayOfObs<1hrDayAftBFEnc" ]
      } ],
      "gender": "female",
      "birthDate": "1976-09-26"
    },
    "request": {
      "method": "PUT",
      "url": "Patient/c48c3487-44cf-4a09-bc17-e60e66d19002"
    }
  }, {
    "fullUrl": "https://madie.cms.gov/Encounter/4a8bc2f5-7f7c-4688-a739-479edfff0511",
    "resource": {
      "resourceType": "Encounter",
      "id": "4a8bc2f5-7f7c-4688-a739-479edfff0511",
      "meta": {
        "profile": [ "http://hl7.org/fhir/us/qicore/StructureDefinition/qicore-encounter" ]
      },
      "status": "finished",
      "class": {
        "system": "http://terminology.hl7.org/CodeSystem/v3-ActCode",
        "code": "EMER",
        "display": "emergency",
        "userSelected": true
      },
      "type": [ {
        "coding": [ {
          "system": "http://snomed.info/sct",
          "code": "4525004"
        } ]
      } ],
      "subject": {
        "reference": "Patient/c48c3487-44cf-4a09-bc17-e60e66d19002"
      },
      "period": {
        "start": "2026-10-10T09:00:00Z",
        "end": "2026-10-10T09:15:00.000+00:00"
      },
      "length": {
        "value": 0,
        "unit": "days"
      }
    },
    "request": {
      "method": "PUT",
      "url": "Encounter/4a8bc2f5-7f7c-4688-a739-479edfff0511"
    }
  }, {
    "fullUrl": "https://madie.cms.gov/Encounter/4cc6a50c-0281-431e-b0d3-74fc033263d3",
    "resource": {
      "resourceType": "Encounter",
      "id": "4cc6a50c-0281-431e-b0d3-74fc033263d3",
      "meta": {
        "profile": [ "http://hl7.org/fhir/us/qicore/StructureDefinition/qicore-encounter" ]
      },
      "status": "finished",
      "class": {
        "system": "http://terminology.hl7.org/CodeSystem/v3-ActCode",
        "code": "OBSENC",
        "display": "observation encounter",
        "userSelected": true
      },
      "type": [ {
        "coding": [ {
          "system": "http://snomed.info/sct",
          "code": "448951000124107"
        } ]
      } ],
      "subject": {
        "reference": "Patient/c48c3487-44cf-4a09-bc17-e60e66d19002"
      },
      "period": {
        "start": "2026-10-10T09:16:00Z",
        "end": "2026-10-11T23:59:00.000+00:00"
      },
      "length": {
        "value": 1,
        "unit": "days"
      }
    },
    "request": {
      "method": "PUT",
      "url": "Encounter/4cc6a50c-0281-431e-b0d3-74fc033263d3"
    }
  }, {
    "fullUrl": "https://madie.cms.gov/Encounter/2b17b8cd-2b28-444f-847d-b55348eb3543",
    "resource": {
      "resourceType": "Encounter",
      "id": "2b17b8cd-2b28-444f-847d-b55348eb3543",
      "meta": {
        "profile": [ "http://hl7.org/fhir/us/qicore/StructureDefinition/qicore-encounter" ]
      },
      "status": "finished",
      "class": {
        "system": "http://terminology.hl7.org/CodeSystem/v3-ActCode",
        "code": "IMP",
        "display": "inpatient encounter",
        "userSelected": true
      },
      "type": [ {
        "coding": [ {
          "system": "http://snomed.info/sct",
          "code": "32485007"
        } ]
      } ],
      "subject": {
        "reference": "Patient/c48c3487-44cf-4a09-bc17-e60e66d19002"
      },
      "period": {
        "start": "2026-10-12T00:00:00Z",
        "end": "2026-10-17T11:15:00.000+00:00"
      },
      "length": {
        "value": 5,
        "unit": "days"
      },
      "reasonReference": [ {
        "reference": "Condition/89c5c7cb-9b44-45a4-bab8-77a5de862d2a"
      } ]
    },
    "request": {
      "method": "PUT",
      "url": "Encounter/2b17b8cd-2b28-444f-847d-b55348eb3543"
    }
  }, {
    "fullUrl": "https://madie.cms.gov/claim/5ca62962b8484628b8de1ec5",
    "resource": {
      "resourceType": "Claim",
      "id": "5ca62962b8484628b8de1ec5",
      "meta": {
        "profile": [ "http://hl7.org/fhir/us/qicore/StructureDefinition/qicore-claim" ]
      },
      "status": "active",
      "type": {
        "coding": [ {
          "system": "http://terminology.hl7.org/CodeSystem/claim-type",
          "code": "institutional"
        } ]
      },
      "use": "claim",
      "patient": {
        "reference": "Patient/d170a0a8-b5ad-4303-b6df-e304dd5f92ad"
      },
      "created": "2026-12-01",
      "provider": {
        "reference": "Practitioner/practitioner-123456"
      },
      "priority": {
        "coding": [ {
          "system": "http://terminology.hl7.org/CodeSystem/processpriority",
          "code": "normal"
        } ]
      },
      "diagnosis": [ {
        "sequence": 1,
        "diagnosisCodeableConcept": {
          "coding": [ {
            "system": "http://hl7.org/fhir/sid/icd-10-cm",
            "code": "I63.00"
          } ]
        },
        "type": [ {
          "coding": [ {
            "system": "http://terminology.hl7.org/CodeSystem/ex-diagnosistype",
            "code": "principal"
          } ]
        } ]
      } ],
      "insurance": [ {
        "sequence": 1,
        "focal": true,
        "coverage": {
          "reference": "Coverage/5fa041661c76ba66d9959367"
        }
      } ],
      "item": [ {
        "sequence": 1,
        "diagnosisSequence": [ 1 ],
        "productOrService": {
          "coding": [ {
            "system": "http://terminology.hl7.org/CodeSystem/ex-USCLS",
            "code": "99555"
          } ]
        },
        "encounter": [ {
          "reference": "Encounter/2b17b8cd-2b28-444f-847d-b55348eb3543"
        } ]
      } ]
    },
    "request": {
      "method": "PUT",
      "url": "Claim/5ca62962b8484628b8de1ec5"
    }
  }, {
    "fullUrl": "https://madie.cms.gov/MedicationAdministration/4445a7fa-d16a-4820-8570-1b1583b22de4",
    "resource": {
      "resourceType": "MedicationAdministration",
      "id": "4445a7fa-d16a-4820-8570-1b1583b22de4",
      "meta": {
        "profile": [ "http://hl7.org/fhir/us/qicore/StructureDefinition/qicore-medicationadministration" ]
      },
      "status": "completed",
      "medicationCodeableConcept": {
        "coding": [ {
          "system": "http://www.nlm.nih.gov/research/umls/rxnorm",
          "code": "855812",
          "display": "prasugrel 10 MG Oral Tablet",
          "userSelected": true
        } ]
      },
      "subject": {
        "reference": "Patient/c48c3487-44cf-4a09-bc17-e60e66d19002"
      },
      "effectivePeriod": {
        "start": "2026-10-11T23:59:00Z"
      }
    },
    "request": {
      "method": "PUT",
      "url": "MedicationAdministration/4445a7fa-d16a-4820-8570-1b1583b22de4"
    }
  }, {
    "fullUrl": "https://madie.cms.gov/Coverage/9f3bb968-866d-4fe7-ab53-d47f81e823a3",
    "resource": {
      "resourceType": "Coverage",
      "id": "9f3bb968-866d-4fe7-ab53-d47f81e823a3",
      "status": "active",
      "subscriberId": "523435",
      "beneficiary": {
        "reference": "Patient/c48c3487-44cf-4a09-bc17-e60e66d19002"
      },
      "relationship": {
        "coding": [ {
          "system": "http://terminology.hl7.org/CodeSystem/subscriber-relationship",
          "code": "self"
        } ]
      },
      "period": {
        "start": "1976-09-26T08:00:00Z"
      },
      "payor": [ {
        "reference": "Organization/4efe82fc-7c03-4fdd-984c-b4c12965e921"
      } ]
    },
    "request": {
      "method": "PUT",
      "url": "Coverage/9f3bb968-866d-4fe7-ab53-d47f81e823a3"
    }
  }, {
    "fullUrl": "https://madie.cms.gov/Condition/89c5c7cb-9b44-45a4-bab8-77a5de862d2a",
    "resource": {
      "resourceType": "Condition",
      "id": "89c5c7cb-9b44-45a4-bab8-77a5de862d2a",
      "meta": {
        "profile": [ "http://hl7.org/fhir/us/qicore/StructureDefinition/qicore-condition-encounter-diagnosis" ]
      },
      "clinicalStatus": {
        "coding": [ {
          "system": "http://terminology.hl7.org/CodeSystem/condition-clinical",
          "code": "active"
        } ]
      },
      "verificationStatus": {
        "coding": [ {
          "system": "http://terminology.hl7.org/CodeSystem/condition-ver-status",
          "code": "confirmed"
        } ]
      },
      "category": [ {
        "coding": [ {
          "system": "http://terminology.hl7.org/CodeSystem/condition-category",
          "code": "encounter-diagnosis",
          "display": "Encounter Diagnosis"
        } ]
      } ],
      "code": {
        "coding": [ {
          "system": "http://snomed.info/sct",
          "version": "2020-09",
          "code": "111297002",
          "display": "Nonparalytic stroke (disorder)",
          "userSelected": true
        } ]
      },
      "subject": {
        "reference": "Patient/c48c3487-44cf-4a09-bc17-e60e66d19002"
      },
      "recordedDate": "2026-08-06T08:00:00Z"
    },
    "request": {
      "method": "PUT",
      "url": "Condition/89c5c7cb-9b44-45a4-bab8-77a5de862d2a"
    }
  }, {
    "fullUrl": "https://madie.cms.gov/Organization/4efe82fc-7c03-4fdd-984c-b4c12965e921",
    "resource": {
      "resourceType": "Organization",
      "id": "4efe82fc-7c03-4fdd-984c-b4c12965e921",
      "meta": {
        "profile": [ "http://hl7.org/fhir/us/qicore/StructureDefinition/qicore-organization" ]
      },
      "identifier": [ {
        "use": "temp",
        "system": "urn:oid:2.16.840.1.113883.4.4",
        "value": "21-3259825"
      } ],
      "active": true,
      "type": [ {
        "coding": [ {
          "system": "http://terminology.hl7.org/CodeSystem/organization-type",
          "code": "pay",
          "display": "Payer"
        } ]
      } ],
      "name": "Blue Cross Blue Shield of Texas",
      "telecom": [ {
        "system": "phone",
        "value": "(+1) 972-766-6900"
      } ],
      "address": [ {
        "use": "billing",
        "type": "postal",
        "line": [ "P.O. Box 660044" ],
        "city": "Dallas",
        "state": "TX",
        "postalCode": "75266-0044",
        "country": "USA"
      } ]
    },
    "request": {
      "method": "PUT",
      "url": "Organization/4efe82fc-7c03-4fdd-984c-b4c12965e921"
    }
  }, {
    "fullUrl": "https://madie.cms.gov/MeasureReport/ca2360c9-f017-45c7-828a-d958125be338",
    "resource": {
      "resourceType": "MeasureReport",
      "id": "ca2360c9-f017-45c7-828a-d958125be338",
      "meta": {
        "profile": [ "http://hl7.org/fhir/us/cqfmeasures/StructureDefinition/test-case-cqfm" ]
      },
      "contained": [ {
        "resourceType": "Parameters",
        "id": "6f796e76-1490-4ef0-8e3f-fb0a5bbd6f1e-parameters",
        "parameter": [ {
          "name": "subject",
          "valueString": "c48c3487-44cf-4a09-bc17-e60e66d19002"
        } ]
      } ],
      "extension": [ {
        "url": "http://hl7.org/fhir/StructureDefinition/cqf-inputParameters",
        "valueReference": {
          "reference": "#6f796e76-1490-4ef0-8e3f-fb0a5bbd6f1e-parameters"
        }
      }, {
        "url": "http://hl7.org/fhir/us/cqfmeasures/StructureDefinition/cqfm-testCaseDescription",
        "valueMarkdown": "Patient receives Ticagrelor during Obs, the day after Obs starts. ED ends 1 min before Obs.Obs ends 1 min before IP start at midnight. Testing Day of operator with HospitalizationWithObservation function.\n"
      } ],
      "modifierExtension": [ {
        "url": "http://hl7.org/fhir/us/cqfmeasures/StructureDefinition/cqfm-isTestCase",
        "valueBoolean": true
      } ],
      "status": "complete",
      "type": "individual",
      "measure": "https://madie.cms.gov/Measure/CMS72FHIRSTKAntithromboticDay2",
      "period": {
        "start": "2026-01-01",
        "end": "2026-12-31"
      },
      "group": [ {
        "id": "Group_1",
        "population": [ {
          "id": "InitialPopulation_1",
          "code": {
            "coding": [ {
              "system": "http://terminology.hl7.org/CodeSystem/measure-population",
              "code": "initial-population",
              "display": "Initial Population"
            } ]
          },
          "count": 1
        }, {
          "id": "Denominator_1",
          "code": {
            "coding": [ {
              "system": "http://terminology.hl7.org/CodeSystem/measure-population",
              "code": "denominator",
              "display": "Denominator"
            } ]
          },
          "count": 1
        }, {
          "id": "DenominatorExclusion_1",
          "code": {
            "coding": [ {
              "system": "http://terminology.hl7.org/CodeSystem/measure-population",
              "code": "denominator-exclusion",
              "display": "Denominator Exclusion"
            } ]
          },
          "count": 0
        }, {
          "id": "Numerator_1",
          "code": {
            "coding": [ {
              "system": "http://terminology.hl7.org/CodeSystem/measure-population",
              "code": "numerator",
              "display": "Numerator"
            } ]
          },
          "count": 0
        }, {
          "id": "DenominatorException_1",
          "code": {
            "coding": [ {
              "system": "http://terminology.hl7.org/CodeSystem/measure-population",
              "code": "denominator-exception",
              "display": "Denominator Exception"
            } ]
          },
          "count": 1
        } ],
        "measureScore": {
          "value": 0.0
        }
      } ],
      "evaluatedResource": [ {
        "reference": "Patient/c48c3487-44cf-4a09-bc17-e60e66d19002"
      }, {
        "reference": "Encounter/4a8bc2f5-7f7c-4688-a739-479edfff0511"
      }, {
        "reference": "Encounter/4cc6a50c-0281-431e-b0d3-74fc033263d3"
      }, {
        "reference": "Encounter/2b17b8cd-2b28-444f-847d-b55348eb3543"
      }, {
        "reference": "Claim/5ca62962b8484628b8de1ec5"
      }, {
        "reference": "MedicationAdministration/4445a7fa-d16a-4820-8570-1b1583b22de4"
      }, {
        "reference": "Coverage/9f3bb968-866d-4fe7-ab53-d47f81e823a3"
      }, {
        "reference": "Condition/89c5c7cb-9b44-45a4-bab8-77a5de862d2a"
      }, {
        "reference": "Organization/4efe82fc-7c03-4fdd-984c-b4c12965e921"
      } ]
    },
    "request": {
      "method": "PUT",
      "url": "MeasureReport/ca2360c9-f017-45c7-828a-d958125be338"
    }
  } ]
}