{
    "entry": [
        {
            "request": {
                "method": "PUT",
                "url": "Patient/6f17c306-5df4-431a-8364-d44ab5bad34a"
            },
            "resource": {
                "identifier": [{
                    "system": "https://bonnie-fhir.healthit.gov/",
                    "type": {"coding": [{
                        "system": "http://terminology.hl7.org/CodeSystem/v2-0203",
                        "code": "MR"
                    }]},
                    "value": "62f65aa75efef5272905e706"
                }],
                "extension": [
                    {
                        "extension": [
                            {
                                "valueCoding": {
                                    "system": "urn:oid:2.16.840.1.113883.6.238",
                                    "code": "1002-5",
                                    "userSelected": true,
                                    "display": "American Indian or Alaska Native"
                                },
                                "url": "ombCategory"
                            },
                            {
                                "valueString": "American Indian or Alaska Native",
                                "url": "text"
                            }
                        ],
                        "url": "http://hl7.org/fhir/us/core/StructureDefinition/us-core-race"
                    },
                    {
                        "extension": [
                            {
                                "valueCoding": {
                                    "system": "urn:oid:2.16.840.1.113883.6.238",
                                    "code": "2135-2",
                                    "userSelected": true,
                                    "display": "Hispanic or Latino"
                                },
                                "url": "ombCategory"
                            },
                            {
                                "valueString": "Hispanic or Latino",
                                "url": "text"
                            }
                        ],
                        "url": "http://hl7.org/fhir/us/core/StructureDefinition/us-core-ethnicity"
                    }
                ],
                "gender": "male",
                "meta": {"profile": ["http://hl7.org/fhir/us/qicore/StructureDefinition/qicore-patient"]},
                "name": [{
                    "given": ["AdultPtReasonForNoDepScreenandDepScreenAWeekAgo"],
                    "family": "DENEXCEPFail"
                }],
                "id": "6f17c306-5df4-431a-8364-d44ab5bad34a",
                "birthDate": "2008-01-01",
                "resourceType": "Patient"
            },
            "fullUrl": "https://madie.cms.gov/Patient/6f17c306-5df4-431a-8364-d44ab5bad34a"
        },
        {
            "request": {
                "method": "PUT",
                "url": "Encounter/389f7502-8bed-4ace-b3b9-996fb2b55638"
            },
            "resource": {
                "period": {
                    "start": "2026-06-28T08:00:00.000+00:00",
                    "end": "2026-06-28T08:15:00.000+00:00"
                },
                "meta": {"profile": ["http://hl7.org/fhir/us/qicore/StructureDefinition/qicore-encounter"]},
                "subject": {"reference": "Patient/6f17c306-5df4-431a-8364-d44ab5bad34a"},
                "id": "389f7502-8bed-4ace-b3b9-996fb2b55638",
                "type": [{"coding": [{
                    "system": "http://snomed.info/sct",
                    "code": "10197000",
                    "userSelected": true,
                    "display": "Psychiatric interview and evaluation (procedure)",
                    "version": "2021-09"
                }]}],
                "class": {
                    "system": "http://terminology.hl7.org/CodeSystem/v3-ActCode",
                    "code": "AMB",
                    "display": "ambulatory"
                },
                "resourceType": "Encounter",
                "status": "finished"
            },
            "fullUrl": "https://madie.cms.gov/Encounter/389f7502-8bed-4ace-b3b9-996fb2b55638"
        },
        {
            "request": {
                "method": "PUT",
                "url": "Observation/36b518b3-6bc8-4253-8b70-2e74de08d2f7"
            },
            "resource": {
                "valueBoolean": true,
                "extension": [{
                    "valueCodeableConcept": {"coding": [{
                        "system": "http://snomed.info/sct",
                        "code": "720834000",
                        "userSelected": true,
                        "display": "Depression screening declined (situation)"
                    }]},
                    "url": "http://hl7.org/fhir/us/qicore/StructureDefinition/qicore-notDoneReason"
                }],
                "code": {"coding": [{
                    "system": "http://loinc.org",
                    "code": "73832-8",
                    "userSelected": true,
                    "display": "Adult depression screening assessment"
                }]},
                "meta": {"profile": ["http://hl7.org/fhir/us/qicore/StructureDefinition/qicore-observationcancelled"]},
                "subject": {"reference": "Patient/6f17c306-5df4-431a-8364-d44ab5bad34a"},
                "id": "36b518b3-6bc8-4253-8b70-2e74de08d2f7",
                "category": [{"coding": [{
                    "system": "http://terminology.hl7.org/CodeSystem/observation-category",
                    "code": "procedure",
                    "display": "Procedure"
                }]}],
                "issued": "2026-06-28T08:00:00.000+00:00",
                "resourceType": "Observation",
                "status": "cancelled"
            },
            "fullUrl": "https://madie.cms.gov/Observation/36b518b3-6bc8-4253-8b70-2e74de08d2f7"
        },
        {
            "request": {
                "method": "PUT",
                "url": "Observation/e4188a33-e6e4-48f3-91aa-c28f16580a9b"
            },
            "resource": {
                "valueBoolean": true,
                "code": {"coding": [{
                    "system": "http://loinc.org",
                    "code": "73832-8",
                    "userSelected": true,
                    "display": "Adult depression screening assessment"
                }]},
                "effectiveDateTime": "2026-06-21T08:00:00.000+00:00",
                "meta": {"profile": ["http://hl7.org/fhir/us/qicore/StructureDefinition/qicore-observation-screening-assessment"]},
                "subject": {"reference": "Patient/6f17c306-5df4-431a-8364-d44ab5bad34a"},
                "id": "e4188a33-e6e4-48f3-91aa-c28f16580a9b",
                "category": [{"coding": [{
                    "system": "http://terminology.hl7.org/CodeSystem/observation-category",
                    "code": "procedure",
                    "display": "Procedure"
                }]}],
                "issued": "2026-06-20T08:00:00.000+00:00",
                "resourceType": "Observation",
                "status": "final"
            },
            "fullUrl": "https://madie.cms.gov/Observation/e4188a33-e6e4-48f3-91aa-c28f16580a9b"
        },
        {
            "request": {
                "method": "PUT",
                "url": "Coverage/261589bc-5af8-45fc-a433-3775ad7af1ff"
            },
            "resource": {
                "payor": [{"reference": "Organization/457f50f8-770f-48b2-a1a0-187943a6a398"}],
                "beneficiary": {"reference": "Patient/6f17c306-5df4-431a-8364-d44ab5bad34a"},
                "meta": {"profile": ["http://hl7.org/fhir/us/qicore/StructureDefinition/qicore-coverage"]},
                "id": "261589bc-5af8-45fc-a433-3775ad7af1ff",
                "resourceType": "Coverage",
                "status": "active"
            },
            "fullUrl": "https://madie.cms.gov/Coverage/261589bc-5af8-45fc-a433-3775ad7af1ff"
        },
        {
            "request": {
                "method": "PUT",
                "url": "Organization/457f50f8-770f-48b2-a1a0-187943a6a398"
            },
            "resource": {
                "identifier": [{
                    "system": "urn:oid:2.16.840.1.113883.4.4",
                    "use": "temp",
                    "value": "21-3259825"
                }],
                "address": [{
                    "country": "USA",
                    "city": "Dallas",
                    "use": "billing",
                    "line": ["P.O. Box 660044"],
                    "postalCode": "75266-0044",
                    "state": "TX",
                    "type": "postal"
                }],
                "meta": {"profile": ["http://hl7.org/fhir/us/qicore/StructureDefinition/qicore-organization"]},
                "name": "Blue Cross Blue Shield of Texas",
                "active": true,
                "telecom": [{
                    "system": "phone",
                    "value": "(+1) 972-766-6900"
                }],
                "id": "457f50f8-770f-48b2-a1a0-187943a6a398",
                "type": [{"coding": [{
                    "system": "http://terminology.hl7.org/CodeSystem/organization-type",
                    "code": "pay",
                    "display": "Payer"
                }]}],
                "resourceType": "Organization"
            },
            "fullUrl": "https://madie.cms.gov/Organization/457f50f8-770f-48b2-a1a0-187943a6a398"
        },
        {
            "request": {
                "method": "PUT",
                "url": "Practitioner/d52cec9c-91b3-463b-b68c-a46635840059"
            },
            "resource": {
                "identifier": [{
                    "system": "http://hl7.org/fhir/sid/us-npi",
                    "value": "123456"
                }],
                "meta": {"profile": ["http://hl7.org/fhir/us/qicore/StructureDefinition/qicore-practitioner"]},
                "name": [{
                    "prefix": ["Dr"],
                    "family": "Evil"
                }],
                "id": "d52cec9c-91b3-463b-b68c-a46635840059",
                "resourceType": "Practitioner"
            },
            "fullUrl": "https://madie.cms.gov/Practitioner/d52cec9c-91b3-463b-b68c-a46635840059"
        },
        {
            "request": {
                "method": "PUT",
                "url": "MeasureReport/4430a7b6-736a-47f9-8783-cf39c605dddb"
            },
            "resource": {
                "contained": [{
                    "parameter": [{
                        "valueString": "6f17c306-5df4-431a-8364-d44ab5bad34a",
                        "name": "subject"
                    }],
                    "id": "7fec48f0-4e28-41f0-a839-cd9958614368-parameters",
                    "resourceType": "Parameters"
                }],
                "extension": [
                    {
                        "valueReference": {"reference": "#7fec48f0-4e28-41f0-a839-cd9958614368-parameters"},
                        "url": "http://hl7.org/fhir/StructureDefinition/cqf-inputParameters"
                    },
                    {
                        "valueMarkdown": "18 yo male with patient reason for not screening for depression and had screening done a week ago.",
                        "url": "http://hl7.org/fhir/us/cqfmeasures/StructureDefinition/cqfm-testCaseDescription"
                    }
                ],
                "period": {
                    "start": "2026-01-01",
                    "end": "2026-12-31"
                },
                "measure": "https://madie.cms.gov/Measure/CMS2FHIRPCSDepressionScreenAndFollowUp",
                "meta": {"profile": ["http://hl7.org/fhir/us/cqfmeasures/StructureDefinition/test-case-cqfm"]},
                "modifierExtension": [{
                    "valueBoolean": true,
                    "url": "http://hl7.org/fhir/us/cqfmeasures/StructureDefinition/cqfm-isTestCase"
                }],
                "id": "4430a7b6-736a-47f9-8783-cf39c605dddb",
                "evaluatedResource": [
                    {"reference": "Patient/6f17c306-5df4-431a-8364-d44ab5bad34a"},
                    {"reference": "Encounter/389f7502-8bed-4ace-b3b9-996fb2b55638"},
                    {"reference": "Observation/36b518b3-6bc8-4253-8b70-2e74de08d2f7"},
                    {"reference": "Observation/e4188a33-e6e4-48f3-91aa-c28f16580a9b"},
                    {"reference": "Coverage/261589bc-5af8-45fc-a433-3775ad7af1ff"},
                    {"reference": "Organization/457f50f8-770f-48b2-a1a0-187943a6a398"},
                    {"reference": "Practitioner/d52cec9c-91b3-463b-b68c-a46635840059"}
                ],
                "type": "individual",
                "resourceType": "MeasureReport",
                "status": "complete",
                "group": [{
                    "id": "Group_1",
                    "measureScore": {"value": 1},
                    "population": [
                        {
                            "code": {"coding": [{
                                "system": "http://terminology.hl7.org/CodeSystem/measure-population",
                                "code": "initial-population",
                                "display": "Initial Population"
                            }]},
                            "count": 1,
                            "id": "InitialPopulation_1"
                        },
                        {
                            "code": {"coding": [{
                                "system": "http://terminology.hl7.org/CodeSystem/measure-population",
                                "code": "denominator",
                                "display": "Denominator"
                            }]},
                            "count": 1,
                            "id": "Denominator_1"
                        },
                        {
                            "code": {"coding": [{
                                "system": "http://terminology.hl7.org/CodeSystem/measure-population",
                                "code": "denominator-exclusion",
                                "display": "Denominator Exclusion"
                            }]},
                            "count": 0,
                            "id": "DenominatorExclusion_1"
                        },
                        {
                            "code": {"coding": [{
                                "system": "http://terminology.hl7.org/CodeSystem/measure-population",
                                "code": "numerator",
                                "display": "Numerator"
                            }]},
                            "count": 0,
                            "id": "Numerator_1"
                        },
                        {
                            "code": {"coding": [{
                                "system": "http://terminology.hl7.org/CodeSystem/measure-population",
                                "code": "denominator-exception",
                                "display": "Denominator Exception"
                            }]},
                            "count": 0,
                            "id": "DenominatorException_1"
                        }
                    ]
                }]
            },
            "fullUrl": "https://madie.cms.gov/MeasureReport/4430a7b6-736a-47f9-8783-cf39c605dddb"
        }
    ],
    "id": "62f65aa75efef5272905e706",
    "type": "transaction",
    "resourceType": "Bundle"
}