{
    "entry": [
        {
            "request": {
                "method": "PUT",
                "url": "Patient/3ce2c72d-d347-4fde-82cf-dc9992c73aad"
            },
            "resource": {
                "identifier": [{
                    "system": "https://bonnie-fhir.healthit.gov/",
                    "type": {"coding": [{
                        "system": "http://terminology.hl7.org/CodeSystem/v2-0203",
                        "code": "MR"
                    }]},
                    "value": "62b1df283968556e5150cf33"
                }],
                "extension": [
                    {
                        "extension": [
                            {
                                "valueCoding": {
                                    "system": "urn:oid:2.16.840.1.113883.6.238",
                                    "code": "1002-5",
                                    "userSelected": true,
                                    "display": "American Indian or Alaska Native"
                                },
                                "url": "ombCategory"
                            },
                            {
                                "valueString": "American Indian or Alaska Native",
                                "url": "text"
                            }
                        ],
                        "url": "http://hl7.org/fhir/us/core/StructureDefinition/us-core-race"
                    },
                    {
                        "extension": [
                            {
                                "valueCoding": {
                                    "system": "urn:oid:2.16.840.1.113883.6.238",
                                    "code": "2135-2",
                                    "userSelected": true,
                                    "display": "Hispanic or Latino"
                                },
                                "url": "ombCategory"
                            },
                            {
                                "valueString": "Hispanic or Latino",
                                "url": "text"
                            }
                        ],
                        "url": "http://hl7.org/fhir/us/core/StructureDefinition/us-core-ethnicity"
                    }
                ],
                "gender": "male",
                "meta": {"profile": ["http://hl7.org/fhir/us/qicore/StructureDefinition/qicore-patient"]},
                "name": [{
                    "given": ["17yoNegativeAdolescentDepressionScreening"],
                    "family": "NUMERPass"
                }],
                "id": "3ce2c72d-d347-4fde-82cf-dc9992c73aad",
                "birthDate": "2009-01-01",
                "resourceType": "Patient"
            },
            "fullUrl": "https://madie.cms.gov/Patient/3ce2c72d-d347-4fde-82cf-dc9992c73aad"
        },
        {
            "request": {
                "method": "PUT",
                "url": "Encounter/ec59ad42-c334-4d85-8acf-062cd03c5da4"
            },
            "resource": {
                "period": {
                    "start": "2026-06-21T08:00:00.000+00:00",
                    "end": "2026-06-21T08:15:00.000+00:00"
                },
                "meta": {"profile": ["http://hl7.org/fhir/us/qicore/StructureDefinition/qicore-encounter"]},
                "subject": {"reference": "Patient/3ce2c72d-d347-4fde-82cf-dc9992c73aad"},
                "id": "ec59ad42-c334-4d85-8acf-062cd03c5da4",
                "type": [{"coding": [{
                    "system": "http://snomed.info/sct",
                    "code": "10197000",
                    "userSelected": true,
                    "display": "Psychiatric interview and evaluation (procedure)",
                    "version": "2021-09"
                }]}],
                "class": {
                    "system": "http://terminology.hl7.org/CodeSystem/v3-ActCode",
                    "code": "AMB",
                    "display": "ambulatory"
                },
                "resourceType": "Encounter",
                "status": "finished"
            },
            "fullUrl": "https://madie.cms.gov/Encounter/ec59ad42-c334-4d85-8acf-062cd03c5da4"
        },
        {
            "request": {
                "method": "PUT",
                "url": "Observation/9e95a724-3c6c-4c0a-b00c-a85e5347ee95"
            },
            "resource": {
                "valueCodeableConcept": {"coding": [{
                    "system": "http://snomed.info/sct",
                    "code": "428171000124102",
                    "userSelected": true,
                    "display": "Depression screening negative (finding)"
                }]},
                "code": {"coding": [{
                    "system": "http://loinc.org",
                    "code": "73831-0",
                    "userSelected": true,
                    "display": "Adolescent depression screening assessment"
                }]},
                "effectiveDateTime": "2026-06-15T08:00:00.000+00:00",
                "meta": {"profile": ["http://hl7.org/fhir/us/qicore/StructureDefinition/qicore-observation-screening-assessment"]},
                "subject": {"reference": "Patient/3ce2c72d-d347-4fde-82cf-dc9992c73aad"},
                "id": "9e95a724-3c6c-4c0a-b00c-a85e5347ee95",
                "category": [{"coding": [{
                    "system": "http://terminology.hl7.org/CodeSystem/observation-category",
                    "code": "procedure",
                    "display": "Procedure"
                }]}],
                "resourceType": "Observation",
                "status": "final"
            },
            "fullUrl": "https://madie.cms.gov/Observation/9e95a724-3c6c-4c0a-b00c-a85e5347ee95"
        },
        {
            "request": {
                "method": "PUT",
                "url": "Coverage/3b6c1781-0ee6-4ccd-9542-4619db75fe8f"
            },
            "resource": {
                "payor": [{"reference": "Organization/b4374ae4-0848-4d55-81b7-a9ed933e8240"}],
                "beneficiary": {"reference": "Patient/3ce2c72d-d347-4fde-82cf-dc9992c73aad"},
                "meta": {"profile": ["http://hl7.org/fhir/us/qicore/StructureDefinition/qicore-coverage"]},
                "id": "3b6c1781-0ee6-4ccd-9542-4619db75fe8f",
                "resourceType": "Coverage",
                "status": "active"
            },
            "fullUrl": "https://madie.cms.gov/Coverage/3b6c1781-0ee6-4ccd-9542-4619db75fe8f"
        },
        {
            "request": {
                "method": "PUT",
                "url": "Organization/b4374ae4-0848-4d55-81b7-a9ed933e8240"
            },
            "resource": {
                "identifier": [{
                    "system": "urn:oid:2.16.840.1.113883.4.4",
                    "use": "temp",
                    "value": "21-3259825"
                }],
                "address": [{
                    "country": "USA",
                    "city": "Dallas",
                    "use": "billing",
                    "line": ["P.O. Box 660044"],
                    "postalCode": "75266-0044",
                    "state": "TX",
                    "type": "postal"
                }],
                "meta": {"profile": ["http://hl7.org/fhir/us/qicore/StructureDefinition/qicore-organization"]},
                "name": "Blue Cross Blue Shield of Texas",
                "active": true,
                "telecom": [{
                    "system": "phone",
                    "value": "(+1) 972-766-6900"
                }],
                "id": "b4374ae4-0848-4d55-81b7-a9ed933e8240",
                "type": [{"coding": [{
                    "system": "http://terminology.hl7.org/CodeSystem/organization-type",
                    "code": "pay",
                    "display": "Payer"
                }]}],
                "resourceType": "Organization"
            },
            "fullUrl": "https://madie.cms.gov/Organization/b4374ae4-0848-4d55-81b7-a9ed933e8240"
        },
        {
            "request": {
                "method": "PUT",
                "url": "Practitioner/c9ce5cf2-5b21-4e19-b89d-cbf37129e5f6"
            },
            "resource": {
                "identifier": [{
                    "system": "http://hl7.org/fhir/sid/us-npi",
                    "value": "123456"
                }],
                "meta": {"profile": ["http://hl7.org/fhir/us/qicore/StructureDefinition/qicore-practitioner"]},
                "name": [{
                    "prefix": ["Dr"],
                    "family": "Evil"
                }],
                "id": "c9ce5cf2-5b21-4e19-b89d-cbf37129e5f6",
                "resourceType": "Practitioner"
            },
            "fullUrl": "https://madie.cms.gov/Practitioner/c9ce5cf2-5b21-4e19-b89d-cbf37129e5f6"
        },
        {
            "request": {
                "method": "PUT",
                "url": "MeasureReport/3cecd167-7d81-41f8-8210-86572a2142ad"
            },
            "resource": {
                "contained": [{
                    "parameter": [{
                        "valueString": "3ce2c72d-d347-4fde-82cf-dc9992c73aad",
                        "name": "subject"
                    }],
                    "id": "b6944a9f-96c0-4431-ac87-f14e92d081e1-parameters",
                    "resourceType": "Parameters"
                }],
                "extension": [
                    {
                        "valueReference": {"reference": "#b6944a9f-96c0-4431-ac87-f14e92d081e1-parameters"},
                        "url": "http://hl7.org/fhir/StructureDefinition/cqf-inputParameters"
                    },
                    {
                        "valueMarkdown": "17yo male with previous negative adolescent depression screening",
                        "url": "http://hl7.org/fhir/us/cqfmeasures/StructureDefinition/cqfm-testCaseDescription"
                    }
                ],
                "period": {
                    "start": "2026-01-01",
                    "end": "2026-12-31"
                },
                "measure": "https://madie.cms.gov/Measure/CMS2FHIRPCSDepressionScreenAndFollowUp",
                "meta": {"profile": ["http://hl7.org/fhir/us/cqfmeasures/StructureDefinition/test-case-cqfm"]},
                "modifierExtension": [{
                    "valueBoolean": true,
                    "url": "http://hl7.org/fhir/us/cqfmeasures/StructureDefinition/cqfm-isTestCase"
                }],
                "id": "3cecd167-7d81-41f8-8210-86572a2142ad",
                "evaluatedResource": [
                    {"reference": "Patient/3ce2c72d-d347-4fde-82cf-dc9992c73aad"},
                    {"reference": "Encounter/ec59ad42-c334-4d85-8acf-062cd03c5da4"},
                    {"reference": "Observation/9e95a724-3c6c-4c0a-b00c-a85e5347ee95"},
                    {"reference": "Coverage/3b6c1781-0ee6-4ccd-9542-4619db75fe8f"},
                    {"reference": "Organization/b4374ae4-0848-4d55-81b7-a9ed933e8240"},
                    {"reference": "Practitioner/c9ce5cf2-5b21-4e19-b89d-cbf37129e5f6"}
                ],
                "type": "individual",
                "resourceType": "MeasureReport",
                "status": "complete",
                "group": [{
                    "id": "Group_1",
                    "measureScore": {"value": 1},
                    "population": [
                        {
                            "code": {"coding": [{
                                "system": "http://terminology.hl7.org/CodeSystem/measure-population",
                                "code": "initial-population",
                                "display": "Initial Population"
                            }]},
                            "count": 1,
                            "id": "InitialPopulation_1"
                        },
                        {
                            "code": {"coding": [{
                                "system": "http://terminology.hl7.org/CodeSystem/measure-population",
                                "code": "denominator",
                                "display": "Denominator"
                            }]},
                            "count": 1,
                            "id": "Denominator_1"
                        },
                        {
                            "code": {"coding": [{
                                "system": "http://terminology.hl7.org/CodeSystem/measure-population",
                                "code": "denominator-exclusion",
                                "display": "Denominator Exclusion"
                            }]},
                            "count": 0,
                            "id": "DenominatorExclusion_1"
                        },
                        {
                            "code": {"coding": [{
                                "system": "http://terminology.hl7.org/CodeSystem/measure-population",
                                "code": "numerator",
                                "display": "Numerator"
                            }]},
                            "count": 1,
                            "id": "Numerator_1"
                        },
                        {
                            "code": {"coding": [{
                                "system": "http://terminology.hl7.org/CodeSystem/measure-population",
                                "code": "denominator-exception",
                                "display": "Denominator Exception"
                            }]},
                            "count": 0,
                            "id": "DenominatorException_1"
                        }
                    ]
                }]
            },
            "fullUrl": "https://madie.cms.gov/MeasureReport/3cecd167-7d81-41f8-8210-86572a2142ad"
        }
    ],
    "id": "62b1df283968556e5150cf33",
    "type": "transaction",
    "resourceType": "Bundle"
}