{
    "entry": [
        {
            "request": {
                "method": "PUT",
                "url": "Patient/afdeaa75-d332-40f2-9b30-0b6ddf7e7c14"
            },
            "resource": {
                "identifier": [{
                    "system": "https://bonnie-fhir.healthit.gov/",
                    "type": {"coding": [{
                        "system": "http://terminology.hl7.org/CodeSystem/v2-0203",
                        "code": "MR"
                    }]},
                    "value": "62d7354fc22c612899b40d6c"
                }],
                "extension": [
                    {
                        "extension": [
                            {
                                "valueCoding": {
                                    "system": "urn:oid:2.16.840.1.113883.6.238",
                                    "code": "2106-3",
                                    "userSelected": true,
                                    "display": "White"
                                },
                                "url": "ombCategory"
                            },
                            {
                                "valueString": "White",
                                "url": "text"
                            }
                        ],
                        "url": "http://hl7.org/fhir/us/core/StructureDefinition/us-core-race"
                    },
                    {
                        "extension": [
                            {
                                "valueCoding": {
                                    "system": "urn:oid:2.16.840.1.113883.6.238",
                                    "code": "2186-5",
                                    "userSelected": true,
                                    "display": "Not Hispanic or Latino"
                                },
                                "url": "ombCategory"
                            },
                            {
                                "valueString": "Not Hispanic or Latino",
                                "url": "text"
                            }
                        ],
                        "url": "http://hl7.org/fhir/us/core/StructureDefinition/us-core-ethnicity"
                    }
                ],
                "gender": "male",
                "meta": {"profile": ["http://hl7.org/fhir/us/qicore/StructureDefinition/qicore-patient"]},
                "name": [{
                    "given": ["ElevatedDeclineFU"],
                    "family": "DENEXCEPPass"
                }],
                "id": "afdeaa75-d332-40f2-9b30-0b6ddf7e7c14",
                "birthDate": "2006-01-01",
                "resourceType": "Patient"
            },
            "fullUrl": "https://madie.cms.gov/Patient/afdeaa75-d332-40f2-9b30-0b6ddf7e7c14"
        },
        {
            "request": {
                "method": "PUT",
                "url": "Encounter/7b347072-17ef-45d4-96df-825fe8198dc1"
            },
            "resource": {
                "period": {
                    "start": "2026-01-01T08:00:00.000+00:00",
                    "end": "2026-01-01T08:30:00.000+00:00"
                },
                "meta": {"profile": ["http://hl7.org/fhir/us/qicore/StructureDefinition/qicore-encounter"]},
                "subject": {"reference": "Patient/afdeaa75-d332-40f2-9b30-0b6ddf7e7c14"},
                "id": "7b347072-17ef-45d4-96df-825fe8198dc1",
                "type": [{"coding": [{
                    "system": "http://snomed.info/sct",
                    "code": "103705002",
                    "userSelected": true,
                    "display": "Patient status observation (procedure)",
                    "version": "2022-03"
                }]}],
                "class": {
                    "system": "http://terminology.hl7.org/CodeSystem/v3-ActCode",
                    "code": "AMB",
                    "display": "ambulatory"
                },
                "resourceType": "Encounter",
                "status": "finished"
            },
            "fullUrl": "https://madie.cms.gov/Encounter/7b347072-17ef-45d4-96df-825fe8198dc1"
        },
        {
            "request": {
                "method": "PUT",
                "url": "Observation/ed6d982b-76b1-4a53-9f36-15ebf33ac2c7"
            },
            "resource": {
                "component": [
                    {
                        "code": {"coding": [{
                            "system": "http://loinc.org",
                            "code": "8480-6",
                            "display": "Systolic blood pressure"
                        }]},
                        "valueQuantity": {
                            "unit": "mmHg",
                            "system": "http://unitsofmeasure.org",
                            "code": "mm[Hg]",
                            "value": 120
                        }
                    },
                    {
                        "code": {"coding": [{
                            "system": "http://loinc.org",
                            "code": "8462-4",
                            "display": "Diastolic blood pressure"
                        }]},
                        "valueQuantity": {
                            "unit": "mmHg",
                            "system": "http://unitsofmeasure.org",
                            "code": "mm[Hg]",
                            "value": 79
                        }
                    }
                ],
                "code": {"coding": [{
                    "system": "http://loinc.org",
                    "code": "85354-9",
                    "display": "Blood pressure panel"
                }]},
                "effectiveDateTime": "2026-01-01T08:05:00.000+00:00",
                "meta": {"profile": ["http://hl7.org/fhir/us/core/StructureDefinition/us-core-blood-pressure"]},
                "subject": {"reference": "Patient/afdeaa75-d332-40f2-9b30-0b6ddf7e7c14"},
                "id": "ed6d982b-76b1-4a53-9f36-15ebf33ac2c7",
                "category": [{
                    "coding": [{
                        "system": "http://terminology.hl7.org/CodeSystem/observation-category",
                        "code": "vital-signs",
                        "display": "Vital Signs"
                    }],
                    "text": "Vital Signs"
                }],
                "resourceType": "Observation",
                "status": "final"
            },
            "fullUrl": "https://madie.cms.gov/Observation/ed6d982b-76b1-4a53-9f36-15ebf33ac2c7"
        },
        {
            "request": {
                "method": "PUT",
                "url": "ServiceRequest/45a86b56-b275-44ca-b3e9-828c6f16a971"
            },
            "resource": {
                "extension": [{
                    "valueCodeableConcept": {"coding": [{
                        "system": "http://snomed.info/sct",
                        "code": "1296859006",
                        "userSelected": true,
                        "display": "Procedure declined by patient (situation)"
                    }]},
                    "url": "http://hl7.org/fhir/us/qicore/StructureDefinition/qicore-doNotPerformReason"
                }],
                "code": {"coding": [{
                    "system": "http://snomed.info/sct",
                    "code": "183624006",
                    "userSelected": true,
                    "display": "Follow-up 2-3 months (finding)"
                }]},
                "authoredOn": "2026-01-01T08:20:00.000+00:00",
                "meta": {"profile": ["http://hl7.org/fhir/us/qicore/StructureDefinition/qicore-servicenotrequested"]},
                "subject": {"reference": "Patient/afdeaa75-d332-40f2-9b30-0b6ddf7e7c14"},
                "id": "45a86b56-b275-44ca-b3e9-828c6f16a971",
                "doNotPerform": true,
                "intent": "order",
                "resourceType": "ServiceRequest",
                "status": "completed"
            },
            "fullUrl": "https://madie.cms.gov/ServiceRequest/45a86b56-b275-44ca-b3e9-828c6f16a971"
        },
        {
            "request": {
                "method": "PUT",
                "url": "Coverage/0c53c29f-5a0d-441f-9d72-bd53af83bf23"
            },
            "resource": {
                "payor": [{"reference": "Organization/a1588b1f-b9c7-4a28-a7b0-890a73ea2f4c"}],
                "beneficiary": {"reference": "Patient/afdeaa75-d332-40f2-9b30-0b6ddf7e7c14"},
                "meta": {"profile": ["http://hl7.org/fhir/us/qicore/StructureDefinition/qicore-coverage"]},
                "id": "0c53c29f-5a0d-441f-9d72-bd53af83bf23",
                "resourceType": "Coverage",
                "status": "active"
            },
            "fullUrl": "https://madie.cms.gov/Coverage/0c53c29f-5a0d-441f-9d72-bd53af83bf23"
        },
        {
            "request": {
                "method": "PUT",
                "url": "Organization/a1588b1f-b9c7-4a28-a7b0-890a73ea2f4c"
            },
            "resource": {
                "identifier": [{
                    "system": "urn:oid:2.16.840.1.113883.4.4",
                    "use": "temp",
                    "value": "21-3259825"
                }],
                "address": [{
                    "country": "USA",
                    "city": "Dallas",
                    "use": "billing",
                    "line": ["P.O. Box 660044"],
                    "postalCode": "75266-0044",
                    "state": "TX",
                    "type": "postal"
                }],
                "meta": {"profile": ["http://hl7.org/fhir/us/qicore/StructureDefinition/qicore-organization"]},
                "name": "Blue Cross Blue Shield of Texas",
                "active": true,
                "telecom": [{
                    "system": "phone",
                    "value": "(+1) 972-766-6900"
                }],
                "id": "a1588b1f-b9c7-4a28-a7b0-890a73ea2f4c",
                "type": [{"coding": [{
                    "system": "http://terminology.hl7.org/CodeSystem/organization-type",
                    "code": "pay",
                    "display": "Payer"
                }]}],
                "resourceType": "Organization"
            },
            "fullUrl": "https://madie.cms.gov/Organization/a1588b1f-b9c7-4a28-a7b0-890a73ea2f4c"
        },
        {
            "request": {
                "method": "PUT",
                "url": "Practitioner/f2830c73-3b1e-438c-bc31-ac3acc6eb2ac"
            },
            "resource": {
                "identifier": [{
                    "system": "http://hl7.org/fhir/sid/us-npi",
                    "value": "123456"
                }],
                "meta": {"profile": ["http://hl7.org/fhir/us/qicore/StructureDefinition/qicore-practitioner"]},
                "name": [{
                    "prefix": ["Dr"],
                    "family": "Evil"
                }],
                "id": "f2830c73-3b1e-438c-bc31-ac3acc6eb2ac",
                "resourceType": "Practitioner"
            },
            "fullUrl": "https://madie.cms.gov/Practitioner/f2830c73-3b1e-438c-bc31-ac3acc6eb2ac"
        },
        {
            "request": {
                "method": "PUT",
                "url": "MeasureReport/2eb735dc-73c3-4b5e-980f-7196a82673ec"
            },
            "resource": {
                "contained": [{
                    "parameter": [{
                        "valueString": "afdeaa75-d332-40f2-9b30-0b6ddf7e7c14",
                        "name": "subject"
                    }],
                    "id": "7cb268bb-81b1-4ddf-80c9-c962b4fa1ea8-parameters",
                    "resourceType": "Parameters"
                }],
                "extension": [
                    {
                        "valueReference": {"reference": "#7cb268bb-81b1-4ddf-80c9-c962b4fa1ea8-parameters"},
                        "url": "http://hl7.org/fhir/StructureDefinition/cqf-inputParameters"
                    },
                    {
                        "valueMarkdown": "Enc. 1/1  0800-0830 during MP, BP 120/79, pt. refused f/u 2-3 months.",
                        "url": "http://hl7.org/fhir/us/cqfmeasures/StructureDefinition/cqfm-testCaseDescription"
                    }
                ],
                "period": {
                    "start": "2026-01-01",
                    "end": "2026-12-31"
                },
                "measure": "https://madie.cms.gov/Measure/CMS22FHIRPCSBPScreeningFollowUp",
                "meta": {"profile": ["http://hl7.org/fhir/us/cqfmeasures/StructureDefinition/test-case-cqfm"]},
                "modifierExtension": [{
                    "valueBoolean": true,
                    "url": "http://hl7.org/fhir/us/cqfmeasures/StructureDefinition/cqfm-isTestCase"
                }],
                "id": "2eb735dc-73c3-4b5e-980f-7196a82673ec",
                "evaluatedResource": [
                    {"reference": "Patient/afdeaa75-d332-40f2-9b30-0b6ddf7e7c14"},
                    {"reference": "Encounter/7b347072-17ef-45d4-96df-825fe8198dc1"},
                    {"reference": "Observation/ed6d982b-76b1-4a53-9f36-15ebf33ac2c7"},
                    {"reference": "ServiceRequest/45a86b56-b275-44ca-b3e9-828c6f16a971"},
                    {"reference": "Coverage/0c53c29f-5a0d-441f-9d72-bd53af83bf23"},
                    {"reference": "Organization/a1588b1f-b9c7-4a28-a7b0-890a73ea2f4c"},
                    {"reference": "Practitioner/f2830c73-3b1e-438c-bc31-ac3acc6eb2ac"}
                ],
                "type": "individual",
                "resourceType": "MeasureReport",
                "status": "complete",
                "group": [{
                    "id": "Group_1",
                    "measureScore": {"value": 0},
                    "population": [
                        {
                            "code": {"coding": [{
                                "system": "http://terminology.hl7.org/CodeSystem/measure-population",
                                "code": "initial-population",
                                "display": "Initial Population"
                            }]},
                            "count": 1,
                            "id": "InitialPopulation_1"
                        },
                        {
                            "code": {"coding": [{
                                "system": "http://terminology.hl7.org/CodeSystem/measure-population",
                                "code": "denominator",
                                "display": "Denominator"
                            }]},
                            "count": 1,
                            "id": "Denominator_1"
                        },
                        {
                            "code": {"coding": [{
                                "system": "http://terminology.hl7.org/CodeSystem/measure-population",
                                "code": "denominator-exclusion",
                                "display": "Denominator Exclusion"
                            }]},
                            "count": 0,
                            "id": "DenominatorExclusion_1"
                        },
                        {
                            "code": {"coding": [{
                                "system": "http://terminology.hl7.org/CodeSystem/measure-population",
                                "code": "numerator",
                                "display": "Numerator"
                            }]},
                            "count": 0,
                            "id": "Numerator_1"
                        },
                        {
                            "code": {"coding": [{
                                "system": "http://terminology.hl7.org/CodeSystem/measure-population",
                                "code": "denominator-exception",
                                "display": "Denominator Exception"
                            }]},
                            "count": 1,
                            "id": "DenominatorException_1"
                        }
                    ]
                }]
            },
            "fullUrl": "https://madie.cms.gov/MeasureReport/2eb735dc-73c3-4b5e-980f-7196a82673ec"
        }
    ],
    "id": "62d7354fc22c612899b40d6c",
    "type": "transaction",
    "resourceType": "Bundle"
}