{
  "resourceType": "Bundle",
  "id": "63487c2d0968f80122540152",
  "type": "transaction",
  "entry": [ {
    "fullUrl": "https://madie.cms.gov/Patient/3c63b420-89fb-4062-9319-ea509a3192c8",
    "resource": {
      "resourceType": "Patient",
      "id": "3c63b420-89fb-4062-9319-ea509a3192c8",
      "meta": {
        "profile": [ "http://hl7.org/fhir/us/qicore/StructureDefinition/qicore-patient" ]
      },
      "text": {
        "status": "generated",
        "div": "<div xmlns=\"http://www.w3.org/1999/xhtml\"><div class=\"hapiHeaderText\">ProcCsectEndEQDelivEncEnd<b>NUMPASS</b></div><table class=\"hapiPropertyTable\"><tbody><tr><td>Identifier</td><td>a67ba324e458907a26a4b913484bc8c56e2f861e5f9a2d3286226ca477cf0053</td></tr><tr><td>Date of birth</td><td><span>14 February 1985</span></td></tr></tbody></table></div>"
      },
      "extension": [ {
        "url": "http://hl7.org/fhir/us/core/StructureDefinition/us-core-race",
        "extension": [ {
          "url": "ombCategory",
          "valueCoding": {
            "system": "urn:oid:2.16.840.1.113883.6.238",
            "code": "1002-5",
            "display": "American Indian or Alaska Native",
            "userSelected": true
          }
        }, {
          "url": "text",
          "valueString": "American Indian or Alaska Native"
        } ]
      }, {
        "url": "http://hl7.org/fhir/us/core/StructureDefinition/us-core-ethnicity",
        "extension": [ {
          "url": "ombCategory",
          "valueCoding": {
            "system": "urn:oid:2.16.840.1.113883.6.238",
            "code": "2135-2",
            "display": "Hispanic or Latino",
            "userSelected": true
          }
        }, {
          "url": "text",
          "valueString": "Hispanic or Latino"
        } ]
      } ],
      "identifier": [ {
        "type": {
          "coding": [ {
            "system": "http://terminology.hl7.org/CodeSystem/v2-0203",
            "code": "MR"
          } ]
        },
        "system": "https://bonnie-fhir.healthit.gov/",
        "value": "63487c2d0968f80122540152"
      } ],
      "active": true,
      "name": [ {
        "use": "usual",
        "family": "NUMPass",
        "given": [ "ProcCsectEndEQDelivEncEnd" ]
      } ],
      "gender": "female",
      "birthDate": "1998-02-14"
    },
    "request": {
      "method": "PUT",
      "url": "Patient/3c63b420-89fb-4062-9319-ea509a3192c8"
    }
  }, {
    "fullUrl": "https://madie.cms.gov/Observation/3d617eb3-eae7-49d7-b7c2-2d600cc386f8",
    "resource": {
      "resourceType": "Observation",
      "id": "3d617eb3-eae7-49d7-b7c2-2d600cc386f8",
      "meta": {
        "profile": [ "http://hl7.org/fhir/us/qicore/StructureDefinition/qicore-simple-observation" ]
      },
      "status": "final",
      "category": [ {
        "coding": [ {
          "system": "http://terminology.hl7.org/CodeSystem/observation-category",
          "code": "exam",
          "display": "exam",
          "userSelected": true
        } ]
      } ],
      "code": {
        "coding": [ {
          "system": "http://loinc.org",
          "code": "11996-6"
        } ]
      },
      "subject": {
        "reference": "Patient/3c63b420-89fb-4062-9319-ea509a3192c8"
      },
      "effectiveDateTime": "2026-02-09T08:00:00.000+00:00",
      "performer": [ {
        "reference": "Organization/example1",
        "display": "Hendricks Country Hospital"
      } ],
      "valueInteger": 1
    },
    "request": {
      "method": "PUT",
      "url": "Observation/3d617eb3-eae7-49d7-b7c2-2d600cc386f8"
    }
  }, {
    "fullUrl": "https://madie.cms.gov/Observation/513442bf-75e2-4e60-a184-2734cb02b1ea",
    "resource": {
      "resourceType": "Observation",
      "id": "513442bf-75e2-4e60-a184-2734cb02b1ea",
      "meta": {
        "profile": [ "http://hl7.org/fhir/us/qicore/StructureDefinition/qicore-simple-observation" ]
      },
      "status": "final",
      "category": [ {
        "coding": [ {
          "system": "http://terminology.hl7.org/CodeSystem/observation-category",
          "code": "exam",
          "display": "exam",
          "userSelected": true
        } ]
      } ],
      "code": {
        "coding": [ {
          "system": "http://loinc.org",
          "code": "11884-4"
        } ]
      },
      "subject": {
        "reference": "Patient/3c63b420-89fb-4062-9319-ea509a3192c8"
      },
      "effectiveDateTime": "2026-11-28T21:15:00.000+00:00",
      "performer": [ {
        "reference": "Organization/example1",
        "display": "Hendricks Country Hospital"
      } ],
      "valueQuantity": {
        "value": 40,
        "system": "http://unitsofmeasure.org",
        "code": "wk"
      }
    },
    "request": {
      "method": "PUT",
      "url": "Observation/513442bf-75e2-4e60-a184-2734cb02b1ea"
    }
  }, {
    "fullUrl": "https://madie.cms.gov/Observation/f4de0172-3533-429f-a58a-1dcf631ab566",
    "resource": {
      "resourceType": "Observation",
      "id": "f4de0172-3533-429f-a58a-1dcf631ab566",
      "meta": {
        "profile": [ "http://hl7.org/fhir/us/qicore/StructureDefinition/qicore-simple-observation" ]
      },
      "status": "final",
      "category": [ {
        "coding": [ {
          "system": "http://terminology.hl7.org/CodeSystem/observation-category",
          "code": "exam",
          "display": "exam",
          "userSelected": true
        } ]
      } ],
      "code": {
        "coding": [ {
          "system": "http://loinc.org",
          "code": "93857-1"
        } ]
      },
      "subject": {
        "reference": "Patient/3c63b420-89fb-4062-9319-ea509a3192c8"
      },
      "effectiveDateTime": "2026-11-28T21:15:00.000+00:00",
      "performer": [ {
        "reference": "Organization/example1",
        "display": "Hendricks Country Hospital"
      } ],
      "valueDateTime": "2026-11-28T21:15:00.000+00:00"
    },
    "request": {
      "method": "PUT",
      "url": "Observation/f4de0172-3533-429f-a58a-1dcf631ab566"
    }
  }, {
    "fullUrl": "https://madie.cms.gov/Encounter/9bbc6f0b-f1b9-4443-b4b6-2caf58af2814",
    "resource": {
      "resourceType": "Encounter",
      "id": "9bbc6f0b-f1b9-4443-b4b6-2caf58af2814",
      "meta": {
        "profile": [ "http://hl7.org/fhir/us/qicore/StructureDefinition/qicore-encounter" ]
      },
      "status": "finished",
      "class": {
        "system": "http://terminology.hl7.org/CodeSystem/v3-ActCode",
        "code": "IMP",
        "display": "inpatient encounter"
      },
      "type": [ {
        "coding": [ {
          "system": "http://snomed.info/sct",
          "code": "8715000"
        } ]
      } ],
      "subject": {
        "reference": "Patient/3c63b420-89fb-4062-9319-ea509a3192c8"
      },
      "period": {
        "start": "2026-11-28T08:00:00.000+00:00",
        "end": "2026-11-30T08:15:00.000+00:00"
      },
      "reasonCode": [ {
        "coding": [ {
          "system": "http://snomed.info/sct",
          "code": "169826009",
          "display": "Single live birth from singleton pregnancy (finding)"
        } ]
      } ]
    },
    "request": {
      "method": "PUT",
      "url": "Encounter/9bbc6f0b-f1b9-4443-b4b6-2caf58af2814"
    }
  }, {
    "fullUrl": "https://madie.cms.gov/Procedure/37d72b86-5cb2-4178-ba3e-672e048d6ad8",
    "resource": {
      "resourceType": "Procedure",
      "id": "37d72b86-5cb2-4178-ba3e-672e048d6ad8",
      "meta": {
        "profile": [ "http://hl7.org/fhir/us/qicore/StructureDefinition/qicore-procedure" ]
      },
      "extension": [ {
        "url": "http://hl7.org/fhir/us/qicore/StructureDefinition/qicore-recorded",
        "valueDateTime": "2014-04-05T13:35:00.000+00:00"
      } ],
      "status": "completed",
      "code": {
        "coding": [ {
          "system": "http://www.cms.gov/Medicare/Coding/ICD10",
          "code": "10D00Z1"
        } ]
      },
      "subject": {
        "reference": "Patient/3c63b420-89fb-4062-9319-ea509a3192c8"
      },
      "performedPeriod": {
        "start": "2026-11-30T07:00:00.000+00:00",
        "end": "2026-11-30T08:15:00.000+00:00"
      }
    },
    "request": {
      "method": "PUT",
      "url": "Procedure/37d72b86-5cb2-4178-ba3e-672e048d6ad8"
    }
  }, {
    "fullUrl": "https://madie.cms.gov/Condition/9894c540-2a6a-4ce3-a6de-c350c84b1373",
    "resource": {
      "resourceType": "Condition",
      "id": "9894c540-2a6a-4ce3-a6de-c350c84b1373",
      "meta": {
        "profile": [ "http://hl7.org/fhir/us/qicore/StructureDefinition/qicore-condition" ]
      },
      "category": [ {
        "coding": [ {
          "system": "http://terminology.hl7.org/CodeSystem/condition-category",
          "code": "encounter-diagnosis",
          "display": "Encounter Diagnosis"
        } ]
      } ],
      "code": {
        "coding": [ {
          "system": "http://snomed.info/sct",
          "version": "2022-09",
          "code": "169826009",
          "display": "Single live birth (finding)",
          "userSelected": true
        } ]
      },
      "subject": {
        "reference": "Patient/3c63b420-89fb-4062-9319-ea509a3192c8"
      },
      "recordedDate": "2026-10-17T08:00:00.000+00:00"
    },
    "request": {
      "method": "PUT",
      "url": "Condition/9894c540-2a6a-4ce3-a6de-c350c84b1373"
    }
  }, {
    "fullUrl": "https://madie.cms.gov/Coverage/280e465b-598d-47a3-bbc4-fd044f6eee38",
    "resource": {
      "resourceType": "Coverage",
      "id": "280e465b-598d-47a3-bbc4-fd044f6eee38",
      "meta": {
        "profile": [ "http://hl7.org/fhir/us/qicore/StructureDefinition/qicore-coverage" ]
      },
      "status": "active",
      "subscriberId": "523435",
      "beneficiary": {
        "reference": "Patient/3c63b420-89fb-4062-9319-ea509a3192c8"
      },
      "relationship": {
        "coding": [ {
          "system": "http://terminology.hl7.org/CodeSystem/subscriber-relationship",
          "code": "self"
        } ]
      },
      "payor": [ {
        "reference": "Organization/75e7e139-1ae2-47b8-acf7-20534563cd3b"
      } ]
    },
    "request": {
      "method": "PUT",
      "url": "Coverage/280e465b-598d-47a3-bbc4-fd044f6eee38"
    }
  }, {
    "fullUrl": "https://madie.cms.gov/Organization/75e7e139-1ae2-47b8-acf7-20534563cd3b",
    "resource": {
      "resourceType": "Organization",
      "id": "75e7e139-1ae2-47b8-acf7-20534563cd3b",
      "meta": {
        "profile": [ "http://hl7.org/fhir/us/qicore/StructureDefinition/qicore-organization" ]
      },
      "identifier": [ {
        "use": "temp",
        "system": "urn:oid:2.16.840.1.113883.4.4",
        "value": "21-3259825"
      } ],
      "active": true,
      "type": [ {
        "coding": [ {
          "system": "http://terminology.hl7.org/CodeSystem/organization-type",
          "code": "pay",
          "display": "Payer"
        } ]
      } ],
      "name": "Blue Cross Blue Shield of Texas",
      "telecom": [ {
        "system": "phone",
        "value": "(+1) 972-766-6900"
      } ],
      "address": [ {
        "use": "billing",
        "type": "postal",
        "line": [ "P.O. Box 660044" ],
        "city": "Dallas",
        "state": "TX",
        "postalCode": "75266-0044",
        "country": "USA"
      } ]
    },
    "request": {
      "method": "PUT",
      "url": "Organization/75e7e139-1ae2-47b8-acf7-20534563cd3b"
    }
  }, {
    "fullUrl": "https://madie.cms.gov/Practitioner/43bca65d-fd31-4ee0-aae8-7daa4f63ad34",
    "resource": {
      "resourceType": "Practitioner",
      "id": "43bca65d-fd31-4ee0-aae8-7daa4f63ad34",
      "meta": {
        "profile": [ "http://hl7.org/fhir/us/qicore/StructureDefinition/qicore-practitioner" ]
      },
      "identifier": [ {
        "system": "http://hl7.org/fhir/sid/us-npi",
        "value": "1234567890"
      } ],
      "name": [ {
        "family": "Evil",
        "prefix": [ "Dr" ]
      } ]
    },
    "request": {
      "method": "PUT",
      "url": "Practitioner/43bca65d-fd31-4ee0-aae8-7daa4f63ad34"
    }
  }, {
    "fullUrl": "https://madie.cms.gov/MeasureReport/25e24930-ee5c-4acc-a651-2c6abb84534a",
    "resource": {
      "resourceType": "MeasureReport",
      "id": "25e24930-ee5c-4acc-a651-2c6abb84534a",
      "meta": {
        "profile": [ "http://hl7.org/fhir/us/cqfmeasures/StructureDefinition/test-case-cqfm" ]
      },
      "contained": [ {
        "resourceType": "Parameters",
        "id": "163c2ced-0f96-4c8a-8c19-ab5933079f91-parameters",
        "parameter": [ {
          "name": "subject",
          "valueString": "3c63b420-89fb-4062-9319-ea509a3192c8"
        } ]
      } ],
      "extension": [ {
        "url": "http://hl7.org/fhir/StructureDefinition/cqf-inputParameters",
        "valueReference": {
          "reference": "#163c2ced-0f96-4c8a-8c19-ab5933079f91-parameters"
        }
      }, {
        "url": "http://hl7.org/fhir/us/cqfmeasures/StructureDefinition/cqfm-testCaseDescription",
        "valueMarkdown": "Passes IP, DEN, NUM; Gravida 1(effective date 42 weeks)  and EGA 40 weeks;  End of Proc Csect equals end of Delivery Encounter."
      } ],
      "modifierExtension": [ {
        "url": "http://hl7.org/fhir/us/cqfmeasures/StructureDefinition/cqfm-isTestCase",
        "valueBoolean": true
      } ],
      "status": "complete",
      "type": "individual",
      "measure": "https://madie.cms.gov/Measure/CMS0334FHIRPCCesareanBirth",
      "period": {
        "start": "2026-01-01",
        "end": "2026-12-31"
      },
      "group": [ {
        "id": "Group_1",
        "population": [ {
          "id": "InitialPopulation_1",
          "code": {
            "coding": [ {
              "system": "http://terminology.hl7.org/CodeSystem/measure-population",
              "code": "initial-population",
              "display": "Initial Population"
            } ]
          },
          "count": 1
        }, {
          "id": "Denominator_1",
          "code": {
            "coding": [ {
              "system": "http://terminology.hl7.org/CodeSystem/measure-population",
              "code": "denominator",
              "display": "Denominator"
            } ]
          },
          "count": 1
        }, {
          "id": "DenominatorExclusion_1",
          "code": {
            "coding": [ {
              "system": "http://terminology.hl7.org/CodeSystem/measure-population",
              "code": "denominator-exclusion",
              "display": "Denominator Exclusion"
            } ]
          },
          "count": 0
        }, {
          "id": "Numerator_1",
          "code": {
            "coding": [ {
              "system": "http://terminology.hl7.org/CodeSystem/measure-population",
              "code": "numerator",
              "display": "Numerator"
            } ]
          },
          "count": 1
        } ],
        "measureScore": {
          "value": 0.0
        }
      } ],
      "evaluatedResource": [ {
        "reference": "Patient/3c63b420-89fb-4062-9319-ea509a3192c8"
      }, {
        "reference": "Observation/3d617eb3-eae7-49d7-b7c2-2d600cc386f8"
      }, {
        "reference": "Observation/513442bf-75e2-4e60-a184-2734cb02b1ea"
      }, {
        "reference": "Observation/f4de0172-3533-429f-a58a-1dcf631ab566"
      }, {
        "reference": "Encounter/9bbc6f0b-f1b9-4443-b4b6-2caf58af2814"
      }, {
        "reference": "Procedure/37d72b86-5cb2-4178-ba3e-672e048d6ad8"
      }, {
        "reference": "Condition/9894c540-2a6a-4ce3-a6de-c350c84b1373"
      }, {
        "reference": "Coverage/280e465b-598d-47a3-bbc4-fd044f6eee38"
      }, {
        "reference": "Organization/75e7e139-1ae2-47b8-acf7-20534563cd3b"
      }, {
        "reference": "Practitioner/43bca65d-fd31-4ee0-aae8-7daa4f63ad34"
      } ]
    },
    "request": {
      "method": "PUT",
      "url": "MeasureReport/25e24930-ee5c-4acc-a651-2c6abb84534a"
    }
  } ]
}