{
  "resourceType": "Bundle",
  "id": "NUMERFail-FallAdvEventNoDates",
  "type": "transaction",
  "entry": [ {
    "fullUrl": "https://madie.cms.gov/Encounter/2fdfeb7c-bda7-438b-a831-49de33517bfe",
    "resource": {
      "resourceType": "Encounter",
      "id": "2fdfeb7c-bda7-438b-a831-49de33517bfe",
      "meta": {
        "profile": [ "http://hl7.org/fhir/us/qicore/StructureDefinition/qicore-encounter" ]
      },
      "status": "finished",
      "class": {
        "system": "http://terminology.hl7.org/CodeSystem/v3-ActCode",
        "code": "IMP",
        "display": "inpatient encounter"
      },
      "type": [ {
        "coding": [ {
          "system": "http://snomed.info/sct",
          "code": "183452005"
        } ]
      } ],
      "subject": {
        "reference": "Patient/6442de45-b65d-4bda-8143-0e9c28d19485"
      },
      "period": {
        "start": "2026-11-02T11:00:00.000+00:00",
        "end": "2026-11-05T08:15:00.000+00:00"
      },
      "diagnosis": [ {
        "extension": [ {
          "url": "http://hl7.org/fhir/us/qicore/StructureDefinition/qicore-encounter-diagnosisPresentOnAdmission",
          "valueCodeableConcept": {
            "coding": [ {
              "system": "https://www.cms.gov/Medicare/Medicare-Fee-for-Service-Payment/HospitalAcqCond/Coding",
              "code": "N"
            } ]
          }
        } ],
        "condition": {
          "reference": "Condition/4843697b-5fc2-4a19-ba17-f99bd87f9bfe"
        }
      } ]
    },
    "request": {
      "method": "PUT",
      "url": "Encounter/2fdfeb7c-bda7-438b-a831-49de33517bfe"
    }
  }, {
    "fullUrl": "https://madie.cms.gov/Encounter/e1a0685b-abcb-4b3e-a65e-a32856762b95",
    "resource": {
      "resourceType": "Encounter",
      "id": "e1a0685b-abcb-4b3e-a65e-a32856762b95",
      "meta": {
        "profile": [ "http://hl7.org/fhir/us/qicore/StructureDefinition/qicore-encounter" ]
      },
      "status": "finished",
      "class": {
        "system": "http://terminology.hl7.org/CodeSystem/v3-ActCode",
        "code": "IMP",
        "display": "inpatient encounter"
      },
      "type": [ {
        "coding": [ {
          "system": "http://snomed.info/sct",
          "code": "4525004"
        } ]
      } ],
      "subject": {
        "reference": "Patient/6442de45-b65d-4bda-8143-0e9c28d19485"
      },
      "period": {
        "start": "2026-11-02T08:00:00.000+00:00",
        "end": "2026-11-02T08:15:00.000+00:00"
      }
    },
    "request": {
      "method": "PUT",
      "url": "Encounter/e1a0685b-abcb-4b3e-a65e-a32856762b95"
    }
  }, {
    "fullUrl": "https://madie.cms.gov/Condition/4843697b-5fc2-4a19-ba17-f99bd87f9bfe",
    "resource": {
      "resourceType": "Condition",
      "id": "4843697b-5fc2-4a19-ba17-f99bd87f9bfe",
      "meta": {
        "profile": [ "http://hl7.org/fhir/us/qicore/StructureDefinition/qicore-condition" ]
      },
      "clinicalStatus": {
        "coding": [ {
          "system": "http://terminology.hl7.org/CodeSystem/condition-clinical",
          "code": "active"
        } ]
      },
      "verificationStatus": {
        "coding": [ {
          "system": "http://terminology.hl7.org/CodeSystem/condition-ver-status",
          "code": "confirmed"
        } ]
      },
      "category": [ {
        "coding": [ {
          "system": "http://terminology.hl7.org/CodeSystem/condition-category",
          "code": "encounter-diagnosis",
          "display": "Encounter Diagnosis"
        } ]
      } ],
      "code": {
        "coding": [ {
          "system": "http://hl7.org/fhir/sid/icd-10-cm",
          "code": "M80.00XA"
        } ]
      },
      "subject": {
        "reference": "Patient/6442de45-b65d-4bda-8143-0e9c28d19485"
      },
      "encounter": {
        "reference": "Encounter/2fdfeb7c-bda7-438b-a831-49de33517bfe"
      }
    },
    "request": {
      "method": "PUT",
      "url": "Condition/4843697b-5fc2-4a19-ba17-f99bd87f9bfe"
    }
  }, {
    "fullUrl": "https://madie.cms.gov/Patient/6442de45-b65d-4bda-8143-0e9c28d19485",
    "resource": {
      "resourceType": "Patient",
      "id": "6442de45-b65d-4bda-8143-0e9c28d19485",
      "meta": {
        "profile": [ "http://hl7.org/fhir/us/qicore/StructureDefinition/qicore-patient" ]
      },
      "extension": [ {
        "url": "http://hl7.org/fhir/us/core/StructureDefinition/us-core-race",
        "extension": [ {
          "url": "ombCategory",
          "valueCoding": {
            "system": "urn:oid:2.16.840.1.113883.6.238",
            "code": "2054-5",
            "display": "Black or African American",
            "userSelected": true
          }
        }, {
          "url": "text",
          "valueString": "Black or African American"
        } ]
      }, {
        "url": "http://hl7.org/fhir/us/core/StructureDefinition/us-core-ethnicity",
        "extension": [ {
          "url": "ombCategory",
          "valueCoding": {
            "system": "urn:oid:2.16.840.1.113883.6.238",
            "code": "2186-5",
            "display": "Not Hispanic or Latino",
            "userSelected": true
          }
        }, {
          "url": "text",
          "valueString": "Not Hispanic or Latino"
        } ]
      } ],
      "identifier": [ {
        "type": {
          "coding": [ {
            "system": "http://terminology.hl7.org/CodeSystem/v2-0203",
            "code": "MR"
          } ]
        },
        "system": "https://bonnie-fhir.healthit.gov/",
        "value": "61152a3b98086b7a79cbd7c1"
      } ],
      "active": true,
      "name": [ {
        "use": "usual",
        "family": "NUMERFail",
        "given": [ "FallAdvEventNoDates" ]
      } ],
      "gender": "male",
      "birthDate": "1984-06-11"
    },
    "request": {
      "method": "PUT",
      "url": "Patient/6442de45-b65d-4bda-8143-0e9c28d19485"
    }
  }, {
    "fullUrl": "https://madie.cms.gov/AdverseEvent/b03ad27c-cadc-4321-a26e-d32591caa7ec",
    "resource": {
      "resourceType": "AdverseEvent",
      "id": "b03ad27c-cadc-4321-a26e-d32591caa7ec",
      "meta": {
        "profile": [ "http://hl7.org/fhir/us/qicore/StructureDefinition/qicore-adverseevent" ]
      },
      "actuality": "actual",
      "event": {
        "coding": [ {
          "system": "http://hl7.org/fhir/sid/icd-10-cm",
          "code": "W01.0XXA"
        } ]
      },
      "subject": {
        "reference": "Patient/6442de45-b65d-4bda-8143-0e9c28d19485"
      }
    },
    "request": {
      "method": "PUT",
      "url": "AdverseEvent/b03ad27c-cadc-4321-a26e-d32591caa7ec"
    }
  }, {
    "fullUrl": "https://madie.cms.gov/MeasureReport/83b21db9-0262-41bc-879c-a81231226340",
    "resource": {
      "resourceType": "MeasureReport",
      "id": "83b21db9-0262-41bc-879c-a81231226340",
      "meta": {
        "profile": [ "http://hl7.org/fhir/us/cqfmeasures/StructureDefinition/test-case-cqfm" ]
      },
      "contained": [ {
        "resourceType": "Parameters",
        "id": "38336c78-2a41-48c9-b9c8-05170bbd673b-parameters",
        "parameter": [ {
          "name": "subject",
          "valueString": "6442de45-b65d-4bda-8143-0e9c28d19485"
        } ]
      } ],
      "extension": [ {
        "url": "http://hl7.org/fhir/StructureDefinition/cqf-inputParameters",
        "valueReference": {
          "reference": "#38336c78-2a41-48c9-b9c8-05170bbd673b-parameters"
        }
      }, {
        "url": "http://hl7.org/fhir/us/cqfmeasures/StructureDefinition/cqfm-testCaseDescription",
        "valueMarkdown": "Encounter with Adverse Event Fall, but no author or relevant date/time during Encounter. Encounter diag of major injury NPOA. Need relevant date time of fall to meet numerator. Numerator Fails."
      } ],
      "modifierExtension": [ {
        "url": "http://hl7.org/fhir/us/cqfmeasures/StructureDefinition/cqfm-isTestCase",
        "valueBoolean": true
      } ],
      "status": "complete",
      "type": "individual",
      "measure": "https://madie.cms.gov/Measure/CMS1017FHIRHHFI",
      "period": {
        "start": "2026-01-01",
        "end": "2026-12-31"
      },
      "group": [ {
        "id": "Group_1",
        "population": [ {
          "id": "InitialPopulation_1",
          "code": {
            "coding": [ {
              "system": "http://terminology.hl7.org/CodeSystem/measure-population",
              "code": "initial-population",
              "display": "Initial Population"
            } ]
          },
          "count": 1
        }, {
          "id": "Denominator_1",
          "code": {
            "coding": [ {
              "system": "http://terminology.hl7.org/CodeSystem/measure-population",
              "code": "denominator",
              "display": "Denominator"
            } ]
          },
          "count": 1
        }, {
          "id": "DenominatorExclusion_1",
          "code": {
            "coding": [ {
              "system": "http://terminology.hl7.org/CodeSystem/measure-population",
              "code": "denominator-exclusion",
              "display": "Denominator Exclusion"
            } ]
          },
          "count": 0
        }, {
          "id": "Numerator_1",
          "code": {
            "coding": [ {
              "system": "http://terminology.hl7.org/CodeSystem/measure-population",
              "code": "numerator",
              "display": "Numerator"
            } ]
          },
          "count": 0
        }, {
          "id": "NumeratorExclusion_1",
          "code": {
            "coding": [ {
              "system": "http://terminology.hl7.org/CodeSystem/measure-population",
              "code": "numerator-exclusion",
              "display": "Numerator Exclusion"
            } ]
          },
          "count": 0
        }, {
          "id": "MeasureObservation_1_1_1",
          "code": {
            "coding": [ {
              "system": "http://terminology.hl7.org/CodeSystem/measure-population",
              "code": "measure-observation",
              "display": "Measure Observation"
            } ]
          },
          "count": 2
        } ],
        "measureScore": {
          "value": 0.0
        }
      } ],
      "evaluatedResource": [ {
        "reference": "Encounter/2fdfeb7c-bda7-438b-a831-49de33517bfe"
      }, {
        "reference": "Encounter/e1a0685b-abcb-4b3e-a65e-a32856762b95"
      }, {
        "reference": "Condition/4843697b-5fc2-4a19-ba17-f99bd87f9bfe"
      }, {
        "reference": "Patient/6442de45-b65d-4bda-8143-0e9c28d19485"
      }, {
        "reference": "AdverseEvent/b03ad27c-cadc-4321-a26e-d32591caa7ec"
      } ]
    },
    "request": {
      "method": "PUT",
      "url": "MeasureReport/83b21db9-0262-41bc-879c-a81231226340"
    }
  } ]
}