{
  "resourceType": "Bundle",
  "id": "633c9d040968f8012250fca5",
  "type": "transaction",
  "entry": [ {
    "fullUrl": "https://madie.cms.gov/Patient/2d694619-fb6d-43e5-8f56-4eb95752c7a7",
    "resource": {
      "resourceType": "Patient",
      "id": "2d694619-fb6d-43e5-8f56-4eb95752c7a7",
      "meta": {
        "profile": [ "http://hl7.org/fhir/us/qicore/StructureDefinition/qicore-patient" ]
      },
      "text": {
        "status": "generated",
        "div": "<div xmlns=\"http://www.w3.org/1999/xhtml\"><div class=\"hapiHeaderText\">CMOdurED_ED=1hrObs=1hrBFEnc <b>DENEXPASS </b></div><table class=\"hapiPropertyTable\"><tbody><tr><td>Identifier</td><td>c7d7fbb05b3fb095f038e7bb032293f972cd9bbdd4b9c869e38f2b84ac1213ac</td></tr><tr><td>Date of birth</td><td><span>18 September 1985</span></td></tr></tbody></table></div>"
      },
      "extension": [ {
        "url": "http://hl7.org/fhir/us/core/StructureDefinition/us-core-race",
        "extension": [ {
          "url": "ombCategory",
          "valueCoding": {
            "system": "urn:oid:2.16.840.1.113883.6.238",
            "code": "1002-5",
            "display": "American Indian or Alaska Native",
            "userSelected": true
          }
        }, {
          "url": "text",
          "valueString": "American Indian or Alaska Native"
        } ]
      }, {
        "url": "http://hl7.org/fhir/us/core/StructureDefinition/us-core-ethnicity",
        "extension": [ {
          "url": "ombCategory",
          "valueCoding": {
            "system": "urn:oid:2.16.840.1.113883.6.238",
            "code": "2135-2",
            "display": "Hispanic or Latino",
            "userSelected": true
          }
        }, {
          "url": "text",
          "valueString": "Hispanic or Latino"
        } ]
      } ],
      "identifier": [ {
        "type": {
          "coding": [ {
            "system": "http://terminology.hl7.org/CodeSystem/v2-0203",
            "code": "MR"
          } ]
        },
        "system": "https://bonnie-fhir.healthit.gov/",
        "value": "633c9d040968f8012250fca5"
      } ],
      "active": true,
      "name": [ {
        "use": "usual",
        "family": "DENEXPass",
        "given": [ "CMOdurEDED1hObs1hrBFEnc" ]
      } ],
      "gender": "female",
      "birthDate": "1986-09-18"
    },
    "request": {
      "method": "PUT",
      "url": "Patient/2d694619-fb6d-43e5-8f56-4eb95752c7a7"
    }
  }, {
    "fullUrl": "https://madie.cms.gov/Condition/8d6481ca-1591-4d7a-863e-b5c9b8c48b07",
    "resource": {
      "resourceType": "Condition",
      "id": "8d6481ca-1591-4d7a-863e-b5c9b8c48b07",
      "meta": {
        "profile": [ "http://hl7.org/fhir/us/qicore/StructureDefinition/qicore-condition-problems-health-concerns" ]
      },
      "clinicalStatus": {
        "coding": [ {
          "system": "http://terminology.hl7.org/CodeSystem/condition-clinical",
          "code": "inactive"
        } ]
      },
      "verificationStatus": {
        "coding": [ {
          "system": "http://terminology.hl7.org/CodeSystem/condition-ver-status",
          "code": "confirmed"
        } ]
      },
      "category": [ {
        "coding": [ {
          "system": "http://terminology.hl7.org/CodeSystem/condition-category",
          "code": "encounter-diagnosis",
          "display": "Encounter Diagnosis"
        } ]
      } ],
      "code": {
        "coding": [ {
          "system": "http://hl7.org/fhir/sid/icd-10-cm",
          "code": "I48.20"
        }, {
          "system": "http://hl7.org/fhir/sid/icd-10-cm",
          "code": "I48.0"
        }, {
          "system": "http://snomed.info/sct",
          "code": "5370000"
        } ]
      },
      "subject": {
        "reference": "Patient/2d694619-fb6d-43e5-8f56-4eb95752c7a7"
      },
      "onsetDateTime": "2026-10-01T09:00:00Z",
      "abatementDateTime": "2026-10-12T00:15:00.000+00:00"
    },
    "request": {
      "method": "PUT",
      "url": "Condition/8d6481ca-1591-4d7a-863e-b5c9b8c48b07"
    }
  }, {
    "fullUrl": "https://madie.cms.gov/Encounter/b022be17-3310-4006-ae03-67ee2a98cfd1",
    "resource": {
      "resourceType": "Encounter",
      "id": "b022be17-3310-4006-ae03-67ee2a98cfd1",
      "meta": {
        "profile": [ "http://hl7.org/fhir/us/qicore/StructureDefinition/qicore-encounter" ]
      },
      "status": "finished",
      "class": {
        "system": "http://terminology.hl7.org/CodeSystem/v3-ActCode",
        "code": "EMER",
        "display": "emergency"
      },
      "type": [ {
        "coding": [ {
          "system": "http://snomed.info/sct",
          "code": "4525004"
        } ]
      } ],
      "subject": {
        "reference": "Patient/2d694619-fb6d-43e5-8f56-4eb95752c7a7"
      },
      "period": {
        "start": "2026-09-30T07:59:00Z",
        "end": "2026-09-30T08:00:00.000+00:00"
      },
      "length": {
        "value": 0,
        "unit": "days"
      }
    },
    "request": {
      "method": "PUT",
      "url": "Encounter/b022be17-3310-4006-ae03-67ee2a98cfd1"
    }
  }, {
    "fullUrl": "https://madie.cms.gov/Encounter/89e79b65-fb31-4ec6-b1cf-a976651d0428",
    "resource": {
      "resourceType": "Encounter",
      "id": "89e79b65-fb31-4ec6-b1cf-a976651d0428",
      "meta": {
        "profile": [ "http://hl7.org/fhir/us/qicore/StructureDefinition/qicore-encounter" ]
      },
      "status": "finished",
      "class": {
        "system": "http://terminology.hl7.org/CodeSystem/v3-ActCode",
        "code": "OBSENC",
        "display": "observation encounter"
      },
      "type": [ {
        "coding": [ {
          "system": "http://snomed.info/sct",
          "code": "448951000124107"
        } ]
      } ],
      "subject": {
        "reference": "Patient/2d694619-fb6d-43e5-8f56-4eb95752c7a7"
      },
      "period": {
        "start": "2026-09-30T09:00:00Z",
        "end": "2026-09-30T09:01:00.000+00:00"
      },
      "length": {
        "value": 0,
        "unit": "days"
      }
    },
    "request": {
      "method": "PUT",
      "url": "Encounter/89e79b65-fb31-4ec6-b1cf-a976651d0428"
    }
  }, {
    "fullUrl": "https://madie.cms.gov/Encounter/b497a67b-13c2-4775-98a4-31c6122ce333",
    "resource": {
      "resourceType": "Encounter",
      "id": "b497a67b-13c2-4775-98a4-31c6122ce333",
      "meta": {
        "profile": [ "http://hl7.org/fhir/us/qicore/StructureDefinition/qicore-encounter" ]
      },
      "status": "finished",
      "class": {
        "system": "http://terminology.hl7.org/CodeSystem/v3-ActCode",
        "code": "IMP",
        "display": "inpatient encounter"
      },
      "type": [ {
        "coding": [ {
          "system": "http://snomed.info/sct",
          "code": "32485007"
        } ]
      } ],
      "subject": {
        "reference": "Patient/2d694619-fb6d-43e5-8f56-4eb95752c7a7"
      },
      "period": {
        "start": "2026-09-30T10:01:00Z",
        "end": "2026-10-12T00:15:00.000+00:00"
      },
      "length": {
        "value": 12,
        "unit": "days"
      },
      "reasonReference": [ {
        "reference": "Condition/8d6481ca-1591-4d7a-863e-b5c9b8c48b07"
      } ]
    },
    "request": {
      "method": "PUT",
      "url": "Encounter/b497a67b-13c2-4775-98a4-31c6122ce333"
    }
  }, {
    "fullUrl": "https://madie.cms.gov/claim/5ca62962b8484628b8de1ec5",
    "resource": {
      "resourceType": "Claim",
      "id": "5ca62962b8484628b8de1ec5",
      "meta": {
        "profile": [ "http://hl7.org/fhir/us/qicore/StructureDefinition/qicore-claim" ]
      },
      "status": "active",
      "type": {
        "coding": [ {
          "system": "http://terminology.hl7.org/CodeSystem/claim-type",
          "code": "institutional"
        } ]
      },
      "use": "claim",
      "patient": {
        "reference": "Patient/d170a0a8-b5ad-4303-b6df-e304dd5f92ad"
      },
      "created": "2026-12-01",
      "provider": {
        "reference": "Practitioner/370aaf1a-bb55-4519-be51-c676db096a60"
      },
      "priority": {
        "coding": [ {
          "system": "http://terminology.hl7.org/CodeSystem/processpriority",
          "code": "normal"
        } ]
      },
      "diagnosis": [ {
        "sequence": 1,
        "diagnosisCodeableConcept": {
          "coding": [ {
            "system": "http://hl7.org/fhir/sid/icd-10-cm",
            "code": "I63.00"
          } ]
        },
        "type": [ {
          "coding": [ {
            "system": "http://terminology.hl7.org/CodeSystem/ex-diagnosistype",
            "code": "principal"
          } ]
        } ]
      } ],
      "insurance": [ {
        "sequence": 1,
        "focal": true,
        "coverage": {
          "reference": "Coverage/5fa041661c76ba66d9959367"
        }
      } ],
      "item": [ {
        "sequence": 1,
        "diagnosisSequence": [ 1 ],
        "productOrService": {
          "coding": [ {
            "system": "http://terminology.hl7.org/CodeSystem/ex-USCLS",
            "code": "99555"
          } ]
        },
        "encounter": [ {
          "reference": "Encounter/b497a67b-13c2-4775-98a4-31c6122ce333"
        } ]
      } ]
    },
    "request": {
      "method": "PUT",
      "url": "Claim/5ca62962b8484628b8de1ec5"
    }
  }, {
    "fullUrl": "https://madie.cms.gov/ServiceRequest/afe6f089-9572-413c-9df7-373673149b12",
    "resource": {
      "resourceType": "ServiceRequest",
      "id": "afe6f089-9572-413c-9df7-373673149b12",
      "meta": {
        "profile": [ "http://hl7.org/fhir/us/qicore/StructureDefinition/qicore-servicerequest" ]
      },
      "status": "active",
      "intent": "order",
      "code": {
        "coding": [ {
          "system": "http://snomed.info/sct",
          "code": "133918004"
        } ]
      },
      "subject": {
        "reference": "Patient/2d694619-fb6d-43e5-8f56-4eb95752c7a7"
      },
      "authoredOn": "2026-09-30T08:00:00Z"
    },
    "request": {
      "method": "PUT",
      "url": "ServiceRequest/afe6f089-9572-413c-9df7-373673149b12"
    }
  }, {
    "fullUrl": "https://madie.cms.gov/Coverage/1c2f03c2-dc23-4fc6-a36a-a96e410842e4",
    "resource": {
      "resourceType": "Coverage",
      "id": "1c2f03c2-dc23-4fc6-a36a-a96e410842e4",
      "status": "active",
      "subscriberId": "523435",
      "beneficiary": {
        "reference": "Patient/2d694619-fb6d-43e5-8f56-4eb95752c7a7"
      },
      "relationship": {
        "coding": [ {
          "system": "http://terminology.hl7.org/CodeSystem/subscriber-relationship",
          "code": "self"
        } ]
      },
      "period": {
        "start": "1986-09-18T08:00:00Z"
      },
      "payor": [ {
        "reference": "Organization/6a96e62f-2c98-4651-8500-a602acff5d12"
      } ]
    },
    "request": {
      "method": "PUT",
      "url": "Coverage/1c2f03c2-dc23-4fc6-a36a-a96e410842e4"
    }
  }, {
    "fullUrl": "https://madie.cms.gov/Condition/2882e8f7-b61c-42dc-98f1-080bb2125872",
    "resource": {
      "resourceType": "Condition",
      "id": "2882e8f7-b61c-42dc-98f1-080bb2125872",
      "meta": {
        "profile": [ "http://hl7.org/fhir/us/qicore/StructureDefinition/qicore-condition-problems-health-concerns" ]
      },
      "clinicalStatus": {
        "coding": [ {
          "system": "http://terminology.hl7.org/CodeSystem/condition-clinical",
          "code": "active"
        } ]
      },
      "verificationStatus": {
        "coding": [ {
          "system": "http://terminology.hl7.org/CodeSystem/condition-ver-status",
          "code": "confirmed"
        } ]
      },
      "category": [ {
        "coding": [ {
          "system": "http://terminology.hl7.org/CodeSystem/condition-category",
          "code": "encounter-diagnosis",
          "display": "Encounter Diagnosis"
        } ]
      } ],
      "code": {
        "coding": [ {
          "system": "http://snomed.info/sct",
          "version": "2021-09",
          "code": "111297002",
          "display": "Nonparalytic stroke (disorder)",
          "userSelected": true
        } ]
      },
      "subject": {
        "reference": "Patient/2d694619-fb6d-43e5-8f56-4eb95752c7a7"
      },
      "recordedDate": "2026-10-13T08:00:00Z"
    },
    "request": {
      "method": "PUT",
      "url": "Condition/2882e8f7-b61c-42dc-98f1-080bb2125872"
    }
  }, {
    "fullUrl": "https://madie.cms.gov/Organization/6a96e62f-2c98-4651-8500-a602acff5d12",
    "resource": {
      "resourceType": "Organization",
      "id": "6a96e62f-2c98-4651-8500-a602acff5d12",
      "meta": {
        "profile": [ "http://hl7.org/fhir/us/qicore/StructureDefinition/qicore-organization" ]
      },
      "identifier": [ {
        "use": "temp",
        "system": "urn:oid:2.16.840.1.113883.4.4",
        "value": "21-3259825"
      } ],
      "active": true,
      "type": [ {
        "coding": [ {
          "system": "http://terminology.hl7.org/CodeSystem/organization-type",
          "code": "pay",
          "display": "Payer"
        } ]
      } ],
      "name": "Blue Cross Blue Shield of Texas",
      "telecom": [ {
        "system": "phone",
        "value": "(+1) 972-766-6900"
      } ],
      "address": [ {
        "use": "billing",
        "type": "postal",
        "line": [ "P.O. Box 660044" ],
        "city": "Dallas",
        "state": "TX",
        "postalCode": "75266-0044",
        "country": "USA"
      } ]
    },
    "request": {
      "method": "PUT",
      "url": "Organization/6a96e62f-2c98-4651-8500-a602acff5d12"
    }
  }, {
    "fullUrl": "https://madie.cms.gov/Practitioner/370aaf1a-bb55-4519-be51-c676db096a60",
    "resource": {
      "resourceType": "Practitioner",
      "id": "370aaf1a-bb55-4519-be51-c676db096a60",
      "meta": {
        "profile": [ "http://hl7.org/fhir/us/qicore/StructureDefinition/qicore-practitioner" ]
      },
      "identifier": [ {
        "system": "http://hl7.org/fhir/sid/us-npi",
        "value": "9999999896"
      } ],
      "name": [ {
        "family": "Evil",
        "prefix": [ "Dr" ]
      } ]
    },
    "request": {
      "method": "PUT",
      "url": "Practitioner/370aaf1a-bb55-4519-be51-c676db096a60"
    }
  }, {
    "fullUrl": "https://madie.cms.gov/MeasureReport/c159f9b4-a186-4ed9-95d9-8fd124c27218",
    "resource": {
      "resourceType": "MeasureReport",
      "id": "c159f9b4-a186-4ed9-95d9-8fd124c27218",
      "meta": {
        "profile": [ "http://hl7.org/fhir/us/cqfmeasures/StructureDefinition/test-case-cqfm" ]
      },
      "contained": [ {
        "resourceType": "Parameters",
        "id": "284634ec-b5df-49f5-a472-8030f1b57017-parameters",
        "parameter": [ {
          "name": "subject",
          "valueString": "2d694619-fb6d-43e5-8f56-4eb95752c7a7"
        } ]
      } ],
      "extension": [ {
        "url": "http://hl7.org/fhir/StructureDefinition/cqf-inputParameters",
        "valueReference": {
          "reference": "#284634ec-b5df-49f5-a472-8030f1b57017-parameters"
        }
      }, {
        "url": "http://hl7.org/fhir/us/cqfmeasures/StructureDefinition/cqfm-testCaseDescription",
        "valueMarkdown": "Patient receives CMO during ED. ED ends 60 min before Obs start and Obs ends 60 min before  inpatient start.  Testing HospitalizationWithObservation function\n"
      } ],
      "modifierExtension": [ {
        "url": "http://hl7.org/fhir/us/cqfmeasures/StructureDefinition/cqfm-isTestCase",
        "valueBoolean": true
      } ],
      "status": "complete",
      "type": "individual",
      "measure": "https://madie.cms.gov/Measure/CMS71FHIRSTKAnticoagAFFlutter",
      "period": {
        "start": "2026-01-01",
        "end": "2026-12-31"
      },
      "group": [ {
        "id": "Group_1",
        "population": [ {
          "id": "InitialPopulation_1",
          "code": {
            "coding": [ {
              "system": "http://terminology.hl7.org/CodeSystem/measure-population",
              "code": "initial-population",
              "display": "Initial Population"
            } ]
          },
          "count": 1
        }, {
          "id": "Denominator_1",
          "code": {
            "coding": [ {
              "system": "http://terminology.hl7.org/CodeSystem/measure-population",
              "code": "denominator",
              "display": "Denominator"
            } ]
          },
          "count": 1
        }, {
          "id": "DenominatorExclusion_1",
          "code": {
            "coding": [ {
              "system": "http://terminology.hl7.org/CodeSystem/measure-population",
              "code": "denominator-exclusion",
              "display": "Denominator Exclusion"
            } ]
          },
          "count": 1
        }, {
          "id": "Numerator_1",
          "code": {
            "coding": [ {
              "system": "http://terminology.hl7.org/CodeSystem/measure-population",
              "code": "numerator",
              "display": "Numerator"
            } ]
          },
          "count": 0
        }, {
          "id": "DenominatorException_1",
          "code": {
            "coding": [ {
              "system": "http://terminology.hl7.org/CodeSystem/measure-population",
              "code": "denominator-exception",
              "display": "Denominator Exception"
            } ]
          },
          "count": 0
        } ],
        "measureScore": {
          "value": 0.0
        }
      } ],
      "evaluatedResource": [ {
        "reference": "Patient/2d694619-fb6d-43e5-8f56-4eb95752c7a7"
      }, {
        "reference": "Condition/8d6481ca-1591-4d7a-863e-b5c9b8c48b07"
      }, {
        "reference": "Encounter/b022be17-3310-4006-ae03-67ee2a98cfd1"
      }, {
        "reference": "Encounter/89e79b65-fb31-4ec6-b1cf-a976651d0428"
      }, {
        "reference": "Encounter/b497a67b-13c2-4775-98a4-31c6122ce333"
      }, {
        "reference": "Claim/5ca62962b8484628b8de1ec5"
      }, {
        "reference": "ServiceRequest/afe6f089-9572-413c-9df7-373673149b12"
      }, {
        "reference": "Coverage/1c2f03c2-dc23-4fc6-a36a-a96e410842e4"
      }, {
        "reference": "Condition/2882e8f7-b61c-42dc-98f1-080bb2125872"
      }, {
        "reference": "Organization/6a96e62f-2c98-4651-8500-a602acff5d12"
      }, {
        "reference": "Practitioner/370aaf1a-bb55-4519-be51-c676db096a60"
      } ]
    },
    "request": {
      "method": "PUT",
      "url": "MeasureReport/c159f9b4-a186-4ed9-95d9-8fd124c27218"
    }
  } ]
}