{"resourceType":"Bundle","id":"tests-2b3d9d90-4c15-43cc-b738-faeae8b0836b-bundle","type":"transaction","entry":[{"resource":{"resourceType":"Coverage","id":"96c539de-399e-4cce-8422-9900b79d4909","meta":{"profile":["http://hl7.org/fhir/us/qicore/StructureDefinition/qicore-coverage"]},"status":"active","beneficiary":{"reference":"Patient/2b3d9d90-4c15-43cc-b738-faeae8b0836b"},"payor":[{"reference":"Organization/f1acf591-6a3b-4976-9f12-56d28772867d"}]},"request":{"method":"PUT","url":"Coverage/96c539de-399e-4cce-8422-9900b79d4909"}},{"resource":{"resourceType":"Encounter","id":"5a2363bc-8268-4e68-9cf6-c50e0ac0c862","meta":{"profile":["http://hl7.org/fhir/us/qicore/StructureDefinition/qicore-encounter"]},"status":"finished","class":{"system":"http://terminology.hl7.org/CodeSystem/v3-ActCode","code":"OBSENC","display":"observation encounter"},"type":[{"coding":[{"system":"http://snomed.info/sct","code":"448951000124107"}]}],"subject":{"reference":"Patient/2b3d9d90-4c15-43cc-b738-faeae8b0836b"},"period":{"start":"2026-11-18T09:00:00Z","end":"2026-11-18T10:01:00.000+00:00"}},"request":{"method":"PUT","url":"Encounter/5a2363bc-8268-4e68-9cf6-c50e0ac0c862"}},{"resource":{"resourceType":"Condition","id":"5f61c8d2-cca4-462d-96c2-c5434142f0d3","meta":{"profile":["http://hl7.org/fhir/us/qicore/StructureDefinition/qicore-condition-encounter-diagnosis"]},"clinicalStatus":{"coding":[{"system":"http://terminology.hl7.org/CodeSystem/condition-clinical","code":"active"}]},"verificationStatus":{"coding":[{"system":"http://terminology.hl7.org/CodeSystem/condition-ver-status","code":"confirmed"}]},"category":[{"coding":[{"system":"http://terminology.hl7.org/CodeSystem/condition-category","code":"encounter-diagnosis","display":"Encounter Diagnosis"}]}],"code":{"coding":[{"system":"http://snomed.info/sct","version":"2020-09","code":"111297002","display":"Nonparalytic stroke (disorder)","userSelected":true}]},"subject":{"reference":"Patient/2b3d9d90-4c15-43cc-b738-faeae8b0836b"},"encounter":{"reference":"Encounter/8248f93f-f850-49aa-bd2d-68faeb98f8c1"},"recordedDate":"2026-08-13T08:00:00Z"},"request":{"method":"PUT","url":"Condition/5f61c8d2-cca4-462d-96c2-c5434142f0d3"}},{"resource":{"resourceType":"Encounter","id":"8248f93f-f850-49aa-bd2d-68faeb98f8c1","meta":{"profile":["http://hl7.org/fhir/us/qicore/StructureDefinition/qicore-encounter"]},"status":"finished","class":{"system":"http://terminology.hl7.org/CodeSystem/v3-ActCode","code":"IMP","display":"inpatient encounter"},"type":[{"coding":[{"system":"http://snomed.info/sct","code":"183452005"}]}],"subject":{"reference":"Patient/2b3d9d90-4c15-43cc-b738-faeae8b0836b"},"period":{"start":"2026-11-18T11:00:00Z","end":"2026-11-20T08:15:00.000+00:00"},"reasonReference":[{"reference":"Condition/5f61c8d2-cca4-462d-96c2-c5434142f0d3"}]},"request":{"method":"PUT","url":"Encounter/8248f93f-f850-49aa-bd2d-68faeb98f8c1"}},{"resource":{"resourceType":"MeasureReport","id":"e75bc151-42d5-4cf2-b9b7-d3128d631bcf","meta":{"profile":["http://hl7.org/fhir/us/cqfmeasures/StructureDefinition/test-case-cqfm"]},"contained":[{"resourceType":"Parameters","id":"0a5027dc-7061-4523-9558-6bfd7e2b37bd-parameters","parameter":[{"name":"subject","valueString":"2b3d9d90-4c15-43cc-b738-faeae8b0836b"}]}],"extension":[{"url":"http://hl7.org/fhir/StructureDefinition/cqf-inputParameters","valueReference":{"reference":"#0a5027dc-7061-4523-9558-6bfd7e2b37bd-parameters"}},{"url":"http://hl7.org/fhir/us/cqfmeasures/StructureDefinition/cqfm-testCaseDescription","valueMarkdown":"Patient receives comfort measures performed on the day of hospital arrival, on IP start. ED ends less than 1 hour before Obs Start, Obs ends less than 1 hour before IP start.\n"}],"modifierExtension":[{"url":"http://hl7.org/fhir/us/cqfmeasures/StructureDefinition/cqfm-isTestCase","valueBoolean":true}],"status":"complete","type":"individual","measure":"https://madie.cms.gov/Measure/CMS72FHIRSTKAntithromboticDay2","period":{"start":"2026-01-01","end":"2026-12-31"},"group":[{"id":"Group_1","population":[{"id":"InitialPopulation_1","code":{"coding":[{"system":"http://terminology.hl7.org/CodeSystem/measure-population","code":"initial-population","display":"Initial Population"}]},"count":1},{"id":"Denominator_1","code":{"coding":[{"system":"http://terminology.hl7.org/CodeSystem/measure-population","code":"denominator","display":"Denominator"}]},"count":1},{"id":"DenominatorExclusion_1","code":{"coding":[{"system":"http://terminology.hl7.org/CodeSystem/measure-population","code":"denominator-exclusion","display":"Denominator Exclusion"}]},"count":1},{"id":"Numerator_1","code":{"coding":[{"system":"http://terminology.hl7.org/CodeSystem/measure-population","code":"numerator","display":"Numerator"}]},"count":0},{"id":"DenominatorException_1","code":{"coding":[{"system":"http://terminology.hl7.org/CodeSystem/measure-population","code":"denominator-exception","display":"Denominator Exception"}]},"count":0}],"measureScore":{"value":0.0}}],"evaluatedResource":[{"reference":"Patient/2b3d9d90-4c15-43cc-b738-faeae8b0836b"},{"reference":"Encounter/fd24864f-574c-4d39-ad49-2a55900f212e"},{"reference":"Encounter/5a2363bc-8268-4e68-9cf6-c50e0ac0c862"},{"reference":"Encounter/8248f93f-f850-49aa-bd2d-68faeb98f8c1"},{"reference":"Procedure/6def1ae9-4b36-4cd0-a41c-e8601b2e861f"},{"reference":"Condition/5f61c8d2-cca4-462d-96c2-c5434142f0d3"},{"reference":"Claim/5ca62962b8484628b8de1ec5"},{"reference":"Coverage/96c539de-399e-4cce-8422-9900b79d4909"},{"reference":"Organization/f1acf591-6a3b-4976-9f12-56d28772867d"}]},"request":{"method":"PUT","url":"MeasureReport/e75bc151-42d5-4cf2-b9b7-d3128d631bcf"}},{"resource":{"resourceType":"Patient","id":"2b3d9d90-4c15-43cc-b738-faeae8b0836b","meta":{"profile":["http://hl7.org/fhir/us/qicore/StructureDefinition/qicore-patient"]},"text":{"status":"generated","div":"<div xmlns=\"http://www.w3.org/1999/xhtml\"><div class=\"hapiHeaderText\">CMP_DayOf_RelvPerStart_OnIPStart_EDEndLT1hrB4Obs_ObsEndLT1hrB4IP <b>DENEXPASS </b></div><table class=\"hapiPropertyTable\"><tbody><tr><td>Date of birth</td><td><span>01 January 1980</span></td></tr></tbody></table></div>"},"extension":[{"url":"http://hl7.org/fhir/us/core/StructureDefinition/us-core-race","extension":[{"url":"ombCategory","valueCoding":{"system":"urn:oid:2.16.840.1.113883.6.238","code":"2106-3","display":"White","userSelected":true}},{"url":"text","valueString":"White"}]},{"url":"http://hl7.org/fhir/us/core/StructureDefinition/us-core-ethnicity","extension":[{"url":"ombCategory","valueCoding":{"system":"urn:oid:2.16.840.1.113883.6.238","code":"2135-2","display":"Hispanic or Latino","userSelected":true}},{"url":"text","valueString":"Hispanic or Latino"}]}],"identifier":[{"type":{"coding":[{"system":"http://terminology.hl7.org/CodeSystem/v2-0203","code":"MR"}]},"system":"https://bonnie-fhir.healthit.gov/","value":"60f82c3098086b570510e2ef"}],"active":true,"name":[{"use":"usual","family":"DENEXPass","given":["CMPDayOfRelvPerStartOnIPStartEDEndLT1hrB4ObsObsEndLT1hrB4IP"]}],"gender":"female","birthDate":"1981-01-01"},"request":{"method":"PUT","url":"Patient/2b3d9d90-4c15-43cc-b738-faeae8b0836b"}},{"resource":{"resourceType":"Encounter","id":"fd24864f-574c-4d39-ad49-2a55900f212e","meta":{"profile":["http://hl7.org/fhir/us/qicore/StructureDefinition/qicore-encounter"]},"status":"finished","class":{"system":"http://terminology.hl7.org/CodeSystem/v3-ActCode","code":"EMER","display":"emergency"},"type":[{"coding":[{"system":"http://snomed.info/sct","code":"4525004"}]}],"subject":{"reference":"Patient/2b3d9d90-4c15-43cc-b738-faeae8b0836b"},"period":{"start":"2026-11-18T07:00:00Z","end":"2026-11-18T08:01:00.000+00:00"},"diagnosis":[{"condition":{"reference":"Condition/5f61c8d2-cca4-462d-96c2-c5434142f0d3"},"use":{"coding":[{"system":"http://terminology.hl7.org/CodeSystem/diagnosis-role","code":"billing","display":"Billing"}]},"rank":1}]},"request":{"method":"PUT","url":"Encounter/fd24864f-574c-4d39-ad49-2a55900f212e"}},{"resource":{"resourceType":"Procedure","id":"6def1ae9-4b36-4cd0-a41c-e8601b2e861f","meta":{"profile":["http://hl7.org/fhir/us/qicore/StructureDefinition/qicore-procedure"]},"extension":[{"url":"http://hl7.org/fhir/us/qicore/StructureDefinition/qicore-recorded","valueDateTime":"2026-11-19T13:35:00Z"}],"status":"completed","code":{"coding":[{"system":"http://snomed.info/sct","code":"133918004"}]},"subject":{"reference":"Patient/2b3d9d90-4c15-43cc-b738-faeae8b0836b"},"performedPeriod":{"start":"2026-11-18T11:00:00Z","end":"2026-11-20T08:15:00.000+00:00"}},"request":{"method":"PUT","url":"Procedure/6def1ae9-4b36-4cd0-a41c-e8601b2e861f"}},{"resource":{"resourceType":"Organization","id":"f1acf591-6a3b-4976-9f12-56d28772867d","meta":{"profile":["http://hl7.org/fhir/us/qicore/StructureDefinition/qicore-organization"]},"identifier":[{"use":"temp","system":"urn:oid:2.16.840.1.113883.4.4","value":"21-3259825"}],"active":true,"type":[{"coding":[{"system":"http://terminology.hl7.org/CodeSystem/organization-type","code":"pay","display":"Payer"}]}],"name":"Blue Cross Blue Shield of Texas","telecom":[{"system":"phone","value":"(+1) 972-766-6900"}],"address":[{"use":"billing","type":"postal","line":["P.O. Box 660044"],"city":"Dallas","state":"TX","postalCode":"75266-0044","country":"USA"}]},"request":{"method":"PUT","url":"Organization/f1acf591-6a3b-4976-9f12-56d28772867d"}},{"resource":{"resourceType":"Claim","id":"5ca62962b8484628b8de1ec5","meta":{"profile":["http://hl7.org/fhir/us/qicore/StructureDefinition/qicore-claim"]},"status":"active","type":{"coding":[{"system":"http://terminology.hl7.org/CodeSystem/claim-type","code":"institutional"}]},"use":"claim","patient":{"reference":"Patient/2b3d9d90-4c15-43cc-b738-faeae8b0836b"},"created":"2026-12-01","provider":{"reference":"Practitioner/practitioner-123456"},"priority":{"coding":[{"system":"http://terminology.hl7.org/CodeSystem/processpriority","code":"normal"}]},"diagnosis":[{"sequence":1,"diagnosisCodeableConcept":{"coding":[{"system":"http://hl7.org/fhir/sid/icd-10-cm","code":"I63.00"}]},"type":[{"coding":[{"system":"http://terminology.hl7.org/CodeSystem/ex-diagnosistype","code":"principal"}]}]}],"insurance":[{"sequence":1,"focal":true,"coverage":{"reference":"Coverage/5fa041661c76ba66d9959367"}}],"item":[{"sequence":1,"diagnosisSequence":[1],"productOrService":{"coding":[{"system":"http://terminology.hl7.org/CodeSystem/ex-USCLS","code":"99555"}]},"encounter":[{"reference":"Encounter/8248f93f-f850-49aa-bd2d-68faeb98f8c1"}]}]},"request":{"method":"PUT","url":"Claim/5ca62962b8484628b8de1ec5"}},{"resource":{"resourceType":"Bundle","id":"60f82c3098086b570510e2ef","type":"transaction","entry":[{"fullUrl":"https://madie.cms.gov/Patient/2b3d9d90-4c15-43cc-b738-faeae8b0836b","resource":{"resourceType":"Patient","id":"2b3d9d90-4c15-43cc-b738-faeae8b0836b","meta":{"profile":["http://hl7.org/fhir/us/qicore/StructureDefinition/qicore-patient"]},"text":{"status":"generated","div":"<div xmlns=\"http://www.w3.org/1999/xhtml\"><div class=\"hapiHeaderText\">CMP_DayOf_RelvPerStart_OnIPStart_EDEndLT1hrB4Obs_ObsEndLT1hrB4IP <b>DENEXPASS </b></div><table class=\"hapiPropertyTable\"><tbody><tr><td>Date of birth</td><td><span>01 January 1980</span></td></tr></tbody></table></div>"},"extension":[{"url":"http://hl7.org/fhir/us/core/StructureDefinition/us-core-race","extension":[{"url":"ombCategory","valueCoding":{"system":"urn:oid:2.16.840.1.113883.6.238","code":"2106-3","display":"White","userSelected":true}},{"url":"text","valueString":"White"}]},{"url":"http://hl7.org/fhir/us/core/StructureDefinition/us-core-ethnicity","extension":[{"url":"ombCategory","valueCoding":{"system":"urn:oid:2.16.840.1.113883.6.238","code":"2135-2","display":"Hispanic or Latino","userSelected":true}},{"url":"text","valueString":"Hispanic or Latino"}]}],"identifier":[{"type":{"coding":[{"system":"http://terminology.hl7.org/CodeSystem/v2-0203","code":"MR"}]},"system":"https://bonnie-fhir.healthit.gov/","value":"60f82c3098086b570510e2ef"}],"active":true,"name":[{"use":"usual","family":"DENEXPass","given":["CMPDayOfRelvPerStartOnIPStartEDEndLT1hrB4ObsObsEndLT1hrB4IP"]}],"gender":"female","birthDate":"1981-01-01"},"request":{"method":"PUT","url":"Patient/2b3d9d90-4c15-43cc-b738-faeae8b0836b"}},{"fullUrl":"https://madie.cms.gov/Encounter/fd24864f-574c-4d39-ad49-2a55900f212e","resource":{"resourceType":"Encounter","id":"fd24864f-574c-4d39-ad49-2a55900f212e","meta":{"profile":["http://hl7.org/fhir/us/qicore/StructureDefinition/qicore-encounter"]},"status":"finished","class":{"system":"http://terminology.hl7.org/CodeSystem/v3-ActCode","code":"EMER","display":"emergency"},"type":[{"coding":[{"system":"http://snomed.info/sct","code":"4525004"}]}],"subject":{"reference":"Patient/2b3d9d90-4c15-43cc-b738-faeae8b0836b"},"period":{"start":"2026-11-18T07:00:00Z","end":"2026-11-18T08:01:00.000+00:00"},"diagnosis":[{"condition":{"reference":"Condition/5f61c8d2-cca4-462d-96c2-c5434142f0d3"},"use":{"coding":[{"system":"http://terminology.hl7.org/CodeSystem/diagnosis-role","code":"billing","display":"Billing"}]},"rank":1}]},"request":{"method":"PUT","url":"Encounter/fd24864f-574c-4d39-ad49-2a55900f212e"}},{"fullUrl":"https://madie.cms.gov/Encounter/5a2363bc-8268-4e68-9cf6-c50e0ac0c862","resource":{"resourceType":"Encounter","id":"5a2363bc-8268-4e68-9cf6-c50e0ac0c862","meta":{"profile":["http://hl7.org/fhir/us/qicore/StructureDefinition/qicore-encounter"]},"status":"finished","class":{"system":"http://terminology.hl7.org/CodeSystem/v3-ActCode","code":"OBSENC","display":"observation encounter"},"type":[{"coding":[{"system":"http://snomed.info/sct","code":"448951000124107"}]}],"subject":{"reference":"Patient/2b3d9d90-4c15-43cc-b738-faeae8b0836b"},"period":{"start":"2026-11-18T09:00:00Z","end":"2026-11-18T10:01:00.000+00:00"}},"request":{"method":"PUT","url":"Encounter/5a2363bc-8268-4e68-9cf6-c50e0ac0c862"}},{"fullUrl":"https://madie.cms.gov/Encounter/8248f93f-f850-49aa-bd2d-68faeb98f8c1","resource":{"resourceType":"Encounter","id":"8248f93f-f850-49aa-bd2d-68faeb98f8c1","meta":{"profile":["http://hl7.org/fhir/us/qicore/StructureDefinition/qicore-encounter"]},"status":"finished","class":{"system":"http://terminology.hl7.org/CodeSystem/v3-ActCode","code":"IMP","display":"inpatient encounter"},"type":[{"coding":[{"system":"http://snomed.info/sct","code":"183452005"}]}],"subject":{"reference":"Patient/2b3d9d90-4c15-43cc-b738-faeae8b0836b"},"period":{"start":"2026-11-18T11:00:00Z","end":"2026-11-20T08:15:00.000+00:00"},"reasonReference":[{"reference":"Condition/5f61c8d2-cca4-462d-96c2-c5434142f0d3"}]},"request":{"method":"PUT","url":"Encounter/8248f93f-f850-49aa-bd2d-68faeb98f8c1"}},{"fullUrl":"https://madie.cms.gov/Procedure/6def1ae9-4b36-4cd0-a41c-e8601b2e861f","resource":{"resourceType":"Procedure","id":"6def1ae9-4b36-4cd0-a41c-e8601b2e861f","meta":{"profile":["http://hl7.org/fhir/us/qicore/StructureDefinition/qicore-procedure"]},"extension":[{"url":"http://hl7.org/fhir/us/qicore/StructureDefinition/qicore-recorded","valueDateTime":"2026-11-19T13:35:00Z"}],"status":"completed","code":{"coding":[{"system":"http://snomed.info/sct","code":"133918004"}]},"subject":{"reference":"Patient/2b3d9d90-4c15-43cc-b738-faeae8b0836b"},"performedPeriod":{"start":"2026-11-18T11:00:00Z","end":"2026-11-20T08:15:00.000+00:00"}},"request":{"method":"PUT","url":"Procedure/6def1ae9-4b36-4cd0-a41c-e8601b2e861f"}},{"fullUrl":"https://madie.cms.gov/Condition/5f61c8d2-cca4-462d-96c2-c5434142f0d3","resource":{"resourceType":"Condition","id":"5f61c8d2-cca4-462d-96c2-c5434142f0d3","meta":{"profile":["http://hl7.org/fhir/us/qicore/StructureDefinition/qicore-condition-encounter-diagnosis"]},"clinicalStatus":{"coding":[{"system":"http://terminology.hl7.org/CodeSystem/condition-clinical","code":"active"}]},"verificationStatus":{"coding":[{"system":"http://terminology.hl7.org/CodeSystem/condition-ver-status","code":"confirmed"}]},"category":[{"coding":[{"system":"http://terminology.hl7.org/CodeSystem/condition-category","code":"encounter-diagnosis","display":"Encounter Diagnosis"}]}],"code":{"coding":[{"system":"http://snomed.info/sct","version":"2020-09","code":"111297002","display":"Nonparalytic stroke (disorder)","userSelected":true}]},"subject":{"reference":"Patient/2b3d9d90-4c15-43cc-b738-faeae8b0836b"},"encounter":{"reference":"Encounter/8248f93f-f850-49aa-bd2d-68faeb98f8c1"},"recordedDate":"2026-08-13T08:00:00Z"},"request":{"method":"PUT","url":"Condition/5f61c8d2-cca4-462d-96c2-c5434142f0d3"}},{"fullUrl":"https://madie.cms.gov/claim/5ca62962b8484628b8de1ec5","resource":{"resourceType":"Claim","id":"5ca62962b8484628b8de1ec5","meta":{"profile":["http://hl7.org/fhir/us/qicore/StructureDefinition/qicore-claim"]},"status":"active","type":{"coding":[{"system":"http://terminology.hl7.org/CodeSystem/claim-type","code":"institutional"}]},"use":"claim","patient":{"reference":"Patient/2b3d9d90-4c15-43cc-b738-faeae8b0836b"},"created":"2026-12-01","provider":{"reference":"Practitioner/practitioner-123456"},"priority":{"coding":[{"system":"http://terminology.hl7.org/CodeSystem/processpriority","code":"normal"}]},"diagnosis":[{"sequence":1,"diagnosisCodeableConcept":{"coding":[{"system":"http://hl7.org/fhir/sid/icd-10-cm","code":"I63.00"}]},"type":[{"coding":[{"system":"http://terminology.hl7.org/CodeSystem/ex-diagnosistype","code":"principal"}]}]}],"insurance":[{"sequence":1,"focal":true,"coverage":{"reference":"Coverage/5fa041661c76ba66d9959367"}}],"item":[{"sequence":1,"diagnosisSequence":[1],"productOrService":{"coding":[{"system":"http://terminology.hl7.org/CodeSystem/ex-USCLS","code":"99555"}]},"encounter":[{"reference":"Encounter/8248f93f-f850-49aa-bd2d-68faeb98f8c1"}]}]},"request":{"method":"PUT","url":"Claim/5ca62962b8484628b8de1ec5"}},{"fullUrl":"https://madie.cms.gov/Coverage/96c539de-399e-4cce-8422-9900b79d4909","resource":{"resourceType":"Coverage","id":"96c539de-399e-4cce-8422-9900b79d4909","meta":{"profile":["http://hl7.org/fhir/us/qicore/StructureDefinition/qicore-coverage"]},"status":"active","beneficiary":{"reference":"Patient/2b3d9d90-4c15-43cc-b738-faeae8b0836b"},"payor":[{"reference":"Organization/f1acf591-6a3b-4976-9f12-56d28772867d"}]},"request":{"method":"PUT","url":"Coverage/96c539de-399e-4cce-8422-9900b79d4909"}},{"fullUrl":"https://madie.cms.gov/Organization/f1acf591-6a3b-4976-9f12-56d28772867d","resource":{"resourceType":"Organization","id":"f1acf591-6a3b-4976-9f12-56d28772867d","meta":{"profile":["http://hl7.org/fhir/us/qicore/StructureDefinition/qicore-organization"]},"identifier":[{"use":"temp","system":"urn:oid:2.16.840.1.113883.4.4","value":"21-3259825"}],"active":true,"type":[{"coding":[{"system":"http://terminology.hl7.org/CodeSystem/organization-type","code":"pay","display":"Payer"}]}],"name":"Blue Cross Blue Shield of Texas","telecom":[{"system":"phone","value":"(+1) 972-766-6900"}],"address":[{"use":"billing","type":"postal","line":["P.O. Box 660044"],"city":"Dallas","state":"TX","postalCode":"75266-0044","country":"USA"}]},"request":{"method":"PUT","url":"Organization/f1acf591-6a3b-4976-9f12-56d28772867d"}},{"fullUrl":"https://madie.cms.gov/MeasureReport/e75bc151-42d5-4cf2-b9b7-d3128d631bcf","resource":{"resourceType":"MeasureReport","id":"e75bc151-42d5-4cf2-b9b7-d3128d631bcf","meta":{"profile":["http://hl7.org/fhir/us/cqfmeasures/StructureDefinition/test-case-cqfm"]},"contained":[{"resourceType":"Parameters","id":"0a5027dc-7061-4523-9558-6bfd7e2b37bd-parameters","parameter":[{"name":"subject","valueString":"2b3d9d90-4c15-43cc-b738-faeae8b0836b"}]}],"extension":[{"url":"http://hl7.org/fhir/StructureDefinition/cqf-inputParameters","valueReference":{"reference":"#0a5027dc-7061-4523-9558-6bfd7e2b37bd-parameters"}},{"url":"http://hl7.org/fhir/us/cqfmeasures/StructureDefinition/cqfm-testCaseDescription","valueMarkdown":"Patient receives comfort measures performed on the day of hospital arrival, on IP start. ED ends less than 1 hour before Obs Start, Obs ends less than 1 hour before IP start.\n"}],"modifierExtension":[{"url":"http://hl7.org/fhir/us/cqfmeasures/StructureDefinition/cqfm-isTestCase","valueBoolean":true}],"status":"complete","type":"individual","measure":"https://madie.cms.gov/Measure/CMS72FHIRSTKAntithromboticDay2","period":{"start":"2026-01-01","end":"2026-12-31"},"group":[{"id":"Group_1","population":[{"id":"InitialPopulation_1","code":{"coding":[{"system":"http://terminology.hl7.org/CodeSystem/measure-population","code":"initial-population","display":"Initial Population"}]},"count":1},{"id":"Denominator_1","code":{"coding":[{"system":"http://terminology.hl7.org/CodeSystem/measure-population","code":"denominator","display":"Denominator"}]},"count":1},{"id":"DenominatorExclusion_1","code":{"coding":[{"system":"http://terminology.hl7.org/CodeSystem/measure-population","code":"denominator-exclusion","display":"Denominator Exclusion"}]},"count":1},{"id":"Numerator_1","code":{"coding":[{"system":"http://terminology.hl7.org/CodeSystem/measure-population","code":"numerator","display":"Numerator"}]},"count":0},{"id":"DenominatorException_1","code":{"coding":[{"system":"http://terminology.hl7.org/CodeSystem/measure-population","code":"denominator-exception","display":"Denominator Exception"}]},"count":0}],"measureScore":{"value":0.0}}],"evaluatedResource":[{"reference":"Patient/2b3d9d90-4c15-43cc-b738-faeae8b0836b"},{"reference":"Encounter/fd24864f-574c-4d39-ad49-2a55900f212e"},{"reference":"Encounter/5a2363bc-8268-4e68-9cf6-c50e0ac0c862"},{"reference":"Encounter/8248f93f-f850-49aa-bd2d-68faeb98f8c1"},{"reference":"Procedure/6def1ae9-4b36-4cd0-a41c-e8601b2e861f"},{"reference":"Condition/5f61c8d2-cca4-462d-96c2-c5434142f0d3"},{"reference":"Claim/5ca62962b8484628b8de1ec5"},{"reference":"Coverage/96c539de-399e-4cce-8422-9900b79d4909"},{"reference":"Organization/f1acf591-6a3b-4976-9f12-56d28772867d"}]},"request":{"method":"PUT","url":"MeasureReport/e75bc151-42d5-4cf2-b9b7-d3128d631bcf"}}]},"request":{"method":"PUT","url":"Bundle/60f82c3098086b570510e2ef"}}]}