{"resourceType":"Bundle","id":"tests-844d9440-ab79-4206-9893-bcf9a786970e-bundle","type":"transaction","entry":[{"resource":{"resourceType":"Condition","id":"db1cbec8-a104-4257-9ff5-d2c38d33fc79","meta":{"profile":["http://hl7.org/fhir/us/qicore/StructureDefinition/qicore-condition-problems-health-concerns"]},"clinicalStatus":{"coding":[{"system":"http://terminology.hl7.org/CodeSystem/condition-clinical","code":"active"}]},"verificationStatus":{"coding":[{"system":"http://terminology.hl7.org/CodeSystem/condition-ver-status","code":"confirmed"}]},"category":[{"coding":[{"system":"http://terminology.hl7.org/CodeSystem/condition-category","code":"encounter-diagnosis","display":"Encounter Diagnosis"}]}],"code":{"coding":[{"system":"http://snomed.info/sct","version":"2020-09","code":"111297002","display":"Nonparalytic stroke (disorder)","userSelected":true}]},"subject":{"reference":"Patient/844d9440-ab79-4206-9893-bcf9a786970e"},"recordedDate":"2026-08-16T08:00:00Z"},"request":{"method":"PUT","url":"Condition/db1cbec8-a104-4257-9ff5-d2c38d33fc79"}},{"resource":{"resourceType":"MedicationAdministration","id":"51542ced-a949-429e-8e2a-9d1f68d15039","meta":{"profile":["http://hl7.org/fhir/us/qicore/StructureDefinition/qicore-medicationadministration"]},"status":"completed","medicationCodeableConcept":{"coding":[{"system":"http://www.nlm.nih.gov/research/umls/rxnorm","code":"1037045"}]},"subject":{"reference":"Patient/844d9440-ab79-4206-9893-bcf9a786970e"},"effectivePeriod":{"start":"2026-10-11T07:00:00Z","end":"2026-10-11T08:20:00.000+00:00"}},"request":{"method":"PUT","url":"MedicationAdministration/51542ced-a949-429e-8e2a-9d1f68d15039"}},{"resource":{"resourceType":"MeasureReport","id":"148acf2a-b70d-4f5a-aca4-ef08ef12e473","meta":{"profile":["http://hl7.org/fhir/us/cqfmeasures/StructureDefinition/test-case-cqfm"]},"contained":[{"resourceType":"Parameters","id":"965c142f-2a46-436c-b87f-2758f7c2f822-parameters","parameter":[{"name":"subject","valueString":"844d9440-ab79-4206-9893-bcf9a786970e"}]}],"extension":[{"url":"http://hl7.org/fhir/StructureDefinition/cqf-inputParameters","valueReference":{"reference":"#965c142f-2a46-436c-b87f-2758f7c2f822-parameters"}},{"url":"http://hl7.org/fhir/us/cqfmeasures/StructureDefinition/cqfm-testCaseDescription","valueMarkdown":"\"Patient receives antithrombotic in the ED.\n global.\"\"Hospitalization\"\" =(Ed+IP)\"\n"}],"modifierExtension":[{"url":"http://hl7.org/fhir/us/cqfmeasures/StructureDefinition/cqfm-isTestCase","valueBoolean":true}],"status":"complete","type":"individual","measure":"https://madie.cms.gov/Measure/CMS72FHIRSTKAntithromboticDay2","period":{"start":"2026-01-01","end":"2026-12-31"},"group":[{"id":"Group_1","population":[{"id":"InitialPopulation_1","code":{"coding":[{"system":"http://terminology.hl7.org/CodeSystem/measure-population","code":"initial-population","display":"Initial Population"}]},"count":1},{"id":"Denominator_1","code":{"coding":[{"system":"http://terminology.hl7.org/CodeSystem/measure-population","code":"denominator","display":"Denominator"}]},"count":1},{"id":"DenominatorExclusion_1","code":{"coding":[{"system":"http://terminology.hl7.org/CodeSystem/measure-population","code":"denominator-exclusion","display":"Denominator Exclusion"}]},"count":0},{"id":"Numerator_1","code":{"coding":[{"system":"http://terminology.hl7.org/CodeSystem/measure-population","code":"numerator","display":"Numerator"}]},"count":1},{"id":"DenominatorException_1","code":{"coding":[{"system":"http://terminology.hl7.org/CodeSystem/measure-population","code":"denominator-exception","display":"Denominator Exception"}]},"count":0}],"measureScore":{"value":0.0}}],"evaluatedResource":[{"reference":"Patient/844d9440-ab79-4206-9893-bcf9a786970e"},{"reference":"Encounter/66da8c7f-7436-4b50-9b5a-50c1489d77f0"},{"reference":"Encounter/5f291f45-c236-4381-ba3c-6b4830ce4695"},{"reference":"Claim/5ca62962b8484628b8de1ec5"},{"reference":"MedicationAdministration/51542ced-a949-429e-8e2a-9d1f68d15039"},{"reference":"Coverage/e6568d2a-031c-4a61-88af-6b16297caf4c"},{"reference":"Condition/db1cbec8-a104-4257-9ff5-d2c38d33fc79"},{"reference":"Organization/ca5f8432-fb91-4f88-9074-401c4ab2592b"},{"reference":"Practitioner/334a42c8-9756-4298-a7fa-7d2d1c43a6d7"}]},"request":{"method":"PUT","url":"MeasureReport/148acf2a-b70d-4f5a-aca4-ef08ef12e473"}},{"resource":{"resourceType":"Coverage","id":"e6568d2a-031c-4a61-88af-6b16297caf4c","status":"active","subscriberId":"523435","beneficiary":{"reference":"Patient/844d9440-ab79-4206-9893-bcf9a786970e"},"relationship":{"coding":[{"system":"http://terminology.hl7.org/CodeSystem/subscriber-relationship","code":"self"}]},"period":{"start":"1976-09-26T08:00:00Z"},"payor":[{"reference":"Organization/ca5f8432-fb91-4f88-9074-401c4ab2592b"}]},"request":{"method":"PUT","url":"Coverage/e6568d2a-031c-4a61-88af-6b16297caf4c"}},{"resource":{"resourceType":"Encounter","id":"66da8c7f-7436-4b50-9b5a-50c1489d77f0","meta":{"profile":["http://hl7.org/fhir/us/qicore/StructureDefinition/qicore-encounter"]},"status":"finished","class":{"system":"http://terminology.hl7.org/CodeSystem/v3-ActCode","code":"EMER","display":"emergency"},"type":[{"coding":[{"system":"http://snomed.info/sct","code":"4525004"}]}],"subject":{"reference":"Patient/844d9440-ab79-4206-9893-bcf9a786970e"},"period":{"start":"2026-10-10T06:00:00Z","end":"2026-10-10T08:30:00.000+00:00"},"length":{"value":0,"unit":"days"}},"request":{"method":"PUT","url":"Encounter/66da8c7f-7436-4b50-9b5a-50c1489d77f0"}},{"resource":{"resourceType":"Practitioner","id":"334a42c8-9756-4298-a7fa-7d2d1c43a6d7","meta":{"profile":["http://hl7.org/fhir/us/qicore/StructureDefinition/qicore-practitioner"]},"identifier":[{"system":"http://hl7.org/fhir/sid/us-npi","value":"9999999896"}],"name":[{"family":"Evil","prefix":["Dr"]}]},"request":{"method":"PUT","url":"Practitioner/334a42c8-9756-4298-a7fa-7d2d1c43a6d7"}},{"resource":{"resourceType":"Encounter","id":"5f291f45-c236-4381-ba3c-6b4830ce4695","meta":{"profile":["http://hl7.org/fhir/us/qicore/StructureDefinition/qicore-encounter"]},"status":"finished","class":{"system":"http://terminology.hl7.org/CodeSystem/v3-ActCode","code":"IMP","display":"inpatient encounter"},"type":[{"coding":[{"system":"http://snomed.info/sct","code":"32485007"}]}],"subject":{"reference":"Patient/844d9440-ab79-4206-9893-bcf9a786970e"},"period":{"start":"2026-10-10T09:00:00Z","end":"2026-10-12T11:30:00.000+00:00"},"length":{"value":2,"unit":"days"},"reasonReference":[{"reference":"Condition/db1cbec8-a104-4257-9ff5-d2c38d33fc79"}]},"request":{"method":"PUT","url":"Encounter/5f291f45-c236-4381-ba3c-6b4830ce4695"}},{"resource":{"resourceType":"Organization","id":"ca5f8432-fb91-4f88-9074-401c4ab2592b","meta":{"profile":["http://hl7.org/fhir/us/qicore/StructureDefinition/qicore-organization"]},"identifier":[{"use":"temp","system":"urn:oid:2.16.840.1.113883.4.4","value":"21-3259825"}],"active":true,"type":[{"coding":[{"system":"http://terminology.hl7.org/CodeSystem/organization-type","code":"pay","display":"Payer"}]}],"name":"Blue Cross Blue Shield of Texas","telecom":[{"system":"phone","value":"(+1) 972-766-6900"}],"address":[{"use":"billing","type":"postal","line":["P.O. Box 660044"],"city":"Dallas","state":"TX","postalCode":"75266-0044","country":"USA"}]},"request":{"method":"PUT","url":"Organization/ca5f8432-fb91-4f88-9074-401c4ab2592b"}},{"resource":{"resourceType":"Patient","id":"844d9440-ab79-4206-9893-bcf9a786970e","meta":{"profile":["http://hl7.org/fhir/us/qicore/StructureDefinition/qicore-patient"]},"text":{"status":"generated","div":"<div xmlns=\"http://www.w3.org/1999/xhtml\"><div class=\"hapiHeaderText\">MedAntithromboticStart_eq1dayDuringEncIPwEd <b>NUMERPASS </b></div><table class=\"hapiPropertyTable\"><tbody><tr><td>Identifier</td><td>31f584b75330393256fa59b34c307941</td></tr><tr><td>Date of birth</td><td><span>26 September 1975</span></td></tr></tbody></table></div>"},"extension":[{"url":"http://hl7.org/fhir/us/core/StructureDefinition/us-core-race","extension":[{"url":"ombCategory","valueCoding":{"system":"urn:oid:2.16.840.1.113883.6.238","code":"2054-5","display":"Black or African American","userSelected":true}},{"url":"text","valueString":"Black or African American"}]},{"url":"http://hl7.org/fhir/us/core/StructureDefinition/us-core-ethnicity","extension":[{"url":"ombCategory","valueCoding":{"system":"urn:oid:2.16.840.1.113883.6.238","code":"2186-5","display":"Not Hispanic or Latino","userSelected":true}},{"url":"text","valueString":"Not Hispanic or Latino"}]},{"url":"http://hl7.org/fhir/us/core/StructureDefinition/us-core-sex","valueCode":"248152002"}],"identifier":[{"type":{"coding":[{"system":"http://terminology.hl7.org/CodeSystem/v2-0203","code":"MR"}]},"system":"https://bonnie-fhir.healthit.gov/","value":"60f82c2e98086b570510e28d"}],"active":true,"name":[{"use":"usual","family":"NUMERPass","given":["MedAntithromboticStarteq0dayDuringEncIPwEd"]}],"gender":"female","birthDate":"1976-09-26"},"request":{"method":"PUT","url":"Patient/844d9440-ab79-4206-9893-bcf9a786970e"}},{"resource":{"resourceType":"Bundle","id":"60f82c2e98086b570510e28d","type":"transaction","entry":[{"fullUrl":"https://madie.cms.gov/Patient/844d9440-ab79-4206-9893-bcf9a786970e","resource":{"resourceType":"Patient","id":"844d9440-ab79-4206-9893-bcf9a786970e","meta":{"profile":["http://hl7.org/fhir/us/qicore/StructureDefinition/qicore-patient"]},"text":{"status":"generated","div":"<div xmlns=\"http://www.w3.org/1999/xhtml\"><div class=\"hapiHeaderText\">MedAntithromboticStart_eq1dayDuringEncIPwEd <b>NUMERPASS </b></div><table class=\"hapiPropertyTable\"><tbody><tr><td>Identifier</td><td>31f584b75330393256fa59b34c307941</td></tr><tr><td>Date of birth</td><td><span>26 September 1975</span></td></tr></tbody></table></div>"},"extension":[{"url":"http://hl7.org/fhir/us/core/StructureDefinition/us-core-race","extension":[{"url":"ombCategory","valueCoding":{"system":"urn:oid:2.16.840.1.113883.6.238","code":"2054-5","display":"Black or African American","userSelected":true}},{"url":"text","valueString":"Black or African American"}]},{"url":"http://hl7.org/fhir/us/core/StructureDefinition/us-core-ethnicity","extension":[{"url":"ombCategory","valueCoding":{"system":"urn:oid:2.16.840.1.113883.6.238","code":"2186-5","display":"Not Hispanic or Latino","userSelected":true}},{"url":"text","valueString":"Not Hispanic or Latino"}]},{"url":"http://hl7.org/fhir/us/core/StructureDefinition/us-core-sex","valueCode":"248152002"}],"identifier":[{"type":{"coding":[{"system":"http://terminology.hl7.org/CodeSystem/v2-0203","code":"MR"}]},"system":"https://bonnie-fhir.healthit.gov/","value":"60f82c2e98086b570510e28d"}],"active":true,"name":[{"use":"usual","family":"NUMERPass","given":["MedAntithromboticStarteq0dayDuringEncIPwEd"]}],"gender":"female","birthDate":"1976-09-26"},"request":{"method":"PUT","url":"Patient/844d9440-ab79-4206-9893-bcf9a786970e"}},{"fullUrl":"https://madie.cms.gov/Encounter/66da8c7f-7436-4b50-9b5a-50c1489d77f0","resource":{"resourceType":"Encounter","id":"66da8c7f-7436-4b50-9b5a-50c1489d77f0","meta":{"profile":["http://hl7.org/fhir/us/qicore/StructureDefinition/qicore-encounter"]},"status":"finished","class":{"system":"http://terminology.hl7.org/CodeSystem/v3-ActCode","code":"EMER","display":"emergency"},"type":[{"coding":[{"system":"http://snomed.info/sct","code":"4525004"}]}],"subject":{"reference":"Patient/844d9440-ab79-4206-9893-bcf9a786970e"},"period":{"start":"2026-10-10T06:00:00Z","end":"2026-10-10T08:30:00.000+00:00"},"length":{"value":0,"unit":"days"}},"request":{"method":"PUT","url":"Encounter/66da8c7f-7436-4b50-9b5a-50c1489d77f0"}},{"fullUrl":"https://madie.cms.gov/Encounter/5f291f45-c236-4381-ba3c-6b4830ce4695","resource":{"resourceType":"Encounter","id":"5f291f45-c236-4381-ba3c-6b4830ce4695","meta":{"profile":["http://hl7.org/fhir/us/qicore/StructureDefinition/qicore-encounter"]},"status":"finished","class":{"system":"http://terminology.hl7.org/CodeSystem/v3-ActCode","code":"IMP","display":"inpatient encounter"},"type":[{"coding":[{"system":"http://snomed.info/sct","code":"32485007"}]}],"subject":{"reference":"Patient/844d9440-ab79-4206-9893-bcf9a786970e"},"period":{"start":"2026-10-10T09:00:00Z","end":"2026-10-12T11:30:00.000+00:00"},"length":{"value":2,"unit":"days"},"reasonReference":[{"reference":"Condition/db1cbec8-a104-4257-9ff5-d2c38d33fc79"}]},"request":{"method":"PUT","url":"Encounter/5f291f45-c236-4381-ba3c-6b4830ce4695"}},{"fullUrl":"https://madie.cms.gov/claim/5ca62962b8484628b8de1ec5","resource":{"resourceType":"Claim","id":"5ca62962b8484628b8de1ec5","meta":{"profile":["http://hl7.org/fhir/us/qicore/StructureDefinition/qicore-claim"]},"status":"active","type":{"coding":[{"system":"http://terminology.hl7.org/CodeSystem/claim-type","code":"institutional"}]},"use":"claim","patient":{"reference":"Patient/d170a0a8-b5ad-4303-b6df-e304dd5f92ad"},"created":"2026-12-01","provider":{"reference":"Practitioner/334a42c8-9756-4298-a7fa-7d2d1c43a6d7"},"priority":{"coding":[{"system":"http://terminology.hl7.org/CodeSystem/processpriority","code":"normal"}]},"diagnosis":[{"sequence":1,"diagnosisCodeableConcept":{"coding":[{"system":"http://hl7.org/fhir/sid/icd-10-cm","code":"I63.00"}]},"type":[{"coding":[{"system":"http://terminology.hl7.org/CodeSystem/ex-diagnosistype","code":"principal"}]}]}],"insurance":[{"sequence":1,"focal":true,"coverage":{"reference":"Coverage/5fa041661c76ba66d9959367"}}],"item":[{"sequence":1,"diagnosisSequence":[1],"productOrService":{"coding":[{"system":"http://terminology.hl7.org/CodeSystem/ex-USCLS","code":"99555"}]},"encounter":[{"reference":"Encounter/5f291f45-c236-4381-ba3c-6b4830ce4695"}]}]},"request":{"method":"PUT","url":"Claim/5ca62962b8484628b8de1ec5"}},{"fullUrl":"https://madie.cms.gov/MedicationAdministration/51542ced-a949-429e-8e2a-9d1f68d15039","resource":{"resourceType":"MedicationAdministration","id":"51542ced-a949-429e-8e2a-9d1f68d15039","meta":{"profile":["http://hl7.org/fhir/us/qicore/StructureDefinition/qicore-medicationadministration"]},"status":"completed","medicationCodeableConcept":{"coding":[{"system":"http://www.nlm.nih.gov/research/umls/rxnorm","code":"1037045"}]},"subject":{"reference":"Patient/844d9440-ab79-4206-9893-bcf9a786970e"},"effectivePeriod":{"start":"2026-10-11T07:00:00Z","end":"2026-10-11T08:20:00.000+00:00"}},"request":{"method":"PUT","url":"MedicationAdministration/51542ced-a949-429e-8e2a-9d1f68d15039"}},{"fullUrl":"https://madie.cms.gov/Coverage/e6568d2a-031c-4a61-88af-6b16297caf4c","resource":{"resourceType":"Coverage","id":"e6568d2a-031c-4a61-88af-6b16297caf4c","status":"active","subscriberId":"523435","beneficiary":{"reference":"Patient/844d9440-ab79-4206-9893-bcf9a786970e"},"relationship":{"coding":[{"system":"http://terminology.hl7.org/CodeSystem/subscriber-relationship","code":"self"}]},"period":{"start":"1976-09-26T08:00:00Z"},"payor":[{"reference":"Organization/ca5f8432-fb91-4f88-9074-401c4ab2592b"}]},"request":{"method":"PUT","url":"Coverage/e6568d2a-031c-4a61-88af-6b16297caf4c"}},{"fullUrl":"https://madie.cms.gov/Condition/db1cbec8-a104-4257-9ff5-d2c38d33fc79","resource":{"resourceType":"Condition","id":"db1cbec8-a104-4257-9ff5-d2c38d33fc79","meta":{"profile":["http://hl7.org/fhir/us/qicore/StructureDefinition/qicore-condition-problems-health-concerns"]},"clinicalStatus":{"coding":[{"system":"http://terminology.hl7.org/CodeSystem/condition-clinical","code":"active"}]},"verificationStatus":{"coding":[{"system":"http://terminology.hl7.org/CodeSystem/condition-ver-status","code":"confirmed"}]},"category":[{"coding":[{"system":"http://terminology.hl7.org/CodeSystem/condition-category","code":"encounter-diagnosis","display":"Encounter Diagnosis"}]}],"code":{"coding":[{"system":"http://snomed.info/sct","version":"2020-09","code":"111297002","display":"Nonparalytic stroke (disorder)","userSelected":true}]},"subject":{"reference":"Patient/844d9440-ab79-4206-9893-bcf9a786970e"},"recordedDate":"2026-08-16T08:00:00Z"},"request":{"method":"PUT","url":"Condition/db1cbec8-a104-4257-9ff5-d2c38d33fc79"}},{"fullUrl":"https://madie.cms.gov/Organization/ca5f8432-fb91-4f88-9074-401c4ab2592b","resource":{"resourceType":"Organization","id":"ca5f8432-fb91-4f88-9074-401c4ab2592b","meta":{"profile":["http://hl7.org/fhir/us/qicore/StructureDefinition/qicore-organization"]},"identifier":[{"use":"temp","system":"urn:oid:2.16.840.1.113883.4.4","value":"21-3259825"}],"active":true,"type":[{"coding":[{"system":"http://terminology.hl7.org/CodeSystem/organization-type","code":"pay","display":"Payer"}]}],"name":"Blue Cross Blue Shield of Texas","telecom":[{"system":"phone","value":"(+1) 972-766-6900"}],"address":[{"use":"billing","type":"postal","line":["P.O. Box 660044"],"city":"Dallas","state":"TX","postalCode":"75266-0044","country":"USA"}]},"request":{"method":"PUT","url":"Organization/ca5f8432-fb91-4f88-9074-401c4ab2592b"}},{"fullUrl":"https://madie.cms.gov/Practitioner/334a42c8-9756-4298-a7fa-7d2d1c43a6d7","resource":{"resourceType":"Practitioner","id":"334a42c8-9756-4298-a7fa-7d2d1c43a6d7","meta":{"profile":["http://hl7.org/fhir/us/qicore/StructureDefinition/qicore-practitioner"]},"identifier":[{"system":"http://hl7.org/fhir/sid/us-npi","value":"9999999896"}],"name":[{"family":"Evil","prefix":["Dr"]}]},"request":{"method":"PUT","url":"Practitioner/334a42c8-9756-4298-a7fa-7d2d1c43a6d7"}},{"fullUrl":"https://madie.cms.gov/MeasureReport/148acf2a-b70d-4f5a-aca4-ef08ef12e473","resource":{"resourceType":"MeasureReport","id":"148acf2a-b70d-4f5a-aca4-ef08ef12e473","meta":{"profile":["http://hl7.org/fhir/us/cqfmeasures/StructureDefinition/test-case-cqfm"]},"contained":[{"resourceType":"Parameters","id":"965c142f-2a46-436c-b87f-2758f7c2f822-parameters","parameter":[{"name":"subject","valueString":"844d9440-ab79-4206-9893-bcf9a786970e"}]}],"extension":[{"url":"http://hl7.org/fhir/StructureDefinition/cqf-inputParameters","valueReference":{"reference":"#965c142f-2a46-436c-b87f-2758f7c2f822-parameters"}},{"url":"http://hl7.org/fhir/us/cqfmeasures/StructureDefinition/cqfm-testCaseDescription","valueMarkdown":"\"Patient receives antithrombotic in the ED.\n global.\"\"Hospitalization\"\" =(Ed+IP)\"\n"}],"modifierExtension":[{"url":"http://hl7.org/fhir/us/cqfmeasures/StructureDefinition/cqfm-isTestCase","valueBoolean":true}],"status":"complete","type":"individual","measure":"https://madie.cms.gov/Measure/CMS72FHIRSTKAntithromboticDay2","period":{"start":"2026-01-01","end":"2026-12-31"},"group":[{"id":"Group_1","population":[{"id":"InitialPopulation_1","code":{"coding":[{"system":"http://terminology.hl7.org/CodeSystem/measure-population","code":"initial-population","display":"Initial Population"}]},"count":1},{"id":"Denominator_1","code":{"coding":[{"system":"http://terminology.hl7.org/CodeSystem/measure-population","code":"denominator","display":"Denominator"}]},"count":1},{"id":"DenominatorExclusion_1","code":{"coding":[{"system":"http://terminology.hl7.org/CodeSystem/measure-population","code":"denominator-exclusion","display":"Denominator Exclusion"}]},"count":0},{"id":"Numerator_1","code":{"coding":[{"system":"http://terminology.hl7.org/CodeSystem/measure-population","code":"numerator","display":"Numerator"}]},"count":1},{"id":"DenominatorException_1","code":{"coding":[{"system":"http://terminology.hl7.org/CodeSystem/measure-population","code":"denominator-exception","display":"Denominator Exception"}]},"count":0}],"measureScore":{"value":0.0}}],"evaluatedResource":[{"reference":"Patient/844d9440-ab79-4206-9893-bcf9a786970e"},{"reference":"Encounter/66da8c7f-7436-4b50-9b5a-50c1489d77f0"},{"reference":"Encounter/5f291f45-c236-4381-ba3c-6b4830ce4695"},{"reference":"Claim/5ca62962b8484628b8de1ec5"},{"reference":"MedicationAdministration/51542ced-a949-429e-8e2a-9d1f68d15039"},{"reference":"Coverage/e6568d2a-031c-4a61-88af-6b16297caf4c"},{"reference":"Condition/db1cbec8-a104-4257-9ff5-d2c38d33fc79"},{"reference":"Organization/ca5f8432-fb91-4f88-9074-401c4ab2592b"},{"reference":"Practitioner/334a42c8-9756-4298-a7fa-7d2d1c43a6d7"}]},"request":{"method":"PUT","url":"MeasureReport/148acf2a-b70d-4f5a-aca4-ef08ef12e473"}}]},"request":{"method":"PUT","url":"Bundle/60f82c2e98086b570510e28d"}},{"resource":{"resourceType":"Claim","id":"5ca62962b8484628b8de1ec5","meta":{"profile":["http://hl7.org/fhir/us/qicore/StructureDefinition/qicore-claim"]},"status":"active","type":{"coding":[{"system":"http://terminology.hl7.org/CodeSystem/claim-type","code":"institutional"}]},"use":"claim","patient":{"reference":"Patient/d170a0a8-b5ad-4303-b6df-e304dd5f92ad"},"created":"2026-12-01","provider":{"reference":"Practitioner/334a42c8-9756-4298-a7fa-7d2d1c43a6d7"},"priority":{"coding":[{"system":"http://terminology.hl7.org/CodeSystem/processpriority","code":"normal"}]},"diagnosis":[{"sequence":1,"diagnosisCodeableConcept":{"coding":[{"system":"http://hl7.org/fhir/sid/icd-10-cm","code":"I63.00"}]},"type":[{"coding":[{"system":"http://terminology.hl7.org/CodeSystem/ex-diagnosistype","code":"principal"}]}]}],"insurance":[{"sequence":1,"focal":true,"coverage":{"reference":"Coverage/5fa041661c76ba66d9959367"}}],"item":[{"sequence":1,"diagnosisSequence":[1],"productOrService":{"coding":[{"system":"http://terminology.hl7.org/CodeSystem/ex-USCLS","code":"99555"}]},"encounter":[{"reference":"Encounter/5f291f45-c236-4381-ba3c-6b4830ce4695"}]}]},"request":{"method":"PUT","url":"Claim/5ca62962b8484628b8de1ec5"}}]}