{"resourceType":"Bundle","id":"tests-1b785f3f-23e7-4b52-889c-d9f66945e7f1-bundle","type":"transaction","entry":[{"resource":{"resourceType":"Coverage","id":"64a396ab-b6dd-41fe-914e-40f5712ecec4","status":"active","beneficiary":{"reference":"Patient/1b785f3f-23e7-4b52-889c-d9f66945e7f1"},"period":{"start":"1976-09-26T08:00:00Z"},"payor":[{"reference":"Organization/ee0c15dd-145d-4679-97b1-50c68d3976cb"}]},"request":{"method":"PUT","url":"Coverage/64a396ab-b6dd-41fe-914e-40f5712ecec4"}},{"resource":{"resourceType":"Organization","id":"ee0c15dd-145d-4679-97b1-50c68d3976cb","meta":{"profile":["http://hl7.org/fhir/us/qicore/StructureDefinition/qicore-organization"]},"identifier":[{"use":"temp","system":"urn:oid:2.16.840.1.113883.4.4","value":"21-3259825"}],"active":true,"type":[{"coding":[{"system":"http://terminology.hl7.org/CodeSystem/organization-type","code":"pay","display":"Payer"}]}],"name":"Blue Cross Blue Shield of Texas","telecom":[{"system":"phone","value":"(+1) 972-766-6900"}],"address":[{"use":"billing","type":"postal","line":["P.O. Box 660044"],"city":"Dallas","state":"TX","postalCode":"75266-0044","country":"USA"}]},"request":{"method":"PUT","url":"Organization/ee0c15dd-145d-4679-97b1-50c68d3976cb"}},{"resource":{"resourceType":"Encounter","id":"913227f4-b649-4f19-bb01-1235fb312f70","meta":{"profile":["http://hl7.org/fhir/us/qicore/StructureDefinition/qicore-encounter"]},"status":"finished","class":{"system":"http://terminology.hl7.org/CodeSystem/v3-ActCode","code":"EMER","display":"emergency","userSelected":true},"type":[{"coding":[{"system":"http://snomed.info/sct","code":"4525004"}]}],"subject":{"reference":"Patient/1b785f3f-23e7-4b52-889c-d9f66945e7f1"},"period":{"start":"2026-10-10T04:00:00Z","end":"2026-10-10T06:00:00.000+00:00"},"length":{"value":0,"unit":"days"}},"request":{"method":"PUT","url":"Encounter/913227f4-b649-4f19-bb01-1235fb312f70"}},{"resource":{"resourceType":"MeasureReport","id":"8c94a7ce-c26d-4725-888b-1c1111054796","meta":{"profile":["http://hl7.org/fhir/us/cqfmeasures/StructureDefinition/test-case-cqfm"]},"contained":[{"resourceType":"Parameters","id":"f1d8d62c-e2db-48db-8cbc-950fb4cca8e9-parameters","parameter":[{"name":"subject","valueString":"1b785f3f-23e7-4b52-889c-d9f66945e7f1"}]}],"extension":[{"url":"http://hl7.org/fhir/StructureDefinition/cqf-inputParameters","valueReference":{"reference":"#f1d8d62c-e2db-48db-8cbc-950fb4cca8e9-parameters"}},{"url":"http://hl7.org/fhir/us/cqfmeasures/StructureDefinition/cqfm-testCaseDescription","valueMarkdown":"Patient receives comfort measures order CMP<1day (=0 day)   during Enc IP   global.\"Hospitalization\" =(Ed+IP)\n"}],"modifierExtension":[{"url":"http://hl7.org/fhir/us/cqfmeasures/StructureDefinition/cqfm-isTestCase","valueBoolean":true}],"status":"complete","type":"individual","measure":"https://madie.cms.gov/Measure/CMS72FHIRSTKAntithromboticDay2","period":{"start":"2026-01-01","end":"2026-12-31"},"group":[{"id":"Group_1","population":[{"id":"InitialPopulation_1","code":{"coding":[{"system":"http://terminology.hl7.org/CodeSystem/measure-population","code":"initial-population","display":"Initial Population"}]},"count":1},{"id":"Denominator_1","code":{"coding":[{"system":"http://terminology.hl7.org/CodeSystem/measure-population","code":"denominator","display":"Denominator"}]},"count":1},{"id":"DenominatorExclusion_1","code":{"coding":[{"system":"http://terminology.hl7.org/CodeSystem/measure-population","code":"denominator-exclusion","display":"Denominator Exclusion"}]},"count":1},{"id":"Numerator_1","code":{"coding":[{"system":"http://terminology.hl7.org/CodeSystem/measure-population","code":"numerator","display":"Numerator"}]},"count":0},{"id":"DenominatorException_1","code":{"coding":[{"system":"http://terminology.hl7.org/CodeSystem/measure-population","code":"denominator-exception","display":"Denominator Exception"}]},"count":0}],"measureScore":{"value":0.0}}],"evaluatedResource":[{"reference":"Patient/1b785f3f-23e7-4b52-889c-d9f66945e7f1"},{"reference":"Encounter/913227f4-b649-4f19-bb01-1235fb312f70"},{"reference":"Encounter/9ca23b1b-7000-4868-99fe-23f49bc1696e"},{"reference":"Claim/5ca62962b8484628b8de1ec5"},{"reference":"ServiceRequest/e70ffe39-f430-499b-b093-c20c055ed6b0"},{"reference":"Coverage/64a396ab-b6dd-41fe-914e-40f5712ecec4"},{"reference":"Condition/291fb66d-5307-4ea0-b3d6-9a9752d8ef69"},{"reference":"Organization/ee0c15dd-145d-4679-97b1-50c68d3976cb"}]},"request":{"method":"PUT","url":"MeasureReport/8c94a7ce-c26d-4725-888b-1c1111054796"}},{"resource":{"resourceType":"Condition","id":"291fb66d-5307-4ea0-b3d6-9a9752d8ef69","meta":{"profile":["http://hl7.org/fhir/us/qicore/StructureDefinition/qicore-condition-encounter-diagnosis"]},"clinicalStatus":{"coding":[{"system":"http://terminology.hl7.org/CodeSystem/condition-clinical","code":"active"}]},"verificationStatus":{"coding":[{"system":"http://terminology.hl7.org/CodeSystem/condition-ver-status","code":"confirmed"}]},"category":[{"coding":[{"system":"http://terminology.hl7.org/CodeSystem/condition-category","code":"encounter-diagnosis","display":"Encounter Diagnosis"}]}],"code":{"coding":[{"system":"http://snomed.info/sct","version":"2020-09","code":"111297002","display":"Nonparalytic stroke (disorder)","userSelected":true}]},"subject":{"reference":"Patient/1b785f3f-23e7-4b52-889c-d9f66945e7f1"},"recordedDate":"2026-08-12T08:00:00Z"},"request":{"method":"PUT","url":"Condition/291fb66d-5307-4ea0-b3d6-9a9752d8ef69"}},{"resource":{"resourceType":"Patient","id":"1b785f3f-23e7-4b52-889c-d9f66945e7f1","meta":{"profile":["http://hl7.org/fhir/us/qicore/StructureDefinition/qicore-patient"]},"text":{"status":"generated","div":"<div xmlns=\"http://www.w3.org/1999/xhtml\"><div class=\"hapiHeaderText\">CMO&lt;1day_DuringEncIP <b>DENEXPASS </b></div><table class=\"hapiPropertyTable\"><tbody><tr><td>Identifier</td><td>d9671613ad13fc4c07e2f7a63a584374</td></tr><tr><td>Date of birth</td><td><span>26 September 1975</span></td></tr></tbody></table></div>"},"extension":[{"url":"http://hl7.org/fhir/us/core/StructureDefinition/us-core-race","extension":[{"url":"ombCategory","valueCoding":{"system":"urn:oid:2.16.840.1.113883.6.238","code":"2054-5","display":"Black or African American","userSelected":true}},{"url":"text","valueString":"Black or African American"}]},{"url":"http://hl7.org/fhir/us/core/StructureDefinition/us-core-ethnicity","extension":[{"url":"ombCategory","valueCoding":{"system":"urn:oid:2.16.840.1.113883.6.238","code":"2186-5","display":"Not Hispanic or Latino","userSelected":true}},{"url":"text","valueString":"Not Hispanic or Latino"}]}],"identifier":[{"type":{"coding":[{"system":"http://terminology.hl7.org/CodeSystem/v2-0203","code":"MR"}]},"system":"https://bonnie-fhir.healthit.gov/","value":"60f82c2e98086b570510e29c"}],"active":true,"name":[{"use":"usual","family":"DENEXPass","given":["CMO<1dayDuringEncIP"]}],"gender":"female","birthDate":"1976-09-26"},"request":{"method":"PUT","url":"Patient/1b785f3f-23e7-4b52-889c-d9f66945e7f1"}},{"resource":{"resourceType":"Bundle","id":"60f82c2e98086b570510e29c","type":"transaction","entry":[{"fullUrl":"https://madie.cms.gov/Patient/1b785f3f-23e7-4b52-889c-d9f66945e7f1","resource":{"resourceType":"Patient","id":"1b785f3f-23e7-4b52-889c-d9f66945e7f1","meta":{"profile":["http://hl7.org/fhir/us/qicore/StructureDefinition/qicore-patient"]},"text":{"status":"generated","div":"<div xmlns=\"http://www.w3.org/1999/xhtml\"><div class=\"hapiHeaderText\">CMO&lt;1day_DuringEncIP <b>DENEXPASS </b></div><table class=\"hapiPropertyTable\"><tbody><tr><td>Identifier</td><td>d9671613ad13fc4c07e2f7a63a584374</td></tr><tr><td>Date of birth</td><td><span>26 September 1975</span></td></tr></tbody></table></div>"},"extension":[{"url":"http://hl7.org/fhir/us/core/StructureDefinition/us-core-race","extension":[{"url":"ombCategory","valueCoding":{"system":"urn:oid:2.16.840.1.113883.6.238","code":"2054-5","display":"Black or African American","userSelected":true}},{"url":"text","valueString":"Black or African American"}]},{"url":"http://hl7.org/fhir/us/core/StructureDefinition/us-core-ethnicity","extension":[{"url":"ombCategory","valueCoding":{"system":"urn:oid:2.16.840.1.113883.6.238","code":"2186-5","display":"Not Hispanic or Latino","userSelected":true}},{"url":"text","valueString":"Not Hispanic or Latino"}]}],"identifier":[{"type":{"coding":[{"system":"http://terminology.hl7.org/CodeSystem/v2-0203","code":"MR"}]},"system":"https://bonnie-fhir.healthit.gov/","value":"60f82c2e98086b570510e29c"}],"active":true,"name":[{"use":"usual","family":"DENEXPass","given":["CMO<1dayDuringEncIP"]}],"gender":"female","birthDate":"1976-09-26"},"request":{"method":"PUT","url":"Patient/1b785f3f-23e7-4b52-889c-d9f66945e7f1"}},{"fullUrl":"https://madie.cms.gov/Encounter/913227f4-b649-4f19-bb01-1235fb312f70","resource":{"resourceType":"Encounter","id":"913227f4-b649-4f19-bb01-1235fb312f70","meta":{"profile":["http://hl7.org/fhir/us/qicore/StructureDefinition/qicore-encounter"]},"status":"finished","class":{"system":"http://terminology.hl7.org/CodeSystem/v3-ActCode","code":"EMER","display":"emergency","userSelected":true},"type":[{"coding":[{"system":"http://snomed.info/sct","code":"4525004"}]}],"subject":{"reference":"Patient/1b785f3f-23e7-4b52-889c-d9f66945e7f1"},"period":{"start":"2026-10-10T04:00:00Z","end":"2026-10-10T06:00:00.000+00:00"},"length":{"value":0,"unit":"days"}},"request":{"method":"PUT","url":"Encounter/913227f4-b649-4f19-bb01-1235fb312f70"}},{"fullUrl":"https://madie.cms.gov/Encounter/9ca23b1b-7000-4868-99fe-23f49bc1696e","resource":{"resourceType":"Encounter","id":"9ca23b1b-7000-4868-99fe-23f49bc1696e","meta":{"profile":["http://hl7.org/fhir/us/qicore/StructureDefinition/qicore-encounter"]},"status":"finished","class":{"system":"http://terminology.hl7.org/CodeSystem/v3-ActCode","code":"IMP","display":"inpatient encounter","userSelected":true},"type":[{"coding":[{"system":"http://snomed.info/sct","code":"32485007"}]}],"subject":{"reference":"Patient/1b785f3f-23e7-4b52-889c-d9f66945e7f1"},"period":{"start":"2026-10-10T06:15:00Z","end":"2026-10-11T11:30:00.000+00:00"},"length":{"value":1,"unit":"days"},"reasonReference":[{"reference":"Condition/291fb66d-5307-4ea0-b3d6-9a9752d8ef69"}]},"request":{"method":"PUT","url":"Encounter/9ca23b1b-7000-4868-99fe-23f49bc1696e"}},{"fullUrl":"https://madie.cms.gov/claim/5ca62962b8484628b8de1ec5","resource":{"resourceType":"Claim","id":"5ca62962b8484628b8de1ec5","meta":{"profile":["http://hl7.org/fhir/us/qicore/StructureDefinition/qicore-claim"]},"status":"active","type":{"coding":[{"system":"http://terminology.hl7.org/CodeSystem/claim-type","code":"institutional"}]},"use":"claim","patient":{"reference":"Patient/1b785f3f-23e7-4b52-889c-d9f66945e7f1"},"created":"2026-12-01","provider":{"reference":"Practitioner/practitioner-123456"},"priority":{"coding":[{"system":"http://terminology.hl7.org/CodeSystem/processpriority","code":"normal"}]},"diagnosis":[{"sequence":1,"diagnosisCodeableConcept":{"coding":[{"system":"http://hl7.org/fhir/sid/icd-10-cm","code":"I63.00"}]},"type":[{"coding":[{"system":"http://terminology.hl7.org/CodeSystem/ex-diagnosistype","code":"principal"}]}]}],"insurance":[{"sequence":1,"focal":true,"coverage":{"reference":"Coverage/64a396ab-b6dd-41fe-914e-40f5712ecec4"}}],"item":[{"sequence":1,"diagnosisSequence":[1],"productOrService":{"coding":[{"system":"http://terminology.hl7.org/CodeSystem/ex-USCLS","code":"99555"}]},"encounter":[{"reference":"Encounter/9ca23b1b-7000-4868-99fe-23f49bc1696e"}]}]},"request":{"method":"PUT","url":"Claim/5ca62962b8484628b8de1ec5"}},{"fullUrl":"https://madie.cms.gov/ServiceRequest/e70ffe39-f430-499b-b093-c20c055ed6b0","resource":{"resourceType":"ServiceRequest","id":"e70ffe39-f430-499b-b093-c20c055ed6b0","meta":{"profile":["http://hl7.org/fhir/us/qicore/StructureDefinition/qicore-servicerequest"]},"status":"active","intent":"order","code":{"coding":[{"system":"http://snomed.info/sct","code":"133918004"}]},"subject":{"reference":"Patient/1b785f3f-23e7-4b52-889c-d9f66945e7f1"},"authoredOn":"2026-10-10T11:00:00Z"},"request":{"method":"PUT","url":"ServiceRequest/e70ffe39-f430-499b-b093-c20c055ed6b0"}},{"fullUrl":"https://madie.cms.gov/Coverage/64a396ab-b6dd-41fe-914e-40f5712ecec4","resource":{"resourceType":"Coverage","id":"64a396ab-b6dd-41fe-914e-40f5712ecec4","status":"active","beneficiary":{"reference":"Patient/1b785f3f-23e7-4b52-889c-d9f66945e7f1"},"period":{"start":"1976-09-26T08:00:00Z"},"payor":[{"reference":"Organization/ee0c15dd-145d-4679-97b1-50c68d3976cb"}]},"request":{"method":"PUT","url":"Coverage/64a396ab-b6dd-41fe-914e-40f5712ecec4"}},{"fullUrl":"https://madie.cms.gov/Condition/291fb66d-5307-4ea0-b3d6-9a9752d8ef69","resource":{"resourceType":"Condition","id":"291fb66d-5307-4ea0-b3d6-9a9752d8ef69","meta":{"profile":["http://hl7.org/fhir/us/qicore/StructureDefinition/qicore-condition-encounter-diagnosis"]},"clinicalStatus":{"coding":[{"system":"http://terminology.hl7.org/CodeSystem/condition-clinical","code":"active"}]},"verificationStatus":{"coding":[{"system":"http://terminology.hl7.org/CodeSystem/condition-ver-status","code":"confirmed"}]},"category":[{"coding":[{"system":"http://terminology.hl7.org/CodeSystem/condition-category","code":"encounter-diagnosis","display":"Encounter Diagnosis"}]}],"code":{"coding":[{"system":"http://snomed.info/sct","version":"2020-09","code":"111297002","display":"Nonparalytic stroke (disorder)","userSelected":true}]},"subject":{"reference":"Patient/1b785f3f-23e7-4b52-889c-d9f66945e7f1"},"recordedDate":"2026-08-12T08:00:00Z"},"request":{"method":"PUT","url":"Condition/291fb66d-5307-4ea0-b3d6-9a9752d8ef69"}},{"fullUrl":"https://madie.cms.gov/Organization/ee0c15dd-145d-4679-97b1-50c68d3976cb","resource":{"resourceType":"Organization","id":"ee0c15dd-145d-4679-97b1-50c68d3976cb","meta":{"profile":["http://hl7.org/fhir/us/qicore/StructureDefinition/qicore-organization"]},"identifier":[{"use":"temp","system":"urn:oid:2.16.840.1.113883.4.4","value":"21-3259825"}],"active":true,"type":[{"coding":[{"system":"http://terminology.hl7.org/CodeSystem/organization-type","code":"pay","display":"Payer"}]}],"name":"Blue Cross Blue Shield of Texas","telecom":[{"system":"phone","value":"(+1) 972-766-6900"}],"address":[{"use":"billing","type":"postal","line":["P.O. Box 660044"],"city":"Dallas","state":"TX","postalCode":"75266-0044","country":"USA"}]},"request":{"method":"PUT","url":"Organization/ee0c15dd-145d-4679-97b1-50c68d3976cb"}},{"fullUrl":"https://madie.cms.gov/MeasureReport/8c94a7ce-c26d-4725-888b-1c1111054796","resource":{"resourceType":"MeasureReport","id":"8c94a7ce-c26d-4725-888b-1c1111054796","meta":{"profile":["http://hl7.org/fhir/us/cqfmeasures/StructureDefinition/test-case-cqfm"]},"contained":[{"resourceType":"Parameters","id":"f1d8d62c-e2db-48db-8cbc-950fb4cca8e9-parameters","parameter":[{"name":"subject","valueString":"1b785f3f-23e7-4b52-889c-d9f66945e7f1"}]}],"extension":[{"url":"http://hl7.org/fhir/StructureDefinition/cqf-inputParameters","valueReference":{"reference":"#f1d8d62c-e2db-48db-8cbc-950fb4cca8e9-parameters"}},{"url":"http://hl7.org/fhir/us/cqfmeasures/StructureDefinition/cqfm-testCaseDescription","valueMarkdown":"Patient receives comfort measures order CMP<1day (=0 day)   during Enc IP   global.\"Hospitalization\" =(Ed+IP)\n"}],"modifierExtension":[{"url":"http://hl7.org/fhir/us/cqfmeasures/StructureDefinition/cqfm-isTestCase","valueBoolean":true}],"status":"complete","type":"individual","measure":"https://madie.cms.gov/Measure/CMS72FHIRSTKAntithromboticDay2","period":{"start":"2026-01-01","end":"2026-12-31"},"group":[{"id":"Group_1","population":[{"id":"InitialPopulation_1","code":{"coding":[{"system":"http://terminology.hl7.org/CodeSystem/measure-population","code":"initial-population","display":"Initial Population"}]},"count":1},{"id":"Denominator_1","code":{"coding":[{"system":"http://terminology.hl7.org/CodeSystem/measure-population","code":"denominator","display":"Denominator"}]},"count":1},{"id":"DenominatorExclusion_1","code":{"coding":[{"system":"http://terminology.hl7.org/CodeSystem/measure-population","code":"denominator-exclusion","display":"Denominator Exclusion"}]},"count":1},{"id":"Numerator_1","code":{"coding":[{"system":"http://terminology.hl7.org/CodeSystem/measure-population","code":"numerator","display":"Numerator"}]},"count":0},{"id":"DenominatorException_1","code":{"coding":[{"system":"http://terminology.hl7.org/CodeSystem/measure-population","code":"denominator-exception","display":"Denominator Exception"}]},"count":0}],"measureScore":{"value":0.0}}],"evaluatedResource":[{"reference":"Patient/1b785f3f-23e7-4b52-889c-d9f66945e7f1"},{"reference":"Encounter/913227f4-b649-4f19-bb01-1235fb312f70"},{"reference":"Encounter/9ca23b1b-7000-4868-99fe-23f49bc1696e"},{"reference":"Claim/5ca62962b8484628b8de1ec5"},{"reference":"ServiceRequest/e70ffe39-f430-499b-b093-c20c055ed6b0"},{"reference":"Coverage/64a396ab-b6dd-41fe-914e-40f5712ecec4"},{"reference":"Condition/291fb66d-5307-4ea0-b3d6-9a9752d8ef69"},{"reference":"Organization/ee0c15dd-145d-4679-97b1-50c68d3976cb"}]},"request":{"method":"PUT","url":"MeasureReport/8c94a7ce-c26d-4725-888b-1c1111054796"}}]},"request":{"method":"PUT","url":"Bundle/60f82c2e98086b570510e29c"}},{"resource":{"resourceType":"ServiceRequest","id":"e70ffe39-f430-499b-b093-c20c055ed6b0","meta":{"profile":["http://hl7.org/fhir/us/qicore/StructureDefinition/qicore-servicerequest"]},"status":"active","intent":"order","code":{"coding":[{"system":"http://snomed.info/sct","code":"133918004"}]},"subject":{"reference":"Patient/1b785f3f-23e7-4b52-889c-d9f66945e7f1"},"authoredOn":"2026-10-10T11:00:00Z"},"request":{"method":"PUT","url":"ServiceRequest/e70ffe39-f430-499b-b093-c20c055ed6b0"}},{"resource":{"resourceType":"Encounter","id":"9ca23b1b-7000-4868-99fe-23f49bc1696e","meta":{"profile":["http://hl7.org/fhir/us/qicore/StructureDefinition/qicore-encounter"]},"status":"finished","class":{"system":"http://terminology.hl7.org/CodeSystem/v3-ActCode","code":"IMP","display":"inpatient encounter","userSelected":true},"type":[{"coding":[{"system":"http://snomed.info/sct","code":"32485007"}]}],"subject":{"reference":"Patient/1b785f3f-23e7-4b52-889c-d9f66945e7f1"},"period":{"start":"2026-10-10T06:15:00Z","end":"2026-10-11T11:30:00.000+00:00"},"length":{"value":1,"unit":"days"},"reasonReference":[{"reference":"Condition/291fb66d-5307-4ea0-b3d6-9a9752d8ef69"}]},"request":{"method":"PUT","url":"Encounter/9ca23b1b-7000-4868-99fe-23f49bc1696e"}},{"resource":{"resourceType":"Claim","id":"5ca62962b8484628b8de1ec5","meta":{"profile":["http://hl7.org/fhir/us/qicore/StructureDefinition/qicore-claim"]},"status":"active","type":{"coding":[{"system":"http://terminology.hl7.org/CodeSystem/claim-type","code":"institutional"}]},"use":"claim","patient":{"reference":"Patient/1b785f3f-23e7-4b52-889c-d9f66945e7f1"},"created":"2026-12-01","provider":{"reference":"Practitioner/practitioner-123456"},"priority":{"coding":[{"system":"http://terminology.hl7.org/CodeSystem/processpriority","code":"normal"}]},"diagnosis":[{"sequence":1,"diagnosisCodeableConcept":{"coding":[{"system":"http://hl7.org/fhir/sid/icd-10-cm","code":"I63.00"}]},"type":[{"coding":[{"system":"http://terminology.hl7.org/CodeSystem/ex-diagnosistype","code":"principal"}]}]}],"insurance":[{"sequence":1,"focal":true,"coverage":{"reference":"Coverage/64a396ab-b6dd-41fe-914e-40f5712ecec4"}}],"item":[{"sequence":1,"diagnosisSequence":[1],"productOrService":{"coding":[{"system":"http://terminology.hl7.org/CodeSystem/ex-USCLS","code":"99555"}]},"encounter":[{"reference":"Encounter/9ca23b1b-7000-4868-99fe-23f49bc1696e"}]}]},"request":{"method":"PUT","url":"Claim/5ca62962b8484628b8de1ec5"}}]}