{"resourceType":"Bundle","id":"tests-7ddb2db9-020e-45b1-aaf5-2fbcf281d6b8-bundle","type":"transaction","entry":[{"resource":{"resourceType":"Coverage","id":"4faa1f00-4a1e-4f66-81da-7b42b8948149","status":"active","subscriberId":"523435","beneficiary":{"reference":"Patient/7ddb2db9-020e-45b1-aaf5-2fbcf281d6b8"},"relationship":{"coding":[{"system":"http://terminology.hl7.org/CodeSystem/subscriber-relationship","code":"self"}]},"period":{"start":"1976-09-26T08:00:00Z"},"payor":[{"reference":"Organization/8a17458c-7398-4cfa-b748-049210fa41bc"}]},"request":{"method":"PUT","url":"Coverage/4faa1f00-4a1e-4f66-81da-7b42b8948149"}},{"resource":{"resourceType":"MeasureReport","id":"eb37c86c-5f77-48c9-b29b-e1bbadb9707d","meta":{"profile":["http://hl7.org/fhir/us/cqfmeasures/StructureDefinition/test-case-cqfm"]},"contained":[{"resourceType":"Parameters","id":"94910332-0116-4516-a40d-b2ad7c2ddbfb-parameters","parameter":[{"name":"subject","valueString":"7ddb2db9-020e-45b1-aaf5-2fbcf281d6b8"}]}],"extension":[{"url":"http://hl7.org/fhir/StructureDefinition/cqf-inputParameters","valueReference":{"reference":"#94910332-0116-4516-a40d-b2ad7c2ddbfb-parameters"}},{"url":"http://hl7.org/fhir/us/cqfmeasures/StructureDefinition/cqfm-testCaseDescription","valueMarkdown":"antithrombotic not done due to medical reason = 1 day after IP encounter starts AND NOT ED visit\n"}],"modifierExtension":[{"url":"http://hl7.org/fhir/us/cqfmeasures/StructureDefinition/cqfm-isTestCase","valueBoolean":true}],"status":"complete","type":"individual","measure":"https://madie.cms.gov/Measure/CMS72FHIRSTKAntithromboticDay2","period":{"start":"2026-01-01","end":"2026-12-31"},"group":[{"id":"Group_1","population":[{"id":"InitialPopulation_1","code":{"coding":[{"system":"http://terminology.hl7.org/CodeSystem/measure-population","code":"initial-population","display":"Initial Population"}]},"count":1},{"id":"Denominator_1","code":{"coding":[{"system":"http://terminology.hl7.org/CodeSystem/measure-population","code":"denominator","display":"Denominator"}]},"count":1},{"id":"DenominatorExclusion_1","code":{"coding":[{"system":"http://terminology.hl7.org/CodeSystem/measure-population","code":"denominator-exclusion","display":"Denominator Exclusion"}]},"count":0},{"id":"Numerator_1","code":{"coding":[{"system":"http://terminology.hl7.org/CodeSystem/measure-population","code":"numerator","display":"Numerator"}]},"count":0},{"id":"DenominatorException_1","code":{"coding":[{"system":"http://terminology.hl7.org/CodeSystem/measure-population","code":"denominator-exception","display":"Denominator Exception"}]},"count":1}],"measureScore":{"value":0.0}}],"evaluatedResource":[{"reference":"Patient/7ddb2db9-020e-45b1-aaf5-2fbcf281d6b8"},{"reference":"Encounter/e300fef4-596f-49fb-beab-6882fdd390f2"},{"reference":"Claim/5ca62962b8484628b8de1ec5"},{"reference":"MedicationAdministration/712253fe-b72c-4654-b565-485b3d14555e"},{"reference":"Coverage/4faa1f00-4a1e-4f66-81da-7b42b8948149"},{"reference":"Condition/2cf5bc88-1290-4c9b-97b5-5479b93aee4a"},{"reference":"Organization/8a17458c-7398-4cfa-b748-049210fa41bc"}]},"request":{"method":"PUT","url":"MeasureReport/eb37c86c-5f77-48c9-b29b-e1bbadb9707d"}},{"resource":{"resourceType":"Organization","id":"8a17458c-7398-4cfa-b748-049210fa41bc","meta":{"profile":["http://hl7.org/fhir/us/qicore/StructureDefinition/qicore-organization"]},"identifier":[{"use":"temp","system":"urn:oid:2.16.840.1.113883.4.4","value":"21-3259825"}],"active":true,"type":[{"coding":[{"system":"http://terminology.hl7.org/CodeSystem/organization-type","code":"pay","display":"Payer"}]}],"name":"Blue Cross Blue Shield of Texas","telecom":[{"system":"phone","value":"(+1) 972-766-6900"}],"address":[{"use":"billing","type":"postal","line":["P.O. Box 660044"],"city":"Dallas","state":"TX","postalCode":"75266-0044","country":"USA"}]},"request":{"method":"PUT","url":"Organization/8a17458c-7398-4cfa-b748-049210fa41bc"}},{"resource":{"resourceType":"Condition","id":"2cf5bc88-1290-4c9b-97b5-5479b93aee4a","meta":{"profile":["http://hl7.org/fhir/us/qicore/StructureDefinition/qicore-condition-encounter-diagnosis"]},"clinicalStatus":{"coding":[{"system":"http://terminology.hl7.org/CodeSystem/condition-clinical","code":"active"}]},"verificationStatus":{"coding":[{"system":"http://terminology.hl7.org/CodeSystem/condition-ver-status","code":"confirmed"}]},"category":[{"coding":[{"system":"http://terminology.hl7.org/CodeSystem/condition-category","code":"encounter-diagnosis","display":"Encounter Diagnosis"}]}],"code":{"coding":[{"system":"http://snomed.info/sct","version":"2020-09","code":"111297002","display":"Nonparalytic stroke (disorder)","userSelected":true}]},"subject":{"reference":"Patient/7ddb2db9-020e-45b1-aaf5-2fbcf281d6b8"},"recordedDate":"2026-08-04T08:00:00Z"},"request":{"method":"PUT","url":"Condition/2cf5bc88-1290-4c9b-97b5-5479b93aee4a"}},{"resource":{"resourceType":"Bundle","id":"60f82c2e98086b570510e269","type":"transaction","entry":[{"fullUrl":"https://madie.cms.gov/Patient/7ddb2db9-020e-45b1-aaf5-2fbcf281d6b8","resource":{"resourceType":"Patient","id":"7ddb2db9-020e-45b1-aaf5-2fbcf281d6b8","meta":{"profile":["http://hl7.org/fhir/us/qicore/StructureDefinition/qicore-patient"]},"text":{"status":"generated","div":"<div xmlns=\"http://www.w3.org/1999/xhtml\"><div class=\"hapiHeaderText\">MedAdmMedReason_eq1dayduringEncIP <b>DENEXCEPPASS </b></div><table class=\"hapiPropertyTable\"><tbody><tr><td>Identifier</td><td>433f05ddb294f33f326d533fe57c6dfd</td></tr><tr><td>Date of birth</td><td><span>26 September 1975</span></td></tr></tbody></table></div>"},"extension":[{"url":"http://hl7.org/fhir/us/core/StructureDefinition/us-core-race","extension":[{"url":"ombCategory","valueCoding":{"system":"urn:oid:2.16.840.1.113883.6.238","code":"2054-5","display":"Black or African American","userSelected":true}},{"url":"text","valueString":"Black or African American"}]},{"url":"http://hl7.org/fhir/us/core/StructureDefinition/us-core-ethnicity","extension":[{"url":"ombCategory","valueCoding":{"system":"urn:oid:2.16.840.1.113883.6.238","code":"2186-5","display":"Not Hispanic or Latino","userSelected":true}},{"url":"text","valueString":"Not Hispanic or Latino"}]}],"identifier":[{"type":{"coding":[{"system":"http://terminology.hl7.org/CodeSystem/v2-0203","code":"MR"}]},"system":"https://bonnie-fhir.healthit.gov/","value":"60f82c2e98086b570510e269"}],"active":true,"name":[{"use":"usual","family":"DENEXCEPPass","given":["MedAdmMedReason_eq1dayduringEncIP"]}],"gender":"female","birthDate":"1976-09-26"},"request":{"method":"PUT","url":"Patient/7ddb2db9-020e-45b1-aaf5-2fbcf281d6b8"}},{"fullUrl":"https://madie.cms.gov/Encounter/e300fef4-596f-49fb-beab-6882fdd390f2","resource":{"resourceType":"Encounter","id":"e300fef4-596f-49fb-beab-6882fdd390f2","meta":{"profile":["http://hl7.org/fhir/us/qicore/StructureDefinition/qicore-encounter"]},"status":"finished","class":{"system":"http://terminology.hl7.org/CodeSystem/v3-ActCode","code":"IMP","display":"inpatient encounter","userSelected":true},"type":[{"coding":[{"system":"http://snomed.info/sct","code":"32485007"}]}],"subject":{"reference":"Patient/7ddb2db9-020e-45b1-aaf5-2fbcf281d6b8"},"period":{"start":"2026-10-10T09:00:00Z","end":"2026-10-12T11:15:00.000+00:00"},"length":{"value":2,"unit":"days"},"reasonReference":[{"reference":"Condition/2cf5bc88-1290-4c9b-97b5-5479b93aee4a"}]},"request":{"method":"PUT","url":"Encounter/e300fef4-596f-49fb-beab-6882fdd390f2"}},{"fullUrl":"https://madie.cms.gov/claim/5ca62962b8484628b8de1ec5","resource":{"resourceType":"Claim","id":"5ca62962b8484628b8de1ec5","meta":{"profile":["http://hl7.org/fhir/us/qicore/StructureDefinition/qicore-claim"]},"status":"active","type":{"coding":[{"system":"http://terminology.hl7.org/CodeSystem/claim-type","code":"institutional"}]},"use":"claim","patient":{"reference":"Patient/d170a0a8-b5ad-4303-b6df-e304dd5f92ad"},"created":"2026-12-01","provider":{"reference":"Practitioner/practitioner-123456"},"priority":{"coding":[{"system":"http://terminology.hl7.org/CodeSystem/processpriority","code":"normal"}]},"diagnosis":[{"sequence":1,"diagnosisCodeableConcept":{"coding":[{"system":"http://hl7.org/fhir/sid/icd-10-cm","code":"I63.00"}]},"type":[{"coding":[{"system":"http://terminology.hl7.org/CodeSystem/ex-diagnosistype","code":"principal"}]}]}],"insurance":[{"sequence":1,"focal":true,"coverage":{"reference":"Coverage/5fa041661c76ba66d9959367"}}],"item":[{"sequence":1,"diagnosisSequence":[1],"productOrService":{"coding":[{"system":"http://terminology.hl7.org/CodeSystem/ex-USCLS","code":"99555"}]},"encounter":[{"reference":"Encounter/e300fef4-596f-49fb-beab-6882fdd390f2"}]}]},"request":{"method":"PUT","url":"Claim/5ca62962b8484628b8de1ec5"}},{"fullUrl":"https://madie.cms.gov/MedicationAdministration/712253fe-b72c-4654-b565-485b3d14555e","resource":{"resourceType":"MedicationAdministration","id":"712253fe-b72c-4654-b565-485b3d14555e","meta":{"profile":["http://hl7.org/fhir/us/qicore/StructureDefinition/qicore-medicationadministrationnotdone"]},"extension":[{"url":"http://hl7.org/fhir/us/qicore/StructureDefinition/qicore-recorded","valueDateTime":"2026-10-11T09:00:00Z"}],"status":"not-done","statusReason":[{"coding":[{"system":"http://snomed.info/sct","code":"183932001","display":"Procedure contraindicated (situation)"}]}],"medicationCodeableConcept":{"coding":[{"system":"http://www.nlm.nih.gov/research/umls/rxnorm","code":"198466"},{"system":"http://www.nlm.nih.gov/research/umls/rxnorm","code":"1037045"}]},"subject":{"reference":"Patient/7ddb2db9-020e-45b1-aaf5-2fbcf281d6b8"},"effectivePeriod":{"start":"2026-10-11T09:00:00Z"}},"request":{"method":"PUT","url":"MedicationAdministration/712253fe-b72c-4654-b565-485b3d14555e"}},{"fullUrl":"https://madie.cms.gov/Coverage/4faa1f00-4a1e-4f66-81da-7b42b8948149","resource":{"resourceType":"Coverage","id":"4faa1f00-4a1e-4f66-81da-7b42b8948149","status":"active","subscriberId":"523435","beneficiary":{"reference":"Patient/7ddb2db9-020e-45b1-aaf5-2fbcf281d6b8"},"relationship":{"coding":[{"system":"http://terminology.hl7.org/CodeSystem/subscriber-relationship","code":"self"}]},"period":{"start":"1976-09-26T08:00:00Z"},"payor":[{"reference":"Organization/8a17458c-7398-4cfa-b748-049210fa41bc"}]},"request":{"method":"PUT","url":"Coverage/4faa1f00-4a1e-4f66-81da-7b42b8948149"}},{"fullUrl":"https://madie.cms.gov/Condition/2cf5bc88-1290-4c9b-97b5-5479b93aee4a","resource":{"resourceType":"Condition","id":"2cf5bc88-1290-4c9b-97b5-5479b93aee4a","meta":{"profile":["http://hl7.org/fhir/us/qicore/StructureDefinition/qicore-condition-encounter-diagnosis"]},"clinicalStatus":{"coding":[{"system":"http://terminology.hl7.org/CodeSystem/condition-clinical","code":"active"}]},"verificationStatus":{"coding":[{"system":"http://terminology.hl7.org/CodeSystem/condition-ver-status","code":"confirmed"}]},"category":[{"coding":[{"system":"http://terminology.hl7.org/CodeSystem/condition-category","code":"encounter-diagnosis","display":"Encounter Diagnosis"}]}],"code":{"coding":[{"system":"http://snomed.info/sct","version":"2020-09","code":"111297002","display":"Nonparalytic stroke (disorder)","userSelected":true}]},"subject":{"reference":"Patient/7ddb2db9-020e-45b1-aaf5-2fbcf281d6b8"},"recordedDate":"2026-08-04T08:00:00Z"},"request":{"method":"PUT","url":"Condition/2cf5bc88-1290-4c9b-97b5-5479b93aee4a"}},{"fullUrl":"https://madie.cms.gov/Organization/8a17458c-7398-4cfa-b748-049210fa41bc","resource":{"resourceType":"Organization","id":"8a17458c-7398-4cfa-b748-049210fa41bc","meta":{"profile":["http://hl7.org/fhir/us/qicore/StructureDefinition/qicore-organization"]},"identifier":[{"use":"temp","system":"urn:oid:2.16.840.1.113883.4.4","value":"21-3259825"}],"active":true,"type":[{"coding":[{"system":"http://terminology.hl7.org/CodeSystem/organization-type","code":"pay","display":"Payer"}]}],"name":"Blue Cross Blue Shield of Texas","telecom":[{"system":"phone","value":"(+1) 972-766-6900"}],"address":[{"use":"billing","type":"postal","line":["P.O. Box 660044"],"city":"Dallas","state":"TX","postalCode":"75266-0044","country":"USA"}]},"request":{"method":"PUT","url":"Organization/8a17458c-7398-4cfa-b748-049210fa41bc"}},{"fullUrl":"https://madie.cms.gov/MeasureReport/eb37c86c-5f77-48c9-b29b-e1bbadb9707d","resource":{"resourceType":"MeasureReport","id":"eb37c86c-5f77-48c9-b29b-e1bbadb9707d","meta":{"profile":["http://hl7.org/fhir/us/cqfmeasures/StructureDefinition/test-case-cqfm"]},"contained":[{"resourceType":"Parameters","id":"94910332-0116-4516-a40d-b2ad7c2ddbfb-parameters","parameter":[{"name":"subject","valueString":"7ddb2db9-020e-45b1-aaf5-2fbcf281d6b8"}]}],"extension":[{"url":"http://hl7.org/fhir/StructureDefinition/cqf-inputParameters","valueReference":{"reference":"#94910332-0116-4516-a40d-b2ad7c2ddbfb-parameters"}},{"url":"http://hl7.org/fhir/us/cqfmeasures/StructureDefinition/cqfm-testCaseDescription","valueMarkdown":"antithrombotic not done due to medical reason = 1 day after IP encounter starts AND NOT ED visit\n"}],"modifierExtension":[{"url":"http://hl7.org/fhir/us/cqfmeasures/StructureDefinition/cqfm-isTestCase","valueBoolean":true}],"status":"complete","type":"individual","measure":"https://madie.cms.gov/Measure/CMS72FHIRSTKAntithromboticDay2","period":{"start":"2026-01-01","end":"2026-12-31"},"group":[{"id":"Group_1","population":[{"id":"InitialPopulation_1","code":{"coding":[{"system":"http://terminology.hl7.org/CodeSystem/measure-population","code":"initial-population","display":"Initial Population"}]},"count":1},{"id":"Denominator_1","code":{"coding":[{"system":"http://terminology.hl7.org/CodeSystem/measure-population","code":"denominator","display":"Denominator"}]},"count":1},{"id":"DenominatorExclusion_1","code":{"coding":[{"system":"http://terminology.hl7.org/CodeSystem/measure-population","code":"denominator-exclusion","display":"Denominator Exclusion"}]},"count":0},{"id":"Numerator_1","code":{"coding":[{"system":"http://terminology.hl7.org/CodeSystem/measure-population","code":"numerator","display":"Numerator"}]},"count":0},{"id":"DenominatorException_1","code":{"coding":[{"system":"http://terminology.hl7.org/CodeSystem/measure-population","code":"denominator-exception","display":"Denominator Exception"}]},"count":1}],"measureScore":{"value":0.0}}],"evaluatedResource":[{"reference":"Patient/7ddb2db9-020e-45b1-aaf5-2fbcf281d6b8"},{"reference":"Encounter/e300fef4-596f-49fb-beab-6882fdd390f2"},{"reference":"Claim/5ca62962b8484628b8de1ec5"},{"reference":"MedicationAdministration/712253fe-b72c-4654-b565-485b3d14555e"},{"reference":"Coverage/4faa1f00-4a1e-4f66-81da-7b42b8948149"},{"reference":"Condition/2cf5bc88-1290-4c9b-97b5-5479b93aee4a"},{"reference":"Organization/8a17458c-7398-4cfa-b748-049210fa41bc"}]},"request":{"method":"PUT","url":"MeasureReport/eb37c86c-5f77-48c9-b29b-e1bbadb9707d"}}]},"request":{"method":"PUT","url":"Bundle/60f82c2e98086b570510e269"}},{"resource":{"resourceType":"Patient","id":"7ddb2db9-020e-45b1-aaf5-2fbcf281d6b8","meta":{"profile":["http://hl7.org/fhir/us/qicore/StructureDefinition/qicore-patient"]},"text":{"status":"generated","div":"<div xmlns=\"http://www.w3.org/1999/xhtml\"><div class=\"hapiHeaderText\">MedAdmMedReason_eq1dayduringEncIP <b>DENEXCEPPASS </b></div><table class=\"hapiPropertyTable\"><tbody><tr><td>Identifier</td><td>433f05ddb294f33f326d533fe57c6dfd</td></tr><tr><td>Date of birth</td><td><span>26 September 1975</span></td></tr></tbody></table></div>"},"extension":[{"url":"http://hl7.org/fhir/us/core/StructureDefinition/us-core-race","extension":[{"url":"ombCategory","valueCoding":{"system":"urn:oid:2.16.840.1.113883.6.238","code":"2054-5","display":"Black or African American","userSelected":true}},{"url":"text","valueString":"Black or African American"}]},{"url":"http://hl7.org/fhir/us/core/StructureDefinition/us-core-ethnicity","extension":[{"url":"ombCategory","valueCoding":{"system":"urn:oid:2.16.840.1.113883.6.238","code":"2186-5","display":"Not Hispanic or Latino","userSelected":true}},{"url":"text","valueString":"Not Hispanic or Latino"}]}],"identifier":[{"type":{"coding":[{"system":"http://terminology.hl7.org/CodeSystem/v2-0203","code":"MR"}]},"system":"https://bonnie-fhir.healthit.gov/","value":"60f82c2e98086b570510e269"}],"active":true,"name":[{"use":"usual","family":"DENEXCEPPass","given":["MedAdmMedReason_eq1dayduringEncIP"]}],"gender":"female","birthDate":"1976-09-26"},"request":{"method":"PUT","url":"Patient/7ddb2db9-020e-45b1-aaf5-2fbcf281d6b8"}},{"resource":{"resourceType":"Encounter","id":"e300fef4-596f-49fb-beab-6882fdd390f2","meta":{"profile":["http://hl7.org/fhir/us/qicore/StructureDefinition/qicore-encounter"]},"status":"finished","class":{"system":"http://terminology.hl7.org/CodeSystem/v3-ActCode","code":"IMP","display":"inpatient encounter","userSelected":true},"type":[{"coding":[{"system":"http://snomed.info/sct","code":"32485007"}]}],"subject":{"reference":"Patient/7ddb2db9-020e-45b1-aaf5-2fbcf281d6b8"},"period":{"start":"2026-10-10T09:00:00Z","end":"2026-10-12T11:15:00.000+00:00"},"length":{"value":2,"unit":"days"},"reasonReference":[{"reference":"Condition/2cf5bc88-1290-4c9b-97b5-5479b93aee4a"}]},"request":{"method":"PUT","url":"Encounter/e300fef4-596f-49fb-beab-6882fdd390f2"}},{"resource":{"resourceType":"MedicationAdministration","id":"712253fe-b72c-4654-b565-485b3d14555e","meta":{"profile":["http://hl7.org/fhir/us/qicore/StructureDefinition/qicore-medicationadministrationnotdone"]},"extension":[{"url":"http://hl7.org/fhir/us/qicore/StructureDefinition/qicore-recorded","valueDateTime":"2026-10-11T09:00:00Z"}],"status":"not-done","statusReason":[{"coding":[{"system":"http://snomed.info/sct","code":"183932001","display":"Procedure contraindicated (situation)"}]}],"medicationCodeableConcept":{"coding":[{"system":"http://www.nlm.nih.gov/research/umls/rxnorm","code":"198466"},{"system":"http://www.nlm.nih.gov/research/umls/rxnorm","code":"1037045"}]},"subject":{"reference":"Patient/7ddb2db9-020e-45b1-aaf5-2fbcf281d6b8"},"effectivePeriod":{"start":"2026-10-11T09:00:00Z"}},"request":{"method":"PUT","url":"MedicationAdministration/712253fe-b72c-4654-b565-485b3d14555e"}},{"resource":{"resourceType":"Claim","id":"5ca62962b8484628b8de1ec5","meta":{"profile":["http://hl7.org/fhir/us/qicore/StructureDefinition/qicore-claim"]},"status":"active","type":{"coding":[{"system":"http://terminology.hl7.org/CodeSystem/claim-type","code":"institutional"}]},"use":"claim","patient":{"reference":"Patient/d170a0a8-b5ad-4303-b6df-e304dd5f92ad"},"created":"2026-12-01","provider":{"reference":"Practitioner/practitioner-123456"},"priority":{"coding":[{"system":"http://terminology.hl7.org/CodeSystem/processpriority","code":"normal"}]},"diagnosis":[{"sequence":1,"diagnosisCodeableConcept":{"coding":[{"system":"http://hl7.org/fhir/sid/icd-10-cm","code":"I63.00"}]},"type":[{"coding":[{"system":"http://terminology.hl7.org/CodeSystem/ex-diagnosistype","code":"principal"}]}]}],"insurance":[{"sequence":1,"focal":true,"coverage":{"reference":"Coverage/5fa041661c76ba66d9959367"}}],"item":[{"sequence":1,"diagnosisSequence":[1],"productOrService":{"coding":[{"system":"http://terminology.hl7.org/CodeSystem/ex-USCLS","code":"99555"}]},"encounter":[{"reference":"Encounter/e300fef4-596f-49fb-beab-6882fdd390f2"}]}]},"request":{"method":"PUT","url":"Claim/5ca62962b8484628b8de1ec5"}}]}