{"resourceType":"Bundle","id":"tests-eafd6c1f-c099-48b8-8101-b24b4a49cd0b-bundle","type":"transaction","entry":[{"resource":{"resourceType":"Condition","id":"fb4dd46c-acd9-4b33-ac88-2c3e454e3e6b","meta":{"profile":["http://hl7.org/fhir/us/qicore/StructureDefinition/qicore-condition-encounter-diagnosis"]},"clinicalStatus":{"coding":[{"system":"http://terminology.hl7.org/CodeSystem/condition-clinical","code":"active"}]},"verificationStatus":{"coding":[{"system":"http://terminology.hl7.org/CodeSystem/condition-ver-status","code":"confirmed"}]},"category":[{"coding":[{"system":"http://terminology.hl7.org/CodeSystem/condition-category","code":"encounter-diagnosis","display":"Encounter Diagnosis"}]}],"code":{"coding":[{"system":"http://snomed.info/sct","version":"2020-09","code":"111297002","display":"Nonparalytic stroke (disorder)","userSelected":true}]},"subject":{"reference":"Patient/eafd6c1f-c099-48b8-8101-b24b4a49cd0b"},"encounter":{"reference":"Encounter/c46f8be6-9d18-43a5-a968-8be780d6d480"},"recordedDate":"2026-08-13T08:00:00Z"},"request":{"method":"PUT","url":"Condition/fb4dd46c-acd9-4b33-ac88-2c3e454e3e6b"}},{"resource":{"resourceType":"Condition","id":"90861477-1304-46b9-89f2-03a791fbe1ee","meta":{"profile":["http://hl7.org/fhir/us/qicore/StructureDefinition/qicore-condition-problems-health-concerns"]},"clinicalStatus":{"coding":[{"system":"http://terminology.hl7.org/CodeSystem/condition-clinical","code":"active","display":"Active","userSelected":true}]},"verificationStatus":{"coding":[{"system":"http://terminology.hl7.org/CodeSystem/condition-ver-status","code":"confirmed","display":"Confirmed","userSelected":true}]},"category":[{"coding":[{"system":"http://terminology.hl7.org/CodeSystem/condition-category","code":"encounter-diagnosis","display":"Encounter Diagnosis"}]}],"code":{"coding":[{"system":"http://hl7.org/fhir/sid/icd-10-cm","code":"Z92.82"}]},"subject":{"reference":"Patient/eafd6c1f-c099-48b8-8101-b24b4a49cd0b"},"encounter":{"reference":"Encounter/c46f8be6-9d18-43a5-a968-8be780d6d480"},"onsetDateTime":"2026-10-10T06:16:00Z","recordedDate":"2026-10-11T06:15:00.000+00:00"},"request":{"method":"PUT","url":"Condition/90861477-1304-46b9-89f2-03a791fbe1ee"}},{"resource":{"resourceType":"Organization","id":"565db30e-3959-4b95-a174-97164c7dbb5a","meta":{"profile":["http://hl7.org/fhir/us/qicore/StructureDefinition/qicore-organization"]},"identifier":[{"use":"temp","system":"urn:oid:2.16.840.1.113883.4.4","value":"21-3259825"}],"active":true,"type":[{"coding":[{"system":"http://terminology.hl7.org/CodeSystem/organization-type","code":"pay","display":"Payer"}]}],"name":"Blue Cross Blue Shield of Texas","telecom":[{"system":"phone","value":"(+1) 972-766-6900"}],"address":[{"use":"billing","type":"postal","line":["P.O. Box 660044"],"city":"Dallas","state":"TX","postalCode":"75266-0044","country":"USA"}]},"request":{"method":"PUT","url":"Organization/565db30e-3959-4b95-a174-97164c7dbb5a"}},{"resource":{"resourceType":"Practitioner","id":"d07c449a-b5da-466a-986d-553ede1b41ad","identifier":[{"system":"http://hl7.org/fhir/sid/us-npi","value":"123456"}],"name":[{"family":"Evil","prefix":["Dr"]}]},"request":{"method":"PUT","url":"Practitioner/d07c449a-b5da-466a-986d-553ede1b41ad"}},{"resource":{"resourceType":"Coverage","id":"b00428e2-c209-472f-ba2c-ab9ec82e73d6","meta":{"profile":["http://hl7.org/fhir/us/qicore/StructureDefinition/qicore-coverage"]},"status":"active","type":{"coding":[{"system":"https://nahdo.org/sopt","code":"1","display":"MEDICARE"}]},"subscriberId":"523435","beneficiary":{"reference":"Patient/eafd6c1f-c099-48b8-8101-b24b4a49cd0b"},"relationship":{"coding":[{"system":"http://terminology.hl7.org/CodeSystem/subscriber-relationship","code":"self"}]},"period":{"start":"1976-09-26T08:00:00Z"},"payor":[{"reference":"Organization/565db30e-3959-4b95-a174-97164c7dbb5a"}]},"request":{"method":"PUT","url":"Coverage/b00428e2-c209-472f-ba2c-ab9ec82e73d6"}},{"resource":{"resourceType":"Bundle","id":"60f82c2f98086b570510e29b","type":"transaction","entry":[{"fullUrl":"https://madie.cms.gov/Patient/eafd6c1f-c099-48b8-8101-b24b4a49cd0b","resource":{"resourceType":"Patient","id":"eafd6c1f-c099-48b8-8101-b24b4a49cd0b","meta":{"profile":["http://hl7.org/fhir/us/qicore/StructureDefinition/qicore-patient"]},"text":{"status":"generated","div":"<div xmlns=\"http://www.w3.org/1999/xhtml\"><div class=\"hapiHeaderText\">TPADocumentDurEncStart <b>DENEXPASS </b></div><table class=\"hapiPropertyTable\"><tbody><tr><td>Identifier</td><td>5981f557d06c41b4b186d8d3a5e5beb330864a8389842b2eb20afd1fb0cd01de</td></tr><tr><td>Date of birth</td><td><span>26 September 1975</span></td></tr></tbody></table></div>"},"extension":[{"url":"http://hl7.org/fhir/us/core/StructureDefinition/us-core-race","extension":[{"url":"ombCategory","valueCoding":{"system":"urn:oid:2.16.840.1.113883.6.238","code":"2054-5","display":"Black or African American","userSelected":true}},{"url":"text","valueString":"Black or African American"}]},{"url":"http://hl7.org/fhir/us/core/StructureDefinition/us-core-ethnicity","extension":[{"url":"ombCategory","valueCoding":{"system":"urn:oid:2.16.840.1.113883.6.238","code":"2186-5","display":"Not Hispanic or Latino","userSelected":true}},{"url":"text","valueString":"Not Hispanic or Latino"}]}],"identifier":[{"type":{"coding":[{"system":"http://terminology.hl7.org/CodeSystem/v2-0203","code":"MR"}]},"system":"https://bonnie-fhir.healthit.gov/","value":"60f82c2f98086b570510e29b"}],"active":true,"name":[{"use":"usual","family":"DENEXPass","given":["TPADocumentDurEncStart"]}],"gender":"female","birthDate":"1976-09-26"},"request":{"method":"PUT","url":"Patient/eafd6c1f-c099-48b8-8101-b24b4a49cd0b"}},{"fullUrl":"https://madie.cms.gov/Condition/90861477-1304-46b9-89f2-03a791fbe1ee","resource":{"resourceType":"Condition","id":"90861477-1304-46b9-89f2-03a791fbe1ee","meta":{"profile":["http://hl7.org/fhir/us/qicore/StructureDefinition/qicore-condition-problems-health-concerns"]},"clinicalStatus":{"coding":[{"system":"http://terminology.hl7.org/CodeSystem/condition-clinical","code":"active","display":"Active","userSelected":true}]},"verificationStatus":{"coding":[{"system":"http://terminology.hl7.org/CodeSystem/condition-ver-status","code":"confirmed","display":"Confirmed","userSelected":true}]},"category":[{"coding":[{"system":"http://terminology.hl7.org/CodeSystem/condition-category","code":"encounter-diagnosis","display":"Encounter Diagnosis"}]}],"code":{"coding":[{"system":"http://hl7.org/fhir/sid/icd-10-cm","code":"Z92.82"}]},"subject":{"reference":"Patient/eafd6c1f-c099-48b8-8101-b24b4a49cd0b"},"encounter":{"reference":"Encounter/c46f8be6-9d18-43a5-a968-8be780d6d480"},"onsetDateTime":"2026-10-10T06:16:00Z","recordedDate":"2026-10-11T06:15:00.000+00:00"},"request":{"method":"PUT","url":"Condition/90861477-1304-46b9-89f2-03a791fbe1ee"}},{"fullUrl":"https://madie.cms.gov/Encounter/c46f8be6-9d18-43a5-a968-8be780d6d480","resource":{"resourceType":"Encounter","id":"c46f8be6-9d18-43a5-a968-8be780d6d480","meta":{"profile":["http://hl7.org/fhir/us/qicore/StructureDefinition/qicore-encounter"]},"status":"finished","class":{"system":"http://terminology.hl7.org/CodeSystem/v3-ActCode","code":"IMP","display":"inpatient encounter"},"type":[{"coding":[{"system":"http://snomed.info/sct","code":"32485007"}]}],"subject":{"reference":"Patient/eafd6c1f-c099-48b8-8101-b24b4a49cd0b"},"period":{"start":"2026-10-10T06:15:00Z","end":"2026-10-24T11:30:00.000+00:00"},"length":{"value":14,"unit":"days"},"reasonReference":[{"reference":"Condition/90861477-1304-46b9-89f2-03a791fbe1ee"}]},"request":{"method":"PUT","url":"Encounter/c46f8be6-9d18-43a5-a968-8be780d6d480"}},{"fullUrl":"https://madie.cms.gov/Coverage/b00428e2-c209-472f-ba2c-ab9ec82e73d6","resource":{"resourceType":"Coverage","id":"b00428e2-c209-472f-ba2c-ab9ec82e73d6","meta":{"profile":["http://hl7.org/fhir/us/qicore/StructureDefinition/qicore-coverage"]},"status":"active","type":{"coding":[{"system":"https://nahdo.org/sopt","code":"1","display":"MEDICARE"}]},"subscriberId":"523435","beneficiary":{"reference":"Patient/eafd6c1f-c099-48b8-8101-b24b4a49cd0b"},"relationship":{"coding":[{"system":"http://terminology.hl7.org/CodeSystem/subscriber-relationship","code":"self"}]},"period":{"start":"1976-09-26T08:00:00Z"},"payor":[{"reference":"Organization/565db30e-3959-4b95-a174-97164c7dbb5a"}]},"request":{"method":"PUT","url":"Coverage/b00428e2-c209-472f-ba2c-ab9ec82e73d6"}},{"fullUrl":"https://madie.cms.gov/Condition/fb4dd46c-acd9-4b33-ac88-2c3e454e3e6b","resource":{"resourceType":"Condition","id":"fb4dd46c-acd9-4b33-ac88-2c3e454e3e6b","meta":{"profile":["http://hl7.org/fhir/us/qicore/StructureDefinition/qicore-condition-encounter-diagnosis"]},"clinicalStatus":{"coding":[{"system":"http://terminology.hl7.org/CodeSystem/condition-clinical","code":"active"}]},"verificationStatus":{"coding":[{"system":"http://terminology.hl7.org/CodeSystem/condition-ver-status","code":"confirmed"}]},"category":[{"coding":[{"system":"http://terminology.hl7.org/CodeSystem/condition-category","code":"encounter-diagnosis","display":"Encounter Diagnosis"}]}],"code":{"coding":[{"system":"http://snomed.info/sct","version":"2020-09","code":"111297002","display":"Nonparalytic stroke (disorder)","userSelected":true}]},"subject":{"reference":"Patient/eafd6c1f-c099-48b8-8101-b24b4a49cd0b"},"encounter":{"reference":"Encounter/c46f8be6-9d18-43a5-a968-8be780d6d480"},"recordedDate":"2026-08-13T08:00:00Z"},"request":{"method":"PUT","url":"Condition/fb4dd46c-acd9-4b33-ac88-2c3e454e3e6b"}},{"fullUrl":"https://madie.cms.gov/claim/5ca62962b8484628b8de1ec5","resource":{"resourceType":"Claim","id":"5ca62962b8484628b8de1ec5","meta":{"profile":["http://hl7.org/fhir/us/qicore/StructureDefinition/qicore-claim"]},"status":"active","type":{"coding":[{"system":"http://terminology.hl7.org/CodeSystem/claim-type","code":"institutional"}]},"use":"claim","patient":{"reference":"Patient/5450abfd-a667-4eb9-9b59-e85feed4865c"},"created":"2026-12-01","provider":{"reference":"Practitioner/d07c449a-b5da-466a-986d-553ede1b41ad"},"priority":{"coding":[{"system":"http://terminology.hl7.org/CodeSystem/processpriority","code":"normal"}]},"diagnosis":[{"sequence":1,"diagnosisCodeableConcept":{"coding":[{"system":"http://hl7.org/fhir/sid/icd-10-cm","code":"I63.00"}]},"type":[{"coding":[{"system":"http://terminology.hl7.org/CodeSystem/ex-diagnosistype","code":"principal"}]}]}],"insurance":[{"sequence":1,"focal":true,"coverage":{"reference":"Coverage/5fa041661c76ba66d9959367"}}],"item":[{"sequence":1,"diagnosisSequence":[1],"productOrService":{"coding":[{"system":"http://terminology.hl7.org/CodeSystem/ex-USCLS","code":"99555"}]},"encounter":[{"reference":"Encounter/c46f8be6-9d18-43a5-a968-8be780d6d480"}]}]},"request":{"method":"PUT","url":"Claim/5ca62962b8484628b8de1ec5"}},{"fullUrl":"https://madie.cms.gov/Organization/565db30e-3959-4b95-a174-97164c7dbb5a","resource":{"resourceType":"Organization","id":"565db30e-3959-4b95-a174-97164c7dbb5a","meta":{"profile":["http://hl7.org/fhir/us/qicore/StructureDefinition/qicore-organization"]},"identifier":[{"use":"temp","system":"urn:oid:2.16.840.1.113883.4.4","value":"21-3259825"}],"active":true,"type":[{"coding":[{"system":"http://terminology.hl7.org/CodeSystem/organization-type","code":"pay","display":"Payer"}]}],"name":"Blue Cross Blue Shield of Texas","telecom":[{"system":"phone","value":"(+1) 972-766-6900"}],"address":[{"use":"billing","type":"postal","line":["P.O. Box 660044"],"city":"Dallas","state":"TX","postalCode":"75266-0044","country":"USA"}]},"request":{"method":"PUT","url":"Organization/565db30e-3959-4b95-a174-97164c7dbb5a"}},{"fullUrl":"https://madie.cms.gov/Practitioner/d07c449a-b5da-466a-986d-553ede1b41ad","resource":{"resourceType":"Practitioner","id":"d07c449a-b5da-466a-986d-553ede1b41ad","identifier":[{"system":"http://hl7.org/fhir/sid/us-npi","value":"123456"}],"name":[{"family":"Evil","prefix":["Dr"]}]},"request":{"method":"PUT","url":"Practitioner/d07c449a-b5da-466a-986d-553ede1b41ad"}},{"fullUrl":"https://madie.cms.gov/MeasureReport/cb4f9c68-a82c-45a3-b8c1-7e4bb57b2a69","resource":{"resourceType":"MeasureReport","id":"cb4f9c68-a82c-45a3-b8c1-7e4bb57b2a69","meta":{"profile":["http://hl7.org/fhir/us/cqfmeasures/StructureDefinition/test-case-cqfm"]},"contained":[{"resourceType":"Parameters","id":"412d2dd2-76cc-42f6-babe-981aa63cf838-parameters","parameter":[{"name":"subject","valueString":"eafd6c1f-c099-48b8-8101-b24b4a49cd0b"}]}],"extension":[{"url":"http://hl7.org/fhir/StructureDefinition/cqf-inputParameters","valueReference":{"reference":"#412d2dd2-76cc-42f6-babe-981aa63cf838-parameters"}},{"url":"http://hl7.org/fhir/us/cqfmeasures/StructureDefinition/cqfm-testCaseDescription","valueMarkdown":"Added Type for Coverage"}],"modifierExtension":[{"url":"http://hl7.org/fhir/us/cqfmeasures/StructureDefinition/cqfm-isTestCase","valueBoolean":true}],"status":"complete","type":"individual","measure":"https://madie.cms.gov/Measure/CMS72FHIRSTKAntithromboticDay2","period":{"start":"2026-01-01","end":"2026-12-31"},"group":[{"id":"Group_1","population":[{"id":"InitialPopulation_1","code":{"coding":[{"system":"http://terminology.hl7.org/CodeSystem/measure-population","code":"initial-population","display":"Initial Population"}]},"count":1},{"id":"Denominator_1","code":{"coding":[{"system":"http://terminology.hl7.org/CodeSystem/measure-population","code":"denominator","display":"Denominator"}]},"count":1},{"id":"DenominatorExclusion_1","code":{"coding":[{"system":"http://terminology.hl7.org/CodeSystem/measure-population","code":"denominator-exclusion","display":"Denominator Exclusion"}]},"count":1},{"id":"Numerator_1","code":{"coding":[{"system":"http://terminology.hl7.org/CodeSystem/measure-population","code":"numerator","display":"Numerator"}]},"count":0},{"id":"DenominatorException_1","code":{"coding":[{"system":"http://terminology.hl7.org/CodeSystem/measure-population","code":"denominator-exception","display":"Denominator Exception"}]},"count":0}],"measureScore":{"value":0.0}}],"evaluatedResource":[{"reference":"Patient/eafd6c1f-c099-48b8-8101-b24b4a49cd0b"},{"reference":"Condition/90861477-1304-46b9-89f2-03a791fbe1ee"},{"reference":"Encounter/c46f8be6-9d18-43a5-a968-8be780d6d480"},{"reference":"Coverage/b00428e2-c209-472f-ba2c-ab9ec82e73d6"},{"reference":"Condition/fb4dd46c-acd9-4b33-ac88-2c3e454e3e6b"},{"reference":"Claim/5ca62962b8484628b8de1ec5"},{"reference":"Organization/565db30e-3959-4b95-a174-97164c7dbb5a"},{"reference":"Practitioner/d07c449a-b5da-466a-986d-553ede1b41ad"}]},"request":{"method":"PUT","url":"MeasureReport/cb4f9c68-a82c-45a3-b8c1-7e4bb57b2a69"}}]},"request":{"method":"PUT","url":"Bundle/60f82c2f98086b570510e29b"}},{"resource":{"resourceType":"MeasureReport","id":"cb4f9c68-a82c-45a3-b8c1-7e4bb57b2a69","meta":{"profile":["http://hl7.org/fhir/us/cqfmeasures/StructureDefinition/test-case-cqfm"]},"contained":[{"resourceType":"Parameters","id":"412d2dd2-76cc-42f6-babe-981aa63cf838-parameters","parameter":[{"name":"subject","valueString":"eafd6c1f-c099-48b8-8101-b24b4a49cd0b"}]}],"extension":[{"url":"http://hl7.org/fhir/StructureDefinition/cqf-inputParameters","valueReference":{"reference":"#412d2dd2-76cc-42f6-babe-981aa63cf838-parameters"}},{"url":"http://hl7.org/fhir/us/cqfmeasures/StructureDefinition/cqfm-testCaseDescription","valueMarkdown":"Added Type for Coverage"}],"modifierExtension":[{"url":"http://hl7.org/fhir/us/cqfmeasures/StructureDefinition/cqfm-isTestCase","valueBoolean":true}],"status":"complete","type":"individual","measure":"https://madie.cms.gov/Measure/CMS72FHIRSTKAntithromboticDay2","period":{"start":"2026-01-01","end":"2026-12-31"},"group":[{"id":"Group_1","population":[{"id":"InitialPopulation_1","code":{"coding":[{"system":"http://terminology.hl7.org/CodeSystem/measure-population","code":"initial-population","display":"Initial Population"}]},"count":1},{"id":"Denominator_1","code":{"coding":[{"system":"http://terminology.hl7.org/CodeSystem/measure-population","code":"denominator","display":"Denominator"}]},"count":1},{"id":"DenominatorExclusion_1","code":{"coding":[{"system":"http://terminology.hl7.org/CodeSystem/measure-population","code":"denominator-exclusion","display":"Denominator Exclusion"}]},"count":1},{"id":"Numerator_1","code":{"coding":[{"system":"http://terminology.hl7.org/CodeSystem/measure-population","code":"numerator","display":"Numerator"}]},"count":0},{"id":"DenominatorException_1","code":{"coding":[{"system":"http://terminology.hl7.org/CodeSystem/measure-population","code":"denominator-exception","display":"Denominator Exception"}]},"count":0}],"measureScore":{"value":0.0}}],"evaluatedResource":[{"reference":"Patient/eafd6c1f-c099-48b8-8101-b24b4a49cd0b"},{"reference":"Condition/90861477-1304-46b9-89f2-03a791fbe1ee"},{"reference":"Encounter/c46f8be6-9d18-43a5-a968-8be780d6d480"},{"reference":"Coverage/b00428e2-c209-472f-ba2c-ab9ec82e73d6"},{"reference":"Condition/fb4dd46c-acd9-4b33-ac88-2c3e454e3e6b"},{"reference":"Claim/5ca62962b8484628b8de1ec5"},{"reference":"Organization/565db30e-3959-4b95-a174-97164c7dbb5a"},{"reference":"Practitioner/d07c449a-b5da-466a-986d-553ede1b41ad"}]},"request":{"method":"PUT","url":"MeasureReport/cb4f9c68-a82c-45a3-b8c1-7e4bb57b2a69"}},{"resource":{"resourceType":"Patient","id":"eafd6c1f-c099-48b8-8101-b24b4a49cd0b","meta":{"profile":["http://hl7.org/fhir/us/qicore/StructureDefinition/qicore-patient"]},"text":{"status":"generated","div":"<div xmlns=\"http://www.w3.org/1999/xhtml\"><div class=\"hapiHeaderText\">TPADocumentDurEncStart <b>DENEXPASS </b></div><table class=\"hapiPropertyTable\"><tbody><tr><td>Identifier</td><td>5981f557d06c41b4b186d8d3a5e5beb330864a8389842b2eb20afd1fb0cd01de</td></tr><tr><td>Date of birth</td><td><span>26 September 1975</span></td></tr></tbody></table></div>"},"extension":[{"url":"http://hl7.org/fhir/us/core/StructureDefinition/us-core-race","extension":[{"url":"ombCategory","valueCoding":{"system":"urn:oid:2.16.840.1.113883.6.238","code":"2054-5","display":"Black or African American","userSelected":true}},{"url":"text","valueString":"Black or African American"}]},{"url":"http://hl7.org/fhir/us/core/StructureDefinition/us-core-ethnicity","extension":[{"url":"ombCategory","valueCoding":{"system":"urn:oid:2.16.840.1.113883.6.238","code":"2186-5","display":"Not Hispanic or Latino","userSelected":true}},{"url":"text","valueString":"Not Hispanic or Latino"}]}],"identifier":[{"type":{"coding":[{"system":"http://terminology.hl7.org/CodeSystem/v2-0203","code":"MR"}]},"system":"https://bonnie-fhir.healthit.gov/","value":"60f82c2f98086b570510e29b"}],"active":true,"name":[{"use":"usual","family":"DENEXPass","given":["TPADocumentDurEncStart"]}],"gender":"female","birthDate":"1976-09-26"},"request":{"method":"PUT","url":"Patient/eafd6c1f-c099-48b8-8101-b24b4a49cd0b"}},{"resource":{"resourceType":"Encounter","id":"c46f8be6-9d18-43a5-a968-8be780d6d480","meta":{"profile":["http://hl7.org/fhir/us/qicore/StructureDefinition/qicore-encounter"]},"status":"finished","class":{"system":"http://terminology.hl7.org/CodeSystem/v3-ActCode","code":"IMP","display":"inpatient encounter"},"type":[{"coding":[{"system":"http://snomed.info/sct","code":"32485007"}]}],"subject":{"reference":"Patient/eafd6c1f-c099-48b8-8101-b24b4a49cd0b"},"period":{"start":"2026-10-10T06:15:00Z","end":"2026-10-24T11:30:00.000+00:00"},"length":{"value":14,"unit":"days"},"reasonReference":[{"reference":"Condition/90861477-1304-46b9-89f2-03a791fbe1ee"}]},"request":{"method":"PUT","url":"Encounter/c46f8be6-9d18-43a5-a968-8be780d6d480"}},{"resource":{"resourceType":"Claim","id":"5ca62962b8484628b8de1ec5","meta":{"profile":["http://hl7.org/fhir/us/qicore/StructureDefinition/qicore-claim"]},"status":"active","type":{"coding":[{"system":"http://terminology.hl7.org/CodeSystem/claim-type","code":"institutional"}]},"use":"claim","patient":{"reference":"Patient/5450abfd-a667-4eb9-9b59-e85feed4865c"},"created":"2026-12-01","provider":{"reference":"Practitioner/d07c449a-b5da-466a-986d-553ede1b41ad"},"priority":{"coding":[{"system":"http://terminology.hl7.org/CodeSystem/processpriority","code":"normal"}]},"diagnosis":[{"sequence":1,"diagnosisCodeableConcept":{"coding":[{"system":"http://hl7.org/fhir/sid/icd-10-cm","code":"I63.00"}]},"type":[{"coding":[{"system":"http://terminology.hl7.org/CodeSystem/ex-diagnosistype","code":"principal"}]}]}],"insurance":[{"sequence":1,"focal":true,"coverage":{"reference":"Coverage/5fa041661c76ba66d9959367"}}],"item":[{"sequence":1,"diagnosisSequence":[1],"productOrService":{"coding":[{"system":"http://terminology.hl7.org/CodeSystem/ex-USCLS","code":"99555"}]},"encounter":[{"reference":"Encounter/c46f8be6-9d18-43a5-a968-8be780d6d480"}]}]},"request":{"method":"PUT","url":"Claim/5ca62962b8484628b8de1ec5"}}]}