{"resourceType":"Bundle","id":"tests-0ccb9c3c-d834-4769-a68a-6b01ce1e868e-bundle","type":"transaction","entry":[{"resource":{"resourceType":"Organization","id":"1085cdee-df99-46ca-a619-1aa556bf3442","meta":{"profile":["http://hl7.org/fhir/us/qicore/StructureDefinition/qicore-organization"]},"identifier":[{"use":"temp","system":"urn:oid:2.16.840.1.113883.4.4","value":"21-3259825"}],"active":true,"type":[{"coding":[{"system":"http://terminology.hl7.org/CodeSystem/organization-type","code":"pay","display":"Payer"}]}],"name":"Blue Cross Blue Shield of Texas","telecom":[{"system":"phone","value":"(+1) 972-766-6900"}],"address":[{"use":"billing","type":"postal","line":["P.O. Box 660044"],"city":"Dallas","state":"TX","postalCode":"75266-0044","country":"USA"}]},"request":{"method":"PUT","url":"Organization/1085cdee-df99-46ca-a619-1aa556bf3442"}},{"resource":{"resourceType":"Condition","id":"f31bb0ec-ce1e-495a-8e7d-5fd4b21d229a","meta":{"profile":["http://hl7.org/fhir/us/qicore/StructureDefinition/qicore-condition-encounter-diagnosis"]},"clinicalStatus":{"coding":[{"system":"http://terminology.hl7.org/CodeSystem/condition-clinical","code":"active"}]},"verificationStatus":{"coding":[{"system":"http://terminology.hl7.org/CodeSystem/condition-ver-status","code":"confirmed"}]},"category":[{"coding":[{"system":"http://terminology.hl7.org/CodeSystem/condition-category","code":"encounter-diagnosis","display":"Encounter Diagnosis"}]}],"code":{"coding":[{"system":"http://snomed.info/sct","version":"2020-09","code":"111297002","display":"Nonparalytic stroke (disorder)","userSelected":true}]},"subject":{"reference":"Patient/0ccb9c3c-d834-4769-a68a-6b01ce1e868e"},"recordedDate":"2026-08-13T08:00:00Z"},"request":{"method":"PUT","url":"Condition/f31bb0ec-ce1e-495a-8e7d-5fd4b21d229a"}},{"resource":{"resourceType":"Bundle","id":"60f82c3098086b570510e2e3","type":"transaction","entry":[{"fullUrl":"https://madie.cms.gov/Patient/0ccb9c3c-d834-4769-a68a-6b01ce1e868e","resource":{"resourceType":"Patient","id":"0ccb9c3c-d834-4769-a68a-6b01ce1e868e","meta":{"profile":["http://hl7.org/fhir/us/qicore/StructureDefinition/qicore-patient"]},"text":{"status":"generated","div":"<div xmlns=\"http://www.w3.org/1999/xhtml\"><div class=\"hapiHeaderText\">CMP_DayOf_RelvDat_1minAftIPEnd_EDEndLT1hrB4Obs_ObsEndLT1hrB4IP <b>DENEXPASS </b></div><table class=\"hapiPropertyTable\"><tbody><tr><td>Date of birth</td><td><span>01 January 1980</span></td></tr></tbody></table></div>"},"extension":[{"url":"http://hl7.org/fhir/us/core/StructureDefinition/us-core-race","extension":[{"url":"ombCategory","valueCoding":{"system":"urn:oid:2.16.840.1.113883.6.238","code":"2106-3","display":"White","userSelected":true}},{"url":"text","valueString":"White"}]},{"url":"http://hl7.org/fhir/us/core/StructureDefinition/us-core-ethnicity","extension":[{"url":"ombCategory","valueCoding":{"system":"urn:oid:2.16.840.1.113883.6.238","code":"2186-5","display":"Not Hispanic or Latino","userSelected":true}},{"url":"text","valueString":"Not Hispanic or Latino"}]}],"identifier":[{"type":{"coding":[{"system":"http://terminology.hl7.org/CodeSystem/v2-0203","code":"MR"}]},"system":"https://bonnie-fhir.healthit.gov/","value":"60f82c3098086b570510e2e3"}],"active":true,"name":[{"use":"usual","family":"DENEXPass","given":["CMP_DayOf_RelvDat_1minAftIPEnd_EDEndLT1hrB4Obs_ObsEndLT1hrB4IP"]}],"gender":"female","birthDate":"1981-01-01"},"request":{"method":"PUT","url":"Patient/0ccb9c3c-d834-4769-a68a-6b01ce1e868e"}},{"fullUrl":"https://madie.cms.gov/Encounter/2062040c-3578-4096-a929-40bd5d095a3e","resource":{"resourceType":"Encounter","id":"2062040c-3578-4096-a929-40bd5d095a3e","meta":{"profile":["http://hl7.org/fhir/us/qicore/StructureDefinition/qicore-encounter"]},"status":"finished","class":{"system":"http://terminology.hl7.org/CodeSystem/v3-ActCode","code":"EMER","display":"emergency","userSelected":true},"type":[{"coding":[{"system":"http://snomed.info/sct","code":"4525004"}]}],"subject":{"reference":"Patient/0ccb9c3c-d834-4769-a68a-6b01ce1e868e"},"period":{"start":"2026-11-18T07:00:00Z","end":"2026-11-18T08:01:00.000+00:00"},"diagnosis":[{"condition":{"reference":"Condition/f31bb0ec-ce1e-495a-8e7d-5fd4b21d229a"},"use":{"coding":[{"system":"http://terminology.hl7.org/CodeSystem/diagnosis-role","code":"billing","display":"Billing"}]},"rank":1}]},"request":{"method":"PUT","url":"Encounter/2062040c-3578-4096-a929-40bd5d095a3e"}},{"fullUrl":"https://madie.cms.gov/Encounter/6397bff5-d188-4186-bd4d-3fc013a5f319","resource":{"resourceType":"Encounter","id":"6397bff5-d188-4186-bd4d-3fc013a5f319","meta":{"profile":["http://hl7.org/fhir/us/qicore/StructureDefinition/qicore-encounter"]},"status":"finished","class":{"system":"http://terminology.hl7.org/CodeSystem/v3-ActCode","code":"OBSENC","display":"observation encounter","userSelected":true},"type":[{"coding":[{"system":"http://snomed.info/sct","code":"448951000124107"}]}],"subject":{"reference":"Patient/0ccb9c3c-d834-4769-a68a-6b01ce1e868e"},"period":{"start":"2026-11-18T09:00:00Z","end":"2026-11-18T10:01:00.000+00:00"}},"request":{"method":"PUT","url":"Encounter/6397bff5-d188-4186-bd4d-3fc013a5f319"}},{"fullUrl":"https://madie.cms.gov/Encounter/a79eb1ae-1e4b-4e5e-ab1d-3c0c5ea3d10d","resource":{"resourceType":"Encounter","id":"a79eb1ae-1e4b-4e5e-ab1d-3c0c5ea3d10d","meta":{"profile":["http://hl7.org/fhir/us/qicore/StructureDefinition/qicore-encounter"]},"status":"finished","class":{"system":"http://terminology.hl7.org/CodeSystem/v3-ActCode","code":"IMP","display":"inpatient encounter","userSelected":true},"type":[{"coding":[{"system":"http://snomed.info/sct","code":"183452005"}]}],"subject":{"reference":"Patient/0ccb9c3c-d834-4769-a68a-6b01ce1e868e"},"period":{"start":"2026-11-18T11:00:00Z","end":"2026-11-18T20:15:00.000+00:00"},"reasonReference":[{"reference":"Condition/f31bb0ec-ce1e-495a-8e7d-5fd4b21d229a"}]},"request":{"method":"PUT","url":"Encounter/a79eb1ae-1e4b-4e5e-ab1d-3c0c5ea3d10d"}},{"fullUrl":"https://madie.cms.gov/claim/5ca62962b8484628b8de1ec5","resource":{"resourceType":"Claim","id":"5ca62962b8484628b8de1ec5","meta":{"profile":["http://hl7.org/fhir/us/qicore/StructureDefinition/qicore-claim"]},"status":"active","type":{"coding":[{"system":"http://terminology.hl7.org/CodeSystem/claim-type","code":"institutional"}]},"use":"claim","patient":{"reference":"Patient/0ccb9c3c-d834-4769-a68a-6b01ce1e868e"},"created":"2026-12-01","provider":{"reference":"Practitioner/practitioner-123456"},"priority":{"coding":[{"system":"http://terminology.hl7.org/CodeSystem/processpriority","code":"normal"}]},"diagnosis":[{"sequence":1,"diagnosisCodeableConcept":{"coding":[{"system":"http://hl7.org/fhir/sid/icd-10-cm","code":"I63.00"}]},"type":[{"coding":[{"system":"http://terminology.hl7.org/CodeSystem/ex-diagnosistype","code":"principal"}]}]}],"insurance":[{"sequence":1,"focal":true,"coverage":{"reference":"Coverage/7c283765-968b-45cb-9aaf-3fde5782e1ca"}}],"item":[{"sequence":1,"diagnosisSequence":[1],"productOrService":{"coding":[{"system":"http://terminology.hl7.org/CodeSystem/ex-USCLS","code":"99555"}]},"encounter":[{"reference":"Encounter/a79eb1ae-1e4b-4e5e-ab1d-3c0c5ea3d10d"}]}]},"request":{"method":"PUT","url":"Claim/5ca62962b8484628b8de1ec5"}},{"fullUrl":"https://madie.cms.gov/Procedure/0115d793-6de1-4177-a134-5abe586a2064","resource":{"resourceType":"Procedure","id":"0115d793-6de1-4177-a134-5abe586a2064","meta":{"profile":["http://hl7.org/fhir/us/qicore/StructureDefinition/qicore-procedure"]},"extension":[{"url":"http://hl7.org/fhir/us/qicore/StructureDefinition/qicore-recorded","valueDateTime":"2026-11-18T11:00:00Z"}],"status":"completed","code":{"coding":[{"system":"http://snomed.info/sct","code":"133918004"}]},"subject":{"reference":"Patient/0ccb9c3c-d834-4769-a68a-6b01ce1e868e"},"performedPeriod":{"start":"2026-11-18T11:00:00Z","end":"2026-11-18T20:15:00.000+00:00"}},"request":{"method":"PUT","url":"Procedure/0115d793-6de1-4177-a134-5abe586a2064"}},{"fullUrl":"https://madie.cms.gov/Condition/f31bb0ec-ce1e-495a-8e7d-5fd4b21d229a","resource":{"resourceType":"Condition","id":"f31bb0ec-ce1e-495a-8e7d-5fd4b21d229a","meta":{"profile":["http://hl7.org/fhir/us/qicore/StructureDefinition/qicore-condition-encounter-diagnosis"]},"clinicalStatus":{"coding":[{"system":"http://terminology.hl7.org/CodeSystem/condition-clinical","code":"active"}]},"verificationStatus":{"coding":[{"system":"http://terminology.hl7.org/CodeSystem/condition-ver-status","code":"confirmed"}]},"category":[{"coding":[{"system":"http://terminology.hl7.org/CodeSystem/condition-category","code":"encounter-diagnosis","display":"Encounter Diagnosis"}]}],"code":{"coding":[{"system":"http://snomed.info/sct","version":"2020-09","code":"111297002","display":"Nonparalytic stroke (disorder)","userSelected":true}]},"subject":{"reference":"Patient/0ccb9c3c-d834-4769-a68a-6b01ce1e868e"},"recordedDate":"2026-08-13T08:00:00Z"},"request":{"method":"PUT","url":"Condition/f31bb0ec-ce1e-495a-8e7d-5fd4b21d229a"}},{"fullUrl":"https://madie.cms.gov/Coverage/7c283765-968b-45cb-9aaf-3fde5782e1ca","resource":{"resourceType":"Coverage","id":"7c283765-968b-45cb-9aaf-3fde5782e1ca","meta":{"profile":["http://hl7.org/fhir/us/qicore/StructureDefinition/qicore-coverage"]},"status":"active","beneficiary":{"reference":"Patient/0ccb9c3c-d834-4769-a68a-6b01ce1e868e"},"payor":[{"reference":"Organization/1085cdee-df99-46ca-a619-1aa556bf3442"}]},"request":{"method":"PUT","url":"Coverage/7c283765-968b-45cb-9aaf-3fde5782e1ca"}},{"fullUrl":"https://madie.cms.gov/Organization/1085cdee-df99-46ca-a619-1aa556bf3442","resource":{"resourceType":"Organization","id":"1085cdee-df99-46ca-a619-1aa556bf3442","meta":{"profile":["http://hl7.org/fhir/us/qicore/StructureDefinition/qicore-organization"]},"identifier":[{"use":"temp","system":"urn:oid:2.16.840.1.113883.4.4","value":"21-3259825"}],"active":true,"type":[{"coding":[{"system":"http://terminology.hl7.org/CodeSystem/organization-type","code":"pay","display":"Payer"}]}],"name":"Blue Cross Blue Shield of Texas","telecom":[{"system":"phone","value":"(+1) 972-766-6900"}],"address":[{"use":"billing","type":"postal","line":["P.O. Box 660044"],"city":"Dallas","state":"TX","postalCode":"75266-0044","country":"USA"}]},"request":{"method":"PUT","url":"Organization/1085cdee-df99-46ca-a619-1aa556bf3442"}},{"fullUrl":"https://madie.cms.gov/MeasureReport/e6ba5ba8-7b88-48f0-b54a-a37262177373","resource":{"resourceType":"MeasureReport","id":"e6ba5ba8-7b88-48f0-b54a-a37262177373","meta":{"profile":["http://hl7.org/fhir/us/cqfmeasures/StructureDefinition/test-case-cqfm"]},"contained":[{"resourceType":"Parameters","id":"11f9b0a5-5c02-4cc1-b4ce-df2ccb1e7a83-parameters","parameter":[{"name":"subject","valueString":"0ccb9c3c-d834-4769-a68a-6b01ce1e868e"}]}],"extension":[{"url":"http://hl7.org/fhir/StructureDefinition/cqf-inputParameters","valueReference":{"reference":"#11f9b0a5-5c02-4cc1-b4ce-df2ccb1e7a83-parameters"}},{"url":"http://hl7.org/fhir/us/cqfmeasures/StructureDefinition/cqfm-testCaseDescription","valueMarkdown":"Patient receives comfort measures performed on the day of hospital arrival, 1 minute after IP end. ED ends less than 1 hour before Obs Start, Obs ends less than 1 hour before IP start.\n"}],"modifierExtension":[{"url":"http://hl7.org/fhir/us/cqfmeasures/StructureDefinition/cqfm-isTestCase","valueBoolean":true}],"status":"complete","type":"individual","measure":"https://madie.cms.gov/Measure/CMS72FHIRSTKAntithromboticDay2","period":{"start":"2026-01-01","end":"2026-12-31"},"group":[{"id":"Group_1","population":[{"id":"InitialPopulation_1","code":{"coding":[{"system":"http://terminology.hl7.org/CodeSystem/measure-population","code":"initial-population","display":"Initial Population"}]},"count":1},{"id":"Denominator_1","code":{"coding":[{"system":"http://terminology.hl7.org/CodeSystem/measure-population","code":"denominator","display":"Denominator"}]},"count":1},{"id":"DenominatorExclusion_1","code":{"coding":[{"system":"http://terminology.hl7.org/CodeSystem/measure-population","code":"denominator-exclusion","display":"Denominator Exclusion"}]},"count":1},{"id":"Numerator_1","code":{"coding":[{"system":"http://terminology.hl7.org/CodeSystem/measure-population","code":"numerator","display":"Numerator"}]},"count":0},{"id":"DenominatorException_1","code":{"coding":[{"system":"http://terminology.hl7.org/CodeSystem/measure-population","code":"denominator-exception","display":"Denominator Exception"}]},"count":0}],"measureScore":{"value":0.0}}],"evaluatedResource":[{"reference":"Patient/0ccb9c3c-d834-4769-a68a-6b01ce1e868e"},{"reference":"Encounter/2062040c-3578-4096-a929-40bd5d095a3e"},{"reference":"Encounter/6397bff5-d188-4186-bd4d-3fc013a5f319"},{"reference":"Encounter/a79eb1ae-1e4b-4e5e-ab1d-3c0c5ea3d10d"},{"reference":"Claim/5ca62962b8484628b8de1ec5"},{"reference":"Procedure/0115d793-6de1-4177-a134-5abe586a2064"},{"reference":"Condition/f31bb0ec-ce1e-495a-8e7d-5fd4b21d229a"},{"reference":"Coverage/7c283765-968b-45cb-9aaf-3fde5782e1ca"},{"reference":"Organization/1085cdee-df99-46ca-a619-1aa556bf3442"}]},"request":{"method":"PUT","url":"MeasureReport/e6ba5ba8-7b88-48f0-b54a-a37262177373"}}]},"request":{"method":"PUT","url":"Bundle/60f82c3098086b570510e2e3"}},{"resource":{"resourceType":"Coverage","id":"7c283765-968b-45cb-9aaf-3fde5782e1ca","meta":{"profile":["http://hl7.org/fhir/us/qicore/StructureDefinition/qicore-coverage"]},"status":"active","beneficiary":{"reference":"Patient/0ccb9c3c-d834-4769-a68a-6b01ce1e868e"},"payor":[{"reference":"Organization/1085cdee-df99-46ca-a619-1aa556bf3442"}]},"request":{"method":"PUT","url":"Coverage/7c283765-968b-45cb-9aaf-3fde5782e1ca"}},{"resource":{"resourceType":"MeasureReport","id":"e6ba5ba8-7b88-48f0-b54a-a37262177373","meta":{"profile":["http://hl7.org/fhir/us/cqfmeasures/StructureDefinition/test-case-cqfm"]},"contained":[{"resourceType":"Parameters","id":"11f9b0a5-5c02-4cc1-b4ce-df2ccb1e7a83-parameters","parameter":[{"name":"subject","valueString":"0ccb9c3c-d834-4769-a68a-6b01ce1e868e"}]}],"extension":[{"url":"http://hl7.org/fhir/StructureDefinition/cqf-inputParameters","valueReference":{"reference":"#11f9b0a5-5c02-4cc1-b4ce-df2ccb1e7a83-parameters"}},{"url":"http://hl7.org/fhir/us/cqfmeasures/StructureDefinition/cqfm-testCaseDescription","valueMarkdown":"Patient receives comfort measures performed on the day of hospital arrival, 1 minute after IP end. ED ends less than 1 hour before Obs Start, Obs ends less than 1 hour before IP start.\n"}],"modifierExtension":[{"url":"http://hl7.org/fhir/us/cqfmeasures/StructureDefinition/cqfm-isTestCase","valueBoolean":true}],"status":"complete","type":"individual","measure":"https://madie.cms.gov/Measure/CMS72FHIRSTKAntithromboticDay2","period":{"start":"2026-01-01","end":"2026-12-31"},"group":[{"id":"Group_1","population":[{"id":"InitialPopulation_1","code":{"coding":[{"system":"http://terminology.hl7.org/CodeSystem/measure-population","code":"initial-population","display":"Initial Population"}]},"count":1},{"id":"Denominator_1","code":{"coding":[{"system":"http://terminology.hl7.org/CodeSystem/measure-population","code":"denominator","display":"Denominator"}]},"count":1},{"id":"DenominatorExclusion_1","code":{"coding":[{"system":"http://terminology.hl7.org/CodeSystem/measure-population","code":"denominator-exclusion","display":"Denominator Exclusion"}]},"count":1},{"id":"Numerator_1","code":{"coding":[{"system":"http://terminology.hl7.org/CodeSystem/measure-population","code":"numerator","display":"Numerator"}]},"count":0},{"id":"DenominatorException_1","code":{"coding":[{"system":"http://terminology.hl7.org/CodeSystem/measure-population","code":"denominator-exception","display":"Denominator Exception"}]},"count":0}],"measureScore":{"value":0.0}}],"evaluatedResource":[{"reference":"Patient/0ccb9c3c-d834-4769-a68a-6b01ce1e868e"},{"reference":"Encounter/2062040c-3578-4096-a929-40bd5d095a3e"},{"reference":"Encounter/6397bff5-d188-4186-bd4d-3fc013a5f319"},{"reference":"Encounter/a79eb1ae-1e4b-4e5e-ab1d-3c0c5ea3d10d"},{"reference":"Claim/5ca62962b8484628b8de1ec5"},{"reference":"Procedure/0115d793-6de1-4177-a134-5abe586a2064"},{"reference":"Condition/f31bb0ec-ce1e-495a-8e7d-5fd4b21d229a"},{"reference":"Coverage/7c283765-968b-45cb-9aaf-3fde5782e1ca"},{"reference":"Organization/1085cdee-df99-46ca-a619-1aa556bf3442"}]},"request":{"method":"PUT","url":"MeasureReport/e6ba5ba8-7b88-48f0-b54a-a37262177373"}},{"resource":{"resourceType":"Procedure","id":"0115d793-6de1-4177-a134-5abe586a2064","meta":{"profile":["http://hl7.org/fhir/us/qicore/StructureDefinition/qicore-procedure"]},"extension":[{"url":"http://hl7.org/fhir/us/qicore/StructureDefinition/qicore-recorded","valueDateTime":"2026-11-18T11:00:00Z"}],"status":"completed","code":{"coding":[{"system":"http://snomed.info/sct","code":"133918004"}]},"subject":{"reference":"Patient/0ccb9c3c-d834-4769-a68a-6b01ce1e868e"},"performedPeriod":{"start":"2026-11-18T11:00:00Z","end":"2026-11-18T20:15:00.000+00:00"}},"request":{"method":"PUT","url":"Procedure/0115d793-6de1-4177-a134-5abe586a2064"}},{"resource":{"resourceType":"Encounter","id":"2062040c-3578-4096-a929-40bd5d095a3e","meta":{"profile":["http://hl7.org/fhir/us/qicore/StructureDefinition/qicore-encounter"]},"status":"finished","class":{"system":"http://terminology.hl7.org/CodeSystem/v3-ActCode","code":"EMER","display":"emergency","userSelected":true},"type":[{"coding":[{"system":"http://snomed.info/sct","code":"4525004"}]}],"subject":{"reference":"Patient/0ccb9c3c-d834-4769-a68a-6b01ce1e868e"},"period":{"start":"2026-11-18T07:00:00Z","end":"2026-11-18T08:01:00.000+00:00"},"diagnosis":[{"condition":{"reference":"Condition/f31bb0ec-ce1e-495a-8e7d-5fd4b21d229a"},"use":{"coding":[{"system":"http://terminology.hl7.org/CodeSystem/diagnosis-role","code":"billing","display":"Billing"}]},"rank":1}]},"request":{"method":"PUT","url":"Encounter/2062040c-3578-4096-a929-40bd5d095a3e"}},{"resource":{"resourceType":"Encounter","id":"a79eb1ae-1e4b-4e5e-ab1d-3c0c5ea3d10d","meta":{"profile":["http://hl7.org/fhir/us/qicore/StructureDefinition/qicore-encounter"]},"status":"finished","class":{"system":"http://terminology.hl7.org/CodeSystem/v3-ActCode","code":"IMP","display":"inpatient encounter","userSelected":true},"type":[{"coding":[{"system":"http://snomed.info/sct","code":"183452005"}]}],"subject":{"reference":"Patient/0ccb9c3c-d834-4769-a68a-6b01ce1e868e"},"period":{"start":"2026-11-18T11:00:00Z","end":"2026-11-18T20:15:00.000+00:00"},"reasonReference":[{"reference":"Condition/f31bb0ec-ce1e-495a-8e7d-5fd4b21d229a"}]},"request":{"method":"PUT","url":"Encounter/a79eb1ae-1e4b-4e5e-ab1d-3c0c5ea3d10d"}},{"resource":{"resourceType":"Claim","id":"5ca62962b8484628b8de1ec5","meta":{"profile":["http://hl7.org/fhir/us/qicore/StructureDefinition/qicore-claim"]},"status":"active","type":{"coding":[{"system":"http://terminology.hl7.org/CodeSystem/claim-type","code":"institutional"}]},"use":"claim","patient":{"reference":"Patient/0ccb9c3c-d834-4769-a68a-6b01ce1e868e"},"created":"2026-12-01","provider":{"reference":"Practitioner/practitioner-123456"},"priority":{"coding":[{"system":"http://terminology.hl7.org/CodeSystem/processpriority","code":"normal"}]},"diagnosis":[{"sequence":1,"diagnosisCodeableConcept":{"coding":[{"system":"http://hl7.org/fhir/sid/icd-10-cm","code":"I63.00"}]},"type":[{"coding":[{"system":"http://terminology.hl7.org/CodeSystem/ex-diagnosistype","code":"principal"}]}]}],"insurance":[{"sequence":1,"focal":true,"coverage":{"reference":"Coverage/7c283765-968b-45cb-9aaf-3fde5782e1ca"}}],"item":[{"sequence":1,"diagnosisSequence":[1],"productOrService":{"coding":[{"system":"http://terminology.hl7.org/CodeSystem/ex-USCLS","code":"99555"}]},"encounter":[{"reference":"Encounter/a79eb1ae-1e4b-4e5e-ab1d-3c0c5ea3d10d"}]}]},"request":{"method":"PUT","url":"Claim/5ca62962b8484628b8de1ec5"}},{"resource":{"resourceType":"Patient","id":"0ccb9c3c-d834-4769-a68a-6b01ce1e868e","meta":{"profile":["http://hl7.org/fhir/us/qicore/StructureDefinition/qicore-patient"]},"text":{"status":"generated","div":"<div xmlns=\"http://www.w3.org/1999/xhtml\"><div class=\"hapiHeaderText\">CMP_DayOf_RelvDat_1minAftIPEnd_EDEndLT1hrB4Obs_ObsEndLT1hrB4IP <b>DENEXPASS </b></div><table class=\"hapiPropertyTable\"><tbody><tr><td>Date of birth</td><td><span>01 January 1980</span></td></tr></tbody></table></div>"},"extension":[{"url":"http://hl7.org/fhir/us/core/StructureDefinition/us-core-race","extension":[{"url":"ombCategory","valueCoding":{"system":"urn:oid:2.16.840.1.113883.6.238","code":"2106-3","display":"White","userSelected":true}},{"url":"text","valueString":"White"}]},{"url":"http://hl7.org/fhir/us/core/StructureDefinition/us-core-ethnicity","extension":[{"url":"ombCategory","valueCoding":{"system":"urn:oid:2.16.840.1.113883.6.238","code":"2186-5","display":"Not Hispanic or Latino","userSelected":true}},{"url":"text","valueString":"Not Hispanic or Latino"}]}],"identifier":[{"type":{"coding":[{"system":"http://terminology.hl7.org/CodeSystem/v2-0203","code":"MR"}]},"system":"https://bonnie-fhir.healthit.gov/","value":"60f82c3098086b570510e2e3"}],"active":true,"name":[{"use":"usual","family":"DENEXPass","given":["CMP_DayOf_RelvDat_1minAftIPEnd_EDEndLT1hrB4Obs_ObsEndLT1hrB4IP"]}],"gender":"female","birthDate":"1981-01-01"},"request":{"method":"PUT","url":"Patient/0ccb9c3c-d834-4769-a68a-6b01ce1e868e"}},{"resource":{"resourceType":"Encounter","id":"6397bff5-d188-4186-bd4d-3fc013a5f319","meta":{"profile":["http://hl7.org/fhir/us/qicore/StructureDefinition/qicore-encounter"]},"status":"finished","class":{"system":"http://terminology.hl7.org/CodeSystem/v3-ActCode","code":"OBSENC","display":"observation encounter","userSelected":true},"type":[{"coding":[{"system":"http://snomed.info/sct","code":"448951000124107"}]}],"subject":{"reference":"Patient/0ccb9c3c-d834-4769-a68a-6b01ce1e868e"},"period":{"start":"2026-11-18T09:00:00Z","end":"2026-11-18T10:01:00.000+00:00"}},"request":{"method":"PUT","url":"Encounter/6397bff5-d188-4186-bd4d-3fc013a5f319"}}]}