{"resourceType":"Bundle","id":"tests-075dc91f-0aef-4a59-aee5-a95ec22fe2b5-bundle","type":"transaction","entry":[{"resource":{"resourceType":"Patient","id":"075dc91f-0aef-4a59-aee5-a95ec22fe2b5","meta":{"profile":["http://hl7.org/fhir/us/qicore/StructureDefinition/qicore-patient"]},"text":{"status":"generated","div":"<div xmlns=\"http://www.w3.org/1999/xhtml\"><div class=\"hapiHeaderText\">CMP_DayOf_RelvDat_1minB4EDStart_EDEndLT1hrB4Obs_ObsEndLT1hrB4IP <b>DENEXPASS </b></div><table class=\"hapiPropertyTable\"><tbody><tr><td>Date of birth</td><td><span>01 January 1980</span></td></tr></tbody></table></div>"},"extension":[{"url":"http://hl7.org/fhir/us/core/StructureDefinition/us-core-race","extension":[{"url":"ombCategory","valueCoding":{"system":"urn:oid:2.16.840.1.113883.6.238","code":"2106-3","display":"White","userSelected":true}},{"url":"text","valueString":"White"}]},{"url":"http://hl7.org/fhir/us/core/StructureDefinition/us-core-ethnicity","extension":[{"url":"ombCategory","valueCoding":{"system":"urn:oid:2.16.840.1.113883.6.238","code":"2186-5","display":"Not Hispanic or Latino","userSelected":true}},{"url":"text","valueString":"Not Hispanic or Latino"}]}],"identifier":[{"type":{"coding":[{"system":"http://terminology.hl7.org/CodeSystem/v2-0203","code":"MR"}]},"system":"https://bonnie-fhir.healthit.gov/","value":"60f82c3098086b570510e2d4"}],"active":true,"name":[{"use":"usual","family":"DENEXPass","given":["CMPDayOfRelvDat1minB4EDStartEDEndLT1hrB4ObsObsEndLT1hrB4IP"]}],"gender":"female","birthDate":"1981-01-01"},"request":{"method":"PUT","url":"Patient/075dc91f-0aef-4a59-aee5-a95ec22fe2b5"}},{"resource":{"resourceType":"MeasureReport","id":"ad45905b-c7a5-4b62-a56c-2c9d5aea0376","meta":{"profile":["http://hl7.org/fhir/us/cqfmeasures/StructureDefinition/test-case-cqfm"]},"contained":[{"resourceType":"Parameters","id":"b86ba2f7-3dfc-4b60-ad17-3155abc999bc-parameters","parameter":[{"name":"subject","valueString":"075dc91f-0aef-4a59-aee5-a95ec22fe2b5"}]}],"extension":[{"url":"http://hl7.org/fhir/StructureDefinition/cqf-inputParameters","valueReference":{"reference":"#b86ba2f7-3dfc-4b60-ad17-3155abc999bc-parameters"}},{"url":"http://hl7.org/fhir/us/cqfmeasures/StructureDefinition/cqfm-testCaseDescription","valueMarkdown":"Patient receives comfort measures performed on the day of hospital arrival, 1 minute before the start of the ED start. ED ends less than 1 hour before Obs Start, Obs ends less than 1 hour before IP start.\n"}],"modifierExtension":[{"url":"http://hl7.org/fhir/us/cqfmeasures/StructureDefinition/cqfm-isTestCase","valueBoolean":true}],"status":"complete","type":"individual","measure":"https://madie.cms.gov/Measure/CMS72FHIRSTKAntithromboticDay2","period":{"start":"2026-01-01","end":"2026-12-31"},"group":[{"id":"Group_1","population":[{"id":"InitialPopulation_1","code":{"coding":[{"system":"http://terminology.hl7.org/CodeSystem/measure-population","code":"initial-population","display":"Initial Population"}]},"count":1},{"id":"Denominator_1","code":{"coding":[{"system":"http://terminology.hl7.org/CodeSystem/measure-population","code":"denominator","display":"Denominator"}]},"count":1},{"id":"DenominatorExclusion_1","code":{"coding":[{"system":"http://terminology.hl7.org/CodeSystem/measure-population","code":"denominator-exclusion","display":"Denominator Exclusion"}]},"count":1},{"id":"Numerator_1","code":{"coding":[{"system":"http://terminology.hl7.org/CodeSystem/measure-population","code":"numerator","display":"Numerator"}]},"count":0},{"id":"DenominatorException_1","code":{"coding":[{"system":"http://terminology.hl7.org/CodeSystem/measure-population","code":"denominator-exception","display":"Denominator Exception"}]},"count":0}],"measureScore":{"value":0.0}}],"evaluatedResource":[{"reference":"Patient/075dc91f-0aef-4a59-aee5-a95ec22fe2b5"},{"reference":"Encounter/72b9b111-9ce0-4e7f-b587-6797bc30f765"},{"reference":"Encounter/c35c2a4a-c0d0-4f30-8b3b-a58812de3842"},{"reference":"Encounter/9cf3f71d-632e-4ef5-939f-aec75eeaf098"},{"reference":"Claim/5ca62962b8484628b8de1ec5"},{"reference":"Procedure/8fd28c78-2012-42b8-bb54-b8e45c11d40d"},{"reference":"Condition/23ad257f-3b03-41b3-bec1-cfea94e8f4fb"},{"reference":"Coverage/717a799f-6881-488a-ba2d-eaa408743df7"},{"reference":"Organization/87a045e7-a557-4440-8aab-6b9ae2e1b17e"}]},"request":{"method":"PUT","url":"MeasureReport/ad45905b-c7a5-4b62-a56c-2c9d5aea0376"}},{"resource":{"resourceType":"Condition","id":"23ad257f-3b03-41b3-bec1-cfea94e8f4fb","meta":{"profile":["http://hl7.org/fhir/us/qicore/StructureDefinition/qicore-condition-encounter-diagnosis"]},"clinicalStatus":{"coding":[{"system":"http://terminology.hl7.org/CodeSystem/condition-clinical","code":"active"}]},"verificationStatus":{"coding":[{"system":"http://terminology.hl7.org/CodeSystem/condition-ver-status","code":"confirmed"}]},"category":[{"coding":[{"system":"http://terminology.hl7.org/CodeSystem/condition-category","code":"encounter-diagnosis","display":"Encounter Diagnosis"}]}],"code":{"coding":[{"system":"http://snomed.info/sct","version":"2020-09","code":"111297002","display":"Nonparalytic stroke (disorder)","userSelected":true}]},"subject":{"reference":"Patient/075dc91f-0aef-4a59-aee5-a95ec22fe2b5"},"recordedDate":"2026-08-13T08:00:00Z"},"request":{"method":"PUT","url":"Condition/23ad257f-3b03-41b3-bec1-cfea94e8f4fb"}},{"resource":{"resourceType":"Encounter","id":"72b9b111-9ce0-4e7f-b587-6797bc30f765","meta":{"profile":["http://hl7.org/fhir/us/qicore/StructureDefinition/qicore-encounter"]},"status":"finished","class":{"system":"http://terminology.hl7.org/CodeSystem/v3-ActCode","code":"EMER","display":"emergency"},"type":[{"coding":[{"system":"http://snomed.info/sct","code":"4525004"}]}],"subject":{"reference":"Patient/075dc91f-0aef-4a59-aee5-a95ec22fe2b5"},"period":{"start":"2026-11-18T07:00:00Z","end":"2026-11-18T08:01:00.000+00:00"}},"request":{"method":"PUT","url":"Encounter/72b9b111-9ce0-4e7f-b587-6797bc30f765"}},{"resource":{"resourceType":"Organization","id":"87a045e7-a557-4440-8aab-6b9ae2e1b17e","meta":{"profile":["http://hl7.org/fhir/us/qicore/StructureDefinition/qicore-organization"]},"identifier":[{"use":"temp","system":"urn:oid:2.16.840.1.113883.4.4","value":"21-3259825"}],"active":true,"type":[{"coding":[{"system":"http://terminology.hl7.org/CodeSystem/organization-type","code":"pay","display":"Payer"}]}],"name":"Blue Cross Blue Shield of Texas","telecom":[{"system":"phone","value":"(+1) 972-766-6900"}],"address":[{"use":"billing","type":"postal","line":["P.O. Box 660044"],"city":"Dallas","state":"TX","postalCode":"75266-0044","country":"USA"}]},"request":{"method":"PUT","url":"Organization/87a045e7-a557-4440-8aab-6b9ae2e1b17e"}},{"resource":{"resourceType":"Encounter","id":"9cf3f71d-632e-4ef5-939f-aec75eeaf098","meta":{"profile":["http://hl7.org/fhir/us/qicore/StructureDefinition/qicore-encounter"]},"status":"finished","class":{"system":"http://terminology.hl7.org/CodeSystem/v3-ActCode","code":"IMP","display":"inpatient encounter"},"type":[{"coding":[{"system":"http://snomed.info/sct","code":"183452005"}]}],"subject":{"reference":"Patient/075dc91f-0aef-4a59-aee5-a95ec22fe2b5"},"period":{"start":"2026-11-18T11:00:00Z","end":"2026-11-20T08:15:00.000+00:00"},"reasonReference":[{"reference":"Condition/23ad257f-3b03-41b3-bec1-cfea94e8f4fb"}]},"request":{"method":"PUT","url":"Encounter/9cf3f71d-632e-4ef5-939f-aec75eeaf098"}},{"resource":{"resourceType":"Coverage","id":"717a799f-6881-488a-ba2d-eaa408743df7","meta":{"profile":["http://hl7.org/fhir/us/qicore/StructureDefinition/qicore-coverage"]},"status":"active","beneficiary":{"reference":"Patient/075dc91f-0aef-4a59-aee5-a95ec22fe2b5"},"payor":[{"reference":"Organization/87a045e7-a557-4440-8aab-6b9ae2e1b17e"}]},"request":{"method":"PUT","url":"Coverage/717a799f-6881-488a-ba2d-eaa408743df7"}},{"resource":{"resourceType":"Bundle","id":"60f82c3098086b570510e2d4","type":"transaction","entry":[{"fullUrl":"https://madie.cms.gov/Patient/075dc91f-0aef-4a59-aee5-a95ec22fe2b5","resource":{"resourceType":"Patient","id":"075dc91f-0aef-4a59-aee5-a95ec22fe2b5","meta":{"profile":["http://hl7.org/fhir/us/qicore/StructureDefinition/qicore-patient"]},"text":{"status":"generated","div":"<div xmlns=\"http://www.w3.org/1999/xhtml\"><div class=\"hapiHeaderText\">CMP_DayOf_RelvDat_1minB4EDStart_EDEndLT1hrB4Obs_ObsEndLT1hrB4IP <b>DENEXPASS </b></div><table class=\"hapiPropertyTable\"><tbody><tr><td>Date of birth</td><td><span>01 January 1980</span></td></tr></tbody></table></div>"},"extension":[{"url":"http://hl7.org/fhir/us/core/StructureDefinition/us-core-race","extension":[{"url":"ombCategory","valueCoding":{"system":"urn:oid:2.16.840.1.113883.6.238","code":"2106-3","display":"White","userSelected":true}},{"url":"text","valueString":"White"}]},{"url":"http://hl7.org/fhir/us/core/StructureDefinition/us-core-ethnicity","extension":[{"url":"ombCategory","valueCoding":{"system":"urn:oid:2.16.840.1.113883.6.238","code":"2186-5","display":"Not Hispanic or Latino","userSelected":true}},{"url":"text","valueString":"Not Hispanic or Latino"}]}],"identifier":[{"type":{"coding":[{"system":"http://terminology.hl7.org/CodeSystem/v2-0203","code":"MR"}]},"system":"https://bonnie-fhir.healthit.gov/","value":"60f82c3098086b570510e2d4"}],"active":true,"name":[{"use":"usual","family":"DENEXPass","given":["CMPDayOfRelvDat1minB4EDStartEDEndLT1hrB4ObsObsEndLT1hrB4IP"]}],"gender":"female","birthDate":"1981-01-01"},"request":{"method":"PUT","url":"Patient/075dc91f-0aef-4a59-aee5-a95ec22fe2b5"}},{"fullUrl":"https://madie.cms.gov/Encounter/72b9b111-9ce0-4e7f-b587-6797bc30f765","resource":{"resourceType":"Encounter","id":"72b9b111-9ce0-4e7f-b587-6797bc30f765","meta":{"profile":["http://hl7.org/fhir/us/qicore/StructureDefinition/qicore-encounter"]},"status":"finished","class":{"system":"http://terminology.hl7.org/CodeSystem/v3-ActCode","code":"EMER","display":"emergency"},"type":[{"coding":[{"system":"http://snomed.info/sct","code":"4525004"}]}],"subject":{"reference":"Patient/075dc91f-0aef-4a59-aee5-a95ec22fe2b5"},"period":{"start":"2026-11-18T07:00:00Z","end":"2026-11-18T08:01:00.000+00:00"}},"request":{"method":"PUT","url":"Encounter/72b9b111-9ce0-4e7f-b587-6797bc30f765"}},{"fullUrl":"https://madie.cms.gov/Encounter/c35c2a4a-c0d0-4f30-8b3b-a58812de3842","resource":{"resourceType":"Encounter","id":"c35c2a4a-c0d0-4f30-8b3b-a58812de3842","meta":{"profile":["http://hl7.org/fhir/us/qicore/StructureDefinition/qicore-encounter"]},"status":"finished","class":{"system":"http://terminology.hl7.org/CodeSystem/v3-ActCode","code":"OBSENC","display":"observation encounter"},"type":[{"coding":[{"system":"http://snomed.info/sct","code":"448951000124107"}]}],"subject":{"reference":"Patient/075dc91f-0aef-4a59-aee5-a95ec22fe2b5"},"period":{"start":"2026-11-18T09:00:00Z","end":"2026-11-18T10:01:00.000+00:00"}},"request":{"method":"PUT","url":"Encounter/c35c2a4a-c0d0-4f30-8b3b-a58812de3842"}},{"fullUrl":"https://madie.cms.gov/Encounter/9cf3f71d-632e-4ef5-939f-aec75eeaf098","resource":{"resourceType":"Encounter","id":"9cf3f71d-632e-4ef5-939f-aec75eeaf098","meta":{"profile":["http://hl7.org/fhir/us/qicore/StructureDefinition/qicore-encounter"]},"status":"finished","class":{"system":"http://terminology.hl7.org/CodeSystem/v3-ActCode","code":"IMP","display":"inpatient encounter"},"type":[{"coding":[{"system":"http://snomed.info/sct","code":"183452005"}]}],"subject":{"reference":"Patient/075dc91f-0aef-4a59-aee5-a95ec22fe2b5"},"period":{"start":"2026-11-18T11:00:00Z","end":"2026-11-20T08:15:00.000+00:00"},"reasonReference":[{"reference":"Condition/23ad257f-3b03-41b3-bec1-cfea94e8f4fb"}]},"request":{"method":"PUT","url":"Encounter/9cf3f71d-632e-4ef5-939f-aec75eeaf098"}},{"fullUrl":"https://madie.cms.gov/claim/5ca62962b8484628b8de1ec5","resource":{"resourceType":"Claim","id":"5ca62962b8484628b8de1ec5","meta":{"profile":["http://hl7.org/fhir/us/qicore/StructureDefinition/qicore-claim"]},"status":"active","type":{"coding":[{"system":"http://terminology.hl7.org/CodeSystem/claim-type","code":"institutional"}]},"use":"claim","patient":{"reference":"Patient/075dc91f-0aef-4a59-aee5-a95ec22fe2b5"},"created":"2026-12-01","provider":{"reference":"Practitioner/practitioner-123456"},"priority":{"coding":[{"system":"http://terminology.hl7.org/CodeSystem/processpriority","code":"normal"}]},"diagnosis":[{"sequence":1,"diagnosisCodeableConcept":{"coding":[{"system":"http://hl7.org/fhir/sid/icd-10-cm","code":"I63.00"}]},"type":[{"coding":[{"system":"http://terminology.hl7.org/CodeSystem/ex-diagnosistype","code":"principal"}]}]}],"insurance":[{"sequence":1,"focal":true,"coverage":{"reference":"Coverage/717a799f-6881-488a-ba2d-eaa408743df7"}}],"item":[{"sequence":1,"diagnosisSequence":[1],"productOrService":{"coding":[{"system":"http://terminology.hl7.org/CodeSystem/ex-USCLS","code":"99555"}]},"encounter":[{"reference":"Encounter/9cf3f71d-632e-4ef5-939f-aec75eeaf098"}]}]},"request":{"method":"PUT","url":"Claim/5ca62962b8484628b8de1ec5"}},{"fullUrl":"https://madie.cms.gov/Procedure/8fd28c78-2012-42b8-bb54-b8e45c11d40d","resource":{"resourceType":"Procedure","id":"8fd28c78-2012-42b8-bb54-b8e45c11d40d","meta":{"profile":["http://hl7.org/fhir/us/qicore/StructureDefinition/qicore-procedure"]},"extension":[{"url":"http://hl7.org/fhir/us/qicore/StructureDefinition/qicore-recorded","valueDateTime":"2026-11-18T06:59:00Z"}],"status":"completed","code":{"coding":[{"system":"http://snomed.info/sct","code":"133918004"}]},"subject":{"reference":"Patient/075dc91f-0aef-4a59-aee5-a95ec22fe2b5"},"performedDateTime":"2026-11-18T06:59:00Z"},"request":{"method":"PUT","url":"Procedure/8fd28c78-2012-42b8-bb54-b8e45c11d40d"}},{"fullUrl":"https://madie.cms.gov/Condition/23ad257f-3b03-41b3-bec1-cfea94e8f4fb","resource":{"resourceType":"Condition","id":"23ad257f-3b03-41b3-bec1-cfea94e8f4fb","meta":{"profile":["http://hl7.org/fhir/us/qicore/StructureDefinition/qicore-condition-encounter-diagnosis"]},"clinicalStatus":{"coding":[{"system":"http://terminology.hl7.org/CodeSystem/condition-clinical","code":"active"}]},"verificationStatus":{"coding":[{"system":"http://terminology.hl7.org/CodeSystem/condition-ver-status","code":"confirmed"}]},"category":[{"coding":[{"system":"http://terminology.hl7.org/CodeSystem/condition-category","code":"encounter-diagnosis","display":"Encounter Diagnosis"}]}],"code":{"coding":[{"system":"http://snomed.info/sct","version":"2020-09","code":"111297002","display":"Nonparalytic stroke (disorder)","userSelected":true}]},"subject":{"reference":"Patient/075dc91f-0aef-4a59-aee5-a95ec22fe2b5"},"recordedDate":"2026-08-13T08:00:00Z"},"request":{"method":"PUT","url":"Condition/23ad257f-3b03-41b3-bec1-cfea94e8f4fb"}},{"fullUrl":"https://madie.cms.gov/Coverage/717a799f-6881-488a-ba2d-eaa408743df7","resource":{"resourceType":"Coverage","id":"717a799f-6881-488a-ba2d-eaa408743df7","meta":{"profile":["http://hl7.org/fhir/us/qicore/StructureDefinition/qicore-coverage"]},"status":"active","beneficiary":{"reference":"Patient/075dc91f-0aef-4a59-aee5-a95ec22fe2b5"},"payor":[{"reference":"Organization/87a045e7-a557-4440-8aab-6b9ae2e1b17e"}]},"request":{"method":"PUT","url":"Coverage/717a799f-6881-488a-ba2d-eaa408743df7"}},{"fullUrl":"https://madie.cms.gov/Organization/87a045e7-a557-4440-8aab-6b9ae2e1b17e","resource":{"resourceType":"Organization","id":"87a045e7-a557-4440-8aab-6b9ae2e1b17e","meta":{"profile":["http://hl7.org/fhir/us/qicore/StructureDefinition/qicore-organization"]},"identifier":[{"use":"temp","system":"urn:oid:2.16.840.1.113883.4.4","value":"21-3259825"}],"active":true,"type":[{"coding":[{"system":"http://terminology.hl7.org/CodeSystem/organization-type","code":"pay","display":"Payer"}]}],"name":"Blue Cross Blue Shield of Texas","telecom":[{"system":"phone","value":"(+1) 972-766-6900"}],"address":[{"use":"billing","type":"postal","line":["P.O. Box 660044"],"city":"Dallas","state":"TX","postalCode":"75266-0044","country":"USA"}]},"request":{"method":"PUT","url":"Organization/87a045e7-a557-4440-8aab-6b9ae2e1b17e"}},{"fullUrl":"https://madie.cms.gov/MeasureReport/ad45905b-c7a5-4b62-a56c-2c9d5aea0376","resource":{"resourceType":"MeasureReport","id":"ad45905b-c7a5-4b62-a56c-2c9d5aea0376","meta":{"profile":["http://hl7.org/fhir/us/cqfmeasures/StructureDefinition/test-case-cqfm"]},"contained":[{"resourceType":"Parameters","id":"b86ba2f7-3dfc-4b60-ad17-3155abc999bc-parameters","parameter":[{"name":"subject","valueString":"075dc91f-0aef-4a59-aee5-a95ec22fe2b5"}]}],"extension":[{"url":"http://hl7.org/fhir/StructureDefinition/cqf-inputParameters","valueReference":{"reference":"#b86ba2f7-3dfc-4b60-ad17-3155abc999bc-parameters"}},{"url":"http://hl7.org/fhir/us/cqfmeasures/StructureDefinition/cqfm-testCaseDescription","valueMarkdown":"Patient receives comfort measures performed on the day of hospital arrival, 1 minute before the start of the ED start. ED ends less than 1 hour before Obs Start, Obs ends less than 1 hour before IP start.\n"}],"modifierExtension":[{"url":"http://hl7.org/fhir/us/cqfmeasures/StructureDefinition/cqfm-isTestCase","valueBoolean":true}],"status":"complete","type":"individual","measure":"https://madie.cms.gov/Measure/CMS72FHIRSTKAntithromboticDay2","period":{"start":"2026-01-01","end":"2026-12-31"},"group":[{"id":"Group_1","population":[{"id":"InitialPopulation_1","code":{"coding":[{"system":"http://terminology.hl7.org/CodeSystem/measure-population","code":"initial-population","display":"Initial Population"}]},"count":1},{"id":"Denominator_1","code":{"coding":[{"system":"http://terminology.hl7.org/CodeSystem/measure-population","code":"denominator","display":"Denominator"}]},"count":1},{"id":"DenominatorExclusion_1","code":{"coding":[{"system":"http://terminology.hl7.org/CodeSystem/measure-population","code":"denominator-exclusion","display":"Denominator Exclusion"}]},"count":1},{"id":"Numerator_1","code":{"coding":[{"system":"http://terminology.hl7.org/CodeSystem/measure-population","code":"numerator","display":"Numerator"}]},"count":0},{"id":"DenominatorException_1","code":{"coding":[{"system":"http://terminology.hl7.org/CodeSystem/measure-population","code":"denominator-exception","display":"Denominator Exception"}]},"count":0}],"measureScore":{"value":0.0}}],"evaluatedResource":[{"reference":"Patient/075dc91f-0aef-4a59-aee5-a95ec22fe2b5"},{"reference":"Encounter/72b9b111-9ce0-4e7f-b587-6797bc30f765"},{"reference":"Encounter/c35c2a4a-c0d0-4f30-8b3b-a58812de3842"},{"reference":"Encounter/9cf3f71d-632e-4ef5-939f-aec75eeaf098"},{"reference":"Claim/5ca62962b8484628b8de1ec5"},{"reference":"Procedure/8fd28c78-2012-42b8-bb54-b8e45c11d40d"},{"reference":"Condition/23ad257f-3b03-41b3-bec1-cfea94e8f4fb"},{"reference":"Coverage/717a799f-6881-488a-ba2d-eaa408743df7"},{"reference":"Organization/87a045e7-a557-4440-8aab-6b9ae2e1b17e"}]},"request":{"method":"PUT","url":"MeasureReport/ad45905b-c7a5-4b62-a56c-2c9d5aea0376"}}]},"request":{"method":"PUT","url":"Bundle/60f82c3098086b570510e2d4"}},{"resource":{"resourceType":"Procedure","id":"8fd28c78-2012-42b8-bb54-b8e45c11d40d","meta":{"profile":["http://hl7.org/fhir/us/qicore/StructureDefinition/qicore-procedure"]},"extension":[{"url":"http://hl7.org/fhir/us/qicore/StructureDefinition/qicore-recorded","valueDateTime":"2026-11-18T06:59:00Z"}],"status":"completed","code":{"coding":[{"system":"http://snomed.info/sct","code":"133918004"}]},"subject":{"reference":"Patient/075dc91f-0aef-4a59-aee5-a95ec22fe2b5"},"performedDateTime":"2026-11-18T06:59:00Z"},"request":{"method":"PUT","url":"Procedure/8fd28c78-2012-42b8-bb54-b8e45c11d40d"}},{"resource":{"resourceType":"Claim","id":"5ca62962b8484628b8de1ec5","meta":{"profile":["http://hl7.org/fhir/us/qicore/StructureDefinition/qicore-claim"]},"status":"active","type":{"coding":[{"system":"http://terminology.hl7.org/CodeSystem/claim-type","code":"institutional"}]},"use":"claim","patient":{"reference":"Patient/075dc91f-0aef-4a59-aee5-a95ec22fe2b5"},"created":"2026-12-01","provider":{"reference":"Practitioner/practitioner-123456"},"priority":{"coding":[{"system":"http://terminology.hl7.org/CodeSystem/processpriority","code":"normal"}]},"diagnosis":[{"sequence":1,"diagnosisCodeableConcept":{"coding":[{"system":"http://hl7.org/fhir/sid/icd-10-cm","code":"I63.00"}]},"type":[{"coding":[{"system":"http://terminology.hl7.org/CodeSystem/ex-diagnosistype","code":"principal"}]}]}],"insurance":[{"sequence":1,"focal":true,"coverage":{"reference":"Coverage/717a799f-6881-488a-ba2d-eaa408743df7"}}],"item":[{"sequence":1,"diagnosisSequence":[1],"productOrService":{"coding":[{"system":"http://terminology.hl7.org/CodeSystem/ex-USCLS","code":"99555"}]},"encounter":[{"reference":"Encounter/9cf3f71d-632e-4ef5-939f-aec75eeaf098"}]}]},"request":{"method":"PUT","url":"Claim/5ca62962b8484628b8de1ec5"}},{"resource":{"resourceType":"Encounter","id":"c35c2a4a-c0d0-4f30-8b3b-a58812de3842","meta":{"profile":["http://hl7.org/fhir/us/qicore/StructureDefinition/qicore-encounter"]},"status":"finished","class":{"system":"http://terminology.hl7.org/CodeSystem/v3-ActCode","code":"OBSENC","display":"observation encounter"},"type":[{"coding":[{"system":"http://snomed.info/sct","code":"448951000124107"}]}],"subject":{"reference":"Patient/075dc91f-0aef-4a59-aee5-a95ec22fe2b5"},"period":{"start":"2026-11-18T09:00:00Z","end":"2026-11-18T10:01:00.000+00:00"}},"request":{"method":"PUT","url":"Encounter/c35c2a4a-c0d0-4f30-8b3b-a58812de3842"}}]}