{"resourceType":"Bundle","id":"tests-2f7681fa-66b0-4395-aa35-7622e37709ae-bundle","type":"transaction","entry":[{"resource":{"resourceType":"Bundle","id":"60f82c2e98086b570510e268","type":"transaction","entry":[{"fullUrl":"https://madie.cms.gov/Patient/2f7681fa-66b0-4395-aa35-7622e37709ae","resource":{"resourceType":"Patient","id":"2f7681fa-66b0-4395-aa35-7622e37709ae","meta":{"profile":["http://hl7.org/fhir/us/qicore/StructureDefinition/qicore-patient"]},"text":{"status":"generated","div":"<div xmlns=\"http://www.w3.org/1999/xhtml\"><div class=\"hapiHeaderText\">MedOrdPatRefus_eq0dayduringEncIPwEd <b>DENEXCEPPASS </b></div><table class=\"hapiPropertyTable\"><tbody><tr><td>Identifier</td><td>a8f0ca3d384a3a433c9dcace70815483</td></tr><tr><td>Date of birth</td><td><span>26 September 1975</span></td></tr></tbody></table></div>"},"extension":[{"url":"http://hl7.org/fhir/us/core/StructureDefinition/us-core-race","extension":[{"url":"ombCategory","valueCoding":{"system":"urn:oid:2.16.840.1.113883.6.238","code":"1002-5","display":"American Indian or Alaska Native","userSelected":true}},{"url":"text","valueString":"American Indian or Alaska Native"}]},{"url":"http://hl7.org/fhir/us/core/StructureDefinition/us-core-ethnicity","extension":[{"url":"ombCategory","valueCoding":{"system":"urn:oid:2.16.840.1.113883.6.238","code":"2135-2","display":"Hispanic or Latino","userSelected":true}},{"url":"text","valueString":"Hispanic or Latino"}]}],"identifier":[{"type":{"coding":[{"system":"http://terminology.hl7.org/CodeSystem/v2-0203","code":"MR"}]},"system":"https://bonnie-fhir.healthit.gov/","value":"60f82c2e98086b570510e268"}],"active":true,"name":[{"use":"usual","family":"DENEXCEPPass","given":["MedAdmPatRefus_eq0dayduringEncIPwEd"]}],"gender":"female","birthDate":"1976-09-26"},"request":{"method":"PUT","url":"Patient/2f7681fa-66b0-4395-aa35-7622e37709ae"}},{"fullUrl":"https://madie.cms.gov/Encounter/54aef62d-a13c-4aff-97ee-3968973a6f5c","resource":{"resourceType":"Encounter","id":"54aef62d-a13c-4aff-97ee-3968973a6f5c","meta":{"profile":["http://hl7.org/fhir/us/qicore/StructureDefinition/qicore-encounter"]},"status":"finished","class":{"system":"http://terminology.hl7.org/CodeSystem/v3-ActCode","code":"EMER","display":"emergency","userSelected":true},"type":[{"coding":[{"system":"http://snomed.info/sct","code":"4525004"}]}],"subject":{"reference":"Patient/2f7681fa-66b0-4395-aa35-7622e37709ae"},"period":{"start":"2026-10-10T08:00:00Z","end":"2026-10-10T08:15:00.000+00:00"},"length":{"value":0,"unit":"days"}},"request":{"method":"PUT","url":"Encounter/54aef62d-a13c-4aff-97ee-3968973a6f5c"}},{"fullUrl":"https://madie.cms.gov/Encounter/f7d1b772-3b2e-477b-836c-bc5ca3754460","resource":{"resourceType":"Encounter","id":"f7d1b772-3b2e-477b-836c-bc5ca3754460","meta":{"profile":["http://hl7.org/fhir/us/qicore/StructureDefinition/qicore-encounter"]},"status":"finished","class":{"system":"http://terminology.hl7.org/CodeSystem/v3-ActCode","code":"IMP","display":"inpatient encounter","userSelected":true},"type":[{"coding":[{"system":"http://snomed.info/sct","code":"32485007"}]}],"subject":{"reference":"Patient/2f7681fa-66b0-4395-aa35-7622e37709ae"},"period":{"start":"2026-10-10T09:00:00Z","end":"2026-10-12T11:15:00.000+00:00"},"length":{"value":2,"unit":"days"},"reasonReference":[{"reference":"Condition/2a7f2afe-1316-4fae-96c2-d2f63b94e188"}]},"request":{"method":"PUT","url":"Encounter/f7d1b772-3b2e-477b-836c-bc5ca3754460"}},{"fullUrl":"https://madie.cms.gov/claim/5ca62962b8484628b8de1ec5","resource":{"resourceType":"Claim","id":"5ca62962b8484628b8de1ec5","meta":{"profile":["http://hl7.org/fhir/us/qicore/StructureDefinition/qicore-claim"]},"status":"active","type":{"coding":[{"system":"http://terminology.hl7.org/CodeSystem/claim-type","code":"institutional"}]},"use":"claim","patient":{"reference":"Patient/d170a0a8-b5ad-4303-b6df-e304dd5f92ad"},"created":"2026-12-01","provider":{"reference":"Practitioner/practitioner-123456"},"priority":{"coding":[{"system":"http://terminology.hl7.org/CodeSystem/processpriority","code":"normal"}]},"diagnosis":[{"sequence":1,"diagnosisCodeableConcept":{"coding":[{"system":"http://hl7.org/fhir/sid/icd-10-cm","code":"I63.00"}]},"type":[{"coding":[{"system":"http://terminology.hl7.org/CodeSystem/ex-diagnosistype","code":"principal"}]}]}],"insurance":[{"sequence":1,"focal":true,"coverage":{"reference":"Coverage/5fa041661c76ba66d9959367"}}],"item":[{"sequence":1,"diagnosisSequence":[1],"productOrService":{"coding":[{"system":"http://terminology.hl7.org/CodeSystem/ex-USCLS","code":"99555"}]},"encounter":[{"reference":"Encounter/f7d1b772-3b2e-477b-836c-bc5ca3754460"}]}]},"request":{"method":"PUT","url":"Claim/5ca62962b8484628b8de1ec5"}},{"fullUrl":"https://madie.cms.gov/MedicationAdministration/e5d8f211-1585-4be5-bc2e-4774a2e55049","resource":{"resourceType":"MedicationAdministration","id":"e5d8f211-1585-4be5-bc2e-4774a2e55049","meta":{"profile":["http://hl7.org/fhir/us/qicore/StructureDefinition/qicore-medicationadministrationnotdone"]},"extension":[{"url":"http://hl7.org/fhir/us/qicore/StructureDefinition/qicore-recorded","valueDateTime":"2026-10-10T09:00:00Z"}],"status":"not-done","statusReason":[{"coding":[{"system":"http://snomed.info/sct","code":"443390004","display":"Refused"}]}],"medicationCodeableConcept":{"coding":[{"system":"http://www.nlm.nih.gov/research/umls/rxnorm","code":"1037045"}]},"subject":{"reference":"Patient/2f7681fa-66b0-4395-aa35-7622e37709ae"},"effectivePeriod":{"start":"2026-10-10T09:00:00Z"}},"request":{"method":"PUT","url":"MedicationAdministration/e5d8f211-1585-4be5-bc2e-4774a2e55049"}},{"fullUrl":"https://madie.cms.gov/Coverage/91531372-d990-44e9-a0fc-10c1ca5f53ba","resource":{"resourceType":"Coverage","id":"91531372-d990-44e9-a0fc-10c1ca5f53ba","status":"active","subscriberId":"523435","beneficiary":{"reference":"Patient/2f7681fa-66b0-4395-aa35-7622e37709ae"},"relationship":{"coding":[{"system":"http://terminology.hl7.org/CodeSystem/subscriber-relationship","code":"self"}]},"period":{"start":"1976-09-26T08:00:00Z"},"payor":[{"reference":"Organization/69182997-6895-4cca-807e-f0b429b42ad7"}]},"request":{"method":"PUT","url":"Coverage/91531372-d990-44e9-a0fc-10c1ca5f53ba"}},{"fullUrl":"https://madie.cms.gov/Condition/2a7f2afe-1316-4fae-96c2-d2f63b94e188","resource":{"resourceType":"Condition","id":"2a7f2afe-1316-4fae-96c2-d2f63b94e188","meta":{"profile":["http://hl7.org/fhir/us/qicore/StructureDefinition/qicore-condition-encounter-diagnosis"]},"clinicalStatus":{"coding":[{"system":"http://terminology.hl7.org/CodeSystem/condition-clinical","code":"active"}]},"verificationStatus":{"coding":[{"system":"http://terminology.hl7.org/CodeSystem/condition-ver-status","code":"confirmed"}]},"category":[{"coding":[{"system":"http://terminology.hl7.org/CodeSystem/condition-category","code":"encounter-diagnosis","display":"Encounter Diagnosis"}]}],"code":{"coding":[{"system":"http://snomed.info/sct","version":"2020-09","code":"111297002","display":"Nonparalytic stroke (disorder)","userSelected":true}]},"subject":{"reference":"Patient/2f7681fa-66b0-4395-aa35-7622e37709ae"},"recordedDate":"2026-08-06T08:00:00Z"},"request":{"method":"PUT","url":"Condition/2a7f2afe-1316-4fae-96c2-d2f63b94e188"}},{"fullUrl":"https://madie.cms.gov/Organization/69182997-6895-4cca-807e-f0b429b42ad7","resource":{"resourceType":"Organization","id":"69182997-6895-4cca-807e-f0b429b42ad7","meta":{"profile":["http://hl7.org/fhir/us/qicore/StructureDefinition/qicore-organization"]},"identifier":[{"use":"temp","system":"urn:oid:2.16.840.1.113883.4.4","value":"21-3259825"}],"active":true,"type":[{"coding":[{"system":"http://terminology.hl7.org/CodeSystem/organization-type","code":"pay","display":"Payer"}]}],"name":"Blue Cross Blue Shield of Texas","telecom":[{"system":"phone","value":"(+1) 972-766-6900"}],"address":[{"use":"billing","type":"postal","line":["P.O. Box 660044"],"city":"Dallas","state":"TX","postalCode":"75266-0044","country":"USA"}]},"request":{"method":"PUT","url":"Organization/69182997-6895-4cca-807e-f0b429b42ad7"}},{"fullUrl":"https://madie.cms.gov/MeasureReport/53750532-055d-41df-81a9-c0f4da609b7d","resource":{"resourceType":"MeasureReport","id":"53750532-055d-41df-81a9-c0f4da609b7d","meta":{"profile":["http://hl7.org/fhir/us/cqfmeasures/StructureDefinition/test-case-cqfm"]},"contained":[{"resourceType":"Parameters","id":"d034ae64-5ec7-45be-be10-2bee4bcfbd94-parameters","parameter":[{"name":"subject","valueString":"2f7681fa-66b0-4395-aa35-7622e37709ae"}]}],"extension":[{"url":"http://hl7.org/fhir/StructureDefinition/cqf-inputParameters","valueReference":{"reference":"#d034ae64-5ec7-45be-be10-2bee4bcfbd94-parameters"}},{"url":"http://hl7.org/fhir/us/cqfmeasures/StructureDefinition/cqfm-testCaseDescription","valueMarkdown":"\"ED visit and antithrombotic not administered due to patient refusal\nMedOrdPatRefus_eq 0day during EncIP withEd\"\n"}],"modifierExtension":[{"url":"http://hl7.org/fhir/us/cqfmeasures/StructureDefinition/cqfm-isTestCase","valueBoolean":true}],"status":"complete","type":"individual","measure":"https://madie.cms.gov/Measure/CMS72FHIRSTKAntithromboticDay2","period":{"start":"2026-01-01","end":"2026-12-31"},"group":[{"id":"Group_1","population":[{"id":"InitialPopulation_1","code":{"coding":[{"system":"http://terminology.hl7.org/CodeSystem/measure-population","code":"initial-population","display":"Initial Population"}]},"count":1},{"id":"Denominator_1","code":{"coding":[{"system":"http://terminology.hl7.org/CodeSystem/measure-population","code":"denominator","display":"Denominator"}]},"count":1},{"id":"DenominatorExclusion_1","code":{"coding":[{"system":"http://terminology.hl7.org/CodeSystem/measure-population","code":"denominator-exclusion","display":"Denominator Exclusion"}]},"count":0},{"id":"Numerator_1","code":{"coding":[{"system":"http://terminology.hl7.org/CodeSystem/measure-population","code":"numerator","display":"Numerator"}]},"count":0},{"id":"DenominatorException_1","code":{"coding":[{"system":"http://terminology.hl7.org/CodeSystem/measure-population","code":"denominator-exception","display":"Denominator Exception"}]},"count":1}],"measureScore":{"value":0.0}}],"evaluatedResource":[{"reference":"Patient/2f7681fa-66b0-4395-aa35-7622e37709ae"},{"reference":"Encounter/54aef62d-a13c-4aff-97ee-3968973a6f5c"},{"reference":"Encounter/f7d1b772-3b2e-477b-836c-bc5ca3754460"},{"reference":"Claim/5ca62962b8484628b8de1ec5"},{"reference":"MedicationAdministration/e5d8f211-1585-4be5-bc2e-4774a2e55049"},{"reference":"Coverage/91531372-d990-44e9-a0fc-10c1ca5f53ba"},{"reference":"Condition/2a7f2afe-1316-4fae-96c2-d2f63b94e188"},{"reference":"Organization/69182997-6895-4cca-807e-f0b429b42ad7"}]},"request":{"method":"PUT","url":"MeasureReport/53750532-055d-41df-81a9-c0f4da609b7d"}}]},"request":{"method":"PUT","url":"Bundle/60f82c2e98086b570510e268"}},{"resource":{"resourceType":"Encounter","id":"54aef62d-a13c-4aff-97ee-3968973a6f5c","meta":{"profile":["http://hl7.org/fhir/us/qicore/StructureDefinition/qicore-encounter"]},"status":"finished","class":{"system":"http://terminology.hl7.org/CodeSystem/v3-ActCode","code":"EMER","display":"emergency","userSelected":true},"type":[{"coding":[{"system":"http://snomed.info/sct","code":"4525004"}]}],"subject":{"reference":"Patient/2f7681fa-66b0-4395-aa35-7622e37709ae"},"period":{"start":"2026-10-10T08:00:00Z","end":"2026-10-10T08:15:00.000+00:00"},"length":{"value":0,"unit":"days"}},"request":{"method":"PUT","url":"Encounter/54aef62d-a13c-4aff-97ee-3968973a6f5c"}},{"resource":{"resourceType":"Condition","id":"2a7f2afe-1316-4fae-96c2-d2f63b94e188","meta":{"profile":["http://hl7.org/fhir/us/qicore/StructureDefinition/qicore-condition-encounter-diagnosis"]},"clinicalStatus":{"coding":[{"system":"http://terminology.hl7.org/CodeSystem/condition-clinical","code":"active"}]},"verificationStatus":{"coding":[{"system":"http://terminology.hl7.org/CodeSystem/condition-ver-status","code":"confirmed"}]},"category":[{"coding":[{"system":"http://terminology.hl7.org/CodeSystem/condition-category","code":"encounter-diagnosis","display":"Encounter Diagnosis"}]}],"code":{"coding":[{"system":"http://snomed.info/sct","version":"2020-09","code":"111297002","display":"Nonparalytic stroke (disorder)","userSelected":true}]},"subject":{"reference":"Patient/2f7681fa-66b0-4395-aa35-7622e37709ae"},"recordedDate":"2026-08-06T08:00:00Z"},"request":{"method":"PUT","url":"Condition/2a7f2afe-1316-4fae-96c2-d2f63b94e188"}},{"resource":{"resourceType":"Encounter","id":"f7d1b772-3b2e-477b-836c-bc5ca3754460","meta":{"profile":["http://hl7.org/fhir/us/qicore/StructureDefinition/qicore-encounter"]},"status":"finished","class":{"system":"http://terminology.hl7.org/CodeSystem/v3-ActCode","code":"IMP","display":"inpatient encounter","userSelected":true},"type":[{"coding":[{"system":"http://snomed.info/sct","code":"32485007"}]}],"subject":{"reference":"Patient/2f7681fa-66b0-4395-aa35-7622e37709ae"},"period":{"start":"2026-10-10T09:00:00Z","end":"2026-10-12T11:15:00.000+00:00"},"length":{"value":2,"unit":"days"},"reasonReference":[{"reference":"Condition/2a7f2afe-1316-4fae-96c2-d2f63b94e188"}]},"request":{"method":"PUT","url":"Encounter/f7d1b772-3b2e-477b-836c-bc5ca3754460"}},{"resource":{"resourceType":"Patient","id":"2f7681fa-66b0-4395-aa35-7622e37709ae","meta":{"profile":["http://hl7.org/fhir/us/qicore/StructureDefinition/qicore-patient"]},"text":{"status":"generated","div":"<div xmlns=\"http://www.w3.org/1999/xhtml\"><div class=\"hapiHeaderText\">MedOrdPatRefus_eq0dayduringEncIPwEd <b>DENEXCEPPASS </b></div><table class=\"hapiPropertyTable\"><tbody><tr><td>Identifier</td><td>a8f0ca3d384a3a433c9dcace70815483</td></tr><tr><td>Date of birth</td><td><span>26 September 1975</span></td></tr></tbody></table></div>"},"extension":[{"url":"http://hl7.org/fhir/us/core/StructureDefinition/us-core-race","extension":[{"url":"ombCategory","valueCoding":{"system":"urn:oid:2.16.840.1.113883.6.238","code":"1002-5","display":"American Indian or Alaska Native","userSelected":true}},{"url":"text","valueString":"American Indian or Alaska Native"}]},{"url":"http://hl7.org/fhir/us/core/StructureDefinition/us-core-ethnicity","extension":[{"url":"ombCategory","valueCoding":{"system":"urn:oid:2.16.840.1.113883.6.238","code":"2135-2","display":"Hispanic or Latino","userSelected":true}},{"url":"text","valueString":"Hispanic or Latino"}]}],"identifier":[{"type":{"coding":[{"system":"http://terminology.hl7.org/CodeSystem/v2-0203","code":"MR"}]},"system":"https://bonnie-fhir.healthit.gov/","value":"60f82c2e98086b570510e268"}],"active":true,"name":[{"use":"usual","family":"DENEXCEPPass","given":["MedAdmPatRefus_eq0dayduringEncIPwEd"]}],"gender":"female","birthDate":"1976-09-26"},"request":{"method":"PUT","url":"Patient/2f7681fa-66b0-4395-aa35-7622e37709ae"}},{"resource":{"resourceType":"Organization","id":"69182997-6895-4cca-807e-f0b429b42ad7","meta":{"profile":["http://hl7.org/fhir/us/qicore/StructureDefinition/qicore-organization"]},"identifier":[{"use":"temp","system":"urn:oid:2.16.840.1.113883.4.4","value":"21-3259825"}],"active":true,"type":[{"coding":[{"system":"http://terminology.hl7.org/CodeSystem/organization-type","code":"pay","display":"Payer"}]}],"name":"Blue Cross Blue Shield of Texas","telecom":[{"system":"phone","value":"(+1) 972-766-6900"}],"address":[{"use":"billing","type":"postal","line":["P.O. Box 660044"],"city":"Dallas","state":"TX","postalCode":"75266-0044","country":"USA"}]},"request":{"method":"PUT","url":"Organization/69182997-6895-4cca-807e-f0b429b42ad7"}},{"resource":{"resourceType":"MeasureReport","id":"53750532-055d-41df-81a9-c0f4da609b7d","meta":{"profile":["http://hl7.org/fhir/us/cqfmeasures/StructureDefinition/test-case-cqfm"]},"contained":[{"resourceType":"Parameters","id":"d034ae64-5ec7-45be-be10-2bee4bcfbd94-parameters","parameter":[{"name":"subject","valueString":"2f7681fa-66b0-4395-aa35-7622e37709ae"}]}],"extension":[{"url":"http://hl7.org/fhir/StructureDefinition/cqf-inputParameters","valueReference":{"reference":"#d034ae64-5ec7-45be-be10-2bee4bcfbd94-parameters"}},{"url":"http://hl7.org/fhir/us/cqfmeasures/StructureDefinition/cqfm-testCaseDescription","valueMarkdown":"\"ED visit and antithrombotic not administered due to patient refusal\nMedOrdPatRefus_eq 0day during EncIP withEd\"\n"}],"modifierExtension":[{"url":"http://hl7.org/fhir/us/cqfmeasures/StructureDefinition/cqfm-isTestCase","valueBoolean":true}],"status":"complete","type":"individual","measure":"https://madie.cms.gov/Measure/CMS72FHIRSTKAntithromboticDay2","period":{"start":"2026-01-01","end":"2026-12-31"},"group":[{"id":"Group_1","population":[{"id":"InitialPopulation_1","code":{"coding":[{"system":"http://terminology.hl7.org/CodeSystem/measure-population","code":"initial-population","display":"Initial Population"}]},"count":1},{"id":"Denominator_1","code":{"coding":[{"system":"http://terminology.hl7.org/CodeSystem/measure-population","code":"denominator","display":"Denominator"}]},"count":1},{"id":"DenominatorExclusion_1","code":{"coding":[{"system":"http://terminology.hl7.org/CodeSystem/measure-population","code":"denominator-exclusion","display":"Denominator Exclusion"}]},"count":0},{"id":"Numerator_1","code":{"coding":[{"system":"http://terminology.hl7.org/CodeSystem/measure-population","code":"numerator","display":"Numerator"}]},"count":0},{"id":"DenominatorException_1","code":{"coding":[{"system":"http://terminology.hl7.org/CodeSystem/measure-population","code":"denominator-exception","display":"Denominator Exception"}]},"count":1}],"measureScore":{"value":0.0}}],"evaluatedResource":[{"reference":"Patient/2f7681fa-66b0-4395-aa35-7622e37709ae"},{"reference":"Encounter/54aef62d-a13c-4aff-97ee-3968973a6f5c"},{"reference":"Encounter/f7d1b772-3b2e-477b-836c-bc5ca3754460"},{"reference":"Claim/5ca62962b8484628b8de1ec5"},{"reference":"MedicationAdministration/e5d8f211-1585-4be5-bc2e-4774a2e55049"},{"reference":"Coverage/91531372-d990-44e9-a0fc-10c1ca5f53ba"},{"reference":"Condition/2a7f2afe-1316-4fae-96c2-d2f63b94e188"},{"reference":"Organization/69182997-6895-4cca-807e-f0b429b42ad7"}]},"request":{"method":"PUT","url":"MeasureReport/53750532-055d-41df-81a9-c0f4da609b7d"}},{"resource":{"resourceType":"Coverage","id":"91531372-d990-44e9-a0fc-10c1ca5f53ba","status":"active","subscriberId":"523435","beneficiary":{"reference":"Patient/2f7681fa-66b0-4395-aa35-7622e37709ae"},"relationship":{"coding":[{"system":"http://terminology.hl7.org/CodeSystem/subscriber-relationship","code":"self"}]},"period":{"start":"1976-09-26T08:00:00Z"},"payor":[{"reference":"Organization/69182997-6895-4cca-807e-f0b429b42ad7"}]},"request":{"method":"PUT","url":"Coverage/91531372-d990-44e9-a0fc-10c1ca5f53ba"}},{"resource":{"resourceType":"MedicationAdministration","id":"e5d8f211-1585-4be5-bc2e-4774a2e55049","meta":{"profile":["http://hl7.org/fhir/us/qicore/StructureDefinition/qicore-medicationadministrationnotdone"]},"extension":[{"url":"http://hl7.org/fhir/us/qicore/StructureDefinition/qicore-recorded","valueDateTime":"2026-10-10T09:00:00Z"}],"status":"not-done","statusReason":[{"coding":[{"system":"http://snomed.info/sct","code":"443390004","display":"Refused"}]}],"medicationCodeableConcept":{"coding":[{"system":"http://www.nlm.nih.gov/research/umls/rxnorm","code":"1037045"}]},"subject":{"reference":"Patient/2f7681fa-66b0-4395-aa35-7622e37709ae"},"effectivePeriod":{"start":"2026-10-10T09:00:00Z"}},"request":{"method":"PUT","url":"MedicationAdministration/e5d8f211-1585-4be5-bc2e-4774a2e55049"}},{"resource":{"resourceType":"Claim","id":"5ca62962b8484628b8de1ec5","meta":{"profile":["http://hl7.org/fhir/us/qicore/StructureDefinition/qicore-claim"]},"status":"active","type":{"coding":[{"system":"http://terminology.hl7.org/CodeSystem/claim-type","code":"institutional"}]},"use":"claim","patient":{"reference":"Patient/d170a0a8-b5ad-4303-b6df-e304dd5f92ad"},"created":"2026-12-01","provider":{"reference":"Practitioner/practitioner-123456"},"priority":{"coding":[{"system":"http://terminology.hl7.org/CodeSystem/processpriority","code":"normal"}]},"diagnosis":[{"sequence":1,"diagnosisCodeableConcept":{"coding":[{"system":"http://hl7.org/fhir/sid/icd-10-cm","code":"I63.00"}]},"type":[{"coding":[{"system":"http://terminology.hl7.org/CodeSystem/ex-diagnosistype","code":"principal"}]}]}],"insurance":[{"sequence":1,"focal":true,"coverage":{"reference":"Coverage/5fa041661c76ba66d9959367"}}],"item":[{"sequence":1,"diagnosisSequence":[1],"productOrService":{"coding":[{"system":"http://terminology.hl7.org/CodeSystem/ex-USCLS","code":"99555"}]},"encounter":[{"reference":"Encounter/f7d1b772-3b2e-477b-836c-bc5ca3754460"}]}]},"request":{"method":"PUT","url":"Claim/5ca62962b8484628b8de1ec5"}}]}