{"resourceType":"Bundle","id":"tests-0bc6d4d8-81a0-42a2-9efb-9efbfc3ebe2a-bundle","type":"transaction","entry":[{"resource":{"resourceType":"Procedure","id":"14bee4bd-c4b5-4c87-8b72-60e1ffded8b0","meta":{"profile":["http://hl7.org/fhir/us/qicore/StructureDefinition/qicore-procedure"]},"extension":[{"url":"http://hl7.org/fhir/us/qicore/StructureDefinition/qicore-recorded","valueDateTime":"2026-11-19T13:35:00Z"}],"status":"completed","code":{"coding":[{"system":"http://snomed.info/sct","code":"307521008"}]},"subject":{"reference":"Patient/0bc6d4d8-81a0-42a2-9efb-9efbfc3ebe2a"},"encounter":{"reference":"Encounter/a1046a51-422e-4513-9f80-8e31fd3a6b5d"},"performedPeriod":{"start":"2026-10-09T09:00:00Z"}},"request":{"method":"PUT","url":"Procedure/14bee4bd-c4b5-4c87-8b72-60e1ffded8b0"}},{"resource":{"resourceType":"Bundle","id":"60f82c2e98086b570510e26f","type":"transaction","entry":[{"fullUrl":"https://madie.cms.gov/Patient/0bc6d4d8-81a0-42a2-9efb-9efbfc3ebe2a","resource":{"resourceType":"Patient","id":"0bc6d4d8-81a0-42a2-9efb-9efbfc3ebe2a","meta":{"profile":["http://hl7.org/fhir/us/qicore/StructureDefinition/qicore-patient"]},"text":{"status":"generated","div":"<div xmlns=\"http://www.w3.org/1999/xhtml\"><div class=\"hapiHeaderText\">ProcTPA&lt;24hrB4_EncIP <b>DENEXPASS </b></div><table class=\"hapiPropertyTable\"><tbody><tr><td>Identifier</td><td>74a7987d4786d2cb2d90aceec2d71900</td></tr><tr><td>Date of birth</td><td><span>26 September 1975</span></td></tr></tbody></table></div>"},"extension":[{"url":"http://hl7.org/fhir/us/core/StructureDefinition/us-core-race","extension":[{"url":"ombCategory","valueCoding":{"system":"urn:oid:2.16.840.1.113883.6.238","code":"2054-5","display":"Black or African American","userSelected":true}},{"url":"text","valueString":"Black or African American"}]},{"url":"http://hl7.org/fhir/us/core/StructureDefinition/us-core-ethnicity","extension":[{"url":"ombCategory","valueCoding":{"system":"urn:oid:2.16.840.1.113883.6.238","code":"2186-5","display":"Not Hispanic or Latino","userSelected":true}},{"url":"text","valueString":"Not Hispanic or Latino"}]}],"identifier":[{"type":{"coding":[{"system":"http://terminology.hl7.org/CodeSystem/v2-0203","code":"MR"}]},"system":"https://bonnie-fhir.healthit.gov/","value":"60f82c2e98086b570510e26f"}],"active":true,"name":[{"use":"usual","family":"DENEXPass","given":["ProcTPALT24hrB4EncIP"]}],"gender":"female","birthDate":"1976-09-26"},"request":{"method":"PUT","url":"Patient/0bc6d4d8-81a0-42a2-9efb-9efbfc3ebe2a"}},{"fullUrl":"https://madie.cms.gov/Encounter/a1046a51-422e-4513-9f80-8e31fd3a6b5d","resource":{"resourceType":"Encounter","id":"a1046a51-422e-4513-9f80-8e31fd3a6b5d","meta":{"profile":["http://hl7.org/fhir/us/qicore/StructureDefinition/qicore-encounter"]},"status":"finished","class":{"system":"http://terminology.hl7.org/CodeSystem/v3-ActCode","code":"IMP","display":"inpatient encounter"},"type":[{"coding":[{"system":"http://snomed.info/sct","code":"32485007"}]}],"subject":{"reference":"Patient/0bc6d4d8-81a0-42a2-9efb-9efbfc3ebe2a"},"period":{"start":"2026-10-10T09:00:00Z","end":"2026-10-12T11:15:00.000+00:00"},"length":{"value":2,"unit":"days"},"reasonCode":[{"coding":[{"system":"http://snomed.info/sct","code":"69245005"}]}],"reasonReference":[{"reference":"Condition/ischemic-stroke-6d66"}]},"request":{"method":"PUT","url":"Encounter/a1046a51-422e-4513-9f80-8e31fd3a6b5d"}},{"fullUrl":"https://madie.cms.gov/Coverage/15a49319-e76c-4d10-8f1c-5a41168fed9b","resource":{"resourceType":"Coverage","id":"15a49319-e76c-4d10-8f1c-5a41168fed9b","status":"active","beneficiary":{"reference":"Patient/0bc6d4d8-81a0-42a2-9efb-9efbfc3ebe2a"},"period":{"start":"1976-09-26T08:00:00Z"},"payor":[{"reference":"Organization/ccc5f22d-4484-4386-ad6d-21d74fdd84c1"}]},"request":{"method":"PUT","url":"Coverage/15a49319-e76c-4d10-8f1c-5a41168fed9b"}},{"fullUrl":"https://madie.cms.gov/Procedure/14bee4bd-c4b5-4c87-8b72-60e1ffded8b0","resource":{"resourceType":"Procedure","id":"14bee4bd-c4b5-4c87-8b72-60e1ffded8b0","meta":{"profile":["http://hl7.org/fhir/us/qicore/StructureDefinition/qicore-procedure"]},"extension":[{"url":"http://hl7.org/fhir/us/qicore/StructureDefinition/qicore-recorded","valueDateTime":"2026-11-19T13:35:00Z"}],"status":"completed","code":{"coding":[{"system":"http://snomed.info/sct","code":"307521008"}]},"subject":{"reference":"Patient/0bc6d4d8-81a0-42a2-9efb-9efbfc3ebe2a"},"encounter":{"reference":"Encounter/a1046a51-422e-4513-9f80-8e31fd3a6b5d"},"performedPeriod":{"start":"2026-10-09T09:00:00Z"}},"request":{"method":"PUT","url":"Procedure/14bee4bd-c4b5-4c87-8b72-60e1ffded8b0"}},{"fullUrl":"https://madie.cms.gov/Condition/6ca21962-7287-495d-89b0-34f2dd60a5d4","resource":{"resourceType":"Condition","id":"6ca21962-7287-495d-89b0-34f2dd60a5d4","meta":{"profile":["http://hl7.org/fhir/us/qicore/StructureDefinition/qicore-condition-encounter-diagnosis"]},"clinicalStatus":{"coding":[{"system":"http://terminology.hl7.org/CodeSystem/condition-clinical","code":"active"}]},"verificationStatus":{"coding":[{"system":"http://terminology.hl7.org/CodeSystem/condition-ver-status","code":"confirmed"}]},"category":[{"coding":[{"system":"http://terminology.hl7.org/CodeSystem/condition-category","code":"encounter-diagnosis","display":"Encounter Diagnosis"}]}],"code":{"coding":[{"system":"http://snomed.info/sct","version":"2020-09","code":"111297002","display":"Nonparalytic stroke (disorder)","userSelected":true}]},"subject":{"reference":"Patient/0bc6d4d8-81a0-42a2-9efb-9efbfc3ebe2a"},"encounter":{"reference":"Encounter/a1046a51-422e-4513-9f80-8e31fd3a6b5d"},"recordedDate":"2026-08-13T08:00:00Z"},"request":{"method":"PUT","url":"Condition/6ca21962-7287-495d-89b0-34f2dd60a5d4"}},{"fullUrl":"https://madie.cms.gov/claim/5ca62962b8484628b8de1ec5","resource":{"resourceType":"Claim","id":"5ca62962b8484628b8de1ec5","meta":{"profile":["http://hl7.org/fhir/us/qicore/StructureDefinition/qicore-claim"]},"status":"active","type":{"coding":[{"system":"http://terminology.hl7.org/CodeSystem/claim-type","code":"institutional"}]},"use":"claim","patient":{"reference":"Patient/0bc6d4d8-81a0-42a2-9efb-9efbfc3ebe2a"},"created":"2026-12-01","provider":{"reference":"Practitioner/practitioner-123456"},"priority":{"coding":[{"system":"http://terminology.hl7.org/CodeSystem/processpriority","code":"normal"}]},"diagnosis":[{"sequence":1,"diagnosisCodeableConcept":{"coding":[{"system":"http://hl7.org/fhir/sid/icd-10-cm","code":"I63.00"}]},"type":[{"coding":[{"system":"http://terminology.hl7.org/CodeSystem/ex-diagnosistype","code":"principal"}]}]}],"insurance":[{"sequence":1,"focal":true,"coverage":{"reference":"Coverage/5fa041661c76ba66d9959367"}}],"item":[{"sequence":1,"diagnosisSequence":[1],"productOrService":{"coding":[{"system":"http://terminology.hl7.org/CodeSystem/ex-USCLS","code":"99555"}]},"encounter":[{"reference":"Encounter/a1046a51-422e-4513-9f80-8e31fd3a6b5d"}]}]},"request":{"method":"PUT","url":"Claim/5ca62962b8484628b8de1ec5"}},{"fullUrl":"https://madie.cms.gov/Organization/ccc5f22d-4484-4386-ad6d-21d74fdd84c1","resource":{"resourceType":"Organization","id":"ccc5f22d-4484-4386-ad6d-21d74fdd84c1","meta":{"profile":["http://hl7.org/fhir/us/qicore/StructureDefinition/qicore-organization"]},"identifier":[{"use":"temp","system":"urn:oid:2.16.840.1.113883.4.4","value":"21-3259825"}],"active":true,"type":[{"coding":[{"system":"http://terminology.hl7.org/CodeSystem/organization-type","code":"pay","display":"Payer"}]}],"name":"Blue Cross Blue Shield of Texas","telecom":[{"system":"phone","value":"(+1) 972-766-6900"}],"address":[{"use":"billing","type":"postal","line":["P.O. Box 660044"],"city":"Dallas","state":"TX","postalCode":"75266-0044","country":"USA"}]},"request":{"method":"PUT","url":"Organization/ccc5f22d-4484-4386-ad6d-21d74fdd84c1"}},{"fullUrl":"https://madie.cms.gov/MeasureReport/6d323311-40a5-415e-9aad-92b46e37f047","resource":{"resourceType":"MeasureReport","id":"6d323311-40a5-415e-9aad-92b46e37f047","meta":{"profile":["http://hl7.org/fhir/us/cqfmeasures/StructureDefinition/test-case-cqfm"]},"contained":[{"resourceType":"Parameters","id":"595eca28-bb97-4d0f-acc1-c7a4d2b21e15-parameters","parameter":[{"name":"subject","valueString":"0bc6d4d8-81a0-42a2-9efb-9efbfc3ebe2a"}]}],"extension":[{"url":"http://hl7.org/fhir/StructureDefinition/cqf-inputParameters","valueReference":{"reference":"#595eca28-bb97-4d0f-acc1-c7a4d2b21e15-parameters"}},{"url":"http://hl7.org/fhir/us/cqfmeasures/StructureDefinition/cqfm-testCaseDescription","valueMarkdown":"Patient receives  Procedure IV or IA  24 hours and one minute before IP encounter starts\n"}],"modifierExtension":[{"url":"http://hl7.org/fhir/us/cqfmeasures/StructureDefinition/cqfm-isTestCase","valueBoolean":true}],"status":"complete","type":"individual","measure":"https://madie.cms.gov/Measure/CMS72FHIRSTKAntithromboticDay2","period":{"start":"2026-01-01","end":"2026-12-31"},"group":[{"id":"Group_1","population":[{"id":"InitialPopulation_1","code":{"coding":[{"system":"http://terminology.hl7.org/CodeSystem/measure-population","code":"initial-population","display":"Initial Population"}]},"count":1},{"id":"Denominator_1","code":{"coding":[{"system":"http://terminology.hl7.org/CodeSystem/measure-population","code":"denominator","display":"Denominator"}]},"count":1},{"id":"DenominatorExclusion_1","code":{"coding":[{"system":"http://terminology.hl7.org/CodeSystem/measure-population","code":"denominator-exclusion","display":"Denominator Exclusion"}]},"count":1},{"id":"Numerator_1","code":{"coding":[{"system":"http://terminology.hl7.org/CodeSystem/measure-population","code":"numerator","display":"Numerator"}]},"count":0},{"id":"DenominatorException_1","code":{"coding":[{"system":"http://terminology.hl7.org/CodeSystem/measure-population","code":"denominator-exception","display":"Denominator Exception"}]},"count":0}],"measureScore":{"value":0.0}}],"evaluatedResource":[{"reference":"Patient/0bc6d4d8-81a0-42a2-9efb-9efbfc3ebe2a"},{"reference":"Encounter/a1046a51-422e-4513-9f80-8e31fd3a6b5d"},{"reference":"Coverage/15a49319-e76c-4d10-8f1c-5a41168fed9b"},{"reference":"Procedure/14bee4bd-c4b5-4c87-8b72-60e1ffded8b0"},{"reference":"Condition/6ca21962-7287-495d-89b0-34f2dd60a5d4"},{"reference":"Claim/5ca62962b8484628b8de1ec5"},{"reference":"Organization/ccc5f22d-4484-4386-ad6d-21d74fdd84c1"}]},"request":{"method":"PUT","url":"MeasureReport/6d323311-40a5-415e-9aad-92b46e37f047"}}]},"request":{"method":"PUT","url":"Bundle/60f82c2e98086b570510e26f"}},{"resource":{"resourceType":"Coverage","id":"15a49319-e76c-4d10-8f1c-5a41168fed9b","status":"active","beneficiary":{"reference":"Patient/0bc6d4d8-81a0-42a2-9efb-9efbfc3ebe2a"},"period":{"start":"1976-09-26T08:00:00Z"},"payor":[{"reference":"Organization/ccc5f22d-4484-4386-ad6d-21d74fdd84c1"}]},"request":{"method":"PUT","url":"Coverage/15a49319-e76c-4d10-8f1c-5a41168fed9b"}},{"resource":{"resourceType":"Patient","id":"0bc6d4d8-81a0-42a2-9efb-9efbfc3ebe2a","meta":{"profile":["http://hl7.org/fhir/us/qicore/StructureDefinition/qicore-patient"]},"text":{"status":"generated","div":"<div xmlns=\"http://www.w3.org/1999/xhtml\"><div class=\"hapiHeaderText\">ProcTPA&lt;24hrB4_EncIP <b>DENEXPASS </b></div><table class=\"hapiPropertyTable\"><tbody><tr><td>Identifier</td><td>74a7987d4786d2cb2d90aceec2d71900</td></tr><tr><td>Date of birth</td><td><span>26 September 1975</span></td></tr></tbody></table></div>"},"extension":[{"url":"http://hl7.org/fhir/us/core/StructureDefinition/us-core-race","extension":[{"url":"ombCategory","valueCoding":{"system":"urn:oid:2.16.840.1.113883.6.238","code":"2054-5","display":"Black or African American","userSelected":true}},{"url":"text","valueString":"Black or African American"}]},{"url":"http://hl7.org/fhir/us/core/StructureDefinition/us-core-ethnicity","extension":[{"url":"ombCategory","valueCoding":{"system":"urn:oid:2.16.840.1.113883.6.238","code":"2186-5","display":"Not Hispanic or Latino","userSelected":true}},{"url":"text","valueString":"Not Hispanic or Latino"}]}],"identifier":[{"type":{"coding":[{"system":"http://terminology.hl7.org/CodeSystem/v2-0203","code":"MR"}]},"system":"https://bonnie-fhir.healthit.gov/","value":"60f82c2e98086b570510e26f"}],"active":true,"name":[{"use":"usual","family":"DENEXPass","given":["ProcTPALT24hrB4EncIP"]}],"gender":"female","birthDate":"1976-09-26"},"request":{"method":"PUT","url":"Patient/0bc6d4d8-81a0-42a2-9efb-9efbfc3ebe2a"}},{"resource":{"resourceType":"Encounter","id":"a1046a51-422e-4513-9f80-8e31fd3a6b5d","meta":{"profile":["http://hl7.org/fhir/us/qicore/StructureDefinition/qicore-encounter"]},"status":"finished","class":{"system":"http://terminology.hl7.org/CodeSystem/v3-ActCode","code":"IMP","display":"inpatient encounter"},"type":[{"coding":[{"system":"http://snomed.info/sct","code":"32485007"}]}],"subject":{"reference":"Patient/0bc6d4d8-81a0-42a2-9efb-9efbfc3ebe2a"},"period":{"start":"2026-10-10T09:00:00Z","end":"2026-10-12T11:15:00.000+00:00"},"length":{"value":2,"unit":"days"},"reasonCode":[{"coding":[{"system":"http://snomed.info/sct","code":"69245005"}]}],"reasonReference":[{"reference":"Condition/ischemic-stroke-6d66"}]},"request":{"method":"PUT","url":"Encounter/a1046a51-422e-4513-9f80-8e31fd3a6b5d"}},{"resource":{"resourceType":"MeasureReport","id":"6d323311-40a5-415e-9aad-92b46e37f047","meta":{"profile":["http://hl7.org/fhir/us/cqfmeasures/StructureDefinition/test-case-cqfm"]},"contained":[{"resourceType":"Parameters","id":"595eca28-bb97-4d0f-acc1-c7a4d2b21e15-parameters","parameter":[{"name":"subject","valueString":"0bc6d4d8-81a0-42a2-9efb-9efbfc3ebe2a"}]}],"extension":[{"url":"http://hl7.org/fhir/StructureDefinition/cqf-inputParameters","valueReference":{"reference":"#595eca28-bb97-4d0f-acc1-c7a4d2b21e15-parameters"}},{"url":"http://hl7.org/fhir/us/cqfmeasures/StructureDefinition/cqfm-testCaseDescription","valueMarkdown":"Patient receives  Procedure IV or IA  24 hours and one minute before IP encounter starts\n"}],"modifierExtension":[{"url":"http://hl7.org/fhir/us/cqfmeasures/StructureDefinition/cqfm-isTestCase","valueBoolean":true}],"status":"complete","type":"individual","measure":"https://madie.cms.gov/Measure/CMS72FHIRSTKAntithromboticDay2","period":{"start":"2026-01-01","end":"2026-12-31"},"group":[{"id":"Group_1","population":[{"id":"InitialPopulation_1","code":{"coding":[{"system":"http://terminology.hl7.org/CodeSystem/measure-population","code":"initial-population","display":"Initial Population"}]},"count":1},{"id":"Denominator_1","code":{"coding":[{"system":"http://terminology.hl7.org/CodeSystem/measure-population","code":"denominator","display":"Denominator"}]},"count":1},{"id":"DenominatorExclusion_1","code":{"coding":[{"system":"http://terminology.hl7.org/CodeSystem/measure-population","code":"denominator-exclusion","display":"Denominator Exclusion"}]},"count":1},{"id":"Numerator_1","code":{"coding":[{"system":"http://terminology.hl7.org/CodeSystem/measure-population","code":"numerator","display":"Numerator"}]},"count":0},{"id":"DenominatorException_1","code":{"coding":[{"system":"http://terminology.hl7.org/CodeSystem/measure-population","code":"denominator-exception","display":"Denominator Exception"}]},"count":0}],"measureScore":{"value":0.0}}],"evaluatedResource":[{"reference":"Patient/0bc6d4d8-81a0-42a2-9efb-9efbfc3ebe2a"},{"reference":"Encounter/a1046a51-422e-4513-9f80-8e31fd3a6b5d"},{"reference":"Coverage/15a49319-e76c-4d10-8f1c-5a41168fed9b"},{"reference":"Procedure/14bee4bd-c4b5-4c87-8b72-60e1ffded8b0"},{"reference":"Condition/6ca21962-7287-495d-89b0-34f2dd60a5d4"},{"reference":"Claim/5ca62962b8484628b8de1ec5"},{"reference":"Organization/ccc5f22d-4484-4386-ad6d-21d74fdd84c1"}]},"request":{"method":"PUT","url":"MeasureReport/6d323311-40a5-415e-9aad-92b46e37f047"}},{"resource":{"resourceType":"Claim","id":"5ca62962b8484628b8de1ec5","meta":{"profile":["http://hl7.org/fhir/us/qicore/StructureDefinition/qicore-claim"]},"status":"active","type":{"coding":[{"system":"http://terminology.hl7.org/CodeSystem/claim-type","code":"institutional"}]},"use":"claim","patient":{"reference":"Patient/0bc6d4d8-81a0-42a2-9efb-9efbfc3ebe2a"},"created":"2026-12-01","provider":{"reference":"Practitioner/practitioner-123456"},"priority":{"coding":[{"system":"http://terminology.hl7.org/CodeSystem/processpriority","code":"normal"}]},"diagnosis":[{"sequence":1,"diagnosisCodeableConcept":{"coding":[{"system":"http://hl7.org/fhir/sid/icd-10-cm","code":"I63.00"}]},"type":[{"coding":[{"system":"http://terminology.hl7.org/CodeSystem/ex-diagnosistype","code":"principal"}]}]}],"insurance":[{"sequence":1,"focal":true,"coverage":{"reference":"Coverage/5fa041661c76ba66d9959367"}}],"item":[{"sequence":1,"diagnosisSequence":[1],"productOrService":{"coding":[{"system":"http://terminology.hl7.org/CodeSystem/ex-USCLS","code":"99555"}]},"encounter":[{"reference":"Encounter/a1046a51-422e-4513-9f80-8e31fd3a6b5d"}]}]},"request":{"method":"PUT","url":"Claim/5ca62962b8484628b8de1ec5"}},{"resource":{"resourceType":"Condition","id":"6ca21962-7287-495d-89b0-34f2dd60a5d4","meta":{"profile":["http://hl7.org/fhir/us/qicore/StructureDefinition/qicore-condition-encounter-diagnosis"]},"clinicalStatus":{"coding":[{"system":"http://terminology.hl7.org/CodeSystem/condition-clinical","code":"active"}]},"verificationStatus":{"coding":[{"system":"http://terminology.hl7.org/CodeSystem/condition-ver-status","code":"confirmed"}]},"category":[{"coding":[{"system":"http://terminology.hl7.org/CodeSystem/condition-category","code":"encounter-diagnosis","display":"Encounter Diagnosis"}]}],"code":{"coding":[{"system":"http://snomed.info/sct","version":"2020-09","code":"111297002","display":"Nonparalytic stroke (disorder)","userSelected":true}]},"subject":{"reference":"Patient/0bc6d4d8-81a0-42a2-9efb-9efbfc3ebe2a"},"encounter":{"reference":"Encounter/a1046a51-422e-4513-9f80-8e31fd3a6b5d"},"recordedDate":"2026-08-13T08:00:00Z"},"request":{"method":"PUT","url":"Condition/6ca21962-7287-495d-89b0-34f2dd60a5d4"}},{"resource":{"resourceType":"Organization","id":"ccc5f22d-4484-4386-ad6d-21d74fdd84c1","meta":{"profile":["http://hl7.org/fhir/us/qicore/StructureDefinition/qicore-organization"]},"identifier":[{"use":"temp","system":"urn:oid:2.16.840.1.113883.4.4","value":"21-3259825"}],"active":true,"type":[{"coding":[{"system":"http://terminology.hl7.org/CodeSystem/organization-type","code":"pay","display":"Payer"}]}],"name":"Blue Cross Blue Shield of Texas","telecom":[{"system":"phone","value":"(+1) 972-766-6900"}],"address":[{"use":"billing","type":"postal","line":["P.O. Box 660044"],"city":"Dallas","state":"TX","postalCode":"75266-0044","country":"USA"}]},"request":{"method":"PUT","url":"Organization/ccc5f22d-4484-4386-ad6d-21d74fdd84c1"}}]}