{"resourceType":"Bundle","id":"tests-b569157b-b263-4b72-ab40-132bea1d8f71-bundle","type":"transaction","entry":[{"resource":{"resourceType":"Practitioner","id":"27e2a944-c4ff-4e08-879e-877b80355563","meta":{"profile":["http://hl7.org/fhir/us/qicore/StructureDefinition/qicore-practitioner"]},"identifier":[{"system":"http://hl7.org/fhir/sid/us-npi","value":"9999999896"}],"name":[{"family":"Evil","prefix":["Dr"]}]},"request":{"method":"PUT","url":"Practitioner/27e2a944-c4ff-4e08-879e-877b80355563"}},{"resource":{"resourceType":"Encounter","id":"eec136fa-da76-420d-8fa6-c029cc863499","meta":{"profile":["http://hl7.org/fhir/us/qicore/StructureDefinition/qicore-encounter"]},"status":"finished","class":{"system":"http://terminology.hl7.org/CodeSystem/v3-ActCode","code":"IMP","display":"inpatient encounter"},"type":[{"coding":[{"system":"http://snomed.info/sct","code":"32485007"}]}],"subject":{"reference":"Patient/b569157b-b263-4b72-ab40-132bea1d8f71"},"period":{"start":"2026-10-10T09:00:00Z","end":"2026-10-12T11:15:00.000+00:00"},"length":{"value":2,"unit":"days"},"reasonReference":[{"reference":"Condition/a9879c53-8fd0-4523-b5d7-b867a3f915dc"}]},"request":{"method":"PUT","url":"Encounter/eec136fa-da76-420d-8fa6-c029cc863499"}},{"resource":{"resourceType":"Bundle","id":"60f82c2d98086b570510e259","type":"transaction","entry":[{"fullUrl":"https://madie.cms.gov/Patient/b569157b-b263-4b72-ab40-132bea1d8f71","resource":{"resourceType":"Patient","id":"b569157b-b263-4b72-ab40-132bea1d8f71","meta":{"profile":["http://hl7.org/fhir/us/qicore/StructureDefinition/qicore-patient"]},"text":{"status":"generated","div":"<div xmlns=\"http://www.w3.org/1999/xhtml\"><div class=\"hapiHeaderText\">MedAntithromboticStart_eq0dayDuringEncIP <b>NUMERPASS </b></div><table class=\"hapiPropertyTable\"><tbody><tr><td>Identifier</td><td>6aa79e9cebbde8275335fd99b030f3d5</td></tr><tr><td>Date of birth</td><td><span>26 September 1975</span></td></tr></tbody></table></div>"},"extension":[{"url":"http://hl7.org/fhir/us/core/StructureDefinition/us-core-race","extension":[{"url":"ombCategory","valueCoding":{"system":"urn:oid:2.16.840.1.113883.6.238","code":"2054-5","display":"Black or African American","userSelected":true}},{"url":"text","valueString":"Black or African American"}]},{"url":"http://hl7.org/fhir/us/core/StructureDefinition/us-core-ethnicity","extension":[{"url":"ombCategory","valueCoding":{"system":"urn:oid:2.16.840.1.113883.6.238","code":"2186-5","display":"Not Hispanic or Latino","userSelected":true}},{"url":"text","valueString":"Not Hispanic or Latino"}]}],"identifier":[{"type":{"coding":[{"system":"http://terminology.hl7.org/CodeSystem/v2-0203","code":"MR"}]},"system":"https://bonnie-fhir.healthit.gov/","value":"60f82c2d98086b570510e259"}],"active":true,"name":[{"use":"usual","family":"NUMERPass","given":["MedAntithromboticStart_eq0dayDuringEncIP "]}],"gender":"female","birthDate":"1976-09-26"},"request":{"method":"PUT","url":"Patient/b569157b-b263-4b72-ab40-132bea1d8f71"}},{"fullUrl":"https://madie.cms.gov/Encounter/eec136fa-da76-420d-8fa6-c029cc863499","resource":{"resourceType":"Encounter","id":"eec136fa-da76-420d-8fa6-c029cc863499","meta":{"profile":["http://hl7.org/fhir/us/qicore/StructureDefinition/qicore-encounter"]},"status":"finished","class":{"system":"http://terminology.hl7.org/CodeSystem/v3-ActCode","code":"IMP","display":"inpatient encounter"},"type":[{"coding":[{"system":"http://snomed.info/sct","code":"32485007"}]}],"subject":{"reference":"Patient/b569157b-b263-4b72-ab40-132bea1d8f71"},"period":{"start":"2026-10-10T09:00:00Z","end":"2026-10-12T11:15:00.000+00:00"},"length":{"value":2,"unit":"days"},"reasonReference":[{"reference":"Condition/a9879c53-8fd0-4523-b5d7-b867a3f915dc"}]},"request":{"method":"PUT","url":"Encounter/eec136fa-da76-420d-8fa6-c029cc863499"}},{"fullUrl":"https://madie.cms.gov/claim/5ca62962b8484628b8de1ec5","resource":{"resourceType":"Claim","id":"5ca62962b8484628b8de1ec5","meta":{"profile":["http://hl7.org/fhir/us/qicore/StructureDefinition/qicore-claim"]},"status":"active","type":{"coding":[{"system":"http://terminology.hl7.org/CodeSystem/claim-type","code":"institutional"}]},"use":"claim","patient":{"reference":"Patient/d170a0a8-b5ad-4303-b6df-e304dd5f92ad"},"created":"2026-12-01","provider":{"reference":"Practitioner/27e2a944-c4ff-4e08-879e-877b80355563"},"priority":{"coding":[{"system":"http://terminology.hl7.org/CodeSystem/processpriority","code":"normal"}]},"diagnosis":[{"sequence":1,"diagnosisCodeableConcept":{"coding":[{"system":"http://hl7.org/fhir/sid/icd-10-cm","code":"I63.00"}]},"type":[{"coding":[{"system":"http://terminology.hl7.org/CodeSystem/ex-diagnosistype","code":"principal"}]}]}],"insurance":[{"sequence":1,"focal":true,"coverage":{"reference":"Coverage/5fa041661c76ba66d9959367"}}],"item":[{"sequence":1,"diagnosisSequence":[1],"productOrService":{"coding":[{"system":"http://terminology.hl7.org/CodeSystem/ex-USCLS","code":"99555"}]},"encounter":[{"reference":"Encounter/eec136fa-da76-420d-8fa6-c029cc863499"}]}]},"request":{"method":"PUT","url":"Claim/5ca62962b8484628b8de1ec5"}},{"fullUrl":"https://madie.cms.gov/MedicationAdministration/a90e1054-4259-4452-874b-414a6a39e7b4","resource":{"resourceType":"MedicationAdministration","id":"a90e1054-4259-4452-874b-414a6a39e7b4","meta":{"profile":["http://hl7.org/fhir/us/qicore/StructureDefinition/qicore-medicationadministration"]},"status":"completed","medicationCodeableConcept":{"coding":[{"system":"http://www.nlm.nih.gov/research/umls/rxnorm","code":"1037045"}]},"subject":{"reference":"Patient/b569157b-b263-4b72-ab40-132bea1d8f71"},"effectivePeriod":{"start":"2026-10-11T11:00:00Z"}},"request":{"method":"PUT","url":"MedicationAdministration/a90e1054-4259-4452-874b-414a6a39e7b4"}},{"fullUrl":"https://madie.cms.gov/Coverage/8065c56c-4e06-4854-ace7-39fd1b22b4e1","resource":{"resourceType":"Coverage","id":"8065c56c-4e06-4854-ace7-39fd1b22b4e1","status":"active","subscriberId":"523435","beneficiary":{"reference":"Patient/b569157b-b263-4b72-ab40-132bea1d8f71"},"relationship":{"coding":[{"system":"http://terminology.hl7.org/CodeSystem/subscriber-relationship","code":"self"}]},"period":{"start":"1976-09-26T08:00:00Z"},"payor":[{"reference":"Organization/d5a20061-cbfd-47b0-96ac-45cb6a36199b"}]},"request":{"method":"PUT","url":"Coverage/8065c56c-4e06-4854-ace7-39fd1b22b4e1"}},{"fullUrl":"https://madie.cms.gov/Condition/a9879c53-8fd0-4523-b5d7-b867a3f915dc","resource":{"resourceType":"Condition","id":"a9879c53-8fd0-4523-b5d7-b867a3f915dc","meta":{"profile":["http://hl7.org/fhir/us/qicore/StructureDefinition/qicore-condition-problems-health-concerns"]},"clinicalStatus":{"coding":[{"system":"http://terminology.hl7.org/CodeSystem/condition-clinical","code":"active"}]},"verificationStatus":{"coding":[{"system":"http://terminology.hl7.org/CodeSystem/condition-ver-status","code":"confirmed"}]},"category":[{"coding":[{"system":"http://terminology.hl7.org/CodeSystem/condition-category","code":"encounter-diagnosis","display":"Encounter Diagnosis"}]}],"code":{"coding":[{"system":"http://snomed.info/sct","version":"2020-09","code":"111297002","display":"Nonparalytic stroke (disorder)","userSelected":true}]},"subject":{"reference":"Patient/b569157b-b263-4b72-ab40-132bea1d8f71"},"recordedDate":"2026-08-16T08:00:00Z"},"request":{"method":"PUT","url":"Condition/a9879c53-8fd0-4523-b5d7-b867a3f915dc"}},{"fullUrl":"https://madie.cms.gov/Organization/d5a20061-cbfd-47b0-96ac-45cb6a36199b","resource":{"resourceType":"Organization","id":"d5a20061-cbfd-47b0-96ac-45cb6a36199b","meta":{"profile":["http://hl7.org/fhir/us/qicore/StructureDefinition/qicore-organization"]},"identifier":[{"use":"temp","system":"urn:oid:2.16.840.1.113883.4.4","value":"21-3259825"}],"active":true,"type":[{"coding":[{"system":"http://terminology.hl7.org/CodeSystem/organization-type","code":"pay","display":"Payer"}]}],"name":"Blue Cross Blue Shield of Texas","telecom":[{"system":"phone","value":"(+1) 972-766-6900"}],"address":[{"use":"billing","type":"postal","line":["P.O. Box 660044"],"city":"Dallas","state":"TX","postalCode":"75266-0044","country":"USA"}]},"request":{"method":"PUT","url":"Organization/d5a20061-cbfd-47b0-96ac-45cb6a36199b"}},{"fullUrl":"https://madie.cms.gov/Practitioner/27e2a944-c4ff-4e08-879e-877b80355563","resource":{"resourceType":"Practitioner","id":"27e2a944-c4ff-4e08-879e-877b80355563","meta":{"profile":["http://hl7.org/fhir/us/qicore/StructureDefinition/qicore-practitioner"]},"identifier":[{"system":"http://hl7.org/fhir/sid/us-npi","value":"9999999896"}],"name":[{"family":"Evil","prefix":["Dr"]}]},"request":{"method":"PUT","url":"Practitioner/27e2a944-c4ff-4e08-879e-877b80355563"}},{"fullUrl":"https://madie.cms.gov/MeasureReport/7883617a-e9ee-40a5-9f1c-e016557545cb","resource":{"resourceType":"MeasureReport","id":"7883617a-e9ee-40a5-9f1c-e016557545cb","meta":{"profile":["http://hl7.org/fhir/us/cqfmeasures/StructureDefinition/test-case-cqfm"]},"contained":[{"resourceType":"Parameters","id":"ea137f5e-ee31-4f0b-b526-c930064c2598-parameters","parameter":[{"name":"subject","valueString":"b569157b-b263-4b72-ab40-132bea1d8f71"}]}],"extension":[{"url":"http://hl7.org/fhir/StructureDefinition/cqf-inputParameters","valueReference":{"reference":"#ea137f5e-ee31-4f0b-b526-c930064c2598-parameters"}},{"url":"http://hl7.org/fhir/us/cqfmeasures/StructureDefinition/cqfm-testCaseDescription","valueMarkdown":"\"Patient receives antithrombotic in = 0 day after IP encounter starts.\n global.\"\"Hospitalization\"\" =(IP)\"\n"}],"modifierExtension":[{"url":"http://hl7.org/fhir/us/cqfmeasures/StructureDefinition/cqfm-isTestCase","valueBoolean":true}],"status":"complete","type":"individual","measure":"https://madie.cms.gov/Measure/CMS72FHIRSTKAntithromboticDay2","period":{"start":"2026-01-01","end":"2026-12-31"},"group":[{"id":"Group_1","population":[{"id":"InitialPopulation_1","code":{"coding":[{"system":"http://terminology.hl7.org/CodeSystem/measure-population","code":"initial-population","display":"Initial Population"}]},"count":1},{"id":"Denominator_1","code":{"coding":[{"system":"http://terminology.hl7.org/CodeSystem/measure-population","code":"denominator","display":"Denominator"}]},"count":1},{"id":"DenominatorExclusion_1","code":{"coding":[{"system":"http://terminology.hl7.org/CodeSystem/measure-population","code":"denominator-exclusion","display":"Denominator Exclusion"}]},"count":0},{"id":"Numerator_1","code":{"coding":[{"system":"http://terminology.hl7.org/CodeSystem/measure-population","code":"numerator","display":"Numerator"}]},"count":1},{"id":"DenominatorException_1","code":{"coding":[{"system":"http://terminology.hl7.org/CodeSystem/measure-population","code":"denominator-exception","display":"Denominator Exception"}]},"count":0}],"measureScore":{"value":0.0}}],"evaluatedResource":[{"reference":"Patient/b569157b-b263-4b72-ab40-132bea1d8f71"},{"reference":"Encounter/eec136fa-da76-420d-8fa6-c029cc863499"},{"reference":"Claim/5ca62962b8484628b8de1ec5"},{"reference":"MedicationAdministration/a90e1054-4259-4452-874b-414a6a39e7b4"},{"reference":"Coverage/8065c56c-4e06-4854-ace7-39fd1b22b4e1"},{"reference":"Condition/a9879c53-8fd0-4523-b5d7-b867a3f915dc"},{"reference":"Organization/d5a20061-cbfd-47b0-96ac-45cb6a36199b"},{"reference":"Practitioner/27e2a944-c4ff-4e08-879e-877b80355563"}]},"request":{"method":"PUT","url":"MeasureReport/7883617a-e9ee-40a5-9f1c-e016557545cb"}}]},"request":{"method":"PUT","url":"Bundle/60f82c2d98086b570510e259"}},{"resource":{"resourceType":"Condition","id":"a9879c53-8fd0-4523-b5d7-b867a3f915dc","meta":{"profile":["http://hl7.org/fhir/us/qicore/StructureDefinition/qicore-condition-problems-health-concerns"]},"clinicalStatus":{"coding":[{"system":"http://terminology.hl7.org/CodeSystem/condition-clinical","code":"active"}]},"verificationStatus":{"coding":[{"system":"http://terminology.hl7.org/CodeSystem/condition-ver-status","code":"confirmed"}]},"category":[{"coding":[{"system":"http://terminology.hl7.org/CodeSystem/condition-category","code":"encounter-diagnosis","display":"Encounter Diagnosis"}]}],"code":{"coding":[{"system":"http://snomed.info/sct","version":"2020-09","code":"111297002","display":"Nonparalytic stroke (disorder)","userSelected":true}]},"subject":{"reference":"Patient/b569157b-b263-4b72-ab40-132bea1d8f71"},"recordedDate":"2026-08-16T08:00:00Z"},"request":{"method":"PUT","url":"Condition/a9879c53-8fd0-4523-b5d7-b867a3f915dc"}},{"resource":{"resourceType":"Patient","id":"b569157b-b263-4b72-ab40-132bea1d8f71","meta":{"profile":["http://hl7.org/fhir/us/qicore/StructureDefinition/qicore-patient"]},"text":{"status":"generated","div":"<div xmlns=\"http://www.w3.org/1999/xhtml\"><div class=\"hapiHeaderText\">MedAntithromboticStart_eq0dayDuringEncIP <b>NUMERPASS </b></div><table class=\"hapiPropertyTable\"><tbody><tr><td>Identifier</td><td>6aa79e9cebbde8275335fd99b030f3d5</td></tr><tr><td>Date of birth</td><td><span>26 September 1975</span></td></tr></tbody></table></div>"},"extension":[{"url":"http://hl7.org/fhir/us/core/StructureDefinition/us-core-race","extension":[{"url":"ombCategory","valueCoding":{"system":"urn:oid:2.16.840.1.113883.6.238","code":"2054-5","display":"Black or African American","userSelected":true}},{"url":"text","valueString":"Black or African American"}]},{"url":"http://hl7.org/fhir/us/core/StructureDefinition/us-core-ethnicity","extension":[{"url":"ombCategory","valueCoding":{"system":"urn:oid:2.16.840.1.113883.6.238","code":"2186-5","display":"Not Hispanic or Latino","userSelected":true}},{"url":"text","valueString":"Not Hispanic or Latino"}]}],"identifier":[{"type":{"coding":[{"system":"http://terminology.hl7.org/CodeSystem/v2-0203","code":"MR"}]},"system":"https://bonnie-fhir.healthit.gov/","value":"60f82c2d98086b570510e259"}],"active":true,"name":[{"use":"usual","family":"NUMERPass","given":["MedAntithromboticStart_eq0dayDuringEncIP "]}],"gender":"female","birthDate":"1976-09-26"},"request":{"method":"PUT","url":"Patient/b569157b-b263-4b72-ab40-132bea1d8f71"}},{"resource":{"resourceType":"MedicationAdministration","id":"a90e1054-4259-4452-874b-414a6a39e7b4","meta":{"profile":["http://hl7.org/fhir/us/qicore/StructureDefinition/qicore-medicationadministration"]},"status":"completed","medicationCodeableConcept":{"coding":[{"system":"http://www.nlm.nih.gov/research/umls/rxnorm","code":"1037045"}]},"subject":{"reference":"Patient/b569157b-b263-4b72-ab40-132bea1d8f71"},"effectivePeriod":{"start":"2026-10-11T11:00:00Z"}},"request":{"method":"PUT","url":"MedicationAdministration/a90e1054-4259-4452-874b-414a6a39e7b4"}},{"resource":{"resourceType":"Organization","id":"d5a20061-cbfd-47b0-96ac-45cb6a36199b","meta":{"profile":["http://hl7.org/fhir/us/qicore/StructureDefinition/qicore-organization"]},"identifier":[{"use":"temp","system":"urn:oid:2.16.840.1.113883.4.4","value":"21-3259825"}],"active":true,"type":[{"coding":[{"system":"http://terminology.hl7.org/CodeSystem/organization-type","code":"pay","display":"Payer"}]}],"name":"Blue Cross Blue Shield of Texas","telecom":[{"system":"phone","value":"(+1) 972-766-6900"}],"address":[{"use":"billing","type":"postal","line":["P.O. Box 660044"],"city":"Dallas","state":"TX","postalCode":"75266-0044","country":"USA"}]},"request":{"method":"PUT","url":"Organization/d5a20061-cbfd-47b0-96ac-45cb6a36199b"}},{"resource":{"resourceType":"MeasureReport","id":"7883617a-e9ee-40a5-9f1c-e016557545cb","meta":{"profile":["http://hl7.org/fhir/us/cqfmeasures/StructureDefinition/test-case-cqfm"]},"contained":[{"resourceType":"Parameters","id":"ea137f5e-ee31-4f0b-b526-c930064c2598-parameters","parameter":[{"name":"subject","valueString":"b569157b-b263-4b72-ab40-132bea1d8f71"}]}],"extension":[{"url":"http://hl7.org/fhir/StructureDefinition/cqf-inputParameters","valueReference":{"reference":"#ea137f5e-ee31-4f0b-b526-c930064c2598-parameters"}},{"url":"http://hl7.org/fhir/us/cqfmeasures/StructureDefinition/cqfm-testCaseDescription","valueMarkdown":"\"Patient receives antithrombotic in = 0 day after IP encounter starts.\n global.\"\"Hospitalization\"\" =(IP)\"\n"}],"modifierExtension":[{"url":"http://hl7.org/fhir/us/cqfmeasures/StructureDefinition/cqfm-isTestCase","valueBoolean":true}],"status":"complete","type":"individual","measure":"https://madie.cms.gov/Measure/CMS72FHIRSTKAntithromboticDay2","period":{"start":"2026-01-01","end":"2026-12-31"},"group":[{"id":"Group_1","population":[{"id":"InitialPopulation_1","code":{"coding":[{"system":"http://terminology.hl7.org/CodeSystem/measure-population","code":"initial-population","display":"Initial Population"}]},"count":1},{"id":"Denominator_1","code":{"coding":[{"system":"http://terminology.hl7.org/CodeSystem/measure-population","code":"denominator","display":"Denominator"}]},"count":1},{"id":"DenominatorExclusion_1","code":{"coding":[{"system":"http://terminology.hl7.org/CodeSystem/measure-population","code":"denominator-exclusion","display":"Denominator Exclusion"}]},"count":0},{"id":"Numerator_1","code":{"coding":[{"system":"http://terminology.hl7.org/CodeSystem/measure-population","code":"numerator","display":"Numerator"}]},"count":1},{"id":"DenominatorException_1","code":{"coding":[{"system":"http://terminology.hl7.org/CodeSystem/measure-population","code":"denominator-exception","display":"Denominator Exception"}]},"count":0}],"measureScore":{"value":0.0}}],"evaluatedResource":[{"reference":"Patient/b569157b-b263-4b72-ab40-132bea1d8f71"},{"reference":"Encounter/eec136fa-da76-420d-8fa6-c029cc863499"},{"reference":"Claim/5ca62962b8484628b8de1ec5"},{"reference":"MedicationAdministration/a90e1054-4259-4452-874b-414a6a39e7b4"},{"reference":"Coverage/8065c56c-4e06-4854-ace7-39fd1b22b4e1"},{"reference":"Condition/a9879c53-8fd0-4523-b5d7-b867a3f915dc"},{"reference":"Organization/d5a20061-cbfd-47b0-96ac-45cb6a36199b"},{"reference":"Practitioner/27e2a944-c4ff-4e08-879e-877b80355563"}]},"request":{"method":"PUT","url":"MeasureReport/7883617a-e9ee-40a5-9f1c-e016557545cb"}},{"resource":{"resourceType":"Coverage","id":"8065c56c-4e06-4854-ace7-39fd1b22b4e1","status":"active","subscriberId":"523435","beneficiary":{"reference":"Patient/b569157b-b263-4b72-ab40-132bea1d8f71"},"relationship":{"coding":[{"system":"http://terminology.hl7.org/CodeSystem/subscriber-relationship","code":"self"}]},"period":{"start":"1976-09-26T08:00:00Z"},"payor":[{"reference":"Organization/d5a20061-cbfd-47b0-96ac-45cb6a36199b"}]},"request":{"method":"PUT","url":"Coverage/8065c56c-4e06-4854-ace7-39fd1b22b4e1"}},{"resource":{"resourceType":"Claim","id":"5ca62962b8484628b8de1ec5","meta":{"profile":["http://hl7.org/fhir/us/qicore/StructureDefinition/qicore-claim"]},"status":"active","type":{"coding":[{"system":"http://terminology.hl7.org/CodeSystem/claim-type","code":"institutional"}]},"use":"claim","patient":{"reference":"Patient/d170a0a8-b5ad-4303-b6df-e304dd5f92ad"},"created":"2026-12-01","provider":{"reference":"Practitioner/27e2a944-c4ff-4e08-879e-877b80355563"},"priority":{"coding":[{"system":"http://terminology.hl7.org/CodeSystem/processpriority","code":"normal"}]},"diagnosis":[{"sequence":1,"diagnosisCodeableConcept":{"coding":[{"system":"http://hl7.org/fhir/sid/icd-10-cm","code":"I63.00"}]},"type":[{"coding":[{"system":"http://terminology.hl7.org/CodeSystem/ex-diagnosistype","code":"principal"}]}]}],"insurance":[{"sequence":1,"focal":true,"coverage":{"reference":"Coverage/5fa041661c76ba66d9959367"}}],"item":[{"sequence":1,"diagnosisSequence":[1],"productOrService":{"coding":[{"system":"http://terminology.hl7.org/CodeSystem/ex-USCLS","code":"99555"}]},"encounter":[{"reference":"Encounter/eec136fa-da76-420d-8fa6-c029cc863499"}]}]},"request":{"method":"PUT","url":"Claim/5ca62962b8484628b8de1ec5"}}]}