{"resourceType":"Bundle","id":"tests-ad35c913-a8ba-4d29-b6e9-8652aa5ca20c-bundle","type":"transaction","entry":[{"resource":{"resourceType":"Organization","id":"a35d6251-6a8e-473a-9101-2c401274100d","meta":{"profile":["http://hl7.org/fhir/us/qicore/StructureDefinition/qicore-organization"]},"identifier":[{"use":"temp","system":"urn:oid:2.16.840.1.113883.4.4","value":"21-3259825"}],"active":true,"type":[{"coding":[{"system":"http://terminology.hl7.org/CodeSystem/organization-type","code":"pay","display":"Payer"}]}],"name":"Blue Cross Blue Shield of Texas","telecom":[{"system":"phone","value":"(+1) 972-766-6900"}],"address":[{"use":"billing","type":"postal","line":["P.O. Box 660044"],"city":"Dallas","state":"TX","postalCode":"75266-0044","country":"USA"}]},"request":{"method":"PUT","url":"Organization/a35d6251-6a8e-473a-9101-2c401274100d"}},{"resource":{"resourceType":"Condition","id":"4b2153bf-e9e6-433f-bfec-b2c3b244b684","meta":{"profile":["http://hl7.org/fhir/us/qicore/StructureDefinition/qicore-condition"]},"clinicalStatus":{"coding":[{"system":"http://terminology.hl7.org/CodeSystem/condition-clinical","code":"active"}]},"verificationStatus":{"coding":[{"system":"http://terminology.hl7.org/CodeSystem/condition-ver-status","code":"confirmed"}]},"category":[{"coding":[{"system":"http://terminology.hl7.org/CodeSystem/condition-category","code":"encounter-diagnosis","display":"Encounter Diagnosis"}]}],"code":{"coding":[{"system":"http://snomed.info/sct","version":"2020-09","code":"111297002","display":"Nonparalytic stroke (disorder)","userSelected":true}]},"subject":{"reference":"Patient/ad35c913-a8ba-4d29-b6e9-8652aa5ca20c"},"recordedDate":"2026-08-13T08:00:00Z"},"request":{"method":"PUT","url":"Condition/4b2153bf-e9e6-433f-bfec-b2c3b244b684"}},{"resource":{"resourceType":"Encounter","id":"7a8459c7-b299-47ad-8cab-57519f4714a9","meta":{"profile":["http://hl7.org/fhir/us/qicore/StructureDefinition/qicore-encounter"]},"status":"finished","class":{"system":"http://terminology.hl7.org/CodeSystem/v3-ActCode","code":"IMP","display":"inpatient encounter"},"type":[{"coding":[{"system":"http://snomed.info/sct","code":"32485007"}]}],"subject":{"reference":"Patient/ad35c913-a8ba-4d29-b6e9-8652aa5ca20c"},"period":{"start":"2026-10-10T09:00:00Z","end":"2026-10-12T11:15:00.000+00:00"},"length":{"value":2,"unit":"days"},"reasonReference":[{"reference":"Condition/4b2153bf-e9e6-433f-bfec-b2c3b244b684"}]},"request":{"method":"PUT","url":"Encounter/7a8459c7-b299-47ad-8cab-57519f4714a9"}},{"resource":{"resourceType":"MedicationAdministration","id":"3953256c-cf5d-4e92-9825-f080f282a037","meta":{"profile":["http://hl7.org/fhir/us/qicore/StructureDefinition/qicore-medicationadministration"]},"status":"completed","medicationCodeableConcept":{"coding":[{"system":"http://www.nlm.nih.gov/research/umls/rxnorm","code":"1804799"}]},"subject":{"reference":"Patient/ad35c913-a8ba-4d29-b6e9-8652aa5ca20c"},"effectivePeriod":{"start":"2026-10-10T06:00:00Z"}},"request":{"method":"PUT","url":"MedicationAdministration/3953256c-cf5d-4e92-9825-f080f282a037"}},{"resource":{"resourceType":"MeasureReport","id":"09f5f544-db2e-4788-8264-c4126bd891b3","meta":{"profile":["http://hl7.org/fhir/us/cqfmeasures/StructureDefinition/test-case-cqfm"]},"contained":[{"resourceType":"Parameters","id":"d02f8240-8379-4854-9943-b98b9b98dd7d-parameters","parameter":[{"name":"subject","valueString":"ad35c913-a8ba-4d29-b6e9-8652aa5ca20c"}]}],"extension":[{"url":"http://hl7.org/fhir/StructureDefinition/cqf-inputParameters","valueReference":{"reference":"#d02f8240-8379-4854-9943-b98b9b98dd7d-parameters"}},{"url":"http://hl7.org/fhir/us/cqfmeasures/StructureDefinition/cqfm-testCaseDescription","valueMarkdown":"Medication TPA started at ED start, during hospitalizatoin"}],"modifierExtension":[{"url":"http://hl7.org/fhir/us/cqfmeasures/StructureDefinition/cqfm-isTestCase","valueBoolean":true}],"status":"complete","type":"individual","measure":"https://madie.cms.gov/Measure/CMS72FHIRSTKAntithromboticDay2","period":{"start":"2026-01-01","end":"2026-12-31"},"group":[{"id":"Group_1","population":[{"id":"InitialPopulation_1","code":{"coding":[{"system":"http://terminology.hl7.org/CodeSystem/measure-population","code":"initial-population","display":"Initial Population"}]},"count":1},{"id":"Denominator_1","code":{"coding":[{"system":"http://terminology.hl7.org/CodeSystem/measure-population","code":"denominator","display":"Denominator"}]},"count":1},{"id":"DenominatorExclusion_1","code":{"coding":[{"system":"http://terminology.hl7.org/CodeSystem/measure-population","code":"denominator-exclusion","display":"Denominator Exclusion"}]},"count":1},{"id":"Numerator_1","code":{"coding":[{"system":"http://terminology.hl7.org/CodeSystem/measure-population","code":"numerator","display":"Numerator"}]},"count":0},{"id":"DenominatorException_1","code":{"coding":[{"system":"http://terminology.hl7.org/CodeSystem/measure-population","code":"denominator-exception","display":"Denominator Exception"}]},"count":0}],"measureScore":{"value":0.0}}],"evaluatedResource":[{"reference":"Patient/ad35c913-a8ba-4d29-b6e9-8652aa5ca20c"},{"reference":"Encounter/977cb90d-7421-4f2f-8507-b36532a5266c"},{"reference":"Encounter/7a8459c7-b299-47ad-8cab-57519f4714a9"},{"reference":"Claim/5ca62962b8484628b8de1ec5"},{"reference":"MedicationAdministration/3953256c-cf5d-4e92-9825-f080f282a037"},{"reference":"Coverage/d5fa04f2-a6dc-4165-aae8-887086300e72"},{"reference":"Condition/4b2153bf-e9e6-433f-bfec-b2c3b244b684"},{"reference":"Organization/a35d6251-6a8e-473a-9101-2c401274100d"}]},"request":{"method":"PUT","url":"MeasureReport/09f5f544-db2e-4788-8264-c4126bd891b3"}},{"resource":{"resourceType":"Patient","id":"ad35c913-a8ba-4d29-b6e9-8652aa5ca20c","meta":{"profile":["http://hl7.org/fhir/us/qicore/StructureDefinition/qicore-patient"]},"text":{"status":"generated","div":"<div xmlns=\"http://www.w3.org/1999/xhtml\"><div class=\"hapiHeaderText\">Med1TPA=EdStart <b>DENEXPASS </b></div><table class=\"hapiPropertyTable\"><tbody><tr><td>Identifier</td><td>b9d60025f1579fc69f692d96d60444be</td></tr><tr><td>Date of birth</td><td><span>26 September 1975</span></td></tr></tbody></table></div>"},"extension":[{"url":"http://hl7.org/fhir/us/core/StructureDefinition/us-core-race","extension":[{"url":"ombCategory","valueCoding":{"system":"urn:oid:2.16.840.1.113883.6.238","code":"2054-5","display":"Black or African American","userSelected":true}},{"url":"text","valueString":"Black or African American"}]},{"url":"http://hl7.org/fhir/us/core/StructureDefinition/us-core-ethnicity","extension":[{"url":"ombCategory","valueCoding":{"system":"urn:oid:2.16.840.1.113883.6.238","code":"2186-5","display":"Not Hispanic or Latino","userSelected":true}},{"url":"text","valueString":"Not Hispanic or Latino"}]}],"identifier":[{"type":{"coding":[{"system":"http://terminology.hl7.org/CodeSystem/v2-0203","code":"MR"}]},"system":"https://bonnie-fhir.healthit.gov/","value":"60f82c2e98086b570510e284"}],"active":true,"name":[{"use":"usual","family":"DENEXPass","given":["Med1TPA=EdStart"]}],"gender":"female","birthDate":"1976-09-26"},"request":{"method":"PUT","url":"Patient/ad35c913-a8ba-4d29-b6e9-8652aa5ca20c"}},{"resource":{"resourceType":"Encounter","id":"977cb90d-7421-4f2f-8507-b36532a5266c","meta":{"profile":["http://hl7.org/fhir/us/qicore/StructureDefinition/qicore-encounter"]},"status":"finished","class":{"system":"http://terminology.hl7.org/CodeSystem/v3-ActCode","code":"EMER","display":"emergency"},"type":[{"coding":[{"system":"http://snomed.info/sct","code":"4525004"}]}],"subject":{"reference":"Patient/ad35c913-a8ba-4d29-b6e9-8652aa5ca20c"},"period":{"start":"2026-10-10T06:00:00Z","end":"2026-10-10T08:30:00.000+00:00"},"length":{"value":0,"unit":"days"}},"request":{"method":"PUT","url":"Encounter/977cb90d-7421-4f2f-8507-b36532a5266c"}},{"resource":{"resourceType":"Coverage","id":"d5fa04f2-a6dc-4165-aae8-887086300e72","status":"active","beneficiary":{"reference":"Patient/ad35c913-a8ba-4d29-b6e9-8652aa5ca20c"},"period":{"start":"1976-09-26T08:00:00Z"},"payor":[{"reference":"Organization/a35d6251-6a8e-473a-9101-2c401274100d"}]},"request":{"method":"PUT","url":"Coverage/d5fa04f2-a6dc-4165-aae8-887086300e72"}},{"resource":{"resourceType":"Bundle","id":"60f82c2e98086b570510e284","type":"transaction","entry":[{"fullUrl":"https://madie.cms.gov/Patient/ad35c913-a8ba-4d29-b6e9-8652aa5ca20c","resource":{"resourceType":"Patient","id":"ad35c913-a8ba-4d29-b6e9-8652aa5ca20c","meta":{"profile":["http://hl7.org/fhir/us/qicore/StructureDefinition/qicore-patient"]},"text":{"status":"generated","div":"<div xmlns=\"http://www.w3.org/1999/xhtml\"><div class=\"hapiHeaderText\">Med1TPA=EdStart <b>DENEXPASS </b></div><table class=\"hapiPropertyTable\"><tbody><tr><td>Identifier</td><td>b9d60025f1579fc69f692d96d60444be</td></tr><tr><td>Date of birth</td><td><span>26 September 1975</span></td></tr></tbody></table></div>"},"extension":[{"url":"http://hl7.org/fhir/us/core/StructureDefinition/us-core-race","extension":[{"url":"ombCategory","valueCoding":{"system":"urn:oid:2.16.840.1.113883.6.238","code":"2054-5","display":"Black or African American","userSelected":true}},{"url":"text","valueString":"Black or African American"}]},{"url":"http://hl7.org/fhir/us/core/StructureDefinition/us-core-ethnicity","extension":[{"url":"ombCategory","valueCoding":{"system":"urn:oid:2.16.840.1.113883.6.238","code":"2186-5","display":"Not Hispanic or Latino","userSelected":true}},{"url":"text","valueString":"Not Hispanic or Latino"}]}],"identifier":[{"type":{"coding":[{"system":"http://terminology.hl7.org/CodeSystem/v2-0203","code":"MR"}]},"system":"https://bonnie-fhir.healthit.gov/","value":"60f82c2e98086b570510e284"}],"active":true,"name":[{"use":"usual","family":"DENEXPass","given":["Med1TPA=EdStart"]}],"gender":"female","birthDate":"1976-09-26"},"request":{"method":"PUT","url":"Patient/ad35c913-a8ba-4d29-b6e9-8652aa5ca20c"}},{"fullUrl":"https://madie.cms.gov/Encounter/977cb90d-7421-4f2f-8507-b36532a5266c","resource":{"resourceType":"Encounter","id":"977cb90d-7421-4f2f-8507-b36532a5266c","meta":{"profile":["http://hl7.org/fhir/us/qicore/StructureDefinition/qicore-encounter"]},"status":"finished","class":{"system":"http://terminology.hl7.org/CodeSystem/v3-ActCode","code":"EMER","display":"emergency"},"type":[{"coding":[{"system":"http://snomed.info/sct","code":"4525004"}]}],"subject":{"reference":"Patient/ad35c913-a8ba-4d29-b6e9-8652aa5ca20c"},"period":{"start":"2026-10-10T06:00:00Z","end":"2026-10-10T08:30:00.000+00:00"},"length":{"value":0,"unit":"days"}},"request":{"method":"PUT","url":"Encounter/977cb90d-7421-4f2f-8507-b36532a5266c"}},{"fullUrl":"https://madie.cms.gov/Encounter/7a8459c7-b299-47ad-8cab-57519f4714a9","resource":{"resourceType":"Encounter","id":"7a8459c7-b299-47ad-8cab-57519f4714a9","meta":{"profile":["http://hl7.org/fhir/us/qicore/StructureDefinition/qicore-encounter"]},"status":"finished","class":{"system":"http://terminology.hl7.org/CodeSystem/v3-ActCode","code":"IMP","display":"inpatient encounter"},"type":[{"coding":[{"system":"http://snomed.info/sct","code":"32485007"}]}],"subject":{"reference":"Patient/ad35c913-a8ba-4d29-b6e9-8652aa5ca20c"},"period":{"start":"2026-10-10T09:00:00Z","end":"2026-10-12T11:15:00.000+00:00"},"length":{"value":2,"unit":"days"},"reasonReference":[{"reference":"Condition/4b2153bf-e9e6-433f-bfec-b2c3b244b684"}]},"request":{"method":"PUT","url":"Encounter/7a8459c7-b299-47ad-8cab-57519f4714a9"}},{"fullUrl":"https://madie.cms.gov/claim/5ca62962b8484628b8de1ec5","resource":{"resourceType":"Claim","id":"5ca62962b8484628b8de1ec5","meta":{"profile":["http://hl7.org/fhir/us/qicore/StructureDefinition/qicore-claim"]},"status":"active","type":{"coding":[{"system":"http://terminology.hl7.org/CodeSystem/claim-type","code":"institutional"}]},"use":"claim","patient":{"reference":"Patient/d170a0a8-b5ad-4303-b6df-e304dd5f92ad"},"created":"2026-12-01","provider":{"reference":"Practitioner/practitioner-123456"},"priority":{"coding":[{"system":"http://terminology.hl7.org/CodeSystem/processpriority","code":"normal"}]},"diagnosis":[{"sequence":1,"diagnosisCodeableConcept":{"coding":[{"system":"http://hl7.org/fhir/sid/icd-10-cm","code":"I63.00"}]},"type":[{"coding":[{"system":"http://terminology.hl7.org/CodeSystem/ex-diagnosistype","code":"principal"}]}]}],"insurance":[{"sequence":1,"focal":true,"coverage":{"reference":"Coverage/d5fa04f2-a6dc-4165-aae8-887086300e72"}}],"item":[{"sequence":1,"diagnosisSequence":[1],"productOrService":{"coding":[{"system":"http://terminology.hl7.org/CodeSystem/ex-USCLS","code":"99555"}]},"encounter":[{"reference":"Encounter/7a8459c7-b299-47ad-8cab-57519f4714a9"}]}]},"request":{"method":"PUT","url":"Claim/5ca62962b8484628b8de1ec5"}},{"fullUrl":"https://madie.cms.gov/MedicationAdministration/3953256c-cf5d-4e92-9825-f080f282a037","resource":{"resourceType":"MedicationAdministration","id":"3953256c-cf5d-4e92-9825-f080f282a037","meta":{"profile":["http://hl7.org/fhir/us/qicore/StructureDefinition/qicore-medicationadministration"]},"status":"completed","medicationCodeableConcept":{"coding":[{"system":"http://www.nlm.nih.gov/research/umls/rxnorm","code":"1804799"}]},"subject":{"reference":"Patient/ad35c913-a8ba-4d29-b6e9-8652aa5ca20c"},"effectivePeriod":{"start":"2026-10-10T06:00:00Z"}},"request":{"method":"PUT","url":"MedicationAdministration/3953256c-cf5d-4e92-9825-f080f282a037"}},{"fullUrl":"https://madie.cms.gov/Coverage/d5fa04f2-a6dc-4165-aae8-887086300e72","resource":{"resourceType":"Coverage","id":"d5fa04f2-a6dc-4165-aae8-887086300e72","status":"active","beneficiary":{"reference":"Patient/ad35c913-a8ba-4d29-b6e9-8652aa5ca20c"},"period":{"start":"1976-09-26T08:00:00Z"},"payor":[{"reference":"Organization/a35d6251-6a8e-473a-9101-2c401274100d"}]},"request":{"method":"PUT","url":"Coverage/d5fa04f2-a6dc-4165-aae8-887086300e72"}},{"fullUrl":"https://madie.cms.gov/Condition/4b2153bf-e9e6-433f-bfec-b2c3b244b684","resource":{"resourceType":"Condition","id":"4b2153bf-e9e6-433f-bfec-b2c3b244b684","meta":{"profile":["http://hl7.org/fhir/us/qicore/StructureDefinition/qicore-condition"]},"clinicalStatus":{"coding":[{"system":"http://terminology.hl7.org/CodeSystem/condition-clinical","code":"active"}]},"verificationStatus":{"coding":[{"system":"http://terminology.hl7.org/CodeSystem/condition-ver-status","code":"confirmed"}]},"category":[{"coding":[{"system":"http://terminology.hl7.org/CodeSystem/condition-category","code":"encounter-diagnosis","display":"Encounter Diagnosis"}]}],"code":{"coding":[{"system":"http://snomed.info/sct","version":"2020-09","code":"111297002","display":"Nonparalytic stroke (disorder)","userSelected":true}]},"subject":{"reference":"Patient/ad35c913-a8ba-4d29-b6e9-8652aa5ca20c"},"recordedDate":"2026-08-13T08:00:00Z"},"request":{"method":"PUT","url":"Condition/4b2153bf-e9e6-433f-bfec-b2c3b244b684"}},{"fullUrl":"https://madie.cms.gov/Organization/a35d6251-6a8e-473a-9101-2c401274100d","resource":{"resourceType":"Organization","id":"a35d6251-6a8e-473a-9101-2c401274100d","meta":{"profile":["http://hl7.org/fhir/us/qicore/StructureDefinition/qicore-organization"]},"identifier":[{"use":"temp","system":"urn:oid:2.16.840.1.113883.4.4","value":"21-3259825"}],"active":true,"type":[{"coding":[{"system":"http://terminology.hl7.org/CodeSystem/organization-type","code":"pay","display":"Payer"}]}],"name":"Blue Cross Blue Shield of Texas","telecom":[{"system":"phone","value":"(+1) 972-766-6900"}],"address":[{"use":"billing","type":"postal","line":["P.O. Box 660044"],"city":"Dallas","state":"TX","postalCode":"75266-0044","country":"USA"}]},"request":{"method":"PUT","url":"Organization/a35d6251-6a8e-473a-9101-2c401274100d"}},{"fullUrl":"https://madie.cms.gov/MeasureReport/09f5f544-db2e-4788-8264-c4126bd891b3","resource":{"resourceType":"MeasureReport","id":"09f5f544-db2e-4788-8264-c4126bd891b3","meta":{"profile":["http://hl7.org/fhir/us/cqfmeasures/StructureDefinition/test-case-cqfm"]},"contained":[{"resourceType":"Parameters","id":"d02f8240-8379-4854-9943-b98b9b98dd7d-parameters","parameter":[{"name":"subject","valueString":"ad35c913-a8ba-4d29-b6e9-8652aa5ca20c"}]}],"extension":[{"url":"http://hl7.org/fhir/StructureDefinition/cqf-inputParameters","valueReference":{"reference":"#d02f8240-8379-4854-9943-b98b9b98dd7d-parameters"}},{"url":"http://hl7.org/fhir/us/cqfmeasures/StructureDefinition/cqfm-testCaseDescription","valueMarkdown":"Medication TPA started at ED start, during hospitalizatoin"}],"modifierExtension":[{"url":"http://hl7.org/fhir/us/cqfmeasures/StructureDefinition/cqfm-isTestCase","valueBoolean":true}],"status":"complete","type":"individual","measure":"https://madie.cms.gov/Measure/CMS72FHIRSTKAntithromboticDay2","period":{"start":"2026-01-01","end":"2026-12-31"},"group":[{"id":"Group_1","population":[{"id":"InitialPopulation_1","code":{"coding":[{"system":"http://terminology.hl7.org/CodeSystem/measure-population","code":"initial-population","display":"Initial Population"}]},"count":1},{"id":"Denominator_1","code":{"coding":[{"system":"http://terminology.hl7.org/CodeSystem/measure-population","code":"denominator","display":"Denominator"}]},"count":1},{"id":"DenominatorExclusion_1","code":{"coding":[{"system":"http://terminology.hl7.org/CodeSystem/measure-population","code":"denominator-exclusion","display":"Denominator Exclusion"}]},"count":1},{"id":"Numerator_1","code":{"coding":[{"system":"http://terminology.hl7.org/CodeSystem/measure-population","code":"numerator","display":"Numerator"}]},"count":0},{"id":"DenominatorException_1","code":{"coding":[{"system":"http://terminology.hl7.org/CodeSystem/measure-population","code":"denominator-exception","display":"Denominator Exception"}]},"count":0}],"measureScore":{"value":0.0}}],"evaluatedResource":[{"reference":"Patient/ad35c913-a8ba-4d29-b6e9-8652aa5ca20c"},{"reference":"Encounter/977cb90d-7421-4f2f-8507-b36532a5266c"},{"reference":"Encounter/7a8459c7-b299-47ad-8cab-57519f4714a9"},{"reference":"Claim/5ca62962b8484628b8de1ec5"},{"reference":"MedicationAdministration/3953256c-cf5d-4e92-9825-f080f282a037"},{"reference":"Coverage/d5fa04f2-a6dc-4165-aae8-887086300e72"},{"reference":"Condition/4b2153bf-e9e6-433f-bfec-b2c3b244b684"},{"reference":"Organization/a35d6251-6a8e-473a-9101-2c401274100d"}]},"request":{"method":"PUT","url":"MeasureReport/09f5f544-db2e-4788-8264-c4126bd891b3"}}]},"request":{"method":"PUT","url":"Bundle/60f82c2e98086b570510e284"}},{"resource":{"resourceType":"Claim","id":"5ca62962b8484628b8de1ec5","meta":{"profile":["http://hl7.org/fhir/us/qicore/StructureDefinition/qicore-claim"]},"status":"active","type":{"coding":[{"system":"http://terminology.hl7.org/CodeSystem/claim-type","code":"institutional"}]},"use":"claim","patient":{"reference":"Patient/d170a0a8-b5ad-4303-b6df-e304dd5f92ad"},"created":"2026-12-01","provider":{"reference":"Practitioner/practitioner-123456"},"priority":{"coding":[{"system":"http://terminology.hl7.org/CodeSystem/processpriority","code":"normal"}]},"diagnosis":[{"sequence":1,"diagnosisCodeableConcept":{"coding":[{"system":"http://hl7.org/fhir/sid/icd-10-cm","code":"I63.00"}]},"type":[{"coding":[{"system":"http://terminology.hl7.org/CodeSystem/ex-diagnosistype","code":"principal"}]}]}],"insurance":[{"sequence":1,"focal":true,"coverage":{"reference":"Coverage/d5fa04f2-a6dc-4165-aae8-887086300e72"}}],"item":[{"sequence":1,"diagnosisSequence":[1],"productOrService":{"coding":[{"system":"http://terminology.hl7.org/CodeSystem/ex-USCLS","code":"99555"}]},"encounter":[{"reference":"Encounter/7a8459c7-b299-47ad-8cab-57519f4714a9"}]}]},"request":{"method":"PUT","url":"Claim/5ca62962b8484628b8de1ec5"}}]}