{"resourceType":"Bundle","id":"tests-ac23e6a6-3f36-49db-9eba-2da744a41c57-bundle","type":"transaction","entry":[{"resource":{"resourceType":"Encounter","id":"69f4243b-7c3f-4572-b8e6-dee49bbef186","meta":{"profile":["http://hl7.org/fhir/us/qicore/StructureDefinition/qicore-encounter"]},"status":"finished","class":{"system":"http://terminology.hl7.org/CodeSystem/v3-ActCode","code":"IMP","display":"inpatient encounter","userSelected":true},"type":[{"coding":[{"system":"http://snomed.info/sct","code":"32485007"}]}],"subject":{"reference":"Patient/ac23e6a6-3f36-49db-9eba-2da744a41c57"},"period":{"start":"2026-10-11T07:31:00Z","end":"2026-10-15T11:30:00.000+00:00"},"length":{"value":4,"unit":"days"},"reasonReference":[{"reference":"Condition/d7b6670d-1916-4e0b-ab1e-2ef6acd6b7da"}]},"request":{"method":"PUT","url":"Encounter/69f4243b-7c3f-4572-b8e6-dee49bbef186"}},{"resource":{"resourceType":"Patient","id":"ac23e6a6-3f36-49db-9eba-2da744a41c57","meta":{"profile":["http://hl7.org/fhir/us/qicore/StructureDefinition/qicore-patient"]},"text":{"status":"generated","div":"<div xmlns=\"http://www.w3.org/1999/xhtml\"><div class=\"hapiHeaderText\">INR1minB4EDstart_EDend1hrB4_OBSend1hrB4DayAft_IPstart <b>DENEXCEPASS </b></div><table class=\"hapiPropertyTable\"><tbody><tr><td>Identifier</td><td>89ea8ad611120273e39d590cc026d6ca35e3720cede5138111e1e8c931d79085</td></tr><tr><td>Date of birth</td><td><span>26 September 1975</span></td></tr></tbody></table></div>"},"extension":[{"url":"http://hl7.org/fhir/us/core/StructureDefinition/us-core-race","extension":[{"url":"ombCategory","valueCoding":{"system":"urn:oid:2.16.840.1.113883.6.238","code":"2054-5","display":"Black or African American","userSelected":true}},{"url":"text","valueString":"Black or African American"}]},{"url":"http://hl7.org/fhir/us/core/StructureDefinition/us-core-ethnicity","extension":[{"url":"ombCategory","valueCoding":{"system":"urn:oid:2.16.840.1.113883.6.238","code":"2186-5","display":"Not Hispanic or Latino","userSelected":true}},{"url":"text","valueString":"Not Hispanic or Latino"}]}],"identifier":[{"type":{"coding":[{"system":"http://terminology.hl7.org/CodeSystem/v2-0203","code":"MR"}]},"system":"https://bonnie-fhir.healthit.gov/","value":"60f82c2f98086b570510e2c0"}],"active":true,"name":[{"use":"usual","family":"DENEXCEPass","given":["INR1minB4EDstart_EDend1hrB4_OBSend1hrB4DayAft_IPstart"]}],"gender":"female","birthDate":"1976-09-26"},"request":{"method":"PUT","url":"Patient/ac23e6a6-3f36-49db-9eba-2da744a41c57"}},{"resource":{"resourceType":"Encounter","id":"1040c5f5-c2ba-4139-a0f1-8ba43cb28d5b","meta":{"profile":["http://hl7.org/fhir/us/qicore/StructureDefinition/qicore-encounter"]},"status":"finished","class":{"system":"http://terminology.hl7.org/CodeSystem/v3-ActCode","code":"OBSENC","display":"observation encounter","userSelected":true},"type":[{"coding":[{"system":"http://snomed.info/sct","code":"448951000124107"}]}],"subject":{"reference":"Patient/ac23e6a6-3f36-49db-9eba-2da744a41c57"},"period":{"start":"2026-10-11T00:00:00Z","end":"2026-10-11T06:31:00.000+00:00"},"length":{"value":0,"unit":"days"}},"request":{"method":"PUT","url":"Encounter/1040c5f5-c2ba-4139-a0f1-8ba43cb28d5b"}},{"resource":{"resourceType":"MeasureReport","id":"1c619d16-046b-4015-9ecb-8a2b2116c9b5","meta":{"profile":["http://hl7.org/fhir/us/cqfmeasures/StructureDefinition/test-case-cqfm"]},"contained":[{"resourceType":"Parameters","id":"b5ba84b4-8e18-4863-8b8f-c821f34692c0-parameters","parameter":[{"name":"subject","valueString":"ac23e6a6-3f36-49db-9eba-2da744a41c57"}]}],"extension":[{"url":"http://hl7.org/fhir/StructureDefinition/cqf-inputParameters","valueReference":{"reference":"#b5ba84b4-8e18-4863-8b8f-c821f34692c0-parameters"}},{"url":"http://hl7.org/fhir/us/cqfmeasures/StructureDefinition/cqfm-testCaseDescription","valueMarkdown":"Patient receives INR of 3.6 the 1 min  before ED start. ED ends 60 minute before OBS starts. OBS starts on day 2 at midnight. IP on the same day. Testing Day of operator with HospitalizationWithObservation function.\n"}],"modifierExtension":[{"url":"http://hl7.org/fhir/us/cqfmeasures/StructureDefinition/cqfm-isTestCase","valueBoolean":true}],"status":"complete","type":"individual","measure":"https://madie.cms.gov/Measure/CMS72FHIRSTKAntithromboticDay2","period":{"start":"2026-01-01","end":"2026-12-31"},"group":[{"id":"Group_1","population":[{"id":"InitialPopulation_1","code":{"coding":[{"system":"http://terminology.hl7.org/CodeSystem/measure-population","code":"initial-population","display":"Initial Population"}]},"count":1},{"id":"Denominator_1","code":{"coding":[{"system":"http://terminology.hl7.org/CodeSystem/measure-population","code":"denominator","display":"Denominator"}]},"count":1},{"id":"DenominatorExclusion_1","code":{"coding":[{"system":"http://terminology.hl7.org/CodeSystem/measure-population","code":"denominator-exclusion","display":"Denominator Exclusion"}]},"count":0},{"id":"Numerator_1","code":{"coding":[{"system":"http://terminology.hl7.org/CodeSystem/measure-population","code":"numerator","display":"Numerator"}]},"count":0},{"id":"DenominatorException_1","code":{"coding":[{"system":"http://terminology.hl7.org/CodeSystem/measure-population","code":"denominator-exception","display":"Denominator Exception"}]},"count":1}],"measureScore":{"value":0.0}}],"evaluatedResource":[{"reference":"Patient/ac23e6a6-3f36-49db-9eba-2da744a41c57"},{"reference":"Encounter/739c7bcd-8d79-4e62-9668-17d055a8ad94"},{"reference":"Encounter/1040c5f5-c2ba-4139-a0f1-8ba43cb28d5b"},{"reference":"Encounter/69f4243b-7c3f-4572-b8e6-dee49bbef186"},{"reference":"Claim/5ca62962b8484628b8de1ec5"},{"reference":"Observation/eac1b295-010b-4bbb-a341-52138b050a34"},{"reference":"Coverage/8367e776-ad13-4dce-bc85-fc58dda2e860"},{"reference":"Condition/d7b6670d-1916-4e0b-ab1e-2ef6acd6b7da"},{"reference":"Organization/aae19991-2f63-4bc9-b20b-6469bd5e5f6c"}]},"request":{"method":"PUT","url":"MeasureReport/1c619d16-046b-4015-9ecb-8a2b2116c9b5"}},{"resource":{"resourceType":"Condition","id":"d7b6670d-1916-4e0b-ab1e-2ef6acd6b7da","meta":{"profile":["http://hl7.org/fhir/us/qicore/StructureDefinition/qicore-condition-encounter-diagnosis"]},"clinicalStatus":{"coding":[{"system":"http://terminology.hl7.org/CodeSystem/condition-clinical","code":"active"}]},"verificationStatus":{"coding":[{"system":"http://terminology.hl7.org/CodeSystem/condition-ver-status","code":"confirmed"}]},"category":[{"coding":[{"system":"http://terminology.hl7.org/CodeSystem/condition-category","code":"encounter-diagnosis","display":"Encounter Diagnosis"}]}],"code":{"coding":[{"system":"http://snomed.info/sct","version":"2020-09","code":"111297002","display":"Nonparalytic stroke (disorder)","userSelected":true}]},"subject":{"reference":"Patient/ac23e6a6-3f36-49db-9eba-2da744a41c57"},"recordedDate":"2026-08-06T08:00:00Z"},"request":{"method":"PUT","url":"Condition/d7b6670d-1916-4e0b-ab1e-2ef6acd6b7da"}},{"resource":{"resourceType":"Observation","id":"eac1b295-010b-4bbb-a341-52138b050a34","meta":{"profile":["http://hl7.org/fhir/us/qicore/StructureDefinition/qicore-observation-lab"]},"status":"final","category":[{"coding":[{"system":"http://terminology.hl7.org/CodeSystem/observation-category","code":"laboratory","display":"Laboratory"}]}],"code":{"coding":[{"system":"http://loinc.org","code":"34714-6"}]},"subject":{"reference":"Patient/ac23e6a6-3f36-49db-9eba-2da744a41c57"},"effectivePeriod":{"start":"2026-10-10T06:15:00Z"},"issued":"2026-10-10T06:31:00.000+00:00","valueQuantity":{"value":3.6}},"request":{"method":"PUT","url":"Observation/eac1b295-010b-4bbb-a341-52138b050a34"}},{"resource":{"resourceType":"Encounter","id":"739c7bcd-8d79-4e62-9668-17d055a8ad94","meta":{"profile":["http://hl7.org/fhir/us/qicore/StructureDefinition/qicore-encounter"]},"status":"finished","class":{"system":"http://terminology.hl7.org/CodeSystem/v3-ActCode","code":"EMER","display":"emergency","userSelected":true},"type":[{"coding":[{"system":"http://snomed.info/sct","code":"4525004"}]}],"subject":{"reference":"Patient/ac23e6a6-3f36-49db-9eba-2da744a41c57"},"period":{"start":"2026-10-10T06:32:00Z","end":"2026-10-10T23:59:00.000+00:00"},"length":{"value":0,"unit":"days"}},"request":{"method":"PUT","url":"Encounter/739c7bcd-8d79-4e62-9668-17d055a8ad94"}},{"resource":{"resourceType":"Coverage","id":"8367e776-ad13-4dce-bc85-fc58dda2e860","status":"active","subscriberId":"523435","beneficiary":{"reference":"Patient/ac23e6a6-3f36-49db-9eba-2da744a41c57"},"relationship":{"coding":[{"system":"http://terminology.hl7.org/CodeSystem/subscriber-relationship","code":"self"}]},"period":{"start":"1976-09-26T08:00:00Z"},"payor":[{"reference":"Organization/aae19991-2f63-4bc9-b20b-6469bd5e5f6c"}]},"request":{"method":"PUT","url":"Coverage/8367e776-ad13-4dce-bc85-fc58dda2e860"}},{"resource":{"resourceType":"Bundle","id":"60f82c2f98086b570510e2c0","type":"transaction","entry":[{"fullUrl":"https://madie.cms.gov/Patient/ac23e6a6-3f36-49db-9eba-2da744a41c57","resource":{"resourceType":"Patient","id":"ac23e6a6-3f36-49db-9eba-2da744a41c57","meta":{"profile":["http://hl7.org/fhir/us/qicore/StructureDefinition/qicore-patient"]},"text":{"status":"generated","div":"<div xmlns=\"http://www.w3.org/1999/xhtml\"><div class=\"hapiHeaderText\">INR1minB4EDstart_EDend1hrB4_OBSend1hrB4DayAft_IPstart <b>DENEXCEPASS </b></div><table class=\"hapiPropertyTable\"><tbody><tr><td>Identifier</td><td>89ea8ad611120273e39d590cc026d6ca35e3720cede5138111e1e8c931d79085</td></tr><tr><td>Date of birth</td><td><span>26 September 1975</span></td></tr></tbody></table></div>"},"extension":[{"url":"http://hl7.org/fhir/us/core/StructureDefinition/us-core-race","extension":[{"url":"ombCategory","valueCoding":{"system":"urn:oid:2.16.840.1.113883.6.238","code":"2054-5","display":"Black or African American","userSelected":true}},{"url":"text","valueString":"Black or African American"}]},{"url":"http://hl7.org/fhir/us/core/StructureDefinition/us-core-ethnicity","extension":[{"url":"ombCategory","valueCoding":{"system":"urn:oid:2.16.840.1.113883.6.238","code":"2186-5","display":"Not Hispanic or Latino","userSelected":true}},{"url":"text","valueString":"Not Hispanic or Latino"}]}],"identifier":[{"type":{"coding":[{"system":"http://terminology.hl7.org/CodeSystem/v2-0203","code":"MR"}]},"system":"https://bonnie-fhir.healthit.gov/","value":"60f82c2f98086b570510e2c0"}],"active":true,"name":[{"use":"usual","family":"DENEXCEPass","given":["INR1minB4EDstart_EDend1hrB4_OBSend1hrB4DayAft_IPstart"]}],"gender":"female","birthDate":"1976-09-26"},"request":{"method":"PUT","url":"Patient/ac23e6a6-3f36-49db-9eba-2da744a41c57"}},{"fullUrl":"https://madie.cms.gov/Encounter/739c7bcd-8d79-4e62-9668-17d055a8ad94","resource":{"resourceType":"Encounter","id":"739c7bcd-8d79-4e62-9668-17d055a8ad94","meta":{"profile":["http://hl7.org/fhir/us/qicore/StructureDefinition/qicore-encounter"]},"status":"finished","class":{"system":"http://terminology.hl7.org/CodeSystem/v3-ActCode","code":"EMER","display":"emergency","userSelected":true},"type":[{"coding":[{"system":"http://snomed.info/sct","code":"4525004"}]}],"subject":{"reference":"Patient/ac23e6a6-3f36-49db-9eba-2da744a41c57"},"period":{"start":"2026-10-10T06:32:00Z","end":"2026-10-10T23:59:00.000+00:00"},"length":{"value":0,"unit":"days"}},"request":{"method":"PUT","url":"Encounter/739c7bcd-8d79-4e62-9668-17d055a8ad94"}},{"fullUrl":"https://madie.cms.gov/Encounter/1040c5f5-c2ba-4139-a0f1-8ba43cb28d5b","resource":{"resourceType":"Encounter","id":"1040c5f5-c2ba-4139-a0f1-8ba43cb28d5b","meta":{"profile":["http://hl7.org/fhir/us/qicore/StructureDefinition/qicore-encounter"]},"status":"finished","class":{"system":"http://terminology.hl7.org/CodeSystem/v3-ActCode","code":"OBSENC","display":"observation encounter","userSelected":true},"type":[{"coding":[{"system":"http://snomed.info/sct","code":"448951000124107"}]}],"subject":{"reference":"Patient/ac23e6a6-3f36-49db-9eba-2da744a41c57"},"period":{"start":"2026-10-11T00:00:00Z","end":"2026-10-11T06:31:00.000+00:00"},"length":{"value":0,"unit":"days"}},"request":{"method":"PUT","url":"Encounter/1040c5f5-c2ba-4139-a0f1-8ba43cb28d5b"}},{"fullUrl":"https://madie.cms.gov/Encounter/69f4243b-7c3f-4572-b8e6-dee49bbef186","resource":{"resourceType":"Encounter","id":"69f4243b-7c3f-4572-b8e6-dee49bbef186","meta":{"profile":["http://hl7.org/fhir/us/qicore/StructureDefinition/qicore-encounter"]},"status":"finished","class":{"system":"http://terminology.hl7.org/CodeSystem/v3-ActCode","code":"IMP","display":"inpatient encounter","userSelected":true},"type":[{"coding":[{"system":"http://snomed.info/sct","code":"32485007"}]}],"subject":{"reference":"Patient/ac23e6a6-3f36-49db-9eba-2da744a41c57"},"period":{"start":"2026-10-11T07:31:00Z","end":"2026-10-15T11:30:00.000+00:00"},"length":{"value":4,"unit":"days"},"reasonReference":[{"reference":"Condition/d7b6670d-1916-4e0b-ab1e-2ef6acd6b7da"}]},"request":{"method":"PUT","url":"Encounter/69f4243b-7c3f-4572-b8e6-dee49bbef186"}},{"fullUrl":"https://madie.cms.gov/claim/5ca62962b8484628b8de1ec5","resource":{"resourceType":"Claim","id":"5ca62962b8484628b8de1ec5","meta":{"profile":["http://hl7.org/fhir/us/qicore/StructureDefinition/qicore-claim"]},"status":"active","type":{"coding":[{"system":"http://terminology.hl7.org/CodeSystem/claim-type","code":"institutional"}]},"use":"claim","patient":{"reference":"Patient/d170a0a8-b5ad-4303-b6df-e304dd5f92ad"},"created":"2026-12-01","provider":{"reference":"Practitioner/practitioner-123456"},"priority":{"coding":[{"system":"http://terminology.hl7.org/CodeSystem/processpriority","code":"normal"}]},"diagnosis":[{"sequence":1,"diagnosisCodeableConcept":{"coding":[{"system":"http://hl7.org/fhir/sid/icd-10-cm","code":"I63.00"}]},"type":[{"coding":[{"system":"http://terminology.hl7.org/CodeSystem/ex-diagnosistype","code":"principal"}]}]}],"insurance":[{"sequence":1,"focal":true,"coverage":{"reference":"Coverage/5fa041661c76ba66d9959367"}}],"item":[{"sequence":1,"diagnosisSequence":[1],"productOrService":{"coding":[{"system":"http://terminology.hl7.org/CodeSystem/ex-USCLS","code":"99555"}]},"encounter":[{"reference":"Encounter/69f4243b-7c3f-4572-b8e6-dee49bbef186"}]}]},"request":{"method":"PUT","url":"Claim/5ca62962b8484628b8de1ec5"}},{"fullUrl":"https://madie.cms.gov/Observation/eac1b295-010b-4bbb-a341-52138b050a34","resource":{"resourceType":"Observation","id":"eac1b295-010b-4bbb-a341-52138b050a34","meta":{"profile":["http://hl7.org/fhir/us/qicore/StructureDefinition/qicore-observation-lab"]},"status":"final","category":[{"coding":[{"system":"http://terminology.hl7.org/CodeSystem/observation-category","code":"laboratory","display":"Laboratory"}]}],"code":{"coding":[{"system":"http://loinc.org","code":"34714-6"}]},"subject":{"reference":"Patient/ac23e6a6-3f36-49db-9eba-2da744a41c57"},"effectivePeriod":{"start":"2026-10-10T06:15:00Z"},"issued":"2026-10-10T06:31:00.000+00:00","valueQuantity":{"value":3.6}},"request":{"method":"PUT","url":"Observation/eac1b295-010b-4bbb-a341-52138b050a34"}},{"fullUrl":"https://madie.cms.gov/Coverage/8367e776-ad13-4dce-bc85-fc58dda2e860","resource":{"resourceType":"Coverage","id":"8367e776-ad13-4dce-bc85-fc58dda2e860","status":"active","subscriberId":"523435","beneficiary":{"reference":"Patient/ac23e6a6-3f36-49db-9eba-2da744a41c57"},"relationship":{"coding":[{"system":"http://terminology.hl7.org/CodeSystem/subscriber-relationship","code":"self"}]},"period":{"start":"1976-09-26T08:00:00Z"},"payor":[{"reference":"Organization/aae19991-2f63-4bc9-b20b-6469bd5e5f6c"}]},"request":{"method":"PUT","url":"Coverage/8367e776-ad13-4dce-bc85-fc58dda2e860"}},{"fullUrl":"https://madie.cms.gov/Condition/d7b6670d-1916-4e0b-ab1e-2ef6acd6b7da","resource":{"resourceType":"Condition","id":"d7b6670d-1916-4e0b-ab1e-2ef6acd6b7da","meta":{"profile":["http://hl7.org/fhir/us/qicore/StructureDefinition/qicore-condition-encounter-diagnosis"]},"clinicalStatus":{"coding":[{"system":"http://terminology.hl7.org/CodeSystem/condition-clinical","code":"active"}]},"verificationStatus":{"coding":[{"system":"http://terminology.hl7.org/CodeSystem/condition-ver-status","code":"confirmed"}]},"category":[{"coding":[{"system":"http://terminology.hl7.org/CodeSystem/condition-category","code":"encounter-diagnosis","display":"Encounter Diagnosis"}]}],"code":{"coding":[{"system":"http://snomed.info/sct","version":"2020-09","code":"111297002","display":"Nonparalytic stroke (disorder)","userSelected":true}]},"subject":{"reference":"Patient/ac23e6a6-3f36-49db-9eba-2da744a41c57"},"recordedDate":"2026-08-06T08:00:00Z"},"request":{"method":"PUT","url":"Condition/d7b6670d-1916-4e0b-ab1e-2ef6acd6b7da"}},{"fullUrl":"https://madie.cms.gov/Organization/aae19991-2f63-4bc9-b20b-6469bd5e5f6c","resource":{"resourceType":"Organization","id":"aae19991-2f63-4bc9-b20b-6469bd5e5f6c","meta":{"profile":["http://hl7.org/fhir/us/qicore/StructureDefinition/qicore-organization"]},"identifier":[{"use":"temp","system":"urn:oid:2.16.840.1.113883.4.4","value":"21-3259825"}],"active":true,"type":[{"coding":[{"system":"http://terminology.hl7.org/CodeSystem/organization-type","code":"pay","display":"Payer"}]}],"name":"Blue Cross Blue Shield of Texas","telecom":[{"system":"phone","value":"(+1) 972-766-6900"}],"address":[{"use":"billing","type":"postal","line":["P.O. Box 660044"],"city":"Dallas","state":"TX","postalCode":"75266-0044","country":"USA"}]},"request":{"method":"PUT","url":"Organization/aae19991-2f63-4bc9-b20b-6469bd5e5f6c"}},{"fullUrl":"https://madie.cms.gov/MeasureReport/1c619d16-046b-4015-9ecb-8a2b2116c9b5","resource":{"resourceType":"MeasureReport","id":"1c619d16-046b-4015-9ecb-8a2b2116c9b5","meta":{"profile":["http://hl7.org/fhir/us/cqfmeasures/StructureDefinition/test-case-cqfm"]},"contained":[{"resourceType":"Parameters","id":"b5ba84b4-8e18-4863-8b8f-c821f34692c0-parameters","parameter":[{"name":"subject","valueString":"ac23e6a6-3f36-49db-9eba-2da744a41c57"}]}],"extension":[{"url":"http://hl7.org/fhir/StructureDefinition/cqf-inputParameters","valueReference":{"reference":"#b5ba84b4-8e18-4863-8b8f-c821f34692c0-parameters"}},{"url":"http://hl7.org/fhir/us/cqfmeasures/StructureDefinition/cqfm-testCaseDescription","valueMarkdown":"Patient receives INR of 3.6 the 1 min  before ED start. ED ends 60 minute before OBS starts. OBS starts on day 2 at midnight. IP on the same day. Testing Day of operator with HospitalizationWithObservation function.\n"}],"modifierExtension":[{"url":"http://hl7.org/fhir/us/cqfmeasures/StructureDefinition/cqfm-isTestCase","valueBoolean":true}],"status":"complete","type":"individual","measure":"https://madie.cms.gov/Measure/CMS72FHIRSTKAntithromboticDay2","period":{"start":"2026-01-01","end":"2026-12-31"},"group":[{"id":"Group_1","population":[{"id":"InitialPopulation_1","code":{"coding":[{"system":"http://terminology.hl7.org/CodeSystem/measure-population","code":"initial-population","display":"Initial Population"}]},"count":1},{"id":"Denominator_1","code":{"coding":[{"system":"http://terminology.hl7.org/CodeSystem/measure-population","code":"denominator","display":"Denominator"}]},"count":1},{"id":"DenominatorExclusion_1","code":{"coding":[{"system":"http://terminology.hl7.org/CodeSystem/measure-population","code":"denominator-exclusion","display":"Denominator Exclusion"}]},"count":0},{"id":"Numerator_1","code":{"coding":[{"system":"http://terminology.hl7.org/CodeSystem/measure-population","code":"numerator","display":"Numerator"}]},"count":0},{"id":"DenominatorException_1","code":{"coding":[{"system":"http://terminology.hl7.org/CodeSystem/measure-population","code":"denominator-exception","display":"Denominator Exception"}]},"count":1}],"measureScore":{"value":0.0}}],"evaluatedResource":[{"reference":"Patient/ac23e6a6-3f36-49db-9eba-2da744a41c57"},{"reference":"Encounter/739c7bcd-8d79-4e62-9668-17d055a8ad94"},{"reference":"Encounter/1040c5f5-c2ba-4139-a0f1-8ba43cb28d5b"},{"reference":"Encounter/69f4243b-7c3f-4572-b8e6-dee49bbef186"},{"reference":"Claim/5ca62962b8484628b8de1ec5"},{"reference":"Observation/eac1b295-010b-4bbb-a341-52138b050a34"},{"reference":"Coverage/8367e776-ad13-4dce-bc85-fc58dda2e860"},{"reference":"Condition/d7b6670d-1916-4e0b-ab1e-2ef6acd6b7da"},{"reference":"Organization/aae19991-2f63-4bc9-b20b-6469bd5e5f6c"}]},"request":{"method":"PUT","url":"MeasureReport/1c619d16-046b-4015-9ecb-8a2b2116c9b5"}}]},"request":{"method":"PUT","url":"Bundle/60f82c2f98086b570510e2c0"}},{"resource":{"resourceType":"Organization","id":"aae19991-2f63-4bc9-b20b-6469bd5e5f6c","meta":{"profile":["http://hl7.org/fhir/us/qicore/StructureDefinition/qicore-organization"]},"identifier":[{"use":"temp","system":"urn:oid:2.16.840.1.113883.4.4","value":"21-3259825"}],"active":true,"type":[{"coding":[{"system":"http://terminology.hl7.org/CodeSystem/organization-type","code":"pay","display":"Payer"}]}],"name":"Blue Cross Blue Shield of Texas","telecom":[{"system":"phone","value":"(+1) 972-766-6900"}],"address":[{"use":"billing","type":"postal","line":["P.O. Box 660044"],"city":"Dallas","state":"TX","postalCode":"75266-0044","country":"USA"}]},"request":{"method":"PUT","url":"Organization/aae19991-2f63-4bc9-b20b-6469bd5e5f6c"}},{"resource":{"resourceType":"Claim","id":"5ca62962b8484628b8de1ec5","meta":{"profile":["http://hl7.org/fhir/us/qicore/StructureDefinition/qicore-claim"]},"status":"active","type":{"coding":[{"system":"http://terminology.hl7.org/CodeSystem/claim-type","code":"institutional"}]},"use":"claim","patient":{"reference":"Patient/d170a0a8-b5ad-4303-b6df-e304dd5f92ad"},"created":"2026-12-01","provider":{"reference":"Practitioner/practitioner-123456"},"priority":{"coding":[{"system":"http://terminology.hl7.org/CodeSystem/processpriority","code":"normal"}]},"diagnosis":[{"sequence":1,"diagnosisCodeableConcept":{"coding":[{"system":"http://hl7.org/fhir/sid/icd-10-cm","code":"I63.00"}]},"type":[{"coding":[{"system":"http://terminology.hl7.org/CodeSystem/ex-diagnosistype","code":"principal"}]}]}],"insurance":[{"sequence":1,"focal":true,"coverage":{"reference":"Coverage/5fa041661c76ba66d9959367"}}],"item":[{"sequence":1,"diagnosisSequence":[1],"productOrService":{"coding":[{"system":"http://terminology.hl7.org/CodeSystem/ex-USCLS","code":"99555"}]},"encounter":[{"reference":"Encounter/69f4243b-7c3f-4572-b8e6-dee49bbef186"}]}]},"request":{"method":"PUT","url":"Claim/5ca62962b8484628b8de1ec5"}}]}