{"resourceType":"Bundle","id":"tests-a5feebb4-d3c0-4435-aed5-9579b75a8a52-bundle","type":"transaction","entry":[{"resource":{"resourceType":"MeasureReport","id":"8390c02b-aa75-4732-bfe0-263e52b2f96e","meta":{"profile":["http://hl7.org/fhir/us/cqfmeasures/StructureDefinition/test-case-cqfm"]},"contained":[{"resourceType":"Parameters","id":"cd540956-2fc7-46a2-a80e-d8f05d8e79ae-parameters","parameter":[{"name":"subject","valueString":"a5feebb4-d3c0-4435-aed5-9579b75a8a52"}]}],"extension":[{"url":"http://hl7.org/fhir/StructureDefinition/cqf-inputParameters","valueReference":{"reference":"#cd540956-2fc7-46a2-a80e-d8f05d8e79ae-parameters"}},{"url":"http://hl7.org/fhir/us/cqfmeasures/StructureDefinition/cqfm-testCaseDescription","valueMarkdown":"\"Patient has LOS = 2 days AND without an ED Visit , \nglobal.Hospitalization( =Enc IP)\"\n"}],"modifierExtension":[{"url":"http://hl7.org/fhir/us/cqfmeasures/StructureDefinition/cqfm-isTestCase","valueBoolean":true}],"status":"complete","type":"individual","measure":"https://madie.cms.gov/Measure/CMS72FHIRSTKAntithromboticDay2","period":{"start":"2026-01-01","end":"2026-12-31"},"group":[{"id":"Group_1","population":[{"id":"InitialPopulation_1","code":{"coding":[{"system":"http://terminology.hl7.org/CodeSystem/measure-population","code":"initial-population","display":"Initial Population"}]},"count":1},{"id":"Denominator_1","code":{"coding":[{"system":"http://terminology.hl7.org/CodeSystem/measure-population","code":"denominator","display":"Denominator"}]},"count":1},{"id":"DenominatorExclusion_1","code":{"coding":[{"system":"http://terminology.hl7.org/CodeSystem/measure-population","code":"denominator-exclusion","display":"Denominator Exclusion"}]},"count":0},{"id":"Numerator_1","code":{"coding":[{"system":"http://terminology.hl7.org/CodeSystem/measure-population","code":"numerator","display":"Numerator"}]},"count":0},{"id":"DenominatorException_1","code":{"coding":[{"system":"http://terminology.hl7.org/CodeSystem/measure-population","code":"denominator-exception","display":"Denominator Exception"}]},"count":0}],"measureScore":{"value":0.0}}],"evaluatedResource":[{"reference":"Patient/a5feebb4-d3c0-4435-aed5-9579b75a8a52"},{"reference":"Encounter/d9d297b5-1a4f-4010-9e5e-79022ba820d9"},{"reference":"Coverage/5694e523-3001-4865-afbf-7f3e51a82d00"},{"reference":"Condition/a28ce184-59e4-4d5d-990b-b337e53f375e"},{"reference":"Claim/5ca62962b8484628b8de1ec5"},{"reference":"Organization/1105d4c1-dfb0-4464-99e8-9c72edf9e593"}]},"request":{"method":"PUT","url":"MeasureReport/8390c02b-aa75-4732-bfe0-263e52b2f96e"}},{"resource":{"resourceType":"Patient","id":"a5feebb4-d3c0-4435-aed5-9579b75a8a52","meta":{"profile":["http://hl7.org/fhir/us/qicore/StructureDefinition/qicore-patient"]},"text":{"status":"generated","div":"<div xmlns=\"http://www.w3.org/1999/xhtml\"><div class=\"hapiHeaderText\">LOS=2DaysNoED <b>DENEXFAIL </b></div><table class=\"hapiPropertyTable\"><tbody><tr><td>Identifier</td><td>6983b1628854f0699e341e1d182d73e4</td></tr><tr><td>Date of birth</td><td><span>20 August 1994</span></td></tr></tbody></table></div>"},"extension":[{"url":"http://hl7.org/fhir/us/core/StructureDefinition/us-core-race","extension":[{"url":"ombCategory","valueCoding":{"system":"urn:oid:2.16.840.1.113883.6.238","code":"1002-5","display":"American Indian or Alaska Native","userSelected":true}},{"url":"text","valueString":"American Indian or Alaska Native"}]},{"url":"http://hl7.org/fhir/us/core/StructureDefinition/us-core-ethnicity","extension":[{"url":"ombCategory","valueCoding":{"system":"urn:oid:2.16.840.1.113883.6.238","code":"2135-2","display":"Hispanic or Latino","userSelected":true}},{"url":"text","valueString":"Hispanic or Latino"}]}],"identifier":[{"type":{"coding":[{"system":"http://terminology.hl7.org/CodeSystem/v2-0203","code":"MR"}]},"system":"https://bonnie-fhir.healthit.gov/","value":"60f82c2d98086b570510e255"}],"active":true,"name":[{"use":"usual","family":"DENEXFail","given":["LOSEQ2DaysNoED"]}],"gender":"male","birthDate":"1995-08-20"},"request":{"method":"PUT","url":"Patient/a5feebb4-d3c0-4435-aed5-9579b75a8a52"}},{"resource":{"resourceType":"Bundle","id":"60f82c2d98086b570510e255","type":"transaction","entry":[{"fullUrl":"https://madie.cms.gov/Patient/a5feebb4-d3c0-4435-aed5-9579b75a8a52","resource":{"resourceType":"Patient","id":"a5feebb4-d3c0-4435-aed5-9579b75a8a52","meta":{"profile":["http://hl7.org/fhir/us/qicore/StructureDefinition/qicore-patient"]},"text":{"status":"generated","div":"<div xmlns=\"http://www.w3.org/1999/xhtml\"><div class=\"hapiHeaderText\">LOS=2DaysNoED <b>DENEXFAIL </b></div><table class=\"hapiPropertyTable\"><tbody><tr><td>Identifier</td><td>6983b1628854f0699e341e1d182d73e4</td></tr><tr><td>Date of birth</td><td><span>20 August 1994</span></td></tr></tbody></table></div>"},"extension":[{"url":"http://hl7.org/fhir/us/core/StructureDefinition/us-core-race","extension":[{"url":"ombCategory","valueCoding":{"system":"urn:oid:2.16.840.1.113883.6.238","code":"1002-5","display":"American Indian or Alaska Native","userSelected":true}},{"url":"text","valueString":"American Indian or Alaska Native"}]},{"url":"http://hl7.org/fhir/us/core/StructureDefinition/us-core-ethnicity","extension":[{"url":"ombCategory","valueCoding":{"system":"urn:oid:2.16.840.1.113883.6.238","code":"2135-2","display":"Hispanic or Latino","userSelected":true}},{"url":"text","valueString":"Hispanic or Latino"}]}],"identifier":[{"type":{"coding":[{"system":"http://terminology.hl7.org/CodeSystem/v2-0203","code":"MR"}]},"system":"https://bonnie-fhir.healthit.gov/","value":"60f82c2d98086b570510e255"}],"active":true,"name":[{"use":"usual","family":"DENEXFail","given":["LOSEQ2DaysNoED"]}],"gender":"male","birthDate":"1995-08-20"},"request":{"method":"PUT","url":"Patient/a5feebb4-d3c0-4435-aed5-9579b75a8a52"}},{"fullUrl":"https://madie.cms.gov/Encounter/d9d297b5-1a4f-4010-9e5e-79022ba820d9","resource":{"resourceType":"Encounter","id":"d9d297b5-1a4f-4010-9e5e-79022ba820d9","meta":{"profile":["http://hl7.org/fhir/us/qicore/StructureDefinition/qicore-encounter"]},"status":"finished","class":{"system":"http://terminology.hl7.org/CodeSystem/v3-ActCode","code":"IMP","display":"inpatient encounter","userSelected":true},"type":[{"coding":[{"system":"http://snomed.info/sct","code":"32485007"}]}],"subject":{"reference":"Patient/a5feebb4-d3c0-4435-aed5-9579b75a8a52"},"period":{"start":"2026-08-21T00:00:00Z","end":"2026-08-23T12:00:00.000+00:00"},"length":{"value":2,"unit":"days"},"reasonReference":[{"reference":"Condition/a28ce184-59e4-4d5d-990b-b337e53f375e"}]},"request":{"method":"PUT","url":"Encounter/d9d297b5-1a4f-4010-9e5e-79022ba820d9"}},{"fullUrl":"https://madie.cms.gov/Coverage/5694e523-3001-4865-afbf-7f3e51a82d00","resource":{"resourceType":"Coverage","id":"5694e523-3001-4865-afbf-7f3e51a82d00","status":"active","beneficiary":{"reference":"Patient/a5feebb4-d3c0-4435-aed5-9579b75a8a52"},"period":{"start":"1995-08-20T07:00:00Z"},"payor":[{"reference":"Organization/1105d4c1-dfb0-4464-99e8-9c72edf9e593"}]},"request":{"method":"PUT","url":"Coverage/5694e523-3001-4865-afbf-7f3e51a82d00"}},{"fullUrl":"https://madie.cms.gov/Condition/a28ce184-59e4-4d5d-990b-b337e53f375e","resource":{"resourceType":"Condition","id":"a28ce184-59e4-4d5d-990b-b337e53f375e","meta":{"profile":["http://hl7.org/fhir/us/qicore/StructureDefinition/qicore-condition-encounter-diagnosis"]},"clinicalStatus":{"coding":[{"system":"http://terminology.hl7.org/CodeSystem/condition-clinical","code":"active"}]},"verificationStatus":{"coding":[{"system":"http://terminology.hl7.org/CodeSystem/condition-ver-status","code":"confirmed"}]},"category":[{"coding":[{"system":"http://terminology.hl7.org/CodeSystem/condition-category","code":"encounter-diagnosis","display":"Encounter Diagnosis"}]}],"code":{"coding":[{"system":"http://snomed.info/sct","version":"2020-09","code":"111297002","display":"Nonparalytic stroke (disorder)","userSelected":true}]},"subject":{"reference":"Patient/a5feebb4-d3c0-4435-aed5-9579b75a8a52"},"encounter":{"reference":"Encounter/d9d297b5-1a4f-4010-9e5e-79022ba820d9"},"recordedDate":"2026-08-12T08:00:00Z"},"request":{"method":"PUT","url":"Condition/a28ce184-59e4-4d5d-990b-b337e53f375e"}},{"fullUrl":"https://madie.cms.gov/claim/5ca62962b8484628b8de1ec5","resource":{"resourceType":"Claim","id":"5ca62962b8484628b8de1ec5","meta":{"profile":["http://hl7.org/fhir/us/qicore/StructureDefinition/qicore-claim"]},"status":"active","type":{"coding":[{"system":"http://terminology.hl7.org/CodeSystem/claim-type","code":"institutional"}]},"use":"claim","patient":{"reference":"Patient/5450abfd-a667-4eb9-9b59-e85feed4865c"},"created":"2026-12-01","provider":{"reference":"Practitioner/practitioner-123456"},"priority":{"coding":[{"system":"http://terminology.hl7.org/CodeSystem/processpriority","code":"normal"}]},"diagnosis":[{"sequence":1,"diagnosisCodeableConcept":{"coding":[{"system":"http://hl7.org/fhir/sid/icd-10-cm","code":"I63.00"}]},"type":[{"coding":[{"system":"http://terminology.hl7.org/CodeSystem/ex-diagnosistype","code":"principal"}]}]}],"insurance":[{"sequence":1,"focal":true,"coverage":{"reference":"Coverage/5fa041661c76ba66d9959367"}}],"item":[{"sequence":1,"diagnosisSequence":[1],"productOrService":{"coding":[{"system":"http://terminology.hl7.org/CodeSystem/ex-USCLS","code":"99555"}]},"encounter":[{"reference":"Encounter/d9d297b5-1a4f-4010-9e5e-79022ba820d9"}]}]},"request":{"method":"PUT","url":"Claim/5ca62962b8484628b8de1ec5"}},{"fullUrl":"https://madie.cms.gov/Organization/1105d4c1-dfb0-4464-99e8-9c72edf9e593","resource":{"resourceType":"Organization","id":"1105d4c1-dfb0-4464-99e8-9c72edf9e593","meta":{"profile":["http://hl7.org/fhir/us/qicore/StructureDefinition/qicore-organization"]},"identifier":[{"use":"temp","system":"urn:oid:2.16.840.1.113883.4.4","value":"21-3259825"}],"active":true,"type":[{"coding":[{"system":"http://terminology.hl7.org/CodeSystem/organization-type","code":"pay","display":"Payer"}]}],"name":"Blue Cross Blue Shield of Texas","telecom":[{"system":"phone","value":"(+1) 972-766-6900"}],"address":[{"use":"billing","type":"postal","line":["P.O. Box 660044"],"city":"Dallas","state":"TX","postalCode":"75266-0044","country":"USA"}]},"request":{"method":"PUT","url":"Organization/1105d4c1-dfb0-4464-99e8-9c72edf9e593"}},{"fullUrl":"https://madie.cms.gov/MeasureReport/8390c02b-aa75-4732-bfe0-263e52b2f96e","resource":{"resourceType":"MeasureReport","id":"8390c02b-aa75-4732-bfe0-263e52b2f96e","meta":{"profile":["http://hl7.org/fhir/us/cqfmeasures/StructureDefinition/test-case-cqfm"]},"contained":[{"resourceType":"Parameters","id":"cd540956-2fc7-46a2-a80e-d8f05d8e79ae-parameters","parameter":[{"name":"subject","valueString":"a5feebb4-d3c0-4435-aed5-9579b75a8a52"}]}],"extension":[{"url":"http://hl7.org/fhir/StructureDefinition/cqf-inputParameters","valueReference":{"reference":"#cd540956-2fc7-46a2-a80e-d8f05d8e79ae-parameters"}},{"url":"http://hl7.org/fhir/us/cqfmeasures/StructureDefinition/cqfm-testCaseDescription","valueMarkdown":"\"Patient has LOS = 2 days AND without an ED Visit , \nglobal.Hospitalization( =Enc IP)\"\n"}],"modifierExtension":[{"url":"http://hl7.org/fhir/us/cqfmeasures/StructureDefinition/cqfm-isTestCase","valueBoolean":true}],"status":"complete","type":"individual","measure":"https://madie.cms.gov/Measure/CMS72FHIRSTKAntithromboticDay2","period":{"start":"2026-01-01","end":"2026-12-31"},"group":[{"id":"Group_1","population":[{"id":"InitialPopulation_1","code":{"coding":[{"system":"http://terminology.hl7.org/CodeSystem/measure-population","code":"initial-population","display":"Initial Population"}]},"count":1},{"id":"Denominator_1","code":{"coding":[{"system":"http://terminology.hl7.org/CodeSystem/measure-population","code":"denominator","display":"Denominator"}]},"count":1},{"id":"DenominatorExclusion_1","code":{"coding":[{"system":"http://terminology.hl7.org/CodeSystem/measure-population","code":"denominator-exclusion","display":"Denominator Exclusion"}]},"count":0},{"id":"Numerator_1","code":{"coding":[{"system":"http://terminology.hl7.org/CodeSystem/measure-population","code":"numerator","display":"Numerator"}]},"count":0},{"id":"DenominatorException_1","code":{"coding":[{"system":"http://terminology.hl7.org/CodeSystem/measure-population","code":"denominator-exception","display":"Denominator Exception"}]},"count":0}],"measureScore":{"value":0.0}}],"evaluatedResource":[{"reference":"Patient/a5feebb4-d3c0-4435-aed5-9579b75a8a52"},{"reference":"Encounter/d9d297b5-1a4f-4010-9e5e-79022ba820d9"},{"reference":"Coverage/5694e523-3001-4865-afbf-7f3e51a82d00"},{"reference":"Condition/a28ce184-59e4-4d5d-990b-b337e53f375e"},{"reference":"Claim/5ca62962b8484628b8de1ec5"},{"reference":"Organization/1105d4c1-dfb0-4464-99e8-9c72edf9e593"}]},"request":{"method":"PUT","url":"MeasureReport/8390c02b-aa75-4732-bfe0-263e52b2f96e"}}]},"request":{"method":"PUT","url":"Bundle/60f82c2d98086b570510e255"}},{"resource":{"resourceType":"Coverage","id":"5694e523-3001-4865-afbf-7f3e51a82d00","status":"active","beneficiary":{"reference":"Patient/a5feebb4-d3c0-4435-aed5-9579b75a8a52"},"period":{"start":"1995-08-20T07:00:00Z"},"payor":[{"reference":"Organization/1105d4c1-dfb0-4464-99e8-9c72edf9e593"}]},"request":{"method":"PUT","url":"Coverage/5694e523-3001-4865-afbf-7f3e51a82d00"}},{"resource":{"resourceType":"Condition","id":"a28ce184-59e4-4d5d-990b-b337e53f375e","meta":{"profile":["http://hl7.org/fhir/us/qicore/StructureDefinition/qicore-condition-encounter-diagnosis"]},"clinicalStatus":{"coding":[{"system":"http://terminology.hl7.org/CodeSystem/condition-clinical","code":"active"}]},"verificationStatus":{"coding":[{"system":"http://terminology.hl7.org/CodeSystem/condition-ver-status","code":"confirmed"}]},"category":[{"coding":[{"system":"http://terminology.hl7.org/CodeSystem/condition-category","code":"encounter-diagnosis","display":"Encounter Diagnosis"}]}],"code":{"coding":[{"system":"http://snomed.info/sct","version":"2020-09","code":"111297002","display":"Nonparalytic stroke (disorder)","userSelected":true}]},"subject":{"reference":"Patient/a5feebb4-d3c0-4435-aed5-9579b75a8a52"},"encounter":{"reference":"Encounter/d9d297b5-1a4f-4010-9e5e-79022ba820d9"},"recordedDate":"2026-08-12T08:00:00Z"},"request":{"method":"PUT","url":"Condition/a28ce184-59e4-4d5d-990b-b337e53f375e"}},{"resource":{"resourceType":"Organization","id":"1105d4c1-dfb0-4464-99e8-9c72edf9e593","meta":{"profile":["http://hl7.org/fhir/us/qicore/StructureDefinition/qicore-organization"]},"identifier":[{"use":"temp","system":"urn:oid:2.16.840.1.113883.4.4","value":"21-3259825"}],"active":true,"type":[{"coding":[{"system":"http://terminology.hl7.org/CodeSystem/organization-type","code":"pay","display":"Payer"}]}],"name":"Blue Cross Blue Shield of Texas","telecom":[{"system":"phone","value":"(+1) 972-766-6900"}],"address":[{"use":"billing","type":"postal","line":["P.O. Box 660044"],"city":"Dallas","state":"TX","postalCode":"75266-0044","country":"USA"}]},"request":{"method":"PUT","url":"Organization/1105d4c1-dfb0-4464-99e8-9c72edf9e593"}},{"resource":{"resourceType":"Claim","id":"5ca62962b8484628b8de1ec5","meta":{"profile":["http://hl7.org/fhir/us/qicore/StructureDefinition/qicore-claim"]},"status":"active","type":{"coding":[{"system":"http://terminology.hl7.org/CodeSystem/claim-type","code":"institutional"}]},"use":"claim","patient":{"reference":"Patient/5450abfd-a667-4eb9-9b59-e85feed4865c"},"created":"2026-12-01","provider":{"reference":"Practitioner/practitioner-123456"},"priority":{"coding":[{"system":"http://terminology.hl7.org/CodeSystem/processpriority","code":"normal"}]},"diagnosis":[{"sequence":1,"diagnosisCodeableConcept":{"coding":[{"system":"http://hl7.org/fhir/sid/icd-10-cm","code":"I63.00"}]},"type":[{"coding":[{"system":"http://terminology.hl7.org/CodeSystem/ex-diagnosistype","code":"principal"}]}]}],"insurance":[{"sequence":1,"focal":true,"coverage":{"reference":"Coverage/5fa041661c76ba66d9959367"}}],"item":[{"sequence":1,"diagnosisSequence":[1],"productOrService":{"coding":[{"system":"http://terminology.hl7.org/CodeSystem/ex-USCLS","code":"99555"}]},"encounter":[{"reference":"Encounter/d9d297b5-1a4f-4010-9e5e-79022ba820d9"}]}]},"request":{"method":"PUT","url":"Claim/5ca62962b8484628b8de1ec5"}},{"resource":{"resourceType":"Encounter","id":"d9d297b5-1a4f-4010-9e5e-79022ba820d9","meta":{"profile":["http://hl7.org/fhir/us/qicore/StructureDefinition/qicore-encounter"]},"status":"finished","class":{"system":"http://terminology.hl7.org/CodeSystem/v3-ActCode","code":"IMP","display":"inpatient encounter","userSelected":true},"type":[{"coding":[{"system":"http://snomed.info/sct","code":"32485007"}]}],"subject":{"reference":"Patient/a5feebb4-d3c0-4435-aed5-9579b75a8a52"},"period":{"start":"2026-08-21T00:00:00Z","end":"2026-08-23T12:00:00.000+00:00"},"length":{"value":2,"unit":"days"},"reasonReference":[{"reference":"Condition/a28ce184-59e4-4d5d-990b-b337e53f375e"}]},"request":{"method":"PUT","url":"Encounter/d9d297b5-1a4f-4010-9e5e-79022ba820d9"}}]}