{"resourceType":"Bundle","id":"tests-c075959b-dafd-4dfd-a310-23bd9c53fe68-bundle","type":"transaction","entry":[{"resource":{"resourceType":"Organization","id":"c946b1b8-6bc3-4740-ac7e-481873767133","meta":{"profile":["http://hl7.org/fhir/us/qicore/StructureDefinition/qicore-organization"]},"identifier":[{"use":"temp","system":"urn:oid:2.16.840.1.113883.4.4","value":"21-3259825"}],"active":true,"type":[{"coding":[{"system":"http://terminology.hl7.org/CodeSystem/organization-type","code":"pay","display":"Payer"}]}],"name":"Blue Cross Blue Shield of Texas","telecom":[{"system":"phone","value":"(+1) 972-766-6900"}],"address":[{"use":"billing","type":"postal","line":["P.O. Box 660044"],"city":"Dallas","state":"TX","postalCode":"75266-0044","country":"USA"}]},"request":{"method":"PUT","url":"Organization/c946b1b8-6bc3-4740-ac7e-481873767133"}},{"resource":{"resourceType":"Encounter","id":"3774f1ab-8424-4b26-a374-c3b88e5ef8f7","meta":{"profile":["http://hl7.org/fhir/us/qicore/StructureDefinition/qicore-encounter"]},"status":"finished","class":{"system":"http://terminology.hl7.org/CodeSystem/v3-ActCode","code":"IMP","display":"inpatient encounter"},"type":[{"coding":[{"system":"http://snomed.info/sct","code":"183452005"}]}],"subject":{"reference":"Patient/c075959b-dafd-4dfd-a310-23bd9c53fe68"},"period":{"start":"2026-11-18T11:00:00Z","end":"2026-11-20T08:15:00.000+00:00"},"reasonReference":[{"reference":"Condition/83079ee9-bcce-4b85-b765-4f8a9af1af28"}]},"request":{"method":"PUT","url":"Encounter/3774f1ab-8424-4b26-a374-c3b88e5ef8f7"}},{"resource":{"resourceType":"Condition","id":"83079ee9-bcce-4b85-b765-4f8a9af1af28","meta":{"profile":["http://hl7.org/fhir/us/qicore/StructureDefinition/qicore-condition-encounter-diagnosis"]},"clinicalStatus":{"coding":[{"system":"http://terminology.hl7.org/CodeSystem/condition-clinical","code":"active"}]},"verificationStatus":{"coding":[{"system":"http://terminology.hl7.org/CodeSystem/condition-ver-status","code":"confirmed"}]},"category":[{"coding":[{"system":"http://terminology.hl7.org/CodeSystem/condition-category","code":"encounter-diagnosis","display":"Encounter Diagnosis"}]}],"code":{"coding":[{"system":"http://snomed.info/sct","version":"2020-09","code":"111297002","display":"Nonparalytic stroke (disorder)","userSelected":true}]},"subject":{"reference":"Patient/c075959b-dafd-4dfd-a310-23bd9c53fe68"},"encounter":{"reference":"Encounter/3774f1ab-8424-4b26-a374-c3b88e5ef8f7"},"recordedDate":"2026-08-13T08:00:00Z"},"request":{"method":"PUT","url":"Condition/83079ee9-bcce-4b85-b765-4f8a9af1af28"}},{"resource":{"resourceType":"Procedure","id":"405fa457-f00d-4ef0-8804-47216a68c1e7","meta":{"profile":["http://hl7.org/fhir/us/qicore/StructureDefinition/qicore-procedure"]},"extension":[{"url":"http://hl7.org/fhir/us/qicore/StructureDefinition/qicore-recorded","valueDateTime":"2026-11-18T11:00:00Z"}],"status":"completed","code":{"coding":[{"system":"http://snomed.info/sct","code":"133918004"}]},"subject":{"reference":"Patient/c075959b-dafd-4dfd-a310-23bd9c53fe68"},"performedDateTime":"2026-11-18T11:00:00Z"},"request":{"method":"PUT","url":"Procedure/405fa457-f00d-4ef0-8804-47216a68c1e7"}},{"resource":{"resourceType":"Encounter","id":"1f9d87eb-83b0-48c9-8906-86a8c3258d2e","meta":{"profile":["http://hl7.org/fhir/us/qicore/StructureDefinition/qicore-encounter"]},"status":"finished","class":{"system":"http://terminology.hl7.org/CodeSystem/v3-ActCode","code":"OBSENC","display":"observation encounter"},"type":[{"coding":[{"system":"http://snomed.info/sct","code":"448951000124107"}]}],"subject":{"reference":"Patient/c075959b-dafd-4dfd-a310-23bd9c53fe68"},"period":{"start":"2026-11-18T09:00:00Z","end":"2026-11-18T10:01:00.000+00:00"}},"request":{"method":"PUT","url":"Encounter/1f9d87eb-83b0-48c9-8906-86a8c3258d2e"}},{"resource":{"resourceType":"Bundle","id":"60f82c3098086b570510e2df","type":"transaction","entry":[{"fullUrl":"https://madie.cms.gov/Patient/c075959b-dafd-4dfd-a310-23bd9c53fe68","resource":{"resourceType":"Patient","id":"c075959b-dafd-4dfd-a310-23bd9c53fe68","meta":{"profile":["http://hl7.org/fhir/us/qicore/StructureDefinition/qicore-patient"]},"text":{"status":"generated","div":"<div xmlns=\"http://www.w3.org/1999/xhtml\"><div class=\"hapiHeaderText\">CMP_DayOf_RelvDat_OnIPStart_EDEndLT1hrB4Obs_ObsEndLT1hrB4IP <b>DENEXPASS </b></div><table class=\"hapiPropertyTable\"><tbody><tr><td>Date of birth</td><td><span>01 January 1980</span></td></tr></tbody></table></div>"},"extension":[{"url":"http://hl7.org/fhir/us/core/StructureDefinition/us-core-race","extension":[{"url":"ombCategory","valueCoding":{"system":"urn:oid:2.16.840.1.113883.6.238","code":"2106-3","display":"White","userSelected":true}},{"url":"text","valueString":"White"}]},{"url":"http://hl7.org/fhir/us/core/StructureDefinition/us-core-ethnicity","extension":[{"url":"ombCategory","valueCoding":{"system":"urn:oid:2.16.840.1.113883.6.238","code":"2186-5","display":"Not Hispanic or Latino","userSelected":true}},{"url":"text","valueString":"Not Hispanic or Latino"}]}],"identifier":[{"type":{"coding":[{"system":"http://terminology.hl7.org/CodeSystem/v2-0203","code":"MR"}]},"system":"https://bonnie-fhir.healthit.gov/","value":"60f82c3098086b570510e2df"}],"active":true,"name":[{"use":"usual","family":"DENEXPass","given":["CMPDayOfRelvDatOnIPStartEDEndLT1hrB4ObsObsEndLT1hrB4IP"]}],"gender":"female","birthDate":"1981-01-01"},"request":{"method":"PUT","url":"Patient/c075959b-dafd-4dfd-a310-23bd9c53fe68"}},{"fullUrl":"https://madie.cms.gov/Encounter/7c95199f-2d30-4b05-b85a-5800ae06c7e9","resource":{"resourceType":"Encounter","id":"7c95199f-2d30-4b05-b85a-5800ae06c7e9","meta":{"profile":["http://hl7.org/fhir/us/qicore/StructureDefinition/qicore-encounter"]},"status":"finished","class":{"system":"http://terminology.hl7.org/CodeSystem/v3-ActCode","code":"EMER","display":"emergency"},"type":[{"coding":[{"system":"http://snomed.info/sct","code":"4525004"}]}],"subject":{"reference":"Patient/c075959b-dafd-4dfd-a310-23bd9c53fe68"},"period":{"start":"2026-11-18T07:00:00Z","end":"2026-11-18T08:01:00.000+00:00"},"diagnosis":[{"condition":{"reference":"Condition/83079ee9-bcce-4b85-b765-4f8a9af1af28"},"use":{"coding":[{"system":"http://terminology.hl7.org/CodeSystem/diagnosis-role","code":"billing","display":"Billing"}]},"rank":1}]},"request":{"method":"PUT","url":"Encounter/7c95199f-2d30-4b05-b85a-5800ae06c7e9"}},{"fullUrl":"https://madie.cms.gov/Encounter/1f9d87eb-83b0-48c9-8906-86a8c3258d2e","resource":{"resourceType":"Encounter","id":"1f9d87eb-83b0-48c9-8906-86a8c3258d2e","meta":{"profile":["http://hl7.org/fhir/us/qicore/StructureDefinition/qicore-encounter"]},"status":"finished","class":{"system":"http://terminology.hl7.org/CodeSystem/v3-ActCode","code":"OBSENC","display":"observation encounter"},"type":[{"coding":[{"system":"http://snomed.info/sct","code":"448951000124107"}]}],"subject":{"reference":"Patient/c075959b-dafd-4dfd-a310-23bd9c53fe68"},"period":{"start":"2026-11-18T09:00:00Z","end":"2026-11-18T10:01:00.000+00:00"}},"request":{"method":"PUT","url":"Encounter/1f9d87eb-83b0-48c9-8906-86a8c3258d2e"}},{"fullUrl":"https://madie.cms.gov/Encounter/3774f1ab-8424-4b26-a374-c3b88e5ef8f7","resource":{"resourceType":"Encounter","id":"3774f1ab-8424-4b26-a374-c3b88e5ef8f7","meta":{"profile":["http://hl7.org/fhir/us/qicore/StructureDefinition/qicore-encounter"]},"status":"finished","class":{"system":"http://terminology.hl7.org/CodeSystem/v3-ActCode","code":"IMP","display":"inpatient encounter"},"type":[{"coding":[{"system":"http://snomed.info/sct","code":"183452005"}]}],"subject":{"reference":"Patient/c075959b-dafd-4dfd-a310-23bd9c53fe68"},"period":{"start":"2026-11-18T11:00:00Z","end":"2026-11-20T08:15:00.000+00:00"},"reasonReference":[{"reference":"Condition/83079ee9-bcce-4b85-b765-4f8a9af1af28"}]},"request":{"method":"PUT","url":"Encounter/3774f1ab-8424-4b26-a374-c3b88e5ef8f7"}},{"fullUrl":"https://madie.cms.gov/Procedure/405fa457-f00d-4ef0-8804-47216a68c1e7","resource":{"resourceType":"Procedure","id":"405fa457-f00d-4ef0-8804-47216a68c1e7","meta":{"profile":["http://hl7.org/fhir/us/qicore/StructureDefinition/qicore-procedure"]},"extension":[{"url":"http://hl7.org/fhir/us/qicore/StructureDefinition/qicore-recorded","valueDateTime":"2026-11-18T11:00:00Z"}],"status":"completed","code":{"coding":[{"system":"http://snomed.info/sct","code":"133918004"}]},"subject":{"reference":"Patient/c075959b-dafd-4dfd-a310-23bd9c53fe68"},"performedDateTime":"2026-11-18T11:00:00Z"},"request":{"method":"PUT","url":"Procedure/405fa457-f00d-4ef0-8804-47216a68c1e7"}},{"fullUrl":"https://madie.cms.gov/Condition/83079ee9-bcce-4b85-b765-4f8a9af1af28","resource":{"resourceType":"Condition","id":"83079ee9-bcce-4b85-b765-4f8a9af1af28","meta":{"profile":["http://hl7.org/fhir/us/qicore/StructureDefinition/qicore-condition-encounter-diagnosis"]},"clinicalStatus":{"coding":[{"system":"http://terminology.hl7.org/CodeSystem/condition-clinical","code":"active"}]},"verificationStatus":{"coding":[{"system":"http://terminology.hl7.org/CodeSystem/condition-ver-status","code":"confirmed"}]},"category":[{"coding":[{"system":"http://terminology.hl7.org/CodeSystem/condition-category","code":"encounter-diagnosis","display":"Encounter Diagnosis"}]}],"code":{"coding":[{"system":"http://snomed.info/sct","version":"2020-09","code":"111297002","display":"Nonparalytic stroke (disorder)","userSelected":true}]},"subject":{"reference":"Patient/c075959b-dafd-4dfd-a310-23bd9c53fe68"},"encounter":{"reference":"Encounter/3774f1ab-8424-4b26-a374-c3b88e5ef8f7"},"recordedDate":"2026-08-13T08:00:00Z"},"request":{"method":"PUT","url":"Condition/83079ee9-bcce-4b85-b765-4f8a9af1af28"}},{"fullUrl":"https://madie.cms.gov/claim/5ca62962b8484628b8de1ec5","resource":{"resourceType":"Claim","id":"5ca62962b8484628b8de1ec5","meta":{"profile":["http://hl7.org/fhir/us/qicore/StructureDefinition/qicore-claim"]},"status":"active","type":{"coding":[{"system":"http://terminology.hl7.org/CodeSystem/claim-type","code":"institutional"}]},"use":"claim","patient":{"reference":"Patient/c075959b-dafd-4dfd-a310-23bd9c53fe68"},"created":"2026-12-01","provider":{"reference":"Practitioner/practitioner-123456"},"priority":{"coding":[{"system":"http://terminology.hl7.org/CodeSystem/processpriority","code":"normal"}]},"diagnosis":[{"sequence":1,"diagnosisCodeableConcept":{"coding":[{"system":"http://hl7.org/fhir/sid/icd-10-cm","code":"I63.00"}]},"type":[{"coding":[{"system":"http://terminology.hl7.org/CodeSystem/ex-diagnosistype","code":"principal"}]}]}],"insurance":[{"sequence":1,"focal":true,"coverage":{"reference":"Coverage/5fa041661c76ba66d9959367"}}],"item":[{"sequence":1,"diagnosisSequence":[1],"productOrService":{"coding":[{"system":"http://terminology.hl7.org/CodeSystem/ex-USCLS","code":"99555"}]},"encounter":[{"reference":"Encounter/3774f1ab-8424-4b26-a374-c3b88e5ef8f7"}]}]},"request":{"method":"PUT","url":"Claim/5ca62962b8484628b8de1ec5"}},{"fullUrl":"https://madie.cms.gov/Coverage/a9d0ffdc-35ab-46de-87be-df2075092e79","resource":{"resourceType":"Coverage","id":"a9d0ffdc-35ab-46de-87be-df2075092e79","meta":{"profile":["http://hl7.org/fhir/us/qicore/StructureDefinition/qicore-coverage"]},"status":"active","beneficiary":{"reference":"Patient/c075959b-dafd-4dfd-a310-23bd9c53fe68"},"payor":[{"reference":"Organization/c946b1b8-6bc3-4740-ac7e-481873767133"}]},"request":{"method":"PUT","url":"Coverage/a9d0ffdc-35ab-46de-87be-df2075092e79"}},{"fullUrl":"https://madie.cms.gov/Organization/c946b1b8-6bc3-4740-ac7e-481873767133","resource":{"resourceType":"Organization","id":"c946b1b8-6bc3-4740-ac7e-481873767133","meta":{"profile":["http://hl7.org/fhir/us/qicore/StructureDefinition/qicore-organization"]},"identifier":[{"use":"temp","system":"urn:oid:2.16.840.1.113883.4.4","value":"21-3259825"}],"active":true,"type":[{"coding":[{"system":"http://terminology.hl7.org/CodeSystem/organization-type","code":"pay","display":"Payer"}]}],"name":"Blue Cross Blue Shield of Texas","telecom":[{"system":"phone","value":"(+1) 972-766-6900"}],"address":[{"use":"billing","type":"postal","line":["P.O. Box 660044"],"city":"Dallas","state":"TX","postalCode":"75266-0044","country":"USA"}]},"request":{"method":"PUT","url":"Organization/c946b1b8-6bc3-4740-ac7e-481873767133"}},{"fullUrl":"https://madie.cms.gov/MeasureReport/833b8c22-d715-4bcf-add7-84d479ff3fd4","resource":{"resourceType":"MeasureReport","id":"833b8c22-d715-4bcf-add7-84d479ff3fd4","meta":{"profile":["http://hl7.org/fhir/us/cqfmeasures/StructureDefinition/test-case-cqfm"]},"contained":[{"resourceType":"Parameters","id":"cb3348e9-783f-4f79-a3c1-6aef9e001581-parameters","parameter":[{"name":"subject","valueString":"c075959b-dafd-4dfd-a310-23bd9c53fe68"}]}],"extension":[{"url":"http://hl7.org/fhir/StructureDefinition/cqf-inputParameters","valueReference":{"reference":"#cb3348e9-783f-4f79-a3c1-6aef9e001581-parameters"}},{"url":"http://hl7.org/fhir/us/cqfmeasures/StructureDefinition/cqfm-testCaseDescription","valueMarkdown":"Patient receives comfort measures performed on the day of hospital arrival, on IP start. ED ends less than 1 hour before Obs Start, Obs ends less than 1 hour before IP start.\n"}],"modifierExtension":[{"url":"http://hl7.org/fhir/us/cqfmeasures/StructureDefinition/cqfm-isTestCase","valueBoolean":true}],"status":"complete","type":"individual","measure":"https://madie.cms.gov/Measure/CMS72FHIRSTKAntithromboticDay2","period":{"start":"2026-01-01","end":"2026-12-31"},"group":[{"id":"Group_1","population":[{"id":"InitialPopulation_1","code":{"coding":[{"system":"http://terminology.hl7.org/CodeSystem/measure-population","code":"initial-population","display":"Initial Population"}]},"count":1},{"id":"Denominator_1","code":{"coding":[{"system":"http://terminology.hl7.org/CodeSystem/measure-population","code":"denominator","display":"Denominator"}]},"count":1},{"id":"DenominatorExclusion_1","code":{"coding":[{"system":"http://terminology.hl7.org/CodeSystem/measure-population","code":"denominator-exclusion","display":"Denominator Exclusion"}]},"count":1},{"id":"Numerator_1","code":{"coding":[{"system":"http://terminology.hl7.org/CodeSystem/measure-population","code":"numerator","display":"Numerator"}]},"count":0},{"id":"DenominatorException_1","code":{"coding":[{"system":"http://terminology.hl7.org/CodeSystem/measure-population","code":"denominator-exception","display":"Denominator Exception"}]},"count":0}],"measureScore":{"value":0.0}}],"evaluatedResource":[{"reference":"Patient/c075959b-dafd-4dfd-a310-23bd9c53fe68"},{"reference":"Encounter/7c95199f-2d30-4b05-b85a-5800ae06c7e9"},{"reference":"Encounter/1f9d87eb-83b0-48c9-8906-86a8c3258d2e"},{"reference":"Encounter/3774f1ab-8424-4b26-a374-c3b88e5ef8f7"},{"reference":"Procedure/405fa457-f00d-4ef0-8804-47216a68c1e7"},{"reference":"Condition/83079ee9-bcce-4b85-b765-4f8a9af1af28"},{"reference":"Claim/5ca62962b8484628b8de1ec5"},{"reference":"Coverage/a9d0ffdc-35ab-46de-87be-df2075092e79"},{"reference":"Organization/c946b1b8-6bc3-4740-ac7e-481873767133"}]},"request":{"method":"PUT","url":"MeasureReport/833b8c22-d715-4bcf-add7-84d479ff3fd4"}}]},"request":{"method":"PUT","url":"Bundle/60f82c3098086b570510e2df"}},{"resource":{"resourceType":"Patient","id":"c075959b-dafd-4dfd-a310-23bd9c53fe68","meta":{"profile":["http://hl7.org/fhir/us/qicore/StructureDefinition/qicore-patient"]},"text":{"status":"generated","div":"<div xmlns=\"http://www.w3.org/1999/xhtml\"><div class=\"hapiHeaderText\">CMP_DayOf_RelvDat_OnIPStart_EDEndLT1hrB4Obs_ObsEndLT1hrB4IP <b>DENEXPASS </b></div><table class=\"hapiPropertyTable\"><tbody><tr><td>Date of birth</td><td><span>01 January 1980</span></td></tr></tbody></table></div>"},"extension":[{"url":"http://hl7.org/fhir/us/core/StructureDefinition/us-core-race","extension":[{"url":"ombCategory","valueCoding":{"system":"urn:oid:2.16.840.1.113883.6.238","code":"2106-3","display":"White","userSelected":true}},{"url":"text","valueString":"White"}]},{"url":"http://hl7.org/fhir/us/core/StructureDefinition/us-core-ethnicity","extension":[{"url":"ombCategory","valueCoding":{"system":"urn:oid:2.16.840.1.113883.6.238","code":"2186-5","display":"Not Hispanic or Latino","userSelected":true}},{"url":"text","valueString":"Not Hispanic or Latino"}]}],"identifier":[{"type":{"coding":[{"system":"http://terminology.hl7.org/CodeSystem/v2-0203","code":"MR"}]},"system":"https://bonnie-fhir.healthit.gov/","value":"60f82c3098086b570510e2df"}],"active":true,"name":[{"use":"usual","family":"DENEXPass","given":["CMPDayOfRelvDatOnIPStartEDEndLT1hrB4ObsObsEndLT1hrB4IP"]}],"gender":"female","birthDate":"1981-01-01"},"request":{"method":"PUT","url":"Patient/c075959b-dafd-4dfd-a310-23bd9c53fe68"}},{"resource":{"resourceType":"Coverage","id":"a9d0ffdc-35ab-46de-87be-df2075092e79","meta":{"profile":["http://hl7.org/fhir/us/qicore/StructureDefinition/qicore-coverage"]},"status":"active","beneficiary":{"reference":"Patient/c075959b-dafd-4dfd-a310-23bd9c53fe68"},"payor":[{"reference":"Organization/c946b1b8-6bc3-4740-ac7e-481873767133"}]},"request":{"method":"PUT","url":"Coverage/a9d0ffdc-35ab-46de-87be-df2075092e79"}},{"resource":{"resourceType":"MeasureReport","id":"833b8c22-d715-4bcf-add7-84d479ff3fd4","meta":{"profile":["http://hl7.org/fhir/us/cqfmeasures/StructureDefinition/test-case-cqfm"]},"contained":[{"resourceType":"Parameters","id":"cb3348e9-783f-4f79-a3c1-6aef9e001581-parameters","parameter":[{"name":"subject","valueString":"c075959b-dafd-4dfd-a310-23bd9c53fe68"}]}],"extension":[{"url":"http://hl7.org/fhir/StructureDefinition/cqf-inputParameters","valueReference":{"reference":"#cb3348e9-783f-4f79-a3c1-6aef9e001581-parameters"}},{"url":"http://hl7.org/fhir/us/cqfmeasures/StructureDefinition/cqfm-testCaseDescription","valueMarkdown":"Patient receives comfort measures performed on the day of hospital arrival, on IP start. ED ends less than 1 hour before Obs Start, Obs ends less than 1 hour before IP start.\n"}],"modifierExtension":[{"url":"http://hl7.org/fhir/us/cqfmeasures/StructureDefinition/cqfm-isTestCase","valueBoolean":true}],"status":"complete","type":"individual","measure":"https://madie.cms.gov/Measure/CMS72FHIRSTKAntithromboticDay2","period":{"start":"2026-01-01","end":"2026-12-31"},"group":[{"id":"Group_1","population":[{"id":"InitialPopulation_1","code":{"coding":[{"system":"http://terminology.hl7.org/CodeSystem/measure-population","code":"initial-population","display":"Initial Population"}]},"count":1},{"id":"Denominator_1","code":{"coding":[{"system":"http://terminology.hl7.org/CodeSystem/measure-population","code":"denominator","display":"Denominator"}]},"count":1},{"id":"DenominatorExclusion_1","code":{"coding":[{"system":"http://terminology.hl7.org/CodeSystem/measure-population","code":"denominator-exclusion","display":"Denominator Exclusion"}]},"count":1},{"id":"Numerator_1","code":{"coding":[{"system":"http://terminology.hl7.org/CodeSystem/measure-population","code":"numerator","display":"Numerator"}]},"count":0},{"id":"DenominatorException_1","code":{"coding":[{"system":"http://terminology.hl7.org/CodeSystem/measure-population","code":"denominator-exception","display":"Denominator Exception"}]},"count":0}],"measureScore":{"value":0.0}}],"evaluatedResource":[{"reference":"Patient/c075959b-dafd-4dfd-a310-23bd9c53fe68"},{"reference":"Encounter/7c95199f-2d30-4b05-b85a-5800ae06c7e9"},{"reference":"Encounter/1f9d87eb-83b0-48c9-8906-86a8c3258d2e"},{"reference":"Encounter/3774f1ab-8424-4b26-a374-c3b88e5ef8f7"},{"reference":"Procedure/405fa457-f00d-4ef0-8804-47216a68c1e7"},{"reference":"Condition/83079ee9-bcce-4b85-b765-4f8a9af1af28"},{"reference":"Claim/5ca62962b8484628b8de1ec5"},{"reference":"Coverage/a9d0ffdc-35ab-46de-87be-df2075092e79"},{"reference":"Organization/c946b1b8-6bc3-4740-ac7e-481873767133"}]},"request":{"method":"PUT","url":"MeasureReport/833b8c22-d715-4bcf-add7-84d479ff3fd4"}},{"resource":{"resourceType":"Encounter","id":"7c95199f-2d30-4b05-b85a-5800ae06c7e9","meta":{"profile":["http://hl7.org/fhir/us/qicore/StructureDefinition/qicore-encounter"]},"status":"finished","class":{"system":"http://terminology.hl7.org/CodeSystem/v3-ActCode","code":"EMER","display":"emergency"},"type":[{"coding":[{"system":"http://snomed.info/sct","code":"4525004"}]}],"subject":{"reference":"Patient/c075959b-dafd-4dfd-a310-23bd9c53fe68"},"period":{"start":"2026-11-18T07:00:00Z","end":"2026-11-18T08:01:00.000+00:00"},"diagnosis":[{"condition":{"reference":"Condition/83079ee9-bcce-4b85-b765-4f8a9af1af28"},"use":{"coding":[{"system":"http://terminology.hl7.org/CodeSystem/diagnosis-role","code":"billing","display":"Billing"}]},"rank":1}]},"request":{"method":"PUT","url":"Encounter/7c95199f-2d30-4b05-b85a-5800ae06c7e9"}},{"resource":{"resourceType":"Claim","id":"5ca62962b8484628b8de1ec5","meta":{"profile":["http://hl7.org/fhir/us/qicore/StructureDefinition/qicore-claim"]},"status":"active","type":{"coding":[{"system":"http://terminology.hl7.org/CodeSystem/claim-type","code":"institutional"}]},"use":"claim","patient":{"reference":"Patient/c075959b-dafd-4dfd-a310-23bd9c53fe68"},"created":"2026-12-01","provider":{"reference":"Practitioner/practitioner-123456"},"priority":{"coding":[{"system":"http://terminology.hl7.org/CodeSystem/processpriority","code":"normal"}]},"diagnosis":[{"sequence":1,"diagnosisCodeableConcept":{"coding":[{"system":"http://hl7.org/fhir/sid/icd-10-cm","code":"I63.00"}]},"type":[{"coding":[{"system":"http://terminology.hl7.org/CodeSystem/ex-diagnosistype","code":"principal"}]}]}],"insurance":[{"sequence":1,"focal":true,"coverage":{"reference":"Coverage/5fa041661c76ba66d9959367"}}],"item":[{"sequence":1,"diagnosisSequence":[1],"productOrService":{"coding":[{"system":"http://terminology.hl7.org/CodeSystem/ex-USCLS","code":"99555"}]},"encounter":[{"reference":"Encounter/3774f1ab-8424-4b26-a374-c3b88e5ef8f7"}]}]},"request":{"method":"PUT","url":"Claim/5ca62962b8484628b8de1ec5"}}]}