{"resourceType":"Bundle","id":"tests-e89c4eae-404c-44b9-8be5-c8a8b481813a-bundle","type":"transaction","entry":[{"resource":{"resourceType":"Encounter","id":"376bf4b9-66e5-480b-969b-771b1f416352","meta":{"profile":["http://hl7.org/fhir/us/qicore/StructureDefinition/qicore-encounter"]},"status":"finished","class":{"system":"http://terminology.hl7.org/CodeSystem/v3-ActCode","code":"IMP","display":"inpatient encounter","userSelected":true},"type":[{"coding":[{"system":"http://snomed.info/sct","code":"32485007"}]}],"subject":{"reference":"Patient/e89c4eae-404c-44b9-8be5-c8a8b481813a"},"period":{"start":"2026-08-20T22:00:00Z","end":"2026-08-22T12:00:00.000+00:00"},"length":{"value":2,"unit":"days"},"reasonReference":[{"reference":"Condition/8745d1a9-eaa9-4ce7-aee5-6a1ddf914cfa"}]},"request":{"method":"PUT","url":"Encounter/376bf4b9-66e5-480b-969b-771b1f416352"}},{"resource":{"resourceType":"Coverage","id":"ecdff7b8-459a-4a55-8b62-c352697e722c","status":"active","subscriberId":"523435","beneficiary":{"reference":"Patient/e89c4eae-404c-44b9-8be5-c8a8b481813a"},"relationship":{"coding":[{"system":"http://terminology.hl7.org/CodeSystem/subscriber-relationship","code":"self"}]},"period":{"start":"1994-08-21T07:00:00Z"},"payor":[{"reference":"Organization/1fae92f4-a444-4781-b34a-2a27a4852894"}]},"request":{"method":"PUT","url":"Coverage/ecdff7b8-459a-4a55-8b62-c352697e722c"}},{"resource":{"resourceType":"Patient","id":"e89c4eae-404c-44b9-8be5-c8a8b481813a","meta":{"profile":["http://hl7.org/fhir/us/qicore/StructureDefinition/qicore-patient"]},"text":{"status":"generated","div":"<div xmlns=\"http://www.w3.org/1999/xhtml\"><div class=\"hapiHeaderText\">LOS=2Days_EDend_EQ_EncIPStart <b>DENEXFAIL </b></div><table class=\"hapiPropertyTable\"><tbody><tr><td>Identifier</td><td>a458b8b9bea67a7a55dee798a7585d96</td></tr><tr><td>Date of birth</td><td><span>21 August 1993</span></td></tr></tbody></table></div>"},"extension":[{"url":"http://hl7.org/fhir/us/core/StructureDefinition/us-core-race","extension":[{"url":"ombCategory","valueCoding":{"system":"urn:oid:2.16.840.1.113883.6.238","code":"1002-5","display":"American Indian or Alaska Native","userSelected":true}},{"url":"text","valueString":"American Indian or Alaska Native"}]},{"url":"http://hl7.org/fhir/us/core/StructureDefinition/us-core-ethnicity","extension":[{"url":"ombCategory","valueCoding":{"system":"urn:oid:2.16.840.1.113883.6.238","code":"2135-2","display":"Hispanic or Latino","userSelected":true}},{"url":"text","valueString":"Hispanic or Latino"}]}],"identifier":[{"type":{"coding":[{"system":"http://terminology.hl7.org/CodeSystem/v2-0203","code":"MR"}]},"system":"https://bonnie-fhir.healthit.gov/","value":"60f82c2e98086b570510e27f"}],"active":true,"name":[{"use":"usual","family":"DENEXFail","given":["LOS=2Days_EDend_EQ_EncIPStart"]}],"gender":"male","birthDate":"1994-08-21"},"request":{"method":"PUT","url":"Patient/e89c4eae-404c-44b9-8be5-c8a8b481813a"}},{"resource":{"resourceType":"Bundle","id":"60f82c2e98086b570510e27f","type":"transaction","entry":[{"fullUrl":"https://madie.cms.gov/Patient/e89c4eae-404c-44b9-8be5-c8a8b481813a","resource":{"resourceType":"Patient","id":"e89c4eae-404c-44b9-8be5-c8a8b481813a","meta":{"profile":["http://hl7.org/fhir/us/qicore/StructureDefinition/qicore-patient"]},"text":{"status":"generated","div":"<div xmlns=\"http://www.w3.org/1999/xhtml\"><div class=\"hapiHeaderText\">LOS=2Days_EDend_EQ_EncIPStart <b>DENEXFAIL </b></div><table class=\"hapiPropertyTable\"><tbody><tr><td>Identifier</td><td>a458b8b9bea67a7a55dee798a7585d96</td></tr><tr><td>Date of birth</td><td><span>21 August 1993</span></td></tr></tbody></table></div>"},"extension":[{"url":"http://hl7.org/fhir/us/core/StructureDefinition/us-core-race","extension":[{"url":"ombCategory","valueCoding":{"system":"urn:oid:2.16.840.1.113883.6.238","code":"1002-5","display":"American Indian or Alaska Native","userSelected":true}},{"url":"text","valueString":"American Indian or Alaska Native"}]},{"url":"http://hl7.org/fhir/us/core/StructureDefinition/us-core-ethnicity","extension":[{"url":"ombCategory","valueCoding":{"system":"urn:oid:2.16.840.1.113883.6.238","code":"2135-2","display":"Hispanic or Latino","userSelected":true}},{"url":"text","valueString":"Hispanic or Latino"}]}],"identifier":[{"type":{"coding":[{"system":"http://terminology.hl7.org/CodeSystem/v2-0203","code":"MR"}]},"system":"https://bonnie-fhir.healthit.gov/","value":"60f82c2e98086b570510e27f"}],"active":true,"name":[{"use":"usual","family":"DENEXFail","given":["LOS=2Days_EDend_EQ_EncIPStart"]}],"gender":"male","birthDate":"1994-08-21"},"request":{"method":"PUT","url":"Patient/e89c4eae-404c-44b9-8be5-c8a8b481813a"}},{"fullUrl":"https://madie.cms.gov/Encounter/52982ec0-563b-4187-9c5e-ce2b602de7f0","resource":{"resourceType":"Encounter","id":"52982ec0-563b-4187-9c5e-ce2b602de7f0","meta":{"profile":["http://hl7.org/fhir/us/qicore/StructureDefinition/qicore-encounter"]},"status":"finished","class":{"system":"http://terminology.hl7.org/CodeSystem/v3-ActCode","code":"EMER","display":"emergency","userSelected":true},"type":[{"coding":[{"system":"http://snomed.info/sct","code":"4525004"}]}],"subject":{"reference":"Patient/e89c4eae-404c-44b9-8be5-c8a8b481813a"},"period":{"start":"2026-08-20T08:00:00Z","end":"2026-08-20T22:00:00.000+00:00"},"length":{"value":0,"unit":"days"}},"request":{"method":"PUT","url":"Encounter/52982ec0-563b-4187-9c5e-ce2b602de7f0"}},{"fullUrl":"https://madie.cms.gov/Encounter/376bf4b9-66e5-480b-969b-771b1f416352","resource":{"resourceType":"Encounter","id":"376bf4b9-66e5-480b-969b-771b1f416352","meta":{"profile":["http://hl7.org/fhir/us/qicore/StructureDefinition/qicore-encounter"]},"status":"finished","class":{"system":"http://terminology.hl7.org/CodeSystem/v3-ActCode","code":"IMP","display":"inpatient encounter","userSelected":true},"type":[{"coding":[{"system":"http://snomed.info/sct","code":"32485007"}]}],"subject":{"reference":"Patient/e89c4eae-404c-44b9-8be5-c8a8b481813a"},"period":{"start":"2026-08-20T22:00:00Z","end":"2026-08-22T12:00:00.000+00:00"},"length":{"value":2,"unit":"days"},"reasonReference":[{"reference":"Condition/8745d1a9-eaa9-4ce7-aee5-6a1ddf914cfa"}]},"request":{"method":"PUT","url":"Encounter/376bf4b9-66e5-480b-969b-771b1f416352"}},{"fullUrl":"https://madie.cms.gov/claim/5ca62962b8484628b8de1ec5","resource":{"resourceType":"Claim","id":"5ca62962b8484628b8de1ec5","meta":{"profile":["http://hl7.org/fhir/us/qicore/StructureDefinition/qicore-claim"]},"status":"active","type":{"coding":[{"system":"http://terminology.hl7.org/CodeSystem/claim-type","code":"institutional"}]},"use":"claim","patient":{"reference":"Patient/d170a0a8-b5ad-4303-b6df-e304dd5f92ad"},"created":"2026-12-01","provider":{"reference":"Practitioner/practitioner-123456"},"priority":{"coding":[{"system":"http://terminology.hl7.org/CodeSystem/processpriority","code":"normal"}]},"diagnosis":[{"sequence":1,"diagnosisCodeableConcept":{"coding":[{"system":"http://hl7.org/fhir/sid/icd-10-cm","code":"I63.00"}]},"type":[{"coding":[{"system":"http://terminology.hl7.org/CodeSystem/ex-diagnosistype","code":"principal"}]}]}],"insurance":[{"sequence":1,"focal":true,"coverage":{"reference":"Coverage/5fa041661c76ba66d9959367"}}],"item":[{"sequence":1,"diagnosisSequence":[1],"productOrService":{"coding":[{"system":"http://terminology.hl7.org/CodeSystem/ex-USCLS","code":"99555"}]},"encounter":[{"reference":"Encounter/376bf4b9-66e5-480b-969b-771b1f416352"}]}]},"request":{"method":"PUT","url":"Claim/5ca62962b8484628b8de1ec5"}},{"fullUrl":"https://madie.cms.gov/Coverage/ecdff7b8-459a-4a55-8b62-c352697e722c","resource":{"resourceType":"Coverage","id":"ecdff7b8-459a-4a55-8b62-c352697e722c","status":"active","subscriberId":"523435","beneficiary":{"reference":"Patient/e89c4eae-404c-44b9-8be5-c8a8b481813a"},"relationship":{"coding":[{"system":"http://terminology.hl7.org/CodeSystem/subscriber-relationship","code":"self"}]},"period":{"start":"1994-08-21T07:00:00Z"},"payor":[{"reference":"Organization/1fae92f4-a444-4781-b34a-2a27a4852894"}]},"request":{"method":"PUT","url":"Coverage/ecdff7b8-459a-4a55-8b62-c352697e722c"}},{"fullUrl":"https://madie.cms.gov/Condition/8745d1a9-eaa9-4ce7-aee5-6a1ddf914cfa","resource":{"resourceType":"Condition","id":"8745d1a9-eaa9-4ce7-aee5-6a1ddf914cfa","meta":{"profile":["http://hl7.org/fhir/us/qicore/StructureDefinition/qicore-condition-encounter-diagnosis"]},"clinicalStatus":{"coding":[{"system":"http://terminology.hl7.org/CodeSystem/condition-clinical","code":"active"}]},"verificationStatus":{"coding":[{"system":"http://terminology.hl7.org/CodeSystem/condition-ver-status","code":"confirmed"}]},"category":[{"coding":[{"system":"http://terminology.hl7.org/CodeSystem/condition-category","code":"encounter-diagnosis","display":"Encounter Diagnosis"}]}],"code":{"coding":[{"system":"http://snomed.info/sct","version":"2020-09","code":"111297002","display":"Nonparalytic stroke (disorder)","userSelected":true}]},"subject":{"reference":"Patient/e89c4eae-404c-44b9-8be5-c8a8b481813a"},"recordedDate":"2026-08-12T08:00:00Z"},"request":{"method":"PUT","url":"Condition/8745d1a9-eaa9-4ce7-aee5-6a1ddf914cfa"}},{"fullUrl":"https://madie.cms.gov/Organization/1fae92f4-a444-4781-b34a-2a27a4852894","resource":{"resourceType":"Organization","id":"1fae92f4-a444-4781-b34a-2a27a4852894","meta":{"profile":["http://hl7.org/fhir/us/qicore/StructureDefinition/qicore-organization"]},"identifier":[{"use":"temp","system":"urn:oid:2.16.840.1.113883.4.4","value":"21-3259825"}],"active":true,"type":[{"coding":[{"system":"http://terminology.hl7.org/CodeSystem/organization-type","code":"pay","display":"Payer"}]}],"name":"Blue Cross Blue Shield of Texas","telecom":[{"system":"phone","value":"(+1) 972-766-6900"}],"address":[{"use":"billing","type":"postal","line":["P.O. Box 660044"],"city":"Dallas","state":"TX","postalCode":"75266-0044","country":"USA"}]},"request":{"method":"PUT","url":"Organization/1fae92f4-a444-4781-b34a-2a27a4852894"}},{"fullUrl":"https://madie.cms.gov/MeasureReport/0d839e90-9f3b-42d4-bf55-039fe5531f9b","resource":{"resourceType":"MeasureReport","id":"0d839e90-9f3b-42d4-bf55-039fe5531f9b","meta":{"profile":["http://hl7.org/fhir/us/cqfmeasures/StructureDefinition/test-case-cqfm"]},"contained":[{"resourceType":"Parameters","id":"0a82bca5-3085-4a25-b78a-795eeec19a23-parameters","parameter":[{"name":"subject","valueString":"e89c4eae-404c-44b9-8be5-c8a8b481813a"}]}],"extension":[{"url":"http://hl7.org/fhir/StructureDefinition/cqf-inputParameters","valueReference":{"reference":"#0a82bca5-3085-4a25-b78a-795eeec19a23-parameters"}},{"url":"http://hl7.org/fhir/us/cqfmeasures/StructureDefinition/cqfm-testCaseDescription","valueMarkdown":"LOS=2 days, Patient has  ED Visit end time same as Enc IP starts time. global.Hospitalization ( = Ed +IP)\n"}],"modifierExtension":[{"url":"http://hl7.org/fhir/us/cqfmeasures/StructureDefinition/cqfm-isTestCase","valueBoolean":true}],"status":"complete","type":"individual","measure":"https://madie.cms.gov/Measure/CMS72FHIRSTKAntithromboticDay2","period":{"start":"2026-01-01","end":"2026-12-31"},"group":[{"id":"Group_1","population":[{"id":"InitialPopulation_1","code":{"coding":[{"system":"http://terminology.hl7.org/CodeSystem/measure-population","code":"initial-population","display":"Initial Population"}]},"count":1},{"id":"Denominator_1","code":{"coding":[{"system":"http://terminology.hl7.org/CodeSystem/measure-population","code":"denominator","display":"Denominator"}]},"count":1},{"id":"DenominatorExclusion_1","code":{"coding":[{"system":"http://terminology.hl7.org/CodeSystem/measure-population","code":"denominator-exclusion","display":"Denominator Exclusion"}]},"count":0},{"id":"Numerator_1","code":{"coding":[{"system":"http://terminology.hl7.org/CodeSystem/measure-population","code":"numerator","display":"Numerator"}]},"count":0},{"id":"DenominatorException_1","code":{"coding":[{"system":"http://terminology.hl7.org/CodeSystem/measure-population","code":"denominator-exception","display":"Denominator Exception"}]},"count":0}],"measureScore":{"value":0.0}}],"evaluatedResource":[{"reference":"Patient/e89c4eae-404c-44b9-8be5-c8a8b481813a"},{"reference":"Encounter/52982ec0-563b-4187-9c5e-ce2b602de7f0"},{"reference":"Encounter/376bf4b9-66e5-480b-969b-771b1f416352"},{"reference":"Claim/5ca62962b8484628b8de1ec5"},{"reference":"Coverage/ecdff7b8-459a-4a55-8b62-c352697e722c"},{"reference":"Condition/8745d1a9-eaa9-4ce7-aee5-6a1ddf914cfa"},{"reference":"Organization/1fae92f4-a444-4781-b34a-2a27a4852894"}]},"request":{"method":"PUT","url":"MeasureReport/0d839e90-9f3b-42d4-bf55-039fe5531f9b"}}]},"request":{"method":"PUT","url":"Bundle/60f82c2e98086b570510e27f"}},{"resource":{"resourceType":"Encounter","id":"52982ec0-563b-4187-9c5e-ce2b602de7f0","meta":{"profile":["http://hl7.org/fhir/us/qicore/StructureDefinition/qicore-encounter"]},"status":"finished","class":{"system":"http://terminology.hl7.org/CodeSystem/v3-ActCode","code":"EMER","display":"emergency","userSelected":true},"type":[{"coding":[{"system":"http://snomed.info/sct","code":"4525004"}]}],"subject":{"reference":"Patient/e89c4eae-404c-44b9-8be5-c8a8b481813a"},"period":{"start":"2026-08-20T08:00:00Z","end":"2026-08-20T22:00:00.000+00:00"},"length":{"value":0,"unit":"days"}},"request":{"method":"PUT","url":"Encounter/52982ec0-563b-4187-9c5e-ce2b602de7f0"}},{"resource":{"resourceType":"MeasureReport","id":"0d839e90-9f3b-42d4-bf55-039fe5531f9b","meta":{"profile":["http://hl7.org/fhir/us/cqfmeasures/StructureDefinition/test-case-cqfm"]},"contained":[{"resourceType":"Parameters","id":"0a82bca5-3085-4a25-b78a-795eeec19a23-parameters","parameter":[{"name":"subject","valueString":"e89c4eae-404c-44b9-8be5-c8a8b481813a"}]}],"extension":[{"url":"http://hl7.org/fhir/StructureDefinition/cqf-inputParameters","valueReference":{"reference":"#0a82bca5-3085-4a25-b78a-795eeec19a23-parameters"}},{"url":"http://hl7.org/fhir/us/cqfmeasures/StructureDefinition/cqfm-testCaseDescription","valueMarkdown":"LOS=2 days, Patient has  ED Visit end time same as Enc IP starts time. global.Hospitalization ( = Ed +IP)\n"}],"modifierExtension":[{"url":"http://hl7.org/fhir/us/cqfmeasures/StructureDefinition/cqfm-isTestCase","valueBoolean":true}],"status":"complete","type":"individual","measure":"https://madie.cms.gov/Measure/CMS72FHIRSTKAntithromboticDay2","period":{"start":"2026-01-01","end":"2026-12-31"},"group":[{"id":"Group_1","population":[{"id":"InitialPopulation_1","code":{"coding":[{"system":"http://terminology.hl7.org/CodeSystem/measure-population","code":"initial-population","display":"Initial Population"}]},"count":1},{"id":"Denominator_1","code":{"coding":[{"system":"http://terminology.hl7.org/CodeSystem/measure-population","code":"denominator","display":"Denominator"}]},"count":1},{"id":"DenominatorExclusion_1","code":{"coding":[{"system":"http://terminology.hl7.org/CodeSystem/measure-population","code":"denominator-exclusion","display":"Denominator Exclusion"}]},"count":0},{"id":"Numerator_1","code":{"coding":[{"system":"http://terminology.hl7.org/CodeSystem/measure-population","code":"numerator","display":"Numerator"}]},"count":0},{"id":"DenominatorException_1","code":{"coding":[{"system":"http://terminology.hl7.org/CodeSystem/measure-population","code":"denominator-exception","display":"Denominator Exception"}]},"count":0}],"measureScore":{"value":0.0}}],"evaluatedResource":[{"reference":"Patient/e89c4eae-404c-44b9-8be5-c8a8b481813a"},{"reference":"Encounter/52982ec0-563b-4187-9c5e-ce2b602de7f0"},{"reference":"Encounter/376bf4b9-66e5-480b-969b-771b1f416352"},{"reference":"Claim/5ca62962b8484628b8de1ec5"},{"reference":"Coverage/ecdff7b8-459a-4a55-8b62-c352697e722c"},{"reference":"Condition/8745d1a9-eaa9-4ce7-aee5-6a1ddf914cfa"},{"reference":"Organization/1fae92f4-a444-4781-b34a-2a27a4852894"}]},"request":{"method":"PUT","url":"MeasureReport/0d839e90-9f3b-42d4-bf55-039fe5531f9b"}},{"resource":{"resourceType":"Condition","id":"8745d1a9-eaa9-4ce7-aee5-6a1ddf914cfa","meta":{"profile":["http://hl7.org/fhir/us/qicore/StructureDefinition/qicore-condition-encounter-diagnosis"]},"clinicalStatus":{"coding":[{"system":"http://terminology.hl7.org/CodeSystem/condition-clinical","code":"active"}]},"verificationStatus":{"coding":[{"system":"http://terminology.hl7.org/CodeSystem/condition-ver-status","code":"confirmed"}]},"category":[{"coding":[{"system":"http://terminology.hl7.org/CodeSystem/condition-category","code":"encounter-diagnosis","display":"Encounter Diagnosis"}]}],"code":{"coding":[{"system":"http://snomed.info/sct","version":"2020-09","code":"111297002","display":"Nonparalytic stroke (disorder)","userSelected":true}]},"subject":{"reference":"Patient/e89c4eae-404c-44b9-8be5-c8a8b481813a"},"recordedDate":"2026-08-12T08:00:00Z"},"request":{"method":"PUT","url":"Condition/8745d1a9-eaa9-4ce7-aee5-6a1ddf914cfa"}},{"resource":{"resourceType":"Organization","id":"1fae92f4-a444-4781-b34a-2a27a4852894","meta":{"profile":["http://hl7.org/fhir/us/qicore/StructureDefinition/qicore-organization"]},"identifier":[{"use":"temp","system":"urn:oid:2.16.840.1.113883.4.4","value":"21-3259825"}],"active":true,"type":[{"coding":[{"system":"http://terminology.hl7.org/CodeSystem/organization-type","code":"pay","display":"Payer"}]}],"name":"Blue Cross Blue Shield of Texas","telecom":[{"system":"phone","value":"(+1) 972-766-6900"}],"address":[{"use":"billing","type":"postal","line":["P.O. Box 660044"],"city":"Dallas","state":"TX","postalCode":"75266-0044","country":"USA"}]},"request":{"method":"PUT","url":"Organization/1fae92f4-a444-4781-b34a-2a27a4852894"}},{"resource":{"resourceType":"Claim","id":"5ca62962b8484628b8de1ec5","meta":{"profile":["http://hl7.org/fhir/us/qicore/StructureDefinition/qicore-claim"]},"status":"active","type":{"coding":[{"system":"http://terminology.hl7.org/CodeSystem/claim-type","code":"institutional"}]},"use":"claim","patient":{"reference":"Patient/d170a0a8-b5ad-4303-b6df-e304dd5f92ad"},"created":"2026-12-01","provider":{"reference":"Practitioner/practitioner-123456"},"priority":{"coding":[{"system":"http://terminology.hl7.org/CodeSystem/processpriority","code":"normal"}]},"diagnosis":[{"sequence":1,"diagnosisCodeableConcept":{"coding":[{"system":"http://hl7.org/fhir/sid/icd-10-cm","code":"I63.00"}]},"type":[{"coding":[{"system":"http://terminology.hl7.org/CodeSystem/ex-diagnosistype","code":"principal"}]}]}],"insurance":[{"sequence":1,"focal":true,"coverage":{"reference":"Coverage/5fa041661c76ba66d9959367"}}],"item":[{"sequence":1,"diagnosisSequence":[1],"productOrService":{"coding":[{"system":"http://terminology.hl7.org/CodeSystem/ex-USCLS","code":"99555"}]},"encounter":[{"reference":"Encounter/376bf4b9-66e5-480b-969b-771b1f416352"}]}]},"request":{"method":"PUT","url":"Claim/5ca62962b8484628b8de1ec5"}}]}