{"resourceType":"Bundle","id":"tests-79f6bb60-1bdb-4dff-857d-65311e9ccea5-bundle","type":"transaction","entry":[{"resource":{"resourceType":"Encounter","id":"24715aee-8ce0-44fd-b7b3-239f8aaa7efe","meta":{"profile":["http://hl7.org/fhir/us/qicore/StructureDefinition/qicore-encounter"]},"status":"finished","class":{"system":"http://terminology.hl7.org/CodeSystem/v3-ActCode","code":"EMER","display":"emergency","userSelected":true},"type":[{"coding":[{"system":"http://snomed.info/sct","code":"4525004"}]}],"subject":{"reference":"Patient/79f6bb60-1bdb-4dff-857d-65311e9ccea5"},"period":{"start":"2026-10-10T06:15:00Z","end":"2026-10-10T06:30:00.000+00:00"},"length":{"value":0,"unit":"days"}},"request":{"method":"PUT","url":"Encounter/24715aee-8ce0-44fd-b7b3-239f8aaa7efe"}},{"resource":{"resourceType":"Observation","id":"4bd246a9-6cf6-42f1-a38f-63d761ae32fb","meta":{"profile":["http://hl7.org/fhir/us/qicore/StructureDefinition/qicore-observation-lab"]},"status":"final","category":[{"coding":[{"system":"http://terminology.hl7.org/CodeSystem/observation-category","code":"laboratory","display":"Laboratory"}]}],"code":{"coding":[{"system":"http://loinc.org","code":"34714-6"}]},"subject":{"reference":"Patient/79f6bb60-1bdb-4dff-857d-65311e9ccea5"},"effectivePeriod":{"start":"2026-10-10T06:15:00Z"},"issued":"2026-10-10T06:30:00.000+00:00","valueQuantity":{"value":3.6}},"request":{"method":"PUT","url":"Observation/4bd246a9-6cf6-42f1-a38f-63d761ae32fb"}},{"resource":{"resourceType":"Coverage","id":"d04044f3-a3ed-43e9-91dc-27e0ec6bf969","status":"active","subscriberId":"523435","beneficiary":{"reference":"Patient/79f6bb60-1bdb-4dff-857d-65311e9ccea5"},"relationship":{"coding":[{"system":"http://terminology.hl7.org/CodeSystem/subscriber-relationship","code":"self"}]},"period":{"start":"1976-09-26T08:00:00Z"},"payor":[{"reference":"Organization/a2ffc76a-5ac7-4289-bf4c-c16a8c9efd2b"}]},"request":{"method":"PUT","url":"Coverage/d04044f3-a3ed-43e9-91dc-27e0ec6bf969"}},{"resource":{"resourceType":"Patient","id":"79f6bb60-1bdb-4dff-857d-65311e9ccea5","meta":{"profile":["http://hl7.org/fhir/us/qicore/StructureDefinition/qicore-patient"]},"text":{"status":"generated","div":"<div xmlns=\"http://www.w3.org/1999/xhtml\"><div class=\"hapiHeaderText\">INRdurED_ED&gt;1hrObs&gt;1hrBFEncDayAft <b>DENEXCEPFAIL </b></div><table class=\"hapiPropertyTable\"><tbody><tr><td>Identifier</td><td>ee218e0e9411a5f7a5d75c61e9a9adf65ce589e903bb5b3c4ec017e4cb221859</td></tr><tr><td>Date of birth</td><td><span>26 September 1975</span></td></tr></tbody></table></div>"},"extension":[{"url":"http://hl7.org/fhir/us/core/StructureDefinition/us-core-race","extension":[{"url":"ombCategory","valueCoding":{"system":"urn:oid:2.16.840.1.113883.6.238","code":"2054-5","display":"Black or African American","userSelected":true}},{"url":"text","valueString":"Black or African American"}]},{"url":"http://hl7.org/fhir/us/core/StructureDefinition/us-core-ethnicity","extension":[{"url":"ombCategory","valueCoding":{"system":"urn:oid:2.16.840.1.113883.6.238","code":"2186-5","display":"Not Hispanic or Latino","userSelected":true}},{"url":"text","valueString":"Not Hispanic or Latino"}]}],"identifier":[{"type":{"coding":[{"system":"http://terminology.hl7.org/CodeSystem/v2-0203","code":"MR"}]},"system":"https://bonnie-fhir.healthit.gov/","value":"60f82c2f98086b570510e2b4"}],"active":true,"name":[{"use":"usual","family":"DENEXCEPFail","given":["INRdurED_ED>1hrObs>1hrBFEncDayAft"]}],"gender":"female","birthDate":"1976-09-26"},"request":{"method":"PUT","url":"Patient/79f6bb60-1bdb-4dff-857d-65311e9ccea5"}},{"resource":{"resourceType":"Encounter","id":"ac47f3cc-e6bb-4cb1-87f2-f10733063eef","meta":{"profile":["http://hl7.org/fhir/us/qicore/StructureDefinition/qicore-encounter"]},"status":"finished","class":{"system":"http://terminology.hl7.org/CodeSystem/v3-ActCode","code":"OBSENC","display":"observation encounter","userSelected":true},"type":[{"coding":[{"system":"http://snomed.info/sct","code":"448851000124103"}]}],"subject":{"reference":"Patient/79f6bb60-1bdb-4dff-857d-65311e9ccea5"},"period":{"start":"2026-10-10T07:31:00Z","end":"2026-10-10T22:59:00.000+00:00"},"length":{"value":0,"unit":"days"}},"request":{"method":"PUT","url":"Encounter/ac47f3cc-e6bb-4cb1-87f2-f10733063eef"}},{"resource":{"resourceType":"Condition","id":"73385321-c92c-4af2-b0c1-a336362ed1fe","meta":{"profile":["http://hl7.org/fhir/us/qicore/StructureDefinition/qicore-condition-encounter-diagnosis"]},"clinicalStatus":{"coding":[{"system":"http://terminology.hl7.org/CodeSystem/condition-clinical","code":"active"}]},"verificationStatus":{"coding":[{"system":"http://terminology.hl7.org/CodeSystem/condition-ver-status","code":"confirmed"}]},"category":[{"coding":[{"system":"http://terminology.hl7.org/CodeSystem/condition-category","code":"encounter-diagnosis","display":"Encounter Diagnosis"}]}],"code":{"coding":[{"system":"http://snomed.info/sct","version":"2020-09","code":"111297002","display":"Nonparalytic stroke (disorder)","userSelected":true}]},"subject":{"reference":"Patient/79f6bb60-1bdb-4dff-857d-65311e9ccea5"},"recordedDate":"2026-07-28T08:00:00Z"},"request":{"method":"PUT","url":"Condition/73385321-c92c-4af2-b0c1-a336362ed1fe"}},{"resource":{"resourceType":"Organization","id":"a2ffc76a-5ac7-4289-bf4c-c16a8c9efd2b","meta":{"profile":["http://hl7.org/fhir/us/qicore/StructureDefinition/qicore-organization"]},"identifier":[{"use":"temp","system":"urn:oid:2.16.840.1.113883.4.4","value":"21-3259825"}],"active":true,"type":[{"coding":[{"system":"http://terminology.hl7.org/CodeSystem/organization-type","code":"pay","display":"Payer"}]}],"name":"Blue Cross Blue Shield of Texas","telecom":[{"system":"phone","value":"(+1) 972-766-6900"}],"address":[{"use":"billing","type":"postal","line":["P.O. Box 660044"],"city":"Dallas","state":"TX","postalCode":"75266-0044","country":"USA"}]},"request":{"method":"PUT","url":"Organization/a2ffc76a-5ac7-4289-bf4c-c16a8c9efd2b"}},{"resource":{"resourceType":"MeasureReport","id":"1a0e3f12-d56f-4faf-b357-d76c4122affb","meta":{"profile":["http://hl7.org/fhir/us/cqfmeasures/StructureDefinition/test-case-cqfm"]},"contained":[{"resourceType":"Parameters","id":"28bbe8aa-ff83-4366-8b5e-30c7f9a6cfe3-parameters","parameter":[{"name":"subject","valueString":"79f6bb60-1bdb-4dff-857d-65311e9ccea5"}]}],"extension":[{"url":"http://hl7.org/fhir/StructureDefinition/cqf-inputParameters","valueReference":{"reference":"#28bbe8aa-ff83-4366-8b5e-30c7f9a6cfe3-parameters"}},{"url":"http://hl7.org/fhir/us/cqfmeasures/StructureDefinition/cqfm-testCaseDescription","valueMarkdown":"Patient receives INR of 3.6 the day of ED. ED ends 61 minute before Obs, Obs ends 61 min before IP the next day at midnight. Testing Day of operator with HospitalizationWithObservation function.\n"}],"modifierExtension":[{"url":"http://hl7.org/fhir/us/cqfmeasures/StructureDefinition/cqfm-isTestCase","valueBoolean":true}],"status":"complete","type":"individual","measure":"https://madie.cms.gov/Measure/CMS72FHIRSTKAntithromboticDay2","period":{"start":"2026-01-01","end":"2026-12-31"},"group":[{"id":"Group_1","population":[{"id":"InitialPopulation_1","code":{"coding":[{"system":"http://terminology.hl7.org/CodeSystem/measure-population","code":"initial-population","display":"Initial Population"}]},"count":1},{"id":"Denominator_1","code":{"coding":[{"system":"http://terminology.hl7.org/CodeSystem/measure-population","code":"denominator","display":"Denominator"}]},"count":1},{"id":"DenominatorExclusion_1","code":{"coding":[{"system":"http://terminology.hl7.org/CodeSystem/measure-population","code":"denominator-exclusion","display":"Denominator Exclusion"}]},"count":0},{"id":"Numerator_1","code":{"coding":[{"system":"http://terminology.hl7.org/CodeSystem/measure-population","code":"numerator","display":"Numerator"}]},"count":0},{"id":"DenominatorException_1","code":{"coding":[{"system":"http://terminology.hl7.org/CodeSystem/measure-population","code":"denominator-exception","display":"Denominator Exception"}]},"count":0}],"measureScore":{"value":0.0}}],"evaluatedResource":[{"reference":"Patient/79f6bb60-1bdb-4dff-857d-65311e9ccea5"},{"reference":"Encounter/24715aee-8ce0-44fd-b7b3-239f8aaa7efe"},{"reference":"Encounter/ac47f3cc-e6bb-4cb1-87f2-f10733063eef"},{"reference":"Claim/5ca62962b8484628b8de1ec5"},{"reference":"Encounter/bfe4c954-735d-4cb9-bb39-3170135e588c"},{"reference":"Observation/4bd246a9-6cf6-42f1-a38f-63d761ae32fb"},{"reference":"Coverage/d04044f3-a3ed-43e9-91dc-27e0ec6bf969"},{"reference":"Condition/73385321-c92c-4af2-b0c1-a336362ed1fe"},{"reference":"Organization/a2ffc76a-5ac7-4289-bf4c-c16a8c9efd2b"}]},"request":{"method":"PUT","url":"MeasureReport/1a0e3f12-d56f-4faf-b357-d76c4122affb"}},{"resource":{"resourceType":"Bundle","id":"60f82c2f98086b570510e2b4","type":"transaction","entry":[{"fullUrl":"https://madie.cms.gov/Patient/79f6bb60-1bdb-4dff-857d-65311e9ccea5","resource":{"resourceType":"Patient","id":"79f6bb60-1bdb-4dff-857d-65311e9ccea5","meta":{"profile":["http://hl7.org/fhir/us/qicore/StructureDefinition/qicore-patient"]},"text":{"status":"generated","div":"<div xmlns=\"http://www.w3.org/1999/xhtml\"><div class=\"hapiHeaderText\">INRdurED_ED&gt;1hrObs&gt;1hrBFEncDayAft <b>DENEXCEPFAIL </b></div><table class=\"hapiPropertyTable\"><tbody><tr><td>Identifier</td><td>ee218e0e9411a5f7a5d75c61e9a9adf65ce589e903bb5b3c4ec017e4cb221859</td></tr><tr><td>Date of birth</td><td><span>26 September 1975</span></td></tr></tbody></table></div>"},"extension":[{"url":"http://hl7.org/fhir/us/core/StructureDefinition/us-core-race","extension":[{"url":"ombCategory","valueCoding":{"system":"urn:oid:2.16.840.1.113883.6.238","code":"2054-5","display":"Black or African American","userSelected":true}},{"url":"text","valueString":"Black or African American"}]},{"url":"http://hl7.org/fhir/us/core/StructureDefinition/us-core-ethnicity","extension":[{"url":"ombCategory","valueCoding":{"system":"urn:oid:2.16.840.1.113883.6.238","code":"2186-5","display":"Not Hispanic or Latino","userSelected":true}},{"url":"text","valueString":"Not Hispanic or Latino"}]}],"identifier":[{"type":{"coding":[{"system":"http://terminology.hl7.org/CodeSystem/v2-0203","code":"MR"}]},"system":"https://bonnie-fhir.healthit.gov/","value":"60f82c2f98086b570510e2b4"}],"active":true,"name":[{"use":"usual","family":"DENEXCEPFail","given":["INRdurED_ED>1hrObs>1hrBFEncDayAft"]}],"gender":"female","birthDate":"1976-09-26"},"request":{"method":"PUT","url":"Patient/79f6bb60-1bdb-4dff-857d-65311e9ccea5"}},{"fullUrl":"https://madie.cms.gov/Encounter/24715aee-8ce0-44fd-b7b3-239f8aaa7efe","resource":{"resourceType":"Encounter","id":"24715aee-8ce0-44fd-b7b3-239f8aaa7efe","meta":{"profile":["http://hl7.org/fhir/us/qicore/StructureDefinition/qicore-encounter"]},"status":"finished","class":{"system":"http://terminology.hl7.org/CodeSystem/v3-ActCode","code":"EMER","display":"emergency","userSelected":true},"type":[{"coding":[{"system":"http://snomed.info/sct","code":"4525004"}]}],"subject":{"reference":"Patient/79f6bb60-1bdb-4dff-857d-65311e9ccea5"},"period":{"start":"2026-10-10T06:15:00Z","end":"2026-10-10T06:30:00.000+00:00"},"length":{"value":0,"unit":"days"}},"request":{"method":"PUT","url":"Encounter/24715aee-8ce0-44fd-b7b3-239f8aaa7efe"}},{"fullUrl":"https://madie.cms.gov/Encounter/ac47f3cc-e6bb-4cb1-87f2-f10733063eef","resource":{"resourceType":"Encounter","id":"ac47f3cc-e6bb-4cb1-87f2-f10733063eef","meta":{"profile":["http://hl7.org/fhir/us/qicore/StructureDefinition/qicore-encounter"]},"status":"finished","class":{"system":"http://terminology.hl7.org/CodeSystem/v3-ActCode","code":"OBSENC","display":"observation encounter","userSelected":true},"type":[{"coding":[{"system":"http://snomed.info/sct","code":"448851000124103"}]}],"subject":{"reference":"Patient/79f6bb60-1bdb-4dff-857d-65311e9ccea5"},"period":{"start":"2026-10-10T07:31:00Z","end":"2026-10-10T22:59:00.000+00:00"},"length":{"value":0,"unit":"days"}},"request":{"method":"PUT","url":"Encounter/ac47f3cc-e6bb-4cb1-87f2-f10733063eef"}},{"fullUrl":"https://madie.cms.gov/claim/5ca62962b8484628b8de1ec5","resource":{"resourceType":"Claim","id":"5ca62962b8484628b8de1ec5","meta":{"profile":["http://hl7.org/fhir/us/qicore/StructureDefinition/qicore-claim"]},"status":"active","type":{"coding":[{"system":"http://terminology.hl7.org/CodeSystem/claim-type","code":"institutional"}]},"use":"claim","patient":{"reference":"Patient/d170a0a8-b5ad-4303-b6df-e304dd5f92ad"},"created":"2026-12-01","provider":{"reference":"Practitioner/practitioner-123456"},"priority":{"coding":[{"system":"http://terminology.hl7.org/CodeSystem/processpriority","code":"normal"}]},"diagnosis":[{"sequence":1,"diagnosisCodeableConcept":{"coding":[{"system":"http://hl7.org/fhir/sid/icd-10-cm","code":"I63.00"}]},"type":[{"coding":[{"system":"http://terminology.hl7.org/CodeSystem/ex-diagnosistype","code":"principal"}]}]}],"insurance":[{"sequence":1,"focal":true,"coverage":{"reference":"Coverage/5fa041661c76ba66d9959367"}}],"item":[{"sequence":1,"diagnosisSequence":[1],"productOrService":{"coding":[{"system":"http://terminology.hl7.org/CodeSystem/ex-USCLS","code":"99555"}]},"encounter":[{"reference":"Encounter/bfe4c954-735d-4cb9-bb39-3170135e588c"}]}]},"request":{"method":"PUT","url":"Claim/5ca62962b8484628b8de1ec5"}},{"fullUrl":"https://madie.cms.gov/Encounter/bfe4c954-735d-4cb9-bb39-3170135e588c","resource":{"resourceType":"Encounter","id":"bfe4c954-735d-4cb9-bb39-3170135e588c","meta":{"profile":["http://hl7.org/fhir/us/qicore/StructureDefinition/qicore-encounter"]},"status":"finished","class":{"system":"http://terminology.hl7.org/CodeSystem/v3-ActCode","code":"IMP","display":"inpatient encounter","userSelected":true},"type":[{"coding":[{"system":"http://snomed.info/sct","code":"32485007"}]}],"subject":{"reference":"Patient/79f6bb60-1bdb-4dff-857d-65311e9ccea5"},"period":{"start":"2026-10-11T00:00:00Z","end":"2026-10-15T11:30:00.000+00:00"},"length":{"value":4,"unit":"days"},"reasonReference":[{"reference":"Condition/73385321-c92c-4af2-b0c1-a336362ed1fe"}]},"request":{"method":"PUT","url":"Encounter/bfe4c954-735d-4cb9-bb39-3170135e588c"}},{"fullUrl":"https://madie.cms.gov/Observation/4bd246a9-6cf6-42f1-a38f-63d761ae32fb","resource":{"resourceType":"Observation","id":"4bd246a9-6cf6-42f1-a38f-63d761ae32fb","meta":{"profile":["http://hl7.org/fhir/us/qicore/StructureDefinition/qicore-observation-lab"]},"status":"final","category":[{"coding":[{"system":"http://terminology.hl7.org/CodeSystem/observation-category","code":"laboratory","display":"Laboratory"}]}],"code":{"coding":[{"system":"http://loinc.org","code":"34714-6"}]},"subject":{"reference":"Patient/79f6bb60-1bdb-4dff-857d-65311e9ccea5"},"effectivePeriod":{"start":"2026-10-10T06:15:00Z"},"issued":"2026-10-10T06:30:00.000+00:00","valueQuantity":{"value":3.6}},"request":{"method":"PUT","url":"Observation/4bd246a9-6cf6-42f1-a38f-63d761ae32fb"}},{"fullUrl":"https://madie.cms.gov/Coverage/d04044f3-a3ed-43e9-91dc-27e0ec6bf969","resource":{"resourceType":"Coverage","id":"d04044f3-a3ed-43e9-91dc-27e0ec6bf969","status":"active","subscriberId":"523435","beneficiary":{"reference":"Patient/79f6bb60-1bdb-4dff-857d-65311e9ccea5"},"relationship":{"coding":[{"system":"http://terminology.hl7.org/CodeSystem/subscriber-relationship","code":"self"}]},"period":{"start":"1976-09-26T08:00:00Z"},"payor":[{"reference":"Organization/a2ffc76a-5ac7-4289-bf4c-c16a8c9efd2b"}]},"request":{"method":"PUT","url":"Coverage/d04044f3-a3ed-43e9-91dc-27e0ec6bf969"}},{"fullUrl":"https://madie.cms.gov/Condition/73385321-c92c-4af2-b0c1-a336362ed1fe","resource":{"resourceType":"Condition","id":"73385321-c92c-4af2-b0c1-a336362ed1fe","meta":{"profile":["http://hl7.org/fhir/us/qicore/StructureDefinition/qicore-condition-encounter-diagnosis"]},"clinicalStatus":{"coding":[{"system":"http://terminology.hl7.org/CodeSystem/condition-clinical","code":"active"}]},"verificationStatus":{"coding":[{"system":"http://terminology.hl7.org/CodeSystem/condition-ver-status","code":"confirmed"}]},"category":[{"coding":[{"system":"http://terminology.hl7.org/CodeSystem/condition-category","code":"encounter-diagnosis","display":"Encounter Diagnosis"}]}],"code":{"coding":[{"system":"http://snomed.info/sct","version":"2020-09","code":"111297002","display":"Nonparalytic stroke (disorder)","userSelected":true}]},"subject":{"reference":"Patient/79f6bb60-1bdb-4dff-857d-65311e9ccea5"},"recordedDate":"2026-07-28T08:00:00Z"},"request":{"method":"PUT","url":"Condition/73385321-c92c-4af2-b0c1-a336362ed1fe"}},{"fullUrl":"https://madie.cms.gov/Organization/a2ffc76a-5ac7-4289-bf4c-c16a8c9efd2b","resource":{"resourceType":"Organization","id":"a2ffc76a-5ac7-4289-bf4c-c16a8c9efd2b","meta":{"profile":["http://hl7.org/fhir/us/qicore/StructureDefinition/qicore-organization"]},"identifier":[{"use":"temp","system":"urn:oid:2.16.840.1.113883.4.4","value":"21-3259825"}],"active":true,"type":[{"coding":[{"system":"http://terminology.hl7.org/CodeSystem/organization-type","code":"pay","display":"Payer"}]}],"name":"Blue Cross Blue Shield of Texas","telecom":[{"system":"phone","value":"(+1) 972-766-6900"}],"address":[{"use":"billing","type":"postal","line":["P.O. Box 660044"],"city":"Dallas","state":"TX","postalCode":"75266-0044","country":"USA"}]},"request":{"method":"PUT","url":"Organization/a2ffc76a-5ac7-4289-bf4c-c16a8c9efd2b"}},{"fullUrl":"https://madie.cms.gov/MeasureReport/1a0e3f12-d56f-4faf-b357-d76c4122affb","resource":{"resourceType":"MeasureReport","id":"1a0e3f12-d56f-4faf-b357-d76c4122affb","meta":{"profile":["http://hl7.org/fhir/us/cqfmeasures/StructureDefinition/test-case-cqfm"]},"contained":[{"resourceType":"Parameters","id":"28bbe8aa-ff83-4366-8b5e-30c7f9a6cfe3-parameters","parameter":[{"name":"subject","valueString":"79f6bb60-1bdb-4dff-857d-65311e9ccea5"}]}],"extension":[{"url":"http://hl7.org/fhir/StructureDefinition/cqf-inputParameters","valueReference":{"reference":"#28bbe8aa-ff83-4366-8b5e-30c7f9a6cfe3-parameters"}},{"url":"http://hl7.org/fhir/us/cqfmeasures/StructureDefinition/cqfm-testCaseDescription","valueMarkdown":"Patient receives INR of 3.6 the day of ED. ED ends 61 minute before Obs, Obs ends 61 min before IP the next day at midnight. Testing Day of operator with HospitalizationWithObservation function.\n"}],"modifierExtension":[{"url":"http://hl7.org/fhir/us/cqfmeasures/StructureDefinition/cqfm-isTestCase","valueBoolean":true}],"status":"complete","type":"individual","measure":"https://madie.cms.gov/Measure/CMS72FHIRSTKAntithromboticDay2","period":{"start":"2026-01-01","end":"2026-12-31"},"group":[{"id":"Group_1","population":[{"id":"InitialPopulation_1","code":{"coding":[{"system":"http://terminology.hl7.org/CodeSystem/measure-population","code":"initial-population","display":"Initial Population"}]},"count":1},{"id":"Denominator_1","code":{"coding":[{"system":"http://terminology.hl7.org/CodeSystem/measure-population","code":"denominator","display":"Denominator"}]},"count":1},{"id":"DenominatorExclusion_1","code":{"coding":[{"system":"http://terminology.hl7.org/CodeSystem/measure-population","code":"denominator-exclusion","display":"Denominator Exclusion"}]},"count":0},{"id":"Numerator_1","code":{"coding":[{"system":"http://terminology.hl7.org/CodeSystem/measure-population","code":"numerator","display":"Numerator"}]},"count":0},{"id":"DenominatorException_1","code":{"coding":[{"system":"http://terminology.hl7.org/CodeSystem/measure-population","code":"denominator-exception","display":"Denominator Exception"}]},"count":0}],"measureScore":{"value":0.0}}],"evaluatedResource":[{"reference":"Patient/79f6bb60-1bdb-4dff-857d-65311e9ccea5"},{"reference":"Encounter/24715aee-8ce0-44fd-b7b3-239f8aaa7efe"},{"reference":"Encounter/ac47f3cc-e6bb-4cb1-87f2-f10733063eef"},{"reference":"Claim/5ca62962b8484628b8de1ec5"},{"reference":"Encounter/bfe4c954-735d-4cb9-bb39-3170135e588c"},{"reference":"Observation/4bd246a9-6cf6-42f1-a38f-63d761ae32fb"},{"reference":"Coverage/d04044f3-a3ed-43e9-91dc-27e0ec6bf969"},{"reference":"Condition/73385321-c92c-4af2-b0c1-a336362ed1fe"},{"reference":"Organization/a2ffc76a-5ac7-4289-bf4c-c16a8c9efd2b"}]},"request":{"method":"PUT","url":"MeasureReport/1a0e3f12-d56f-4faf-b357-d76c4122affb"}}]},"request":{"method":"PUT","url":"Bundle/60f82c2f98086b570510e2b4"}},{"resource":{"resourceType":"Encounter","id":"bfe4c954-735d-4cb9-bb39-3170135e588c","meta":{"profile":["http://hl7.org/fhir/us/qicore/StructureDefinition/qicore-encounter"]},"status":"finished","class":{"system":"http://terminology.hl7.org/CodeSystem/v3-ActCode","code":"IMP","display":"inpatient encounter","userSelected":true},"type":[{"coding":[{"system":"http://snomed.info/sct","code":"32485007"}]}],"subject":{"reference":"Patient/79f6bb60-1bdb-4dff-857d-65311e9ccea5"},"period":{"start":"2026-10-11T00:00:00Z","end":"2026-10-15T11:30:00.000+00:00"},"length":{"value":4,"unit":"days"},"reasonReference":[{"reference":"Condition/73385321-c92c-4af2-b0c1-a336362ed1fe"}]},"request":{"method":"PUT","url":"Encounter/bfe4c954-735d-4cb9-bb39-3170135e588c"}},{"resource":{"resourceType":"Claim","id":"5ca62962b8484628b8de1ec5","meta":{"profile":["http://hl7.org/fhir/us/qicore/StructureDefinition/qicore-claim"]},"status":"active","type":{"coding":[{"system":"http://terminology.hl7.org/CodeSystem/claim-type","code":"institutional"}]},"use":"claim","patient":{"reference":"Patient/d170a0a8-b5ad-4303-b6df-e304dd5f92ad"},"created":"2026-12-01","provider":{"reference":"Practitioner/practitioner-123456"},"priority":{"coding":[{"system":"http://terminology.hl7.org/CodeSystem/processpriority","code":"normal"}]},"diagnosis":[{"sequence":1,"diagnosisCodeableConcept":{"coding":[{"system":"http://hl7.org/fhir/sid/icd-10-cm","code":"I63.00"}]},"type":[{"coding":[{"system":"http://terminology.hl7.org/CodeSystem/ex-diagnosistype","code":"principal"}]}]}],"insurance":[{"sequence":1,"focal":true,"coverage":{"reference":"Coverage/5fa041661c76ba66d9959367"}}],"item":[{"sequence":1,"diagnosisSequence":[1],"productOrService":{"coding":[{"system":"http://terminology.hl7.org/CodeSystem/ex-USCLS","code":"99555"}]},"encounter":[{"reference":"Encounter/bfe4c954-735d-4cb9-bb39-3170135e588c"}]}]},"request":{"method":"PUT","url":"Claim/5ca62962b8484628b8de1ec5"}}]}