{"resourceType":"Bundle","id":"tests-0c8a299c-b082-4383-b0b4-aebbb0fa9fb4-bundle","type":"transaction","entry":[{"resource":{"resourceType":"Practitioner","id":"1141b2b3-b773-4c2a-aaa3-0f50380b7740","meta":{"profile":["http://hl7.org/fhir/us/qicore/StructureDefinition/qicore-practitioner"]},"identifier":[{"system":"http://hl7.org/fhir/sid/us-npi","value":"9999999896"}],"name":[{"family":"Evil","prefix":["Dr"]}]},"request":{"method":"PUT","url":"Practitioner/1141b2b3-b773-4c2a-aaa3-0f50380b7740"}},{"resource":{"resourceType":"Encounter","id":"f39bfde4-57eb-4eb0-b6e1-f84a33b9f718","meta":{"profile":["http://hl7.org/fhir/us/qicore/StructureDefinition/qicore-encounter"]},"status":"finished","class":{"system":"http://terminology.hl7.org/CodeSystem/v3-ActCode","code":"IMP","display":"inpatient encounter"},"type":[{"coding":[{"system":"http://snomed.info/sct","code":"32485007"}]}],"subject":{"reference":"Patient/0c8a299c-b082-4383-b0b4-aebbb0fa9fb4"},"period":{"start":"2026-10-10T09:00:00Z","end":"2026-10-12T11:15:00.000+00:00"},"length":{"value":2,"unit":"days"},"reasonReference":[{"reference":"Condition/4c5b0d6f-7a11-4cf1-9830-00db3ef953ff"}]},"request":{"method":"PUT","url":"Encounter/f39bfde4-57eb-4eb0-b6e1-f84a33b9f718"}},{"resource":{"resourceType":"Bundle","id":"60f82c2d98086b570510e25a","type":"transaction","entry":[{"fullUrl":"https://madie.cms.gov/Patient/0c8a299c-b082-4383-b0b4-aebbb0fa9fb4","resource":{"resourceType":"Patient","id":"0c8a299c-b082-4383-b0b4-aebbb0fa9fb4","meta":{"profile":["http://hl7.org/fhir/us/qicore/StructureDefinition/qicore-patient"]},"text":{"status":"generated","div":"<div xmlns=\"http://www.w3.org/1999/xhtml\"><div class=\"hapiHeaderText\">MedAntithromboticStart_gt1dayDuringEncIP <b>NUMERFAIL </b></div><table class=\"hapiPropertyTable\"><tbody><tr><td>Identifier</td><td>17d9cc11aebb5947545ea131f50a8a07</td></tr><tr><td>Date of birth</td><td><span>26 September 1975</span></td></tr></tbody></table></div>"},"extension":[{"url":"http://hl7.org/fhir/us/core/StructureDefinition/us-core-race","extension":[{"url":"ombCategory","valueCoding":{"system":"urn:oid:2.16.840.1.113883.6.238","code":"2054-5","display":"Black or African American","userSelected":true}},{"url":"text","valueString":"Black or African American"}]},{"url":"http://hl7.org/fhir/us/core/StructureDefinition/us-core-ethnicity","extension":[{"url":"ombCategory","valueCoding":{"system":"urn:oid:2.16.840.1.113883.6.238","code":"2186-5","display":"Not Hispanic or Latino","userSelected":true}},{"url":"text","valueString":"Not Hispanic or Latino"}]}],"identifier":[{"type":{"coding":[{"system":"http://terminology.hl7.org/CodeSystem/v2-0203","code":"MR"}]},"system":"https://bonnie-fhir.healthit.gov/","value":"60f82c2d98086b570510e25a"}],"active":true,"name":[{"use":"usual","family":"NUMERFail","given":["MedAntithromboticStart_gt1dayDuringEncIP"]}],"gender":"female","birthDate":"1976-09-26"},"request":{"method":"PUT","url":"Patient/0c8a299c-b082-4383-b0b4-aebbb0fa9fb4"}},{"fullUrl":"https://madie.cms.gov/Encounter/f39bfde4-57eb-4eb0-b6e1-f84a33b9f718","resource":{"resourceType":"Encounter","id":"f39bfde4-57eb-4eb0-b6e1-f84a33b9f718","meta":{"profile":["http://hl7.org/fhir/us/qicore/StructureDefinition/qicore-encounter"]},"status":"finished","class":{"system":"http://terminology.hl7.org/CodeSystem/v3-ActCode","code":"IMP","display":"inpatient encounter"},"type":[{"coding":[{"system":"http://snomed.info/sct","code":"32485007"}]}],"subject":{"reference":"Patient/0c8a299c-b082-4383-b0b4-aebbb0fa9fb4"},"period":{"start":"2026-10-10T09:00:00Z","end":"2026-10-12T11:15:00.000+00:00"},"length":{"value":2,"unit":"days"},"reasonReference":[{"reference":"Condition/4c5b0d6f-7a11-4cf1-9830-00db3ef953ff"}]},"request":{"method":"PUT","url":"Encounter/f39bfde4-57eb-4eb0-b6e1-f84a33b9f718"}},{"fullUrl":"https://madie.cms.gov/claim/5ca62962b8484628b8de1ec5","resource":{"resourceType":"Claim","id":"5ca62962b8484628b8de1ec5","meta":{"profile":["http://hl7.org/fhir/us/qicore/StructureDefinition/qicore-claim"]},"status":"active","type":{"coding":[{"system":"http://terminology.hl7.org/CodeSystem/claim-type","code":"institutional"}]},"use":"claim","patient":{"reference":"Patient/d170a0a8-b5ad-4303-b6df-e304dd5f92ad"},"created":"2026-12-01","provider":{"reference":"Practitioner/1141b2b3-b773-4c2a-aaa3-0f50380b7740"},"priority":{"coding":[{"system":"http://terminology.hl7.org/CodeSystem/processpriority","code":"normal"}]},"diagnosis":[{"sequence":1,"diagnosisCodeableConcept":{"coding":[{"system":"http://hl7.org/fhir/sid/icd-10-cm","code":"I63.00"}]},"type":[{"coding":[{"system":"http://terminology.hl7.org/CodeSystem/ex-diagnosistype","code":"principal"}]}]}],"insurance":[{"sequence":1,"focal":true,"coverage":{"reference":"Coverage/5fa041661c76ba66d9959367"}}],"item":[{"sequence":1,"diagnosisSequence":[1],"productOrService":{"coding":[{"system":"http://terminology.hl7.org/CodeSystem/ex-USCLS","code":"99555"}]},"encounter":[{"reference":"Encounter/f39bfde4-57eb-4eb0-b6e1-f84a33b9f718"}]}]},"request":{"method":"PUT","url":"Claim/5ca62962b8484628b8de1ec5"}},{"fullUrl":"https://madie.cms.gov/MedicationAdministration/3cf92f5b-fef2-4e14-87be-9fbb9eebc278","resource":{"resourceType":"MedicationAdministration","id":"3cf92f5b-fef2-4e14-87be-9fbb9eebc278","meta":{"profile":["http://hl7.org/fhir/us/qicore/StructureDefinition/qicore-medicationadministration"]},"status":"completed","medicationCodeableConcept":{"coding":[{"system":"http://www.nlm.nih.gov/research/umls/rxnorm","code":"198466"}]},"subject":{"reference":"Patient/0c8a299c-b082-4383-b0b4-aebbb0fa9fb4"},"effectivePeriod":{"start":"2026-10-12T00:00:00Z"}},"request":{"method":"PUT","url":"MedicationAdministration/3cf92f5b-fef2-4e14-87be-9fbb9eebc278"}},{"fullUrl":"https://madie.cms.gov/Coverage/d4c76915-2a6b-487d-9f7e-8569b8836aef","resource":{"resourceType":"Coverage","id":"d4c76915-2a6b-487d-9f7e-8569b8836aef","status":"active","subscriberId":"523435","beneficiary":{"reference":"Patient/0c8a299c-b082-4383-b0b4-aebbb0fa9fb4"},"relationship":{"coding":[{"system":"http://terminology.hl7.org/CodeSystem/subscriber-relationship","code":"self"}]},"period":{"start":"1976-09-26T08:00:00Z"},"payor":[{"reference":"Organization/bd7bfd33-9fc7-49df-b959-437723d5e16d"}]},"request":{"method":"PUT","url":"Coverage/d4c76915-2a6b-487d-9f7e-8569b8836aef"}},{"fullUrl":"https://madie.cms.gov/Condition/4c5b0d6f-7a11-4cf1-9830-00db3ef953ff","resource":{"resourceType":"Condition","id":"4c5b0d6f-7a11-4cf1-9830-00db3ef953ff","meta":{"profile":["http://hl7.org/fhir/us/qicore/StructureDefinition/qicore-condition-problems-health-concerns"]},"clinicalStatus":{"coding":[{"system":"http://terminology.hl7.org/CodeSystem/condition-clinical","code":"active"}]},"verificationStatus":{"coding":[{"system":"http://terminology.hl7.org/CodeSystem/condition-ver-status","code":"confirmed"}]},"category":[{"coding":[{"system":"http://terminology.hl7.org/CodeSystem/condition-category","code":"encounter-diagnosis","display":"Encounter Diagnosis"}]}],"code":{"coding":[{"system":"http://snomed.info/sct","version":"2020-09","code":"111297002","display":"Nonparalytic stroke (disorder)","userSelected":true}]},"subject":{"reference":"Patient/0c8a299c-b082-4383-b0b4-aebbb0fa9fb4"},"recordedDate":"2026-08-16T08:00:00Z"},"request":{"method":"PUT","url":"Condition/4c5b0d6f-7a11-4cf1-9830-00db3ef953ff"}},{"fullUrl":"https://madie.cms.gov/Organization/bd7bfd33-9fc7-49df-b959-437723d5e16d","resource":{"resourceType":"Organization","id":"bd7bfd33-9fc7-49df-b959-437723d5e16d","meta":{"profile":["http://hl7.org/fhir/us/qicore/StructureDefinition/qicore-organization"]},"identifier":[{"use":"temp","system":"urn:oid:2.16.840.1.113883.4.4","value":"21-3259825"}],"active":true,"type":[{"coding":[{"system":"http://terminology.hl7.org/CodeSystem/organization-type","code":"pay","display":"Payer"}]}],"name":"Blue Cross Blue Shield of Texas","telecom":[{"system":"phone","value":"(+1) 972-766-6900"}],"address":[{"use":"billing","type":"postal","line":["P.O. Box 660044"],"city":"Dallas","state":"TX","postalCode":"75266-0044","country":"USA"}]},"request":{"method":"PUT","url":"Organization/bd7bfd33-9fc7-49df-b959-437723d5e16d"}},{"fullUrl":"https://madie.cms.gov/Practitioner/1141b2b3-b773-4c2a-aaa3-0f50380b7740","resource":{"resourceType":"Practitioner","id":"1141b2b3-b773-4c2a-aaa3-0f50380b7740","meta":{"profile":["http://hl7.org/fhir/us/qicore/StructureDefinition/qicore-practitioner"]},"identifier":[{"system":"http://hl7.org/fhir/sid/us-npi","value":"9999999896"}],"name":[{"family":"Evil","prefix":["Dr"]}]},"request":{"method":"PUT","url":"Practitioner/1141b2b3-b773-4c2a-aaa3-0f50380b7740"}},{"fullUrl":"https://madie.cms.gov/MeasureReport/b1c204a8-1570-41b2-ad34-9d664aafa899","resource":{"resourceType":"MeasureReport","id":"b1c204a8-1570-41b2-ad34-9d664aafa899","meta":{"profile":["http://hl7.org/fhir/us/cqfmeasures/StructureDefinition/test-case-cqfm"]},"contained":[{"resourceType":"Parameters","id":"ec1bfc7f-5485-493a-b258-7b4a4106a41a-parameters","parameter":[{"name":"subject","valueString":"0c8a299c-b082-4383-b0b4-aebbb0fa9fb4"}]}],"extension":[{"url":"http://hl7.org/fhir/StructureDefinition/cqf-inputParameters","valueReference":{"reference":"#ec1bfc7f-5485-493a-b258-7b4a4106a41a-parameters"}},{"url":"http://hl7.org/fhir/us/cqfmeasures/StructureDefinition/cqfm-testCaseDescription","valueMarkdown":"\"Patient receives antithrombotic in the ED. MedAntithromboticStart EQ 1day \nglobal.\"\"Hospitalization\"\" =(Ed+IP)\"\n"}],"modifierExtension":[{"url":"http://hl7.org/fhir/us/cqfmeasures/StructureDefinition/cqfm-isTestCase","valueBoolean":true}],"status":"complete","type":"individual","measure":"https://madie.cms.gov/Measure/CMS72FHIRSTKAntithromboticDay2","period":{"start":"2026-01-01","end":"2026-12-31"},"group":[{"id":"Group_1","population":[{"id":"InitialPopulation_1","code":{"coding":[{"system":"http://terminology.hl7.org/CodeSystem/measure-population","code":"initial-population","display":"Initial Population"}]},"count":1},{"id":"Denominator_1","code":{"coding":[{"system":"http://terminology.hl7.org/CodeSystem/measure-population","code":"denominator","display":"Denominator"}]},"count":1},{"id":"DenominatorExclusion_1","code":{"coding":[{"system":"http://terminology.hl7.org/CodeSystem/measure-population","code":"denominator-exclusion","display":"Denominator Exclusion"}]},"count":0},{"id":"Numerator_1","code":{"coding":[{"system":"http://terminology.hl7.org/CodeSystem/measure-population","code":"numerator","display":"Numerator"}]},"count":0},{"id":"DenominatorException_1","code":{"coding":[{"system":"http://terminology.hl7.org/CodeSystem/measure-population","code":"denominator-exception","display":"Denominator Exception"}]},"count":0}],"measureScore":{"value":0.0}}],"evaluatedResource":[{"reference":"Patient/0c8a299c-b082-4383-b0b4-aebbb0fa9fb4"},{"reference":"Encounter/f39bfde4-57eb-4eb0-b6e1-f84a33b9f718"},{"reference":"Claim/5ca62962b8484628b8de1ec5"},{"reference":"MedicationAdministration/3cf92f5b-fef2-4e14-87be-9fbb9eebc278"},{"reference":"Coverage/d4c76915-2a6b-487d-9f7e-8569b8836aef"},{"reference":"Condition/4c5b0d6f-7a11-4cf1-9830-00db3ef953ff"},{"reference":"Organization/bd7bfd33-9fc7-49df-b959-437723d5e16d"},{"reference":"Practitioner/1141b2b3-b773-4c2a-aaa3-0f50380b7740"}]},"request":{"method":"PUT","url":"MeasureReport/b1c204a8-1570-41b2-ad34-9d664aafa899"}}]},"request":{"method":"PUT","url":"Bundle/60f82c2d98086b570510e25a"}},{"resource":{"resourceType":"Patient","id":"0c8a299c-b082-4383-b0b4-aebbb0fa9fb4","meta":{"profile":["http://hl7.org/fhir/us/qicore/StructureDefinition/qicore-patient"]},"text":{"status":"generated","div":"<div xmlns=\"http://www.w3.org/1999/xhtml\"><div class=\"hapiHeaderText\">MedAntithromboticStart_gt1dayDuringEncIP <b>NUMERFAIL </b></div><table class=\"hapiPropertyTable\"><tbody><tr><td>Identifier</td><td>17d9cc11aebb5947545ea131f50a8a07</td></tr><tr><td>Date of birth</td><td><span>26 September 1975</span></td></tr></tbody></table></div>"},"extension":[{"url":"http://hl7.org/fhir/us/core/StructureDefinition/us-core-race","extension":[{"url":"ombCategory","valueCoding":{"system":"urn:oid:2.16.840.1.113883.6.238","code":"2054-5","display":"Black or African American","userSelected":true}},{"url":"text","valueString":"Black or African American"}]},{"url":"http://hl7.org/fhir/us/core/StructureDefinition/us-core-ethnicity","extension":[{"url":"ombCategory","valueCoding":{"system":"urn:oid:2.16.840.1.113883.6.238","code":"2186-5","display":"Not Hispanic or Latino","userSelected":true}},{"url":"text","valueString":"Not Hispanic or Latino"}]}],"identifier":[{"type":{"coding":[{"system":"http://terminology.hl7.org/CodeSystem/v2-0203","code":"MR"}]},"system":"https://bonnie-fhir.healthit.gov/","value":"60f82c2d98086b570510e25a"}],"active":true,"name":[{"use":"usual","family":"NUMERFail","given":["MedAntithromboticStart_gt1dayDuringEncIP"]}],"gender":"female","birthDate":"1976-09-26"},"request":{"method":"PUT","url":"Patient/0c8a299c-b082-4383-b0b4-aebbb0fa9fb4"}},{"resource":{"resourceType":"MeasureReport","id":"b1c204a8-1570-41b2-ad34-9d664aafa899","meta":{"profile":["http://hl7.org/fhir/us/cqfmeasures/StructureDefinition/test-case-cqfm"]},"contained":[{"resourceType":"Parameters","id":"ec1bfc7f-5485-493a-b258-7b4a4106a41a-parameters","parameter":[{"name":"subject","valueString":"0c8a299c-b082-4383-b0b4-aebbb0fa9fb4"}]}],"extension":[{"url":"http://hl7.org/fhir/StructureDefinition/cqf-inputParameters","valueReference":{"reference":"#ec1bfc7f-5485-493a-b258-7b4a4106a41a-parameters"}},{"url":"http://hl7.org/fhir/us/cqfmeasures/StructureDefinition/cqfm-testCaseDescription","valueMarkdown":"\"Patient receives antithrombotic in the ED. MedAntithromboticStart EQ 1day \nglobal.\"\"Hospitalization\"\" =(Ed+IP)\"\n"}],"modifierExtension":[{"url":"http://hl7.org/fhir/us/cqfmeasures/StructureDefinition/cqfm-isTestCase","valueBoolean":true}],"status":"complete","type":"individual","measure":"https://madie.cms.gov/Measure/CMS72FHIRSTKAntithromboticDay2","period":{"start":"2026-01-01","end":"2026-12-31"},"group":[{"id":"Group_1","population":[{"id":"InitialPopulation_1","code":{"coding":[{"system":"http://terminology.hl7.org/CodeSystem/measure-population","code":"initial-population","display":"Initial Population"}]},"count":1},{"id":"Denominator_1","code":{"coding":[{"system":"http://terminology.hl7.org/CodeSystem/measure-population","code":"denominator","display":"Denominator"}]},"count":1},{"id":"DenominatorExclusion_1","code":{"coding":[{"system":"http://terminology.hl7.org/CodeSystem/measure-population","code":"denominator-exclusion","display":"Denominator Exclusion"}]},"count":0},{"id":"Numerator_1","code":{"coding":[{"system":"http://terminology.hl7.org/CodeSystem/measure-population","code":"numerator","display":"Numerator"}]},"count":0},{"id":"DenominatorException_1","code":{"coding":[{"system":"http://terminology.hl7.org/CodeSystem/measure-population","code":"denominator-exception","display":"Denominator Exception"}]},"count":0}],"measureScore":{"value":0.0}}],"evaluatedResource":[{"reference":"Patient/0c8a299c-b082-4383-b0b4-aebbb0fa9fb4"},{"reference":"Encounter/f39bfde4-57eb-4eb0-b6e1-f84a33b9f718"},{"reference":"Claim/5ca62962b8484628b8de1ec5"},{"reference":"MedicationAdministration/3cf92f5b-fef2-4e14-87be-9fbb9eebc278"},{"reference":"Coverage/d4c76915-2a6b-487d-9f7e-8569b8836aef"},{"reference":"Condition/4c5b0d6f-7a11-4cf1-9830-00db3ef953ff"},{"reference":"Organization/bd7bfd33-9fc7-49df-b959-437723d5e16d"},{"reference":"Practitioner/1141b2b3-b773-4c2a-aaa3-0f50380b7740"}]},"request":{"method":"PUT","url":"MeasureReport/b1c204a8-1570-41b2-ad34-9d664aafa899"}},{"resource":{"resourceType":"Organization","id":"bd7bfd33-9fc7-49df-b959-437723d5e16d","meta":{"profile":["http://hl7.org/fhir/us/qicore/StructureDefinition/qicore-organization"]},"identifier":[{"use":"temp","system":"urn:oid:2.16.840.1.113883.4.4","value":"21-3259825"}],"active":true,"type":[{"coding":[{"system":"http://terminology.hl7.org/CodeSystem/organization-type","code":"pay","display":"Payer"}]}],"name":"Blue Cross Blue Shield of Texas","telecom":[{"system":"phone","value":"(+1) 972-766-6900"}],"address":[{"use":"billing","type":"postal","line":["P.O. Box 660044"],"city":"Dallas","state":"TX","postalCode":"75266-0044","country":"USA"}]},"request":{"method":"PUT","url":"Organization/bd7bfd33-9fc7-49df-b959-437723d5e16d"}},{"resource":{"resourceType":"MedicationAdministration","id":"3cf92f5b-fef2-4e14-87be-9fbb9eebc278","meta":{"profile":["http://hl7.org/fhir/us/qicore/StructureDefinition/qicore-medicationadministration"]},"status":"completed","medicationCodeableConcept":{"coding":[{"system":"http://www.nlm.nih.gov/research/umls/rxnorm","code":"198466"}]},"subject":{"reference":"Patient/0c8a299c-b082-4383-b0b4-aebbb0fa9fb4"},"effectivePeriod":{"start":"2026-10-12T00:00:00Z"}},"request":{"method":"PUT","url":"MedicationAdministration/3cf92f5b-fef2-4e14-87be-9fbb9eebc278"}},{"resource":{"resourceType":"Coverage","id":"d4c76915-2a6b-487d-9f7e-8569b8836aef","status":"active","subscriberId":"523435","beneficiary":{"reference":"Patient/0c8a299c-b082-4383-b0b4-aebbb0fa9fb4"},"relationship":{"coding":[{"system":"http://terminology.hl7.org/CodeSystem/subscriber-relationship","code":"self"}]},"period":{"start":"1976-09-26T08:00:00Z"},"payor":[{"reference":"Organization/bd7bfd33-9fc7-49df-b959-437723d5e16d"}]},"request":{"method":"PUT","url":"Coverage/d4c76915-2a6b-487d-9f7e-8569b8836aef"}},{"resource":{"resourceType":"Claim","id":"5ca62962b8484628b8de1ec5","meta":{"profile":["http://hl7.org/fhir/us/qicore/StructureDefinition/qicore-claim"]},"status":"active","type":{"coding":[{"system":"http://terminology.hl7.org/CodeSystem/claim-type","code":"institutional"}]},"use":"claim","patient":{"reference":"Patient/d170a0a8-b5ad-4303-b6df-e304dd5f92ad"},"created":"2026-12-01","provider":{"reference":"Practitioner/1141b2b3-b773-4c2a-aaa3-0f50380b7740"},"priority":{"coding":[{"system":"http://terminology.hl7.org/CodeSystem/processpriority","code":"normal"}]},"diagnosis":[{"sequence":1,"diagnosisCodeableConcept":{"coding":[{"system":"http://hl7.org/fhir/sid/icd-10-cm","code":"I63.00"}]},"type":[{"coding":[{"system":"http://terminology.hl7.org/CodeSystem/ex-diagnosistype","code":"principal"}]}]}],"insurance":[{"sequence":1,"focal":true,"coverage":{"reference":"Coverage/5fa041661c76ba66d9959367"}}],"item":[{"sequence":1,"diagnosisSequence":[1],"productOrService":{"coding":[{"system":"http://terminology.hl7.org/CodeSystem/ex-USCLS","code":"99555"}]},"encounter":[{"reference":"Encounter/f39bfde4-57eb-4eb0-b6e1-f84a33b9f718"}]}]},"request":{"method":"PUT","url":"Claim/5ca62962b8484628b8de1ec5"}},{"resource":{"resourceType":"Condition","id":"4c5b0d6f-7a11-4cf1-9830-00db3ef953ff","meta":{"profile":["http://hl7.org/fhir/us/qicore/StructureDefinition/qicore-condition-problems-health-concerns"]},"clinicalStatus":{"coding":[{"system":"http://terminology.hl7.org/CodeSystem/condition-clinical","code":"active"}]},"verificationStatus":{"coding":[{"system":"http://terminology.hl7.org/CodeSystem/condition-ver-status","code":"confirmed"}]},"category":[{"coding":[{"system":"http://terminology.hl7.org/CodeSystem/condition-category","code":"encounter-diagnosis","display":"Encounter Diagnosis"}]}],"code":{"coding":[{"system":"http://snomed.info/sct","version":"2020-09","code":"111297002","display":"Nonparalytic stroke (disorder)","userSelected":true}]},"subject":{"reference":"Patient/0c8a299c-b082-4383-b0b4-aebbb0fa9fb4"},"recordedDate":"2026-08-16T08:00:00Z"},"request":{"method":"PUT","url":"Condition/4c5b0d6f-7a11-4cf1-9830-00db3ef953ff"}}]}