{"resourceType":"Bundle","id":"tests-47b12717-f90f-406a-a114-16fddfbaf8c2-bundle","type":"transaction","entry":[{"resource":{"resourceType":"Bundle","id":"60f82c2e98086b570510e271","type":"transaction","entry":[{"fullUrl":"https://madie.cms.gov/Patient/47b12717-f90f-406a-a114-16fddfbaf8c2","resource":{"resourceType":"Patient","id":"47b12717-f90f-406a-a114-16fddfbaf8c2","meta":{"profile":["http://hl7.org/fhir/us/qicore/StructureDefinition/qicore-patient"]},"text":{"status":"generated","div":"<div xmlns=\"http://www.w3.org/1999/xhtml\"><div class=\"hapiHeaderText\">EncPrinDx=Afib/Flutter <b>IPPFAIL </b></div><table class=\"hapiPropertyTable\"><tbody><tr><td>Identifier</td><td>6b4f64b42db275e27090e0e95feaf581</td></tr><tr><td>Date of birth</td><td><span>01 December 1960</span></td></tr></tbody></table></div>"},"extension":[{"url":"http://hl7.org/fhir/us/core/StructureDefinition/us-core-race","extension":[{"url":"ombCategory","valueCoding":{"system":"urn:oid:2.16.840.1.113883.6.238","code":"1002-5","display":"American Indian or Alaska Native","userSelected":true}},{"url":"text","valueString":"American Indian or Alaska Native"}]},{"url":"http://hl7.org/fhir/us/core/StructureDefinition/us-core-ethnicity","extension":[{"url":"ombCategory","valueCoding":{"system":"urn:oid:2.16.840.1.113883.6.238","code":"2135-2","display":"Hispanic or Latino","userSelected":true}},{"url":"text","valueString":"Hispanic or Latino"}]}],"identifier":[{"type":{"coding":[{"system":"http://terminology.hl7.org/CodeSystem/v2-0203","code":"MR"}]},"system":"https://bonnie-fhir.healthit.gov/","value":"60f82c2e98086b570510e271"}],"active":true,"name":[{"use":"usual","family":"IPPFail","given":["EncPrinDxAfibFlutter"]}],"gender":"male","birthDate":"1961-12-01"},"request":{"method":"PUT","url":"Patient/47b12717-f90f-406a-a114-16fddfbaf8c2"}},{"fullUrl":"https://madie.cms.gov/Encounter/7d7d7e89-26b3-4b2a-b94f-d25928407749","resource":{"resourceType":"Encounter","id":"7d7d7e89-26b3-4b2a-b94f-d25928407749","meta":{"profile":["http://hl7.org/fhir/us/qicore/StructureDefinition/qicore-encounter"]},"status":"finished","class":{"system":"http://terminology.hl7.org/CodeSystem/v3-ActCode","code":"IMP","display":"inpatient encounter"},"type":[{"coding":[{"system":"http://snomed.info/sct","code":"32485007"}]}],"subject":{"reference":"Patient/47b12717-f90f-406a-a114-16fddfbaf8c2"},"period":{"start":"2026-02-08T08:00:00Z","end":"2026-02-10T08:15:00.000+00:00"},"length":{"value":2,"unit":"days"},"reasonReference":[{"reference":"Condition/atrial-fibrillation-flutter-f80a"}]},"request":{"method":"PUT","url":"Encounter/7d7d7e89-26b3-4b2a-b94f-d25928407749"}},{"fullUrl":"https://madie.cms.gov/claim/5ca62962b8484628b8de1ec5","resource":{"resourceType":"Claim","id":"5ca62962b8484628b8de1ec5","meta":{"profile":["http://hl7.org/fhir/us/qicore/StructureDefinition/qicore-claim"]},"status":"active","type":{"coding":[{"system":"http://terminology.hl7.org/CodeSystem/claim-type","code":"institutional"}]},"use":"claim","patient":{"reference":"Patient/47b12717-f90f-406a-a114-16fddfbaf8c2"},"created":"2026-12-01","provider":{"reference":"Practitioner/108d86ef-6677-48dc-a550-1c1c7845fddd"},"priority":{"coding":[{"system":"http://terminology.hl7.org/CodeSystem/processpriority","code":"normal"}]},"diagnosis":[{"sequence":1,"diagnosisCodeableConcept":{"coding":[{"system":"http://hl7.org/fhir/sid/icd-10-cm","code":"I48.91"}]},"type":[{"coding":[{"system":"http://terminology.hl7.org/CodeSystem/ex-diagnosistype","code":"principal"}]}]}],"insurance":[{"sequence":1,"focal":true,"coverage":{"reference":"Coverage/5fa041661c76ba66d9959367"}}],"item":[{"sequence":1,"diagnosisSequence":[1],"productOrService":{"coding":[{"system":"http://terminology.hl7.org/CodeSystem/ex-USCLS","code":"99555"}]},"encounter":[{"reference":"Encounter/7d7d7e89-26b3-4b2a-b94f-d25928407749"}]}]},"request":{"method":"PUT","url":"Claim/5ca62962b8484628b8de1ec5"}},{"fullUrl":"https://madie.cms.gov/Coverage/400e2a49-37bf-4dc6-a2ad-2edfb6526568","resource":{"resourceType":"Coverage","id":"400e2a49-37bf-4dc6-a2ad-2edfb6526568","status":"active","beneficiary":{"reference":"Patient/47b12717-f90f-406a-a114-16fddfbaf8c2"},"period":{"start":"1961-12-01T08:00:00Z"},"payor":[{"reference":"Organization/248b8aa6-38e5-418f-9c8f-5e35607c96be"}]},"request":{"method":"PUT","url":"Coverage/400e2a49-37bf-4dc6-a2ad-2edfb6526568"}},{"fullUrl":"https://madie.cms.gov/Organization/248b8aa6-38e5-418f-9c8f-5e35607c96be","resource":{"resourceType":"Organization","id":"248b8aa6-38e5-418f-9c8f-5e35607c96be","meta":{"profile":["http://hl7.org/fhir/us/qicore/StructureDefinition/qicore-organization"]},"identifier":[{"use":"temp","system":"urn:oid:2.16.840.1.113883.4.4","value":"21-3259825"}],"active":true,"type":[{"coding":[{"system":"http://terminology.hl7.org/CodeSystem/organization-type","code":"pay","display":"Payer"}]}],"name":"Blue Cross Blue Shield of Texas","telecom":[{"system":"phone","value":"(+1) 972-766-6900"}],"address":[{"use":"billing","type":"postal","line":["P.O. Box 660044"],"city":"Dallas","state":"TX","postalCode":"75266-0044","country":"USA"}]},"request":{"method":"PUT","url":"Organization/248b8aa6-38e5-418f-9c8f-5e35607c96be"}},{"fullUrl":"https://madie.cms.gov/Practitioner/108d86ef-6677-48dc-a550-1c1c7845fddd","resource":{"resourceType":"Practitioner","id":"108d86ef-6677-48dc-a550-1c1c7845fddd","identifier":[{"system":"http://hl7.org/fhir/sid/us-npi","value":"123456"}],"name":[{"family":"Evil","prefix":["Dr"]}]},"request":{"method":"PUT","url":"Practitioner/108d86ef-6677-48dc-a550-1c1c7845fddd"}},{"fullUrl":"https://madie.cms.gov/MeasureReport/a810c0a2-fe43-4125-8042-02c96bbf2edf","resource":{"resourceType":"MeasureReport","id":"a810c0a2-fe43-4125-8042-02c96bbf2edf","meta":{"profile":["http://hl7.org/fhir/us/cqfmeasures/StructureDefinition/test-case-cqfm"]},"contained":[{"resourceType":"Parameters","id":"cc3814eb-ef0b-4891-bd4f-4abbb92835ec-parameters","parameter":[{"name":"subject","valueString":"47b12717-f90f-406a-a114-16fddfbaf8c2"}]}],"extension":[{"url":"http://hl7.org/fhir/StructureDefinition/cqf-inputParameters","valueReference":{"reference":"#cc3814eb-ef0b-4891-bd4f-4abbb92835ec-parameters"}},{"url":"http://hl7.org/fhir/us/cqfmeasures/StructureDefinition/cqfm-testCaseDescription","valueMarkdown":"Enc Principal diagnosis not in value set ( is Afib/Flutter)\n"}],"modifierExtension":[{"url":"http://hl7.org/fhir/us/cqfmeasures/StructureDefinition/cqfm-isTestCase","valueBoolean":true}],"status":"complete","type":"individual","measure":"https://madie.cms.gov/Measure/CMS72FHIRSTKAntithromboticDay2","period":{"start":"2026-01-01","end":"2026-12-31"},"group":[{"id":"Group_1","population":[{"id":"InitialPopulation_1","code":{"coding":[{"system":"http://terminology.hl7.org/CodeSystem/measure-population","code":"initial-population","display":"Initial Population"}]},"count":0},{"id":"Denominator_1","code":{"coding":[{"system":"http://terminology.hl7.org/CodeSystem/measure-population","code":"denominator","display":"Denominator"}]},"count":0},{"id":"DenominatorExclusion_1","code":{"coding":[{"system":"http://terminology.hl7.org/CodeSystem/measure-population","code":"denominator-exclusion","display":"Denominator Exclusion"}]},"count":0},{"id":"Numerator_1","code":{"coding":[{"system":"http://terminology.hl7.org/CodeSystem/measure-population","code":"numerator","display":"Numerator"}]},"count":0},{"id":"DenominatorException_1","code":{"coding":[{"system":"http://terminology.hl7.org/CodeSystem/measure-population","code":"denominator-exception","display":"Denominator Exception"}]},"count":0}],"measureScore":{"value":0.0}}],"evaluatedResource":[{"reference":"Patient/47b12717-f90f-406a-a114-16fddfbaf8c2"},{"reference":"Encounter/7d7d7e89-26b3-4b2a-b94f-d25928407749"},{"reference":"Claim/5ca62962b8484628b8de1ec5"},{"reference":"Coverage/400e2a49-37bf-4dc6-a2ad-2edfb6526568"},{"reference":"Organization/248b8aa6-38e5-418f-9c8f-5e35607c96be"},{"reference":"Practitioner/108d86ef-6677-48dc-a550-1c1c7845fddd"}]},"request":{"method":"PUT","url":"MeasureReport/a810c0a2-fe43-4125-8042-02c96bbf2edf"}}]},"request":{"method":"PUT","url":"Bundle/60f82c2e98086b570510e271"}},{"resource":{"resourceType":"Patient","id":"47b12717-f90f-406a-a114-16fddfbaf8c2","meta":{"profile":["http://hl7.org/fhir/us/qicore/StructureDefinition/qicore-patient"]},"text":{"status":"generated","div":"<div xmlns=\"http://www.w3.org/1999/xhtml\"><div class=\"hapiHeaderText\">EncPrinDx=Afib/Flutter <b>IPPFAIL </b></div><table class=\"hapiPropertyTable\"><tbody><tr><td>Identifier</td><td>6b4f64b42db275e27090e0e95feaf581</td></tr><tr><td>Date of birth</td><td><span>01 December 1960</span></td></tr></tbody></table></div>"},"extension":[{"url":"http://hl7.org/fhir/us/core/StructureDefinition/us-core-race","extension":[{"url":"ombCategory","valueCoding":{"system":"urn:oid:2.16.840.1.113883.6.238","code":"1002-5","display":"American Indian or Alaska Native","userSelected":true}},{"url":"text","valueString":"American Indian or Alaska Native"}]},{"url":"http://hl7.org/fhir/us/core/StructureDefinition/us-core-ethnicity","extension":[{"url":"ombCategory","valueCoding":{"system":"urn:oid:2.16.840.1.113883.6.238","code":"2135-2","display":"Hispanic or Latino","userSelected":true}},{"url":"text","valueString":"Hispanic or Latino"}]}],"identifier":[{"type":{"coding":[{"system":"http://terminology.hl7.org/CodeSystem/v2-0203","code":"MR"}]},"system":"https://bonnie-fhir.healthit.gov/","value":"60f82c2e98086b570510e271"}],"active":true,"name":[{"use":"usual","family":"IPPFail","given":["EncPrinDxAfibFlutter"]}],"gender":"male","birthDate":"1961-12-01"},"request":{"method":"PUT","url":"Patient/47b12717-f90f-406a-a114-16fddfbaf8c2"}},{"resource":{"resourceType":"MeasureReport","id":"a810c0a2-fe43-4125-8042-02c96bbf2edf","meta":{"profile":["http://hl7.org/fhir/us/cqfmeasures/StructureDefinition/test-case-cqfm"]},"contained":[{"resourceType":"Parameters","id":"cc3814eb-ef0b-4891-bd4f-4abbb92835ec-parameters","parameter":[{"name":"subject","valueString":"47b12717-f90f-406a-a114-16fddfbaf8c2"}]}],"extension":[{"url":"http://hl7.org/fhir/StructureDefinition/cqf-inputParameters","valueReference":{"reference":"#cc3814eb-ef0b-4891-bd4f-4abbb92835ec-parameters"}},{"url":"http://hl7.org/fhir/us/cqfmeasures/StructureDefinition/cqfm-testCaseDescription","valueMarkdown":"Enc Principal diagnosis not in value set ( is Afib/Flutter)\n"}],"modifierExtension":[{"url":"http://hl7.org/fhir/us/cqfmeasures/StructureDefinition/cqfm-isTestCase","valueBoolean":true}],"status":"complete","type":"individual","measure":"https://madie.cms.gov/Measure/CMS72FHIRSTKAntithromboticDay2","period":{"start":"2026-01-01","end":"2026-12-31"},"group":[{"id":"Group_1","population":[{"id":"InitialPopulation_1","code":{"coding":[{"system":"http://terminology.hl7.org/CodeSystem/measure-population","code":"initial-population","display":"Initial Population"}]},"count":0},{"id":"Denominator_1","code":{"coding":[{"system":"http://terminology.hl7.org/CodeSystem/measure-population","code":"denominator","display":"Denominator"}]},"count":0},{"id":"DenominatorExclusion_1","code":{"coding":[{"system":"http://terminology.hl7.org/CodeSystem/measure-population","code":"denominator-exclusion","display":"Denominator Exclusion"}]},"count":0},{"id":"Numerator_1","code":{"coding":[{"system":"http://terminology.hl7.org/CodeSystem/measure-population","code":"numerator","display":"Numerator"}]},"count":0},{"id":"DenominatorException_1","code":{"coding":[{"system":"http://terminology.hl7.org/CodeSystem/measure-population","code":"denominator-exception","display":"Denominator Exception"}]},"count":0}],"measureScore":{"value":0.0}}],"evaluatedResource":[{"reference":"Patient/47b12717-f90f-406a-a114-16fddfbaf8c2"},{"reference":"Encounter/7d7d7e89-26b3-4b2a-b94f-d25928407749"},{"reference":"Claim/5ca62962b8484628b8de1ec5"},{"reference":"Coverage/400e2a49-37bf-4dc6-a2ad-2edfb6526568"},{"reference":"Organization/248b8aa6-38e5-418f-9c8f-5e35607c96be"},{"reference":"Practitioner/108d86ef-6677-48dc-a550-1c1c7845fddd"}]},"request":{"method":"PUT","url":"MeasureReport/a810c0a2-fe43-4125-8042-02c96bbf2edf"}},{"resource":{"resourceType":"Coverage","id":"400e2a49-37bf-4dc6-a2ad-2edfb6526568","status":"active","beneficiary":{"reference":"Patient/47b12717-f90f-406a-a114-16fddfbaf8c2"},"period":{"start":"1961-12-01T08:00:00Z"},"payor":[{"reference":"Organization/248b8aa6-38e5-418f-9c8f-5e35607c96be"}]},"request":{"method":"PUT","url":"Coverage/400e2a49-37bf-4dc6-a2ad-2edfb6526568"}},{"resource":{"resourceType":"Organization","id":"248b8aa6-38e5-418f-9c8f-5e35607c96be","meta":{"profile":["http://hl7.org/fhir/us/qicore/StructureDefinition/qicore-organization"]},"identifier":[{"use":"temp","system":"urn:oid:2.16.840.1.113883.4.4","value":"21-3259825"}],"active":true,"type":[{"coding":[{"system":"http://terminology.hl7.org/CodeSystem/organization-type","code":"pay","display":"Payer"}]}],"name":"Blue Cross Blue Shield of Texas","telecom":[{"system":"phone","value":"(+1) 972-766-6900"}],"address":[{"use":"billing","type":"postal","line":["P.O. Box 660044"],"city":"Dallas","state":"TX","postalCode":"75266-0044","country":"USA"}]},"request":{"method":"PUT","url":"Organization/248b8aa6-38e5-418f-9c8f-5e35607c96be"}},{"resource":{"resourceType":"Encounter","id":"7d7d7e89-26b3-4b2a-b94f-d25928407749","meta":{"profile":["http://hl7.org/fhir/us/qicore/StructureDefinition/qicore-encounter"]},"status":"finished","class":{"system":"http://terminology.hl7.org/CodeSystem/v3-ActCode","code":"IMP","display":"inpatient encounter"},"type":[{"coding":[{"system":"http://snomed.info/sct","code":"32485007"}]}],"subject":{"reference":"Patient/47b12717-f90f-406a-a114-16fddfbaf8c2"},"period":{"start":"2026-02-08T08:00:00Z","end":"2026-02-10T08:15:00.000+00:00"},"length":{"value":2,"unit":"days"},"reasonReference":[{"reference":"Condition/atrial-fibrillation-flutter-f80a"}]},"request":{"method":"PUT","url":"Encounter/7d7d7e89-26b3-4b2a-b94f-d25928407749"}},{"resource":{"resourceType":"Practitioner","id":"108d86ef-6677-48dc-a550-1c1c7845fddd","identifier":[{"system":"http://hl7.org/fhir/sid/us-npi","value":"123456"}],"name":[{"family":"Evil","prefix":["Dr"]}]},"request":{"method":"PUT","url":"Practitioner/108d86ef-6677-48dc-a550-1c1c7845fddd"}},{"resource":{"resourceType":"Claim","id":"5ca62962b8484628b8de1ec5","meta":{"profile":["http://hl7.org/fhir/us/qicore/StructureDefinition/qicore-claim"]},"status":"active","type":{"coding":[{"system":"http://terminology.hl7.org/CodeSystem/claim-type","code":"institutional"}]},"use":"claim","patient":{"reference":"Patient/47b12717-f90f-406a-a114-16fddfbaf8c2"},"created":"2026-12-01","provider":{"reference":"Practitioner/108d86ef-6677-48dc-a550-1c1c7845fddd"},"priority":{"coding":[{"system":"http://terminology.hl7.org/CodeSystem/processpriority","code":"normal"}]},"diagnosis":[{"sequence":1,"diagnosisCodeableConcept":{"coding":[{"system":"http://hl7.org/fhir/sid/icd-10-cm","code":"I48.91"}]},"type":[{"coding":[{"system":"http://terminology.hl7.org/CodeSystem/ex-diagnosistype","code":"principal"}]}]}],"insurance":[{"sequence":1,"focal":true,"coverage":{"reference":"Coverage/5fa041661c76ba66d9959367"}}],"item":[{"sequence":1,"diagnosisSequence":[1],"productOrService":{"coding":[{"system":"http://terminology.hl7.org/CodeSystem/ex-USCLS","code":"99555"}]},"encounter":[{"reference":"Encounter/7d7d7e89-26b3-4b2a-b94f-d25928407749"}]}]},"request":{"method":"PUT","url":"Claim/5ca62962b8484628b8de1ec5"}}]}