{"resourceType":"Bundle","id":"tests-a1a37483-1a67-4dd9-a8ca-b4d49a28a19d-bundle","type":"transaction","entry":[{"resource":{"resourceType":"MeasureReport","id":"ffc8fbf2-7c25-487c-8539-52bb80102744","meta":{"profile":["http://hl7.org/fhir/us/cqfmeasures/StructureDefinition/test-case-cqfm"]},"contained":[{"resourceType":"Parameters","id":"4704c73b-5f93-4c62-b1df-ebe0064300fb-parameters","parameter":[{"name":"subject","valueString":"a1a37483-1a67-4dd9-a8ca-b4d49a28a19d"}]}],"extension":[{"url":"http://hl7.org/fhir/StructureDefinition/cqf-inputParameters","valueReference":{"reference":"#4704c73b-5f93-4c62-b1df-ebe0064300fb-parameters"}},{"url":"http://hl7.org/fhir/us/cqfmeasures/StructureDefinition/cqfm-testCaseDescription","valueMarkdown":"antithrombotic order not done due to patient refusal = 1 day after IP encounter starts AND NOT ED visit\n"}],"modifierExtension":[{"url":"http://hl7.org/fhir/us/cqfmeasures/StructureDefinition/cqfm-isTestCase","valueBoolean":true}],"status":"complete","type":"individual","measure":"https://madie.cms.gov/Measure/CMS72FHIRSTKAntithromboticDay2","period":{"start":"2026-01-01","end":"2026-12-31"},"group":[{"id":"Group_1","population":[{"id":"InitialPopulation_1","code":{"coding":[{"system":"http://terminology.hl7.org/CodeSystem/measure-population","code":"initial-population","display":"Initial Population"}]},"count":1},{"id":"Denominator_1","code":{"coding":[{"system":"http://terminology.hl7.org/CodeSystem/measure-population","code":"denominator","display":"Denominator"}]},"count":1},{"id":"DenominatorExclusion_1","code":{"coding":[{"system":"http://terminology.hl7.org/CodeSystem/measure-population","code":"denominator-exclusion","display":"Denominator Exclusion"}]},"count":0},{"id":"Numerator_1","code":{"coding":[{"system":"http://terminology.hl7.org/CodeSystem/measure-population","code":"numerator","display":"Numerator"}]},"count":0},{"id":"DenominatorException_1","code":{"coding":[{"system":"http://terminology.hl7.org/CodeSystem/measure-population","code":"denominator-exception","display":"Denominator Exception"}]},"count":1}],"measureScore":{"value":0.0}}],"evaluatedResource":[{"reference":"Patient/a1a37483-1a67-4dd9-a8ca-b4d49a28a19d"},{"reference":"Encounter/a05b7fdc-b221-4ff4-94d3-3b611560fb76"},{"reference":"Claim/5ca62962b8484628b8de1ec5"},{"reference":"MedicationAdministration/c3bed92c-4544-4ee8-ba4a-93a2e7812f2c"},{"reference":"Coverage/b24fabb9-00de-4396-90a4-c2c6446b63be"},{"reference":"Condition/e1341c70-bb3a-4498-9b78-9c4a6b81bbf2"},{"reference":"Organization/f7488e25-bbde-4967-b86d-46926842a64b"}]},"request":{"method":"PUT","url":"MeasureReport/ffc8fbf2-7c25-487c-8539-52bb80102744"}},{"resource":{"resourceType":"Bundle","id":"60f82c2e98086b570510e296","type":"transaction","entry":[{"fullUrl":"https://madie.cms.gov/Patient/a1a37483-1a67-4dd9-a8ca-b4d49a28a19d","resource":{"resourceType":"Patient","id":"a1a37483-1a67-4dd9-a8ca-b4d49a28a19d","meta":{"profile":["http://hl7.org/fhir/us/qicore/StructureDefinition/qicore-patient"]},"text":{"status":"generated","div":"<div xmlns=\"http://www.w3.org/1999/xhtml\"><div class=\"hapiHeaderText\">MedAdmPatRefus_eq1dayduringEncIP <b>DENEXCEPPASS </b></div><table class=\"hapiPropertyTable\"><tbody><tr><td>Identifier</td><td>010e27e50a0e91003709500e7c217129</td></tr><tr><td>Date of birth</td><td><span>26 September 1975</span></td></tr></tbody></table></div>"},"extension":[{"url":"http://hl7.org/fhir/us/core/StructureDefinition/us-core-race","extension":[{"url":"ombCategory","valueCoding":{"system":"urn:oid:2.16.840.1.113883.6.238","code":"2054-5","display":"Black or African American","userSelected":true}},{"url":"text","valueString":"Black or African American"}]},{"url":"http://hl7.org/fhir/us/core/StructureDefinition/us-core-ethnicity","extension":[{"url":"ombCategory","valueCoding":{"system":"urn:oid:2.16.840.1.113883.6.238","code":"2186-5","display":"Not Hispanic or Latino","userSelected":true}},{"url":"text","valueString":"Not Hispanic or Latino"}]}],"identifier":[{"type":{"coding":[{"system":"http://terminology.hl7.org/CodeSystem/v2-0203","code":"MR"}]},"system":"https://bonnie-fhir.healthit.gov/","value":"60f82c2e98086b570510e296"}],"active":true,"name":[{"use":"usual","family":"DENEXCEPPass","given":["MedAdmPatRefus_eq1dayduringEncIP"]}],"gender":"female","birthDate":"1976-09-26"},"request":{"method":"PUT","url":"Patient/a1a37483-1a67-4dd9-a8ca-b4d49a28a19d"}},{"fullUrl":"https://madie.cms.gov/Encounter/a05b7fdc-b221-4ff4-94d3-3b611560fb76","resource":{"resourceType":"Encounter","id":"a05b7fdc-b221-4ff4-94d3-3b611560fb76","meta":{"profile":["http://hl7.org/fhir/us/qicore/StructureDefinition/qicore-encounter"]},"status":"finished","class":{"system":"http://terminology.hl7.org/CodeSystem/v3-ActCode","code":"IMP","display":"inpatient encounter","userSelected":true},"type":[{"coding":[{"system":"http://snomed.info/sct","code":"32485007"}]}],"subject":{"reference":"Patient/a1a37483-1a67-4dd9-a8ca-b4d49a28a19d"},"period":{"start":"2026-10-10T09:00:00Z","end":"2026-10-12T11:15:00.000+00:00"},"length":{"value":2,"unit":"days"},"reasonReference":[{"reference":"Condition/e1341c70-bb3a-4498-9b78-9c4a6b81bbf2"}]},"request":{"method":"PUT","url":"Encounter/a05b7fdc-b221-4ff4-94d3-3b611560fb76"}},{"fullUrl":"https://madie.cms.gov/claim/5ca62962b8484628b8de1ec5","resource":{"resourceType":"Claim","id":"5ca62962b8484628b8de1ec5","meta":{"profile":["http://hl7.org/fhir/us/qicore/StructureDefinition/qicore-claim"]},"status":"active","type":{"coding":[{"system":"http://terminology.hl7.org/CodeSystem/claim-type","code":"institutional"}]},"use":"claim","patient":{"reference":"Patient/d170a0a8-b5ad-4303-b6df-e304dd5f92ad"},"created":"2026-12-01","provider":{"reference":"Practitioner/practitioner-123456"},"priority":{"coding":[{"system":"http://terminology.hl7.org/CodeSystem/processpriority","code":"normal"}]},"diagnosis":[{"sequence":1,"diagnosisCodeableConcept":{"coding":[{"system":"http://hl7.org/fhir/sid/icd-10-cm","code":"I63.00"}]},"type":[{"coding":[{"system":"http://terminology.hl7.org/CodeSystem/ex-diagnosistype","code":"principal"}]}]}],"insurance":[{"sequence":1,"focal":true,"coverage":{"reference":"Coverage/5fa041661c76ba66d9959367"}}],"item":[{"sequence":1,"diagnosisSequence":[1],"productOrService":{"coding":[{"system":"http://terminology.hl7.org/CodeSystem/ex-USCLS","code":"99555"}]},"encounter":[{"reference":"Encounter/a05b7fdc-b221-4ff4-94d3-3b611560fb76"}]}]},"request":{"method":"PUT","url":"Claim/5ca62962b8484628b8de1ec5"}},{"fullUrl":"https://madie.cms.gov/MedicationAdministration/c3bed92c-4544-4ee8-ba4a-93a2e7812f2c","resource":{"resourceType":"MedicationAdministration","id":"c3bed92c-4544-4ee8-ba4a-93a2e7812f2c","meta":{"profile":["http://hl7.org/fhir/us/qicore/StructureDefinition/qicore-medicationadministrationnotdone"]},"extension":[{"url":"http://hl7.org/fhir/us/qicore/StructureDefinition/qicore-recorded","valueDateTime":"2026-10-11T09:00:00Z"}],"status":"not-done","statusReason":[{"coding":[{"system":"http://snomed.info/sct","code":"443390004","display":"Refused"}]}],"medicationCodeableConcept":{"coding":[{"system":"http://www.nlm.nih.gov/research/umls/rxnorm","code":"1037045"}]},"subject":{"reference":"Patient/a1a37483-1a67-4dd9-a8ca-b4d49a28a19d"},"effectivePeriod":{"start":"2026-10-11T09:00:00Z"}},"request":{"method":"PUT","url":"MedicationAdministration/c3bed92c-4544-4ee8-ba4a-93a2e7812f2c"}},{"fullUrl":"https://madie.cms.gov/Coverage/b24fabb9-00de-4396-90a4-c2c6446b63be","resource":{"resourceType":"Coverage","id":"b24fabb9-00de-4396-90a4-c2c6446b63be","status":"active","subscriberId":"523435","beneficiary":{"reference":"Patient/a1a37483-1a67-4dd9-a8ca-b4d49a28a19d"},"relationship":{"coding":[{"system":"http://terminology.hl7.org/CodeSystem/subscriber-relationship","code":"self"}]},"period":{"start":"1976-09-26T08:00:00Z"},"payor":[{"reference":"Organization/f7488e25-bbde-4967-b86d-46926842a64b"}]},"request":{"method":"PUT","url":"Coverage/b24fabb9-00de-4396-90a4-c2c6446b63be"}},{"fullUrl":"https://madie.cms.gov/Condition/e1341c70-bb3a-4498-9b78-9c4a6b81bbf2","resource":{"resourceType":"Condition","id":"e1341c70-bb3a-4498-9b78-9c4a6b81bbf2","meta":{"profile":["http://hl7.org/fhir/us/qicore/StructureDefinition/qicore-condition-encounter-diagnosis"]},"clinicalStatus":{"coding":[{"system":"http://terminology.hl7.org/CodeSystem/condition-clinical","code":"active"}]},"verificationStatus":{"coding":[{"system":"http://terminology.hl7.org/CodeSystem/condition-ver-status","code":"confirmed"}]},"category":[{"coding":[{"system":"http://terminology.hl7.org/CodeSystem/condition-category","code":"encounter-diagnosis","display":"Encounter Diagnosis"}]}],"code":{"coding":[{"system":"http://snomed.info/sct","version":"2020-09","code":"111297002","display":"Nonparalytic stroke (disorder)","userSelected":true}]},"subject":{"reference":"Patient/a1a37483-1a67-4dd9-a8ca-b4d49a28a19d"},"recordedDate":"2026-08-06T08:00:00Z"},"request":{"method":"PUT","url":"Condition/e1341c70-bb3a-4498-9b78-9c4a6b81bbf2"}},{"fullUrl":"https://madie.cms.gov/Organization/f7488e25-bbde-4967-b86d-46926842a64b","resource":{"resourceType":"Organization","id":"f7488e25-bbde-4967-b86d-46926842a64b","meta":{"profile":["http://hl7.org/fhir/us/qicore/StructureDefinition/qicore-organization"]},"identifier":[{"use":"temp","system":"urn:oid:2.16.840.1.113883.4.4","value":"21-3259825"}],"active":true,"type":[{"coding":[{"system":"http://terminology.hl7.org/CodeSystem/organization-type","code":"pay","display":"Payer"}]}],"name":"Blue Cross Blue Shield of Texas","telecom":[{"system":"phone","value":"(+1) 972-766-6900"}],"address":[{"use":"billing","type":"postal","line":["P.O. Box 660044"],"city":"Dallas","state":"TX","postalCode":"75266-0044","country":"USA"}]},"request":{"method":"PUT","url":"Organization/f7488e25-bbde-4967-b86d-46926842a64b"}},{"fullUrl":"https://madie.cms.gov/MeasureReport/ffc8fbf2-7c25-487c-8539-52bb80102744","resource":{"resourceType":"MeasureReport","id":"ffc8fbf2-7c25-487c-8539-52bb80102744","meta":{"profile":["http://hl7.org/fhir/us/cqfmeasures/StructureDefinition/test-case-cqfm"]},"contained":[{"resourceType":"Parameters","id":"4704c73b-5f93-4c62-b1df-ebe0064300fb-parameters","parameter":[{"name":"subject","valueString":"a1a37483-1a67-4dd9-a8ca-b4d49a28a19d"}]}],"extension":[{"url":"http://hl7.org/fhir/StructureDefinition/cqf-inputParameters","valueReference":{"reference":"#4704c73b-5f93-4c62-b1df-ebe0064300fb-parameters"}},{"url":"http://hl7.org/fhir/us/cqfmeasures/StructureDefinition/cqfm-testCaseDescription","valueMarkdown":"antithrombotic order not done due to patient refusal = 1 day after IP encounter starts AND NOT ED visit\n"}],"modifierExtension":[{"url":"http://hl7.org/fhir/us/cqfmeasures/StructureDefinition/cqfm-isTestCase","valueBoolean":true}],"status":"complete","type":"individual","measure":"https://madie.cms.gov/Measure/CMS72FHIRSTKAntithromboticDay2","period":{"start":"2026-01-01","end":"2026-12-31"},"group":[{"id":"Group_1","population":[{"id":"InitialPopulation_1","code":{"coding":[{"system":"http://terminology.hl7.org/CodeSystem/measure-population","code":"initial-population","display":"Initial Population"}]},"count":1},{"id":"Denominator_1","code":{"coding":[{"system":"http://terminology.hl7.org/CodeSystem/measure-population","code":"denominator","display":"Denominator"}]},"count":1},{"id":"DenominatorExclusion_1","code":{"coding":[{"system":"http://terminology.hl7.org/CodeSystem/measure-population","code":"denominator-exclusion","display":"Denominator Exclusion"}]},"count":0},{"id":"Numerator_1","code":{"coding":[{"system":"http://terminology.hl7.org/CodeSystem/measure-population","code":"numerator","display":"Numerator"}]},"count":0},{"id":"DenominatorException_1","code":{"coding":[{"system":"http://terminology.hl7.org/CodeSystem/measure-population","code":"denominator-exception","display":"Denominator Exception"}]},"count":1}],"measureScore":{"value":0.0}}],"evaluatedResource":[{"reference":"Patient/a1a37483-1a67-4dd9-a8ca-b4d49a28a19d"},{"reference":"Encounter/a05b7fdc-b221-4ff4-94d3-3b611560fb76"},{"reference":"Claim/5ca62962b8484628b8de1ec5"},{"reference":"MedicationAdministration/c3bed92c-4544-4ee8-ba4a-93a2e7812f2c"},{"reference":"Coverage/b24fabb9-00de-4396-90a4-c2c6446b63be"},{"reference":"Condition/e1341c70-bb3a-4498-9b78-9c4a6b81bbf2"},{"reference":"Organization/f7488e25-bbde-4967-b86d-46926842a64b"}]},"request":{"method":"PUT","url":"MeasureReport/ffc8fbf2-7c25-487c-8539-52bb80102744"}}]},"request":{"method":"PUT","url":"Bundle/60f82c2e98086b570510e296"}},{"resource":{"resourceType":"Patient","id":"a1a37483-1a67-4dd9-a8ca-b4d49a28a19d","meta":{"profile":["http://hl7.org/fhir/us/qicore/StructureDefinition/qicore-patient"]},"text":{"status":"generated","div":"<div xmlns=\"http://www.w3.org/1999/xhtml\"><div class=\"hapiHeaderText\">MedAdmPatRefus_eq1dayduringEncIP <b>DENEXCEPPASS </b></div><table class=\"hapiPropertyTable\"><tbody><tr><td>Identifier</td><td>010e27e50a0e91003709500e7c217129</td></tr><tr><td>Date of birth</td><td><span>26 September 1975</span></td></tr></tbody></table></div>"},"extension":[{"url":"http://hl7.org/fhir/us/core/StructureDefinition/us-core-race","extension":[{"url":"ombCategory","valueCoding":{"system":"urn:oid:2.16.840.1.113883.6.238","code":"2054-5","display":"Black or African American","userSelected":true}},{"url":"text","valueString":"Black or African American"}]},{"url":"http://hl7.org/fhir/us/core/StructureDefinition/us-core-ethnicity","extension":[{"url":"ombCategory","valueCoding":{"system":"urn:oid:2.16.840.1.113883.6.238","code":"2186-5","display":"Not Hispanic or Latino","userSelected":true}},{"url":"text","valueString":"Not Hispanic or Latino"}]}],"identifier":[{"type":{"coding":[{"system":"http://terminology.hl7.org/CodeSystem/v2-0203","code":"MR"}]},"system":"https://bonnie-fhir.healthit.gov/","value":"60f82c2e98086b570510e296"}],"active":true,"name":[{"use":"usual","family":"DENEXCEPPass","given":["MedAdmPatRefus_eq1dayduringEncIP"]}],"gender":"female","birthDate":"1976-09-26"},"request":{"method":"PUT","url":"Patient/a1a37483-1a67-4dd9-a8ca-b4d49a28a19d"}},{"resource":{"resourceType":"Condition","id":"e1341c70-bb3a-4498-9b78-9c4a6b81bbf2","meta":{"profile":["http://hl7.org/fhir/us/qicore/StructureDefinition/qicore-condition-encounter-diagnosis"]},"clinicalStatus":{"coding":[{"system":"http://terminology.hl7.org/CodeSystem/condition-clinical","code":"active"}]},"verificationStatus":{"coding":[{"system":"http://terminology.hl7.org/CodeSystem/condition-ver-status","code":"confirmed"}]},"category":[{"coding":[{"system":"http://terminology.hl7.org/CodeSystem/condition-category","code":"encounter-diagnosis","display":"Encounter Diagnosis"}]}],"code":{"coding":[{"system":"http://snomed.info/sct","version":"2020-09","code":"111297002","display":"Nonparalytic stroke (disorder)","userSelected":true}]},"subject":{"reference":"Patient/a1a37483-1a67-4dd9-a8ca-b4d49a28a19d"},"recordedDate":"2026-08-06T08:00:00Z"},"request":{"method":"PUT","url":"Condition/e1341c70-bb3a-4498-9b78-9c4a6b81bbf2"}},{"resource":{"resourceType":"Organization","id":"f7488e25-bbde-4967-b86d-46926842a64b","meta":{"profile":["http://hl7.org/fhir/us/qicore/StructureDefinition/qicore-organization"]},"identifier":[{"use":"temp","system":"urn:oid:2.16.840.1.113883.4.4","value":"21-3259825"}],"active":true,"type":[{"coding":[{"system":"http://terminology.hl7.org/CodeSystem/organization-type","code":"pay","display":"Payer"}]}],"name":"Blue Cross Blue Shield of Texas","telecom":[{"system":"phone","value":"(+1) 972-766-6900"}],"address":[{"use":"billing","type":"postal","line":["P.O. Box 660044"],"city":"Dallas","state":"TX","postalCode":"75266-0044","country":"USA"}]},"request":{"method":"PUT","url":"Organization/f7488e25-bbde-4967-b86d-46926842a64b"}},{"resource":{"resourceType":"Coverage","id":"b24fabb9-00de-4396-90a4-c2c6446b63be","status":"active","subscriberId":"523435","beneficiary":{"reference":"Patient/a1a37483-1a67-4dd9-a8ca-b4d49a28a19d"},"relationship":{"coding":[{"system":"http://terminology.hl7.org/CodeSystem/subscriber-relationship","code":"self"}]},"period":{"start":"1976-09-26T08:00:00Z"},"payor":[{"reference":"Organization/f7488e25-bbde-4967-b86d-46926842a64b"}]},"request":{"method":"PUT","url":"Coverage/b24fabb9-00de-4396-90a4-c2c6446b63be"}},{"resource":{"resourceType":"Encounter","id":"a05b7fdc-b221-4ff4-94d3-3b611560fb76","meta":{"profile":["http://hl7.org/fhir/us/qicore/StructureDefinition/qicore-encounter"]},"status":"finished","class":{"system":"http://terminology.hl7.org/CodeSystem/v3-ActCode","code":"IMP","display":"inpatient encounter","userSelected":true},"type":[{"coding":[{"system":"http://snomed.info/sct","code":"32485007"}]}],"subject":{"reference":"Patient/a1a37483-1a67-4dd9-a8ca-b4d49a28a19d"},"period":{"start":"2026-10-10T09:00:00Z","end":"2026-10-12T11:15:00.000+00:00"},"length":{"value":2,"unit":"days"},"reasonReference":[{"reference":"Condition/e1341c70-bb3a-4498-9b78-9c4a6b81bbf2"}]},"request":{"method":"PUT","url":"Encounter/a05b7fdc-b221-4ff4-94d3-3b611560fb76"}},{"resource":{"resourceType":"MedicationAdministration","id":"c3bed92c-4544-4ee8-ba4a-93a2e7812f2c","meta":{"profile":["http://hl7.org/fhir/us/qicore/StructureDefinition/qicore-medicationadministrationnotdone"]},"extension":[{"url":"http://hl7.org/fhir/us/qicore/StructureDefinition/qicore-recorded","valueDateTime":"2026-10-11T09:00:00Z"}],"status":"not-done","statusReason":[{"coding":[{"system":"http://snomed.info/sct","code":"443390004","display":"Refused"}]}],"medicationCodeableConcept":{"coding":[{"system":"http://www.nlm.nih.gov/research/umls/rxnorm","code":"1037045"}]},"subject":{"reference":"Patient/a1a37483-1a67-4dd9-a8ca-b4d49a28a19d"},"effectivePeriod":{"start":"2026-10-11T09:00:00Z"}},"request":{"method":"PUT","url":"MedicationAdministration/c3bed92c-4544-4ee8-ba4a-93a2e7812f2c"}},{"resource":{"resourceType":"Claim","id":"5ca62962b8484628b8de1ec5","meta":{"profile":["http://hl7.org/fhir/us/qicore/StructureDefinition/qicore-claim"]},"status":"active","type":{"coding":[{"system":"http://terminology.hl7.org/CodeSystem/claim-type","code":"institutional"}]},"use":"claim","patient":{"reference":"Patient/d170a0a8-b5ad-4303-b6df-e304dd5f92ad"},"created":"2026-12-01","provider":{"reference":"Practitioner/practitioner-123456"},"priority":{"coding":[{"system":"http://terminology.hl7.org/CodeSystem/processpriority","code":"normal"}]},"diagnosis":[{"sequence":1,"diagnosisCodeableConcept":{"coding":[{"system":"http://hl7.org/fhir/sid/icd-10-cm","code":"I63.00"}]},"type":[{"coding":[{"system":"http://terminology.hl7.org/CodeSystem/ex-diagnosistype","code":"principal"}]}]}],"insurance":[{"sequence":1,"focal":true,"coverage":{"reference":"Coverage/5fa041661c76ba66d9959367"}}],"item":[{"sequence":1,"diagnosisSequence":[1],"productOrService":{"coding":[{"system":"http://terminology.hl7.org/CodeSystem/ex-USCLS","code":"99555"}]},"encounter":[{"reference":"Encounter/a05b7fdc-b221-4ff4-94d3-3b611560fb76"}]}]},"request":{"method":"PUT","url":"Claim/5ca62962b8484628b8de1ec5"}}]}