{
  "resourceType": "Bundle",
  "id": "612e6eb302c62a011f2ef479",
  "type": "transaction",
  "entry": [ {
    "fullUrl": "https://madie.cms.gov/Patient/eea9698a-bf0d-4128-afc2-a646062acbef",
    "resource": {
      "resourceType": "Patient",
      "id": "eea9698a-bf0d-4128-afc2-a646062acbef",
      "meta": {
        "profile": [ "http://hl7.org/fhir/us/qicore/StructureDefinition/qicore-patient" ]
      },
      "text": {
        "status": "generated",
        "div": "<div xmlns=\"http://www.w3.org/1999/xhtml\"><div class=\"hapiHeaderText\">ComfortMeasures1MinB4ICU <b>DENEXPASS </b></div><table class=\"hapiPropertyTable\"><tbody><tr><td>Identifier</td><td>1d0273693925f8e335ce9eb65ed102e1</td></tr><tr><td>Date of birth</td><td><span>03 March 1974</span></td></tr></tbody></table></div>"
      },
      "extension": [ {
        "url": "http://hl7.org/fhir/us/core/StructureDefinition/us-core-race",
        "extension": [ {
          "url": "ombCategory",
          "valueCoding": {
            "system": "urn:oid:2.16.840.1.113883.6.238",
            "code": "1002-5",
            "display": "American Indian or Alaska Native",
            "userSelected": true
          }
        }, {
          "url": "text",
          "valueString": "American Indian or Alaska Native"
        } ]
      }, {
        "url": "http://hl7.org/fhir/us/core/StructureDefinition/us-core-ethnicity",
        "extension": [ {
          "url": "ombCategory",
          "valueCoding": {
            "system": "urn:oid:2.16.840.1.113883.6.238",
            "code": "2135-2",
            "display": "Hispanic or Latino",
            "userSelected": true
          }
        }, {
          "url": "text",
          "valueString": "Hispanic or Latino"
        } ]
      } ],
      "identifier": [ {
        "type": {
          "coding": [ {
            "system": "http://terminology.hl7.org/CodeSystem/v2-0203",
            "code": "MR"
          } ]
        },
        "system": "https://bonnie-fhir.healthit.gov/",
        "value": "612e6eb302c62a011f2ef479"
      } ],
      "active": true,
      "name": [ {
        "use": "usual",
        "family": "DENEXPass",
        "given": [ "ComfortMeasures1MinB4ICU" ]
      } ],
      "gender": "female",
      "birthDate": "1975-03-03"
    },
    "request": {
      "method": "PUT",
      "url": "Patient/eea9698a-bf0d-4128-afc2-a646062acbef"
    }
  }, {
    "fullUrl": "https://madie.cms.gov/Encounter/398fdfbb-8ef3-4763-a065-e313c6daad05",
    "resource": {
      "resourceType": "Encounter",
      "id": "398fdfbb-8ef3-4763-a065-e313c6daad05",
      "meta": {
        "profile": [ "http://hl7.org/fhir/us/qicore/StructureDefinition/qicore-encounter" ]
      },
      "status": "finished",
      "class": {
        "system": "http://terminology.hl7.org/CodeSystem/v3-ActCode",
        "code": "IMP",
        "display": "inpatient encounter"
      },
      "type": [ {
        "coding": [ {
          "system": "http://snomed.info/sct",
          "code": "8715000"
        } ]
      } ],
      "subject": {
        "reference": "Patient/eea9698a-bf0d-4128-afc2-a646062acbef"
      },
      "period": {
        "start": "2026-12-04T08:00:00.000+00:00",
        "end": "2026-12-30T08:15:00.000+00:00"
      },
      "length": {
        "value": 26.0,
        "unit": "days"
      },
      "location": [ {
        "location": {
          "reference": "Location/6ea93bc8-270e-4254-b544-7109a131602e"
        },
        "period": {
          "start": "2026-12-04T08:00:00.000+00:00",
          "end": "2026-12-08T08:15:00.000+00:00"
        }
      } ]
    },
    "request": {
      "method": "PUT",
      "url": "Encounter/398fdfbb-8ef3-4763-a065-e313c6daad05"
    }
  }, {
    "fullUrl": "https://madie.cms.gov/ServiceRequest/9cf72110-1c88-4a56-a3d3-ec316b6fee27",
    "resource": {
      "resourceType": "ServiceRequest",
      "id": "9cf72110-1c88-4a56-a3d3-ec316b6fee27",
      "meta": {
        "profile": [ "http://hl7.org/fhir/us/qicore/StructureDefinition/qicore-servicerequest" ]
      },
      "status": "completed",
      "intent": "order",
      "code": {
        "coding": [ {
          "system": "http://snomed.info/sct",
          "code": "133918004"
        } ]
      },
      "subject": {
        "reference": "Patient/eea9698a-bf0d-4128-afc2-a646062acbef"
      },
      "authoredOn": "2026-12-04T08:00:00.000+00:00"
    },
    "request": {
      "method": "PUT",
      "url": "ServiceRequest/9cf72110-1c88-4a56-a3d3-ec316b6fee27"
    }
  }, {
    "fullUrl": "https://madie.cms.gov/Coverage/2b6bd24c-e82c-4c61-8cae-b0a64f518f58",
    "resource": {
      "resourceType": "Coverage",
      "id": "2b6bd24c-e82c-4c61-8cae-b0a64f518f58",
      "status": "active",
      "beneficiary": {
        "reference": "Patient/eea9698a-bf0d-4128-afc2-a646062acbef"
      },
      "period": {
        "start": "1975-03-03T08:00:00.000+00:00"
      },
      "payor": [ {
        "reference": "Organization/9f0590ec-a8b1-43b3-a1dc-0306debac745"
      } ]
    },
    "request": {
      "method": "PUT",
      "url": "Coverage/2b6bd24c-e82c-4c61-8cae-b0a64f518f58"
    }
  }, {
    "fullUrl": "https://madie.cms.gov/Location/6ea93bc8-270e-4254-b544-7109a131602e",
    "resource": {
      "resourceType": "Location",
      "id": "6ea93bc8-270e-4254-b544-7109a131602e",
      "meta": {
        "profile": [ "http://hl7.org/fhir/us/qicore/StructureDefinition/qicore-location" ]
      },
      "identifier": [ {
        "use": "usual",
        "system": "http://exampleoflocation.com",
        "value": "B1-S.F2"
      } ],
      "name": "Medical Surgical East, first floor",
      "type": [ {
        "coding": [ {
          "system": "https://www.cdc.gov/nhsn/cdaportal/terminology/codesystem/hsloc.html",
          "code": "1025-6",
          "display": "Trauma Critical Care",
          "userSelected": true
        } ]
      } ]
    },
    "request": {
      "method": "PUT",
      "url": "Location/6ea93bc8-270e-4254-b544-7109a131602e"
    }
  }, {
    "fullUrl": "https://madie.cms.gov/Organization/9f0590ec-a8b1-43b3-a1dc-0306debac745",
    "resource": {
      "resourceType": "Organization",
      "id": "9f0590ec-a8b1-43b3-a1dc-0306debac745",
      "meta": {
        "profile": [ "http://hl7.org/fhir/us/qicore/StructureDefinition/qicore-organization" ]
      },
      "identifier": [ {
        "use": "temp",
        "system": "urn:oid:2.16.840.1.113883.4.4",
        "value": "21-3259825"
      } ],
      "active": true,
      "type": [ {
        "coding": [ {
          "system": "http://terminology.hl7.org/CodeSystem/organization-type",
          "code": "pay",
          "display": "Payer"
        } ]
      } ],
      "name": "Blue Cross Blue Shield of Texas",
      "telecom": [ {
        "system": "phone",
        "value": "(+1) 972-766-6900"
      } ],
      "address": [ {
        "use": "billing",
        "type": "postal",
        "line": [ "P.O. Box 660044" ],
        "city": "Dallas",
        "state": "TX",
        "postalCode": "75266-0044",
        "country": "USA"
      } ]
    },
    "request": {
      "method": "PUT",
      "url": "Organization/9f0590ec-a8b1-43b3-a1dc-0306debac745"
    }
  }, {
    "fullUrl": "https://madie.cms.gov/Practitioner/cd2c6572-023d-4b84-b908-5de5b70829c1",
    "resource": {
      "resourceType": "Practitioner",
      "id": "cd2c6572-023d-4b84-b908-5de5b70829c1",
      "identifier": [ {
        "system": "http://hl7.org/fhir/sid/us-npi",
        "value": "123456"
      } ],
      "name": [ {
        "family": "Evil",
        "prefix": [ "Dr" ]
      } ]
    },
    "request": {
      "method": "PUT",
      "url": "Practitioner/cd2c6572-023d-4b84-b908-5de5b70829c1"
    }
  }, {
    "fullUrl": "https://madie.cms.gov/MeasureReport/ba078aa2-f45d-494e-b62d-c08f0f8623ee",
    "resource": {
      "resourceType": "MeasureReport",
      "id": "ba078aa2-f45d-494e-b62d-c08f0f8623ee",
      "meta": {
        "profile": [ "http://hl7.org/fhir/us/cqfmeasures/StructureDefinition/test-case-cqfm" ]
      },
      "contained": [ {
        "resourceType": "Parameters",
        "id": "286cece5-8e5d-46a6-bd4b-b4795c8571e5-parameters",
        "parameter": [ {
          "name": "subject",
          "valueString": "eea9698a-bf0d-4128-afc2-a646062acbef"
        } ]
      } ],
      "extension": [ {
        "url": "http://hl7.org/fhir/StructureDefinition/cqf-inputParameters",
        "valueReference": {
          "reference": "#286cece5-8e5d-46a6-bd4b-b4795c8571e5-parameters"
        }
      }, {
        "url": "http://hl7.org/fhir/us/cqfmeasures/StructureDefinition/cqfm-testCaseDescription",
        "valueMarkdown": "comfort measures order starts during IP encounter, 1 minute before ICU admission\n"
      } ],
      "modifierExtension": [ {
        "url": "http://hl7.org/fhir/us/cqfmeasures/StructureDefinition/cqfm-isTestCase",
        "valueBoolean": true
      } ],
      "status": "complete",
      "type": "individual",
      "measure": "https://madie.cms.gov/Measure/CMS190VTEProphylaxisICUFHIR",
      "period": {
        "start": "2026-01-01",
        "end": "2026-12-31"
      },
      "group": [ {
        "id": "Group_1",
        "population": [ {
          "id": "InitialPopulation_1",
          "code": {
            "coding": [ {
              "system": "http://terminology.hl7.org/CodeSystem/measure-population",
              "code": "initial-population",
              "display": "Initial Population"
            } ]
          },
          "count": 1
        }, {
          "id": "Denominator_1",
          "code": {
            "coding": [ {
              "system": "http://terminology.hl7.org/CodeSystem/measure-population",
              "code": "denominator",
              "display": "Denominator"
            } ]
          },
          "count": 1
        }, {
          "id": "DenominatorExclusion_1",
          "code": {
            "coding": [ {
              "system": "http://terminology.hl7.org/CodeSystem/measure-population",
              "code": "denominator-exclusion",
              "display": "Denominator Exclusion"
            } ]
          },
          "count": 1
        }, {
          "id": "Numerator_1",
          "code": {
            "coding": [ {
              "system": "http://terminology.hl7.org/CodeSystem/measure-population",
              "code": "numerator",
              "display": "Numerator"
            } ]
          },
          "count": 0
        }, {
          "id": "DenominatorException_1",
          "code": {
            "coding": [ {
              "system": "http://terminology.hl7.org/CodeSystem/measure-population",
              "code": "denominator-exception",
              "display": "Denominator Exception"
            } ]
          },
          "count": 0
        } ],
        "measureScore": {
          "value": 0.0
        }
      } ],
      "evaluatedResource": [ {
        "reference": "Patient/eea9698a-bf0d-4128-afc2-a646062acbef"
      }, {
        "reference": "Encounter/398fdfbb-8ef3-4763-a065-e313c6daad05"
      }, {
        "reference": "ServiceRequest/9cf72110-1c88-4a56-a3d3-ec316b6fee27"
      }, {
        "reference": "Coverage/2b6bd24c-e82c-4c61-8cae-b0a64f518f58"
      }, {
        "reference": "Location/6ea93bc8-270e-4254-b544-7109a131602e"
      }, {
        "reference": "Organization/9f0590ec-a8b1-43b3-a1dc-0306debac745"
      }, {
        "reference": "Practitioner/cd2c6572-023d-4b84-b908-5de5b70829c1"
      } ]
    },
    "request": {
      "method": "PUT",
      "url": "MeasureReport/ba078aa2-f45d-494e-b62d-c08f0f8623ee"
    }
  } ]
}