{
  "resourceType": "Bundle",
  "id": "63487c300968f801225401c3",
  "type": "transaction",
  "entry": [ {
    "fullUrl": "https://madie.cms.gov/Patient/93ddb758-3a75-4626-a50b-1e2b51ed4250",
    "resource": {
      "resourceType": "Patient",
      "id": "93ddb758-3a75-4626-a50b-1e2b51ed4250",
      "meta": {
        "profile": [ "http://hl7.org/fhir/us/qicore/StructureDefinition/qicore-patient" ]
      },
      "text": {
        "status": "generated",
        "div": "<div xmlns=\"http://www.w3.org/1999/xhtml\"><div class=\"hapiHeaderText\">AssessG1P1PreTerm1Term1<b>DENPASS</b></div><table class=\"hapiPropertyTable\"><tbody><tr><td>Identifier</td><td>919742ce7259ec7b9de1654b5e814cf859dc5253e7d4839ac3b7c6fbe1734140</td></tr><tr><td>Date of birth</td><td><span>14 February 1985</span></td></tr></tbody></table></div>"
      },
      "extension": [ {
        "url": "http://hl7.org/fhir/us/core/StructureDefinition/us-core-race",
        "extension": [ {
          "url": "ombCategory",
          "valueCoding": {
            "system": "urn:oid:2.16.840.1.113883.6.238",
            "code": "1002-5",
            "display": "American Indian or Alaska Native",
            "userSelected": true
          }
        }, {
          "url": "text",
          "valueString": "American Indian or Alaska Native"
        } ]
      }, {
        "url": "http://hl7.org/fhir/us/core/StructureDefinition/us-core-ethnicity",
        "extension": [ {
          "url": "ombCategory",
          "valueCoding": {
            "system": "urn:oid:2.16.840.1.113883.6.238",
            "code": "2135-2",
            "display": "Hispanic or Latino",
            "userSelected": true
          }
        }, {
          "url": "text",
          "valueString": "Hispanic or Latino"
        } ]
      } ],
      "identifier": [ {
        "type": {
          "coding": [ {
            "system": "http://terminology.hl7.org/CodeSystem/v2-0203",
            "code": "MR"
          } ]
        },
        "system": "https://bonnie-fhir.healthit.gov/",
        "value": "63487c300968f801225401c3"
      } ],
      "active": true,
      "name": [ {
        "use": "usual",
        "family": "DENPass",
        "given": [ "AssessG1P1PreTerm1Term1" ]
      } ],
      "gender": "female",
      "birthDate": "1998-02-14"
    },
    "request": {
      "method": "PUT",
      "url": "Patient/93ddb758-3a75-4626-a50b-1e2b51ed4250"
    }
  }, {
    "fullUrl": "https://madie.cms.gov/Observation/99d9ee4b-c042-455a-b27a-cb37a1ba7f7e",
    "resource": {
      "resourceType": "Observation",
      "id": "99d9ee4b-c042-455a-b27a-cb37a1ba7f7e",
      "meta": {
        "profile": [ "http://hl7.org/fhir/us/qicore/StructureDefinition/qicore-simple-observation" ]
      },
      "status": "final",
      "category": [ {
        "coding": [ {
          "system": "http://terminology.hl7.org/CodeSystem/observation-category",
          "code": "exam",
          "display": "exam",
          "userSelected": true
        } ]
      } ],
      "code": {
        "coding": [ {
          "system": "http://loinc.org",
          "code": "11884-4"
        } ]
      },
      "subject": {
        "reference": "Patient/93ddb758-3a75-4626-a50b-1e2b51ed4250"
      },
      "effectiveDateTime": "2026-06-08T09:15:00.000+00:00",
      "performer": [ {
        "reference": "Organization/example1",
        "display": "Hendricks Country Hospital"
      } ],
      "valueQuantity": {
        "value": 38,
        "system": "http://unitsofmeasure.org",
        "code": "wk"
      }
    },
    "request": {
      "method": "PUT",
      "url": "Observation/99d9ee4b-c042-455a-b27a-cb37a1ba7f7e"
    }
  }, {
    "fullUrl": "https://madie.cms.gov/Observation/daea38a1-1676-4105-bd72-c5bd036a13a0",
    "resource": {
      "resourceType": "Observation",
      "id": "daea38a1-1676-4105-bd72-c5bd036a13a0",
      "meta": {
        "profile": [ "http://hl7.org/fhir/us/qicore/StructureDefinition/qicore-simple-observation" ]
      },
      "status": "final",
      "category": [ {
        "coding": [ {
          "system": "http://terminology.hl7.org/CodeSystem/observation-category",
          "code": "exam",
          "display": "exam",
          "userSelected": true
        } ]
      } ],
      "code": {
        "coding": [ {
          "system": "http://loinc.org",
          "code": "11996-6"
        } ]
      },
      "subject": {
        "reference": "Patient/93ddb758-3a75-4626-a50b-1e2b51ed4250"
      },
      "effectiveDateTime": "2026-06-08T19:59:00.000+00:00",
      "performer": [ {
        "reference": "Organization/example1",
        "display": "Hendricks Country Hospital"
      } ],
      "valueInteger": 1
    },
    "request": {
      "method": "PUT",
      "url": "Observation/daea38a1-1676-4105-bd72-c5bd036a13a0"
    }
  }, {
    "fullUrl": "https://madie.cms.gov/Observation/672cd77f-d41a-43a6-98a1-fcb093ae8446",
    "resource": {
      "resourceType": "Observation",
      "id": "672cd77f-d41a-43a6-98a1-fcb093ae8446",
      "meta": {
        "profile": [ "http://hl7.org/fhir/us/qicore/StructureDefinition/qicore-simple-observation" ]
      },
      "status": "final",
      "category": [ {
        "coding": [ {
          "system": "http://terminology.hl7.org/CodeSystem/observation-category",
          "code": "exam",
          "display": "exam",
          "userSelected": true
        } ]
      } ],
      "code": {
        "coding": [ {
          "system": "http://loinc.org",
          "code": "93857-1"
        } ]
      },
      "subject": {
        "reference": "Patient/93ddb758-3a75-4626-a50b-1e2b51ed4250"
      },
      "effectiveDateTime": "2026-06-08T20:00:00.000+00:00",
      "performer": [ {
        "reference": "Organization/example1",
        "display": "Hendricks Country Hospital"
      } ],
      "valueDateTime": "2026-06-08T20:00:00.000+00:00"
    },
    "request": {
      "method": "PUT",
      "url": "Observation/672cd77f-d41a-43a6-98a1-fcb093ae8446"
    }
  }, {
    "fullUrl": "https://madie.cms.gov/Observation/c8b7cb6b-a3dd-4d6d-8aa4-5ce5b578102d",
    "resource": {
      "resourceType": "Observation",
      "id": "c8b7cb6b-a3dd-4d6d-8aa4-5ce5b578102d",
      "meta": {
        "profile": [ "http://hl7.org/fhir/us/qicore/StructureDefinition/qicore-simple-observation" ]
      },
      "status": "final",
      "category": [ {
        "coding": [ {
          "system": "http://terminology.hl7.org/CodeSystem/observation-category",
          "code": "exam",
          "display": "exam",
          "userSelected": true
        } ]
      } ],
      "code": {
        "coding": [ {
          "system": "http://loinc.org",
          "code": "11977-6"
        } ]
      },
      "subject": {
        "reference": "Patient/93ddb758-3a75-4626-a50b-1e2b51ed4250"
      },
      "effectiveDateTime": "2026-06-08T19:59:00.000+00:00",
      "performer": [ {
        "reference": "Organization/example1",
        "display": "Hendricks Country Hospital"
      } ],
      "valueInteger": 1
    },
    "request": {
      "method": "PUT",
      "url": "Observation/c8b7cb6b-a3dd-4d6d-8aa4-5ce5b578102d"
    }
  }, {
    "fullUrl": "https://madie.cms.gov/Observation/c11a8ef0-490d-4521-84cb-70d2bdea3a4a",
    "resource": {
      "resourceType": "Observation",
      "id": "c11a8ef0-490d-4521-84cb-70d2bdea3a4a",
      "meta": {
        "profile": [ "http://hl7.org/fhir/us/qicore/StructureDefinition/qicore-simple-observation" ]
      },
      "status": "final",
      "category": [ {
        "coding": [ {
          "system": "http://terminology.hl7.org/CodeSystem/observation-category",
          "code": "exam",
          "display": "exam",
          "userSelected": true
        } ]
      } ],
      "code": {
        "coding": [ {
          "system": "http://loinc.org",
          "code": "11637-6"
        } ]
      },
      "subject": {
        "reference": "Patient/93ddb758-3a75-4626-a50b-1e2b51ed4250"
      },
      "effectiveDateTime": "2026-06-08T19:59:00.000+00:00",
      "performer": [ {
        "reference": "Organization/example1",
        "display": "Hendricks Country Hospital"
      } ],
      "valueInteger": 1
    },
    "request": {
      "method": "PUT",
      "url": "Observation/c11a8ef0-490d-4521-84cb-70d2bdea3a4a"
    }
  }, {
    "fullUrl": "https://madie.cms.gov/Observation/1b2e5f43-c48f-4523-9269-2f7bac030614",
    "resource": {
      "resourceType": "Observation",
      "id": "1b2e5f43-c48f-4523-9269-2f7bac030614",
      "meta": {
        "profile": [ "http://hl7.org/fhir/us/qicore/StructureDefinition/qicore-simple-observation" ]
      },
      "status": "final",
      "category": [ {
        "coding": [ {
          "system": "http://terminology.hl7.org/CodeSystem/observation-category",
          "code": "exam",
          "display": "exam",
          "userSelected": true
        } ]
      } ],
      "code": {
        "coding": [ {
          "system": "http://loinc.org",
          "code": "11639-2"
        } ]
      },
      "subject": {
        "reference": "Patient/93ddb758-3a75-4626-a50b-1e2b51ed4250"
      },
      "effectiveDateTime": "2026-06-08T19:59:00.000+00:00",
      "performer": [ {
        "reference": "Organization/example1",
        "display": "Hendricks Country Hospital"
      } ],
      "valueInteger": 1
    },
    "request": {
      "method": "PUT",
      "url": "Observation/1b2e5f43-c48f-4523-9269-2f7bac030614"
    }
  }, {
    "fullUrl": "https://madie.cms.gov/Encounter/477b0d7c-f943-4a89-a5b3-d8b6de6031bf",
    "resource": {
      "resourceType": "Encounter",
      "id": "477b0d7c-f943-4a89-a5b3-d8b6de6031bf",
      "meta": {
        "profile": [ "http://hl7.org/fhir/us/qicore/StructureDefinition/qicore-encounter" ]
      },
      "status": "finished",
      "class": {
        "system": "http://terminology.hl7.org/CodeSystem/v3-ActCode",
        "code": "IMP",
        "display": "inpatient encounter"
      },
      "type": [ {
        "coding": [ {
          "system": "http://snomed.info/sct",
          "code": "183452005"
        } ]
      } ],
      "subject": {
        "reference": "Patient/93ddb758-3a75-4626-a50b-1e2b51ed4250"
      },
      "period": {
        "start": "2026-06-08T08:00:00.000+00:00",
        "end": "2026-06-10T08:15:00.000+00:00"
      },
      "length": {
        "value": 2,
        "unit": "days"
      },
      "reasonReference": [ {
        "reference": "Condition/8d16b855-79b8-4fef-ace2-812bee9f071a"
      } ]
    },
    "request": {
      "method": "PUT",
      "url": "Encounter/477b0d7c-f943-4a89-a5b3-d8b6de6031bf"
    }
  }, {
    "fullUrl": "https://madie.cms.gov/Procedure/ce2abc5e-ab90-43a7-bc3f-115dcedcfaef",
    "resource": {
      "resourceType": "Procedure",
      "id": "ce2abc5e-ab90-43a7-bc3f-115dcedcfaef",
      "meta": {
        "profile": [ "http://hl7.org/fhir/us/qicore/StructureDefinition/qicore-procedure" ]
      },
      "extension": [ {
        "url": "http://hl7.org/fhir/us/qicore/StructureDefinition/qicore-recorded",
        "valueDateTime": "2014-04-05T13:35:00.000+00:00"
      } ],
      "status": "completed",
      "code": {
        "coding": [ {
          "system": "http://www.cms.gov/Medicare/Coding/ICD10",
          "code": "10D07Z3"
        }, {
          "system": "http://www.icd10data.com/icd10pcs",
          "code": "10D07Z3",
          "userSelected": true
        } ]
      },
      "subject": {
        "reference": "Patient/93ddb758-3a75-4626-a50b-1e2b51ed4250"
      },
      "performedPeriod": {
        "start": "2026-06-08T08:10:00.000+00:00",
        "end": "2026-06-08T09:14:00.000+00:00"
      }
    },
    "request": {
      "method": "PUT",
      "url": "Procedure/ce2abc5e-ab90-43a7-bc3f-115dcedcfaef"
    }
  }, {
    "fullUrl": "https://madie.cms.gov/Condition/8d16b855-79b8-4fef-ace2-812bee9f071a",
    "resource": {
      "resourceType": "Condition",
      "id": "8d16b855-79b8-4fef-ace2-812bee9f071a",
      "meta": {
        "profile": [ "http://hl7.org/fhir/us/qicore/StructureDefinition/qicore-condition-encounter-diagnosis" ]
      },
      "category": [ {
        "coding": [ {
          "system": "http://terminology.hl7.org/CodeSystem/condition-category",
          "code": "encounter-diagnosis",
          "display": "Encounter Diagnosis"
        } ]
      } ],
      "code": {
        "coding": [ {
          "system": "http://snomed.info/sct",
          "version": "2022-09",
          "code": "169826009",
          "display": "Single live birth (finding)",
          "userSelected": true
        } ]
      },
      "subject": {
        "reference": "Patient/93ddb758-3a75-4626-a50b-1e2b51ed4250"
      },
      "encounter": {
        "reference": "Encounter/477b0d7c-f943-4a89-a5b3-d8b6de6031bf"
      },
      "recordedDate": "2026-10-18T08:00:00.000+00:00"
    },
    "request": {
      "method": "PUT",
      "url": "Condition/8d16b855-79b8-4fef-ace2-812bee9f071a"
    }
  }, {
    "fullUrl": "https://madie.cms.gov/Coverage/2415967d-3955-4efc-9244-d171b282e746",
    "resource": {
      "resourceType": "Coverage",
      "id": "2415967d-3955-4efc-9244-d171b282e746",
      "meta": {
        "profile": [ "http://hl7.org/fhir/us/qicore/StructureDefinition/qicore-coverage" ]
      },
      "status": "active",
      "subscriberId": "523435",
      "beneficiary": {
        "reference": "Patient/93ddb758-3a75-4626-a50b-1e2b51ed4250"
      },
      "relationship": {
        "coding": [ {
          "system": "http://terminology.hl7.org/CodeSystem/subscriber-relationship",
          "code": "self"
        } ]
      },
      "payor": [ {
        "reference": "Organization/70a95660-f03f-413f-82a3-ee7f7ea56949"
      } ]
    },
    "request": {
      "method": "PUT",
      "url": "Coverage/2415967d-3955-4efc-9244-d171b282e746"
    }
  }, {
    "fullUrl": "https://madie.cms.gov/Organization/70a95660-f03f-413f-82a3-ee7f7ea56949",
    "resource": {
      "resourceType": "Organization",
      "id": "70a95660-f03f-413f-82a3-ee7f7ea56949",
      "meta": {
        "profile": [ "http://hl7.org/fhir/us/qicore/StructureDefinition/qicore-organization" ]
      },
      "identifier": [ {
        "use": "temp",
        "system": "urn:oid:2.16.840.1.113883.4.4",
        "value": "21-3259825"
      } ],
      "active": true,
      "type": [ {
        "coding": [ {
          "system": "http://terminology.hl7.org/CodeSystem/organization-type",
          "code": "pay",
          "display": "Payer"
        } ]
      } ],
      "name": "Blue Cross Blue Shield of Texas",
      "telecom": [ {
        "system": "phone",
        "value": "(+1) 972-766-6900"
      } ],
      "address": [ {
        "use": "billing",
        "type": "postal",
        "line": [ "P.O. Box 660044" ],
        "city": "Dallas",
        "state": "TX",
        "postalCode": "75266-0044",
        "country": "USA"
      } ]
    },
    "request": {
      "method": "PUT",
      "url": "Organization/70a95660-f03f-413f-82a3-ee7f7ea56949"
    }
  }, {
    "fullUrl": "https://madie.cms.gov/Practitioner/2d14b4d7-c749-4455-aafb-a7fb9fb5863a",
    "resource": {
      "resourceType": "Practitioner",
      "id": "2d14b4d7-c749-4455-aafb-a7fb9fb5863a",
      "meta": {
        "profile": [ "http://hl7.org/fhir/us/qicore/StructureDefinition/qicore-practitioner" ]
      },
      "identifier": [ {
        "system": "http://hl7.org/fhir/sid/us-npi",
        "value": "1234567890"
      } ],
      "name": [ {
        "family": "Evil",
        "prefix": [ "Dr" ]
      } ]
    },
    "request": {
      "method": "PUT",
      "url": "Practitioner/2d14b4d7-c749-4455-aafb-a7fb9fb5863a"
    }
  }, {
    "fullUrl": "https://madie.cms.gov/MeasureReport/43f1b496-4adb-4c98-9bc1-59f7727fda2d",
    "resource": {
      "resourceType": "MeasureReport",
      "id": "43f1b496-4adb-4c98-9bc1-59f7727fda2d",
      "meta": {
        "profile": [ "http://hl7.org/fhir/us/cqfmeasures/StructureDefinition/test-case-cqfm" ]
      },
      "contained": [ {
        "resourceType": "Parameters",
        "id": "36f4e714-fae5-4d79-bc6a-7c261bd3275c-parameters",
        "parameter": [ {
          "name": "subject",
          "valueString": "93ddb758-3a75-4626-a50b-1e2b51ed4250"
        } ]
      } ],
      "extension": [ {
        "url": "http://hl7.org/fhir/StructureDefinition/cqf-inputParameters",
        "valueReference": {
          "reference": "#36f4e714-fae5-4d79-bc6a-7c261bd3275c-parameters"
        }
      }, {
        "url": "http://hl7.org/fhir/us/cqfmeasures/StructureDefinition/cqfm-testCaseDescription",
        "valueMarkdown": "Passes: IP, Pt is 27 years of age,  encounter dx delivery of singleton, gravida = 1, parity =1, Preterm = 1, Term = 1\n"
      } ],
      "modifierExtension": [ {
        "url": "http://hl7.org/fhir/us/cqfmeasures/StructureDefinition/cqfm-isTestCase",
        "valueBoolean": true
      } ],
      "status": "complete",
      "type": "individual",
      "measure": "https://madie.cms.gov/Measure/CMS0334FHIRPCCesareanBirth",
      "period": {
        "start": "2026-01-01",
        "end": "2026-12-31"
      },
      "group": [ {
        "id": "Group_1",
        "population": [ {
          "id": "InitialPopulation_1",
          "code": {
            "coding": [ {
              "system": "http://terminology.hl7.org/CodeSystem/measure-population",
              "code": "initial-population",
              "display": "Initial Population"
            } ]
          },
          "count": 1
        }, {
          "id": "Denominator_1",
          "code": {
            "coding": [ {
              "system": "http://terminology.hl7.org/CodeSystem/measure-population",
              "code": "denominator",
              "display": "Denominator"
            } ]
          },
          "count": 1
        }, {
          "id": "DenominatorExclusion_1",
          "code": {
            "coding": [ {
              "system": "http://terminology.hl7.org/CodeSystem/measure-population",
              "code": "denominator-exclusion",
              "display": "Denominator Exclusion"
            } ]
          },
          "count": 0
        }, {
          "id": "Numerator_1",
          "code": {
            "coding": [ {
              "system": "http://terminology.hl7.org/CodeSystem/measure-population",
              "code": "numerator",
              "display": "Numerator"
            } ]
          },
          "count": 0
        } ],
        "measureScore": {
          "value": 0.0
        }
      } ],
      "evaluatedResource": [ {
        "reference": "Patient/93ddb758-3a75-4626-a50b-1e2b51ed4250"
      }, {
        "reference": "Observation/99d9ee4b-c042-455a-b27a-cb37a1ba7f7e"
      }, {
        "reference": "Observation/daea38a1-1676-4105-bd72-c5bd036a13a0"
      }, {
        "reference": "Observation/672cd77f-d41a-43a6-98a1-fcb093ae8446"
      }, {
        "reference": "Observation/c8b7cb6b-a3dd-4d6d-8aa4-5ce5b578102d"
      }, {
        "reference": "Observation/c11a8ef0-490d-4521-84cb-70d2bdea3a4a"
      }, {
        "reference": "Observation/1b2e5f43-c48f-4523-9269-2f7bac030614"
      }, {
        "reference": "Encounter/477b0d7c-f943-4a89-a5b3-d8b6de6031bf"
      }, {
        "reference": "Procedure/ce2abc5e-ab90-43a7-bc3f-115dcedcfaef"
      }, {
        "reference": "Condition/8d16b855-79b8-4fef-ace2-812bee9f071a"
      }, {
        "reference": "Coverage/2415967d-3955-4efc-9244-d171b282e746"
      }, {
        "reference": "Organization/70a95660-f03f-413f-82a3-ee7f7ea56949"
      }, {
        "reference": "Practitioner/2d14b4d7-c749-4455-aafb-a7fb9fb5863a"
      } ]
    },
    "request": {
      "method": "PUT",
      "url": "MeasureReport/43f1b496-4adb-4c98-9bc1-59f7727fda2d"
    }
  } ]
}