{
  "resourceType": "Bundle",
  "id": "612e6a9302c62a011f2ea6da",
  "type": "transaction",
  "entry": [ {
    "fullUrl": "https://madie.cms.gov/Patient/5109af7f-4d95-4372-8857-71d800f53100",
    "resource": {
      "resourceType": "Patient",
      "id": "5109af7f-4d95-4372-8857-71d800f53100",
      "meta": {
        "profile": [ "http://hl7.org/fhir/us/qicore/StructureDefinition/qicore-patient" ]
      },
      "text": {
        "status": "generated",
        "div": "<div xmlns=\"http://www.w3.org/1999/xhtml\"><div class=\"hapiHeaderText\">MedReasonMOInjXaDOIPCOnAnesEndTime <b>NUMERPASS </b></div><table class=\"hapiPropertyTable\"><tbody><tr><td>Identifier</td><td>2e65528d235225a29036bb2a5e6ef1d4</td></tr><tr><td>Date of birth</td><td><span>02 January 1974</span></td></tr></tbody></table></div>"
      },
      "extension": [ {
        "url": "http://hl7.org/fhir/us/core/StructureDefinition/us-core-race",
        "extension": [ {
          "url": "ombCategory",
          "valueCoding": {
            "system": "urn:oid:2.16.840.1.113883.6.238",
            "code": "1002-5",
            "display": "American Indian or Alaska Native",
            "userSelected": true
          }
        }, {
          "url": "text",
          "valueString": "American Indian or Alaska Native"
        } ]
      }, {
        "url": "http://hl7.org/fhir/us/core/StructureDefinition/us-core-ethnicity",
        "extension": [ {
          "url": "ombCategory",
          "valueCoding": {
            "system": "urn:oid:2.16.840.1.113883.6.238",
            "code": "2135-2",
            "display": "Hispanic or Latino",
            "userSelected": true
          }
        }, {
          "url": "text",
          "valueString": "Hispanic or Latino"
        } ]
      } ],
      "identifier": [ {
        "type": {
          "coding": [ {
            "system": "http://terminology.hl7.org/CodeSystem/v2-0203",
            "code": "MR"
          } ]
        },
        "system": "https://bonnie-fhir.healthit.gov/",
        "value": "612e6a9302c62a011f2ea6da"
      } ],
      "active": true,
      "name": [ {
        "use": "usual",
        "family": "NUMERPass",
        "given": [ "MedReasonMOInjXaDOIPCOnAnesEndTime" ]
      } ],
      "gender": "male",
      "birthDate": "1975-01-02"
    },
    "request": {
      "method": "PUT",
      "url": "Patient/5109af7f-4d95-4372-8857-71d800f53100"
    }
  }, {
    "fullUrl": "https://madie.cms.gov/Encounter/815c1c34-d677-45c6-9ef8-eb293d0f4911",
    "resource": {
      "resourceType": "Encounter",
      "id": "815c1c34-d677-45c6-9ef8-eb293d0f4911",
      "meta": {
        "profile": [ "http://hl7.org/fhir/us/qicore/StructureDefinition/qicore-encounter" ]
      },
      "status": "finished",
      "class": {
        "system": "http://terminology.hl7.org/CodeSystem/v3-ActCode",
        "code": "IMP",
        "display": "inpatient encounter"
      },
      "type": [ {
        "coding": [ {
          "system": "http://snomed.info/sct",
          "code": "8715000"
        } ]
      } ],
      "subject": {
        "reference": "Patient/5109af7f-4d95-4372-8857-71d800f53100"
      },
      "period": {
        "start": "2026-11-01T08:00:00.000+00:00",
        "end": "2026-11-26T08:15:00.000+00:00"
      },
      "length": {
        "value": 25,
        "unit": "days"
      },
      "location": [ {
        "location": {
          "reference": "Location/3b21b4ea-936a-43a7-ac91-23250713e17f"
        },
        "period": {
          "start": "2026-11-01T09:00:00.000+00:00",
          "end": "2026-11-02T08:15:00.000+00:00"
        }
      } ]
    },
    "request": {
      "method": "PUT",
      "url": "Encounter/815c1c34-d677-45c6-9ef8-eb293d0f4911"
    }
  }, {
    "fullUrl": "https://madie.cms.gov/Coverage/b2ba1e42-84cc-4f8c-97ac-badfb2960246",
    "resource": {
      "resourceType": "Coverage",
      "id": "b2ba1e42-84cc-4f8c-97ac-badfb2960246",
      "status": "active",
      "beneficiary": {
        "reference": "Patient/5109af7f-4d95-4372-8857-71d800f53100"
      },
      "period": {
        "start": "1975-01-02T08:00:00.000+00:00"
      },
      "payor": [ {
        "reference": "Organization/9f2e19b9-0596-4841-97ab-565c40fa4764"
      } ]
    },
    "request": {
      "method": "PUT",
      "url": "Coverage/b2ba1e42-84cc-4f8c-97ac-badfb2960246"
    }
  }, {
    "fullUrl": "https://madie.cms.gov/ServiceRequest/c89deb23-758d-4356-b537-3eec3a15d740",
    "resource": {
      "resourceType": "ServiceRequest",
      "id": "c89deb23-758d-4356-b537-3eec3a15d740",
      "meta": {
        "profile": [ "http://hl7.org/fhir/us/qicore/StructureDefinition/qicore-servicenotrequested" ]
      },
      "extension": [ {
        "url": "http://hl7.org/fhir/us/qicore/StructureDefinition/qicore-doNotPerformReason",
        "valueCodeableConcept": {
          "coding": [ {
            "system": "http://snomed.info/sct",
            "code": "183932001",
            "display": "Procedure contraindicated (situation)"
          } ]
        }
      } ],
      "status": "completed",
      "intent": "order",
      "doNotPerform": true,
      "code": {
        "coding": [ {
          "system": "http://snomed.info/sct",
          "code": "428411000124104",
          "display": "Intermittent pneumatic compression boot (physical object)",
          "userSelected": true
        } ]
      },
      "subject": {
        "reference": "Patient/5109af7f-4d95-4372-8857-71d800f53100"
      },
      "authoredOn": "2026-11-02T09:15:00.000+00:00"
    },
    "request": {
      "method": "PUT",
      "url": "ServiceRequest/c89deb23-758d-4356-b537-3eec3a15d740"
    }
  }, {
    "fullUrl": "https://madie.cms.gov/MedicationRequest/3b3daa14-c997-452a-8b5d-fb57272cc945",
    "resource": {
      "resourceType": "MedicationRequest",
      "id": "3b3daa14-c997-452a-8b5d-fb57272cc945",
      "meta": {
        "profile": [ "http://hl7.org/fhir/us/qicore/StructureDefinition/qicore-medicationnotrequested" ]
      },
      "status": "completed",
      "intent": "order",
      "category": [ {
        "coding": [ {
          "system": "http://terminology.hl7.org/CodeSystem/medicationrequest-category",
          "code": "community"
        } ]
      } ],
      "doNotPerform": true,
      "medicationCodeableConcept": {
        "coding": [ {
          "system": "http://www.nlm.nih.gov/research/umls/rxnorm",
          "code": "861363"
        } ]
      },
      "subject": {
        "reference": "Patient/5109af7f-4d95-4372-8857-71d800f53100"
      },
      "authoredOn": "2026-11-02T09:15:00.000+00:00",
      "requester": {
        "reference": "Practitioner/123456"
      },
      "reasonCode": [ {
        "coding": [ {
          "system": "http://snomed.info/sct",
          "code": "183932001",
          "display": "Procedure contraindicated (situation)",
          "userSelected": true
        } ]
      } ],
      "dosageInstruction": [ {
        "timing": {
          "repeat": {
            "boundsPeriod": {
              "start": "2026-11-03T09:00:00.000+00:00"
            }
          }
        }
      } ]
    },
    "request": {
      "method": "PUT",
      "url": "MedicationRequest/3b3daa14-c997-452a-8b5d-fb57272cc945"
    }
  }, {
    "fullUrl": "https://madie.cms.gov/Procedure/9126c0cf-c079-4c22-a4ac-9ff2942aaad3",
    "resource": {
      "resourceType": "Procedure",
      "id": "9126c0cf-c079-4c22-a4ac-9ff2942aaad3",
      "meta": {
        "profile": [ "http://hl7.org/fhir/us/qicore/StructureDefinition/qicore-procedure" ]
      },
      "extension": [ {
        "url": "http://hl7.org/fhir/us/qicore/StructureDefinition/qicore-recorded",
        "valueDateTime": "2013-11-04T13:35:00.000+00:00"
      } ],
      "status": "completed",
      "code": {
        "coding": [ {
          "system": "http://snomed.info/sct",
          "code": "18946005"
        } ]
      },
      "subject": {
        "reference": "Patient/5109af7f-4d95-4372-8857-71d800f53100"
      },
      "performedPeriod": {
        "start": "2026-11-02T09:00:00.000+00:00",
        "end": "2026-11-02T09:15:00.000+00:00"
      }
    },
    "request": {
      "method": "PUT",
      "url": "Procedure/9126c0cf-c079-4c22-a4ac-9ff2942aaad3"
    }
  }, {
    "fullUrl": "https://madie.cms.gov/Location/3b21b4ea-936a-43a7-ac91-23250713e17f",
    "resource": {
      "resourceType": "Location",
      "id": "3b21b4ea-936a-43a7-ac91-23250713e17f",
      "meta": {
        "profile": [ "http://hl7.org/fhir/us/qicore/StructureDefinition/qicore-location" ]
      },
      "identifier": [ {
        "use": "usual",
        "system": "http://exampleoflocation.com",
        "value": "B1-S.F2"
      } ],
      "name": "Medical Surgical East, first floor",
      "type": [ {
        "coding": [ {
          "system": "https://www.cdc.gov/nhsn/cdaportal/terminology/codesystem/hsloc.html",
          "code": "1025-6",
          "display": "Trauma Critical Care",
          "userSelected": true
        } ]
      } ]
    },
    "request": {
      "method": "PUT",
      "url": "Location/3b21b4ea-936a-43a7-ac91-23250713e17f"
    }
  }, {
    "fullUrl": "https://madie.cms.gov/Organization/9f2e19b9-0596-4841-97ab-565c40fa4764",
    "resource": {
      "resourceType": "Organization",
      "id": "9f2e19b9-0596-4841-97ab-565c40fa4764",
      "meta": {
        "profile": [ "http://hl7.org/fhir/us/qicore/StructureDefinition/qicore-organization" ]
      },
      "identifier": [ {
        "use": "temp",
        "system": "urn:oid:2.16.840.1.113883.4.4",
        "value": "21-3259825"
      } ],
      "active": true,
      "type": [ {
        "coding": [ {
          "system": "http://terminology.hl7.org/CodeSystem/organization-type",
          "code": "pay",
          "display": "Payer"
        } ]
      } ],
      "name": "Blue Cross Blue Shield of Texas",
      "telecom": [ {
        "system": "phone",
        "value": "(+1) 972-766-6900"
      } ],
      "address": [ {
        "use": "billing",
        "type": "postal",
        "line": [ "P.O. Box 660044" ],
        "city": "Dallas",
        "state": "TX",
        "postalCode": "75266-0044",
        "country": "USA"
      } ]
    },
    "request": {
      "method": "PUT",
      "url": "Organization/9f2e19b9-0596-4841-97ab-565c40fa4764"
    }
  }, {
    "fullUrl": "https://madie.cms.gov/Practitioner/9b187dec-4f21-42cc-95e0-6aba2343b5a7",
    "resource": {
      "resourceType": "Practitioner",
      "id": "9b187dec-4f21-42cc-95e0-6aba2343b5a7",
      "identifier": [ {
        "system": "http://hl7.org/fhir/sid/us-npi",
        "value": "123456"
      } ],
      "name": [ {
        "family": "Evil",
        "prefix": [ "Dr" ]
      } ]
    },
    "request": {
      "method": "PUT",
      "url": "Practitioner/9b187dec-4f21-42cc-95e0-6aba2343b5a7"
    }
  }, {
    "fullUrl": "https://madie.cms.gov/MeasureReport/5eb8c659-eca1-47e1-a63f-91ab8a8b9326",
    "resource": {
      "resourceType": "MeasureReport",
      "id": "5eb8c659-eca1-47e1-a63f-91ab8a8b9326",
      "meta": {
        "profile": [ "http://hl7.org/fhir/us/cqfmeasures/StructureDefinition/test-case-cqfm" ]
      },
      "contained": [ {
        "resourceType": "Parameters",
        "id": "c08c48ed-7bc5-454a-9560-b5079d135160-parameters",
        "parameter": [ {
          "name": "subject",
          "valueString": "5109af7f-4d95-4372-8857-71d800f53100"
        } ]
      } ],
      "extension": [ {
        "url": "http://hl7.org/fhir/StructureDefinition/cqf-inputParameters",
        "valueReference": {
          "reference": "#c08c48ed-7bc5-454a-9560-b5079d135160-parameters"
        }
      }, {
        "url": "http://hl7.org/fhir/us/cqfmeasures/StructureDefinition/cqfm-testCaseDescription",
        "valueMarkdown": "Injectable Factor Xa and IPC  not ordered dt medical reason concurrent neuraxial anesthesia\n"
      } ],
      "modifierExtension": [ {
        "url": "http://hl7.org/fhir/us/cqfmeasures/StructureDefinition/cqfm-isTestCase",
        "valueBoolean": true
      } ],
      "status": "complete",
      "type": "individual",
      "measure": "https://madie.cms.gov/Measure/CMS190VTEProphylaxisICUFHIR",
      "period": {
        "start": "2026-01-01",
        "end": "2026-12-31"
      },
      "group": [ {
        "id": "Group_1",
        "population": [ {
          "id": "InitialPopulation_1",
          "code": {
            "coding": [ {
              "system": "http://terminology.hl7.org/CodeSystem/measure-population",
              "code": "initial-population",
              "display": "Initial Population"
            } ]
          },
          "count": 1
        }, {
          "id": "Denominator_1",
          "code": {
            "coding": [ {
              "system": "http://terminology.hl7.org/CodeSystem/measure-population",
              "code": "denominator",
              "display": "Denominator"
            } ]
          },
          "count": 1
        }, {
          "id": "DenominatorExclusion_1",
          "code": {
            "coding": [ {
              "system": "http://terminology.hl7.org/CodeSystem/measure-population",
              "code": "denominator-exclusion",
              "display": "Denominator Exclusion"
            } ]
          },
          "count": 0
        }, {
          "id": "Numerator_1",
          "code": {
            "coding": [ {
              "system": "http://terminology.hl7.org/CodeSystem/measure-population",
              "code": "numerator",
              "display": "Numerator"
            } ]
          },
          "count": 1
        }, {
          "id": "DenominatorException_1",
          "code": {
            "coding": [ {
              "system": "http://terminology.hl7.org/CodeSystem/measure-population",
              "code": "denominator-exception",
              "display": "Denominator Exception"
            } ]
          },
          "count": 0
        } ],
        "measureScore": {
          "value": 0.0
        }
      } ],
      "evaluatedResource": [ {
        "reference": "Patient/5109af7f-4d95-4372-8857-71d800f53100"
      }, {
        "reference": "Encounter/815c1c34-d677-45c6-9ef8-eb293d0f4911"
      }, {
        "reference": "Coverage/b2ba1e42-84cc-4f8c-97ac-badfb2960246"
      }, {
        "reference": "ServiceRequest/c89deb23-758d-4356-b537-3eec3a15d740"
      }, {
        "reference": "MedicationRequest/3b3daa14-c997-452a-8b5d-fb57272cc945"
      }, {
        "reference": "Procedure/9126c0cf-c079-4c22-a4ac-9ff2942aaad3"
      }, {
        "reference": "Location/3b21b4ea-936a-43a7-ac91-23250713e17f"
      }, {
        "reference": "Organization/9f2e19b9-0596-4841-97ab-565c40fa4764"
      }, {
        "reference": "Practitioner/9b187dec-4f21-42cc-95e0-6aba2343b5a7"
      } ]
    },
    "request": {
      "method": "PUT",
      "url": "MeasureReport/5eb8c659-eca1-47e1-a63f-91ab8a8b9326"
    }
  } ]
}