{
  "resourceType": "Bundle",
  "id": "tests-9baac6c5-1826-4c06-a4a4-6ef5bfda76ba-bundle",
  "type": "transaction",
  "entry": [ {
    "fullUrl": "https://madie.cms.gov/Encounter/dca2e8d1-b3c5-4112-b9dc-a6479189ff46",
    "resource": {
      "resourceType": "Encounter",
      "id": "dca2e8d1-b3c5-4112-b9dc-a6479189ff46",
      "meta": {
        "profile": [ "http://hl7.org/fhir/us/qicore/StructureDefinition/qicore-encounter" ]
      },
      "status": "finished",
      "class": {
        "system": "http://terminology.hl7.org/CodeSystem/v3-ActCode",
        "code": "EMER",
        "display": "emergency"
      },
      "type": [ {
        "coding": [ {
          "system": "http://snomed.info/sct",
          "code": "4525004"
        } ]
      } ],
      "subject": {
        "reference": "Patient/2c96df6e-89f2-4cf6-8390-650767f59512"
      },
      "period": {
        "start": "2026-09-29T08:00:00.000+00:00",
        "end": "2026-09-30T20:00:00.000+00:00"
      }
    },
    "request": {
      "method": "PUT",
      "url": "Encounter/dca2e8d1-b3c5-4112-b9dc-a6479189ff46"
    }
  }, {
    "fullUrl": "https://madie.cms.gov/Organization/19c3e3f2-d76d-459c-84e3-a20977d9291a",
    "resource": {
      "resourceType": "Organization",
      "id": "19c3e3f2-d76d-459c-84e3-a20977d9291a",
      "meta": {
        "profile": [ "http://hl7.org/fhir/us/qicore/StructureDefinition/qicore-organization" ]
      },
      "identifier": [ {
        "use": "temp",
        "system": "urn:oid:2.16.840.1.113883.4.4",
        "value": "21-3259825"
      } ],
      "active": true,
      "type": [ {
        "coding": [ {
          "system": "http://terminology.hl7.org/CodeSystem/organization-type",
          "code": "pay",
          "display": "Payer"
        } ]
      } ],
      "name": "Blue Cross Blue Shield of Texas",
      "telecom": [ {
        "system": "phone",
        "value": "(+1) 972-766-6900"
      } ],
      "address": [ {
        "use": "billing",
        "type": "postal",
        "line": [ "P.O. Box 660044" ],
        "city": "Dallas",
        "state": "TX",
        "postalCode": "75266-0044",
        "country": "USA"
      } ]
    },
    "request": {
      "method": "PUT",
      "url": "Organization/19c3e3f2-d76d-459c-84e3-a20977d9291a"
    }
  }, {
    "fullUrl": "https://madie.cms.gov/Observation/f7cca849-075d-445b-aa42-2079c3703c8a",
    "resource": {
      "resourceType": "Observation",
      "id": "f7cca849-075d-445b-aa42-2079c3703c8a",
      "meta": {
        "profile": [ "http://hl7.org/fhir/us/qicore/StructureDefinition/qicore-observation-lab" ]
      },
      "status": "final",
      "category": [ {
        "coding": [ {
          "system": "http://terminology.hl7.org/CodeSystem/observation-category",
          "code": "laboratory",
          "display": "Laboratory"
        } ]
      } ],
      "code": {
        "coding": [ {
          "system": "http://loinc.org",
          "version": "2.72",
          "code": "2160-0",
          "display": "Creatinine [Mass/volume] in Serum or Plasma",
          "userSelected": true
        } ]
      },
      "subject": {
        "reference": "Patient/2c96df6e-89f2-4cf6-8390-650767f59512"
      },
      "effectiveDateTime": "2026-10-02T08:00:00.000+00:00",
      "issued": "2026-10-02T08:30:00.000+00:00",
      "valueQuantity": {
        "value": 1.1,
        "unit": "mg/dL",
        "system": "http://unitsofmeasure.org",
        "code": "mg/dL"
      }
    },
    "request": {
      "method": "PUT",
      "url": "Observation/f7cca849-075d-445b-aa42-2079c3703c8a"
    }
  }, {
    "fullUrl": "https://madie.cms.gov/Encounter/cffc21b4-6dc2-44f7-80d5-69570dbe67be",
    "resource": {
      "resourceType": "Encounter",
      "id": "cffc21b4-6dc2-44f7-80d5-69570dbe67be",
      "meta": {
        "profile": [ "http://hl7.org/fhir/us/qicore/StructureDefinition/qicore-encounter" ]
      },
      "status": "finished",
      "class": {
        "system": "http://terminology.hl7.org/CodeSystem/v3-ActCode",
        "code": "IMP",
        "display": "inpatient encounter"
      },
      "type": [ {
        "coding": [ {
          "system": "http://snomed.info/sct",
          "code": "183452005"
        } ]
      } ],
      "subject": {
        "reference": "Patient/2c96df6e-89f2-4cf6-8390-650767f59512"
      },
      "period": {
        "start": "2026-09-29T20:00:00.000+00:00",
        "end": "2026-10-04T08:15:00.000+00:00"
      }
    },
    "request": {
      "method": "PUT",
      "url": "Encounter/cffc21b4-6dc2-44f7-80d5-69570dbe67be"
    }
  }, {
    "fullUrl": "https://madie.cms.gov/MeasureReport/29fb0fd8-e3b7-459e-a970-9e120bd6b029",
    "resource": {
      "resourceType": "MeasureReport",
      "id": "29fb0fd8-e3b7-459e-a970-9e120bd6b029",
      "meta": {
        "profile": [ "http://hl7.org/fhir/us/cqfmeasures/StructureDefinition/test-case-cqfm" ]
      },
      "contained": [ {
        "resourceType": "Parameters",
        "id": "e6a29411-8a79-446d-8a62-babe939e0b30-parameters",
        "parameter": [ {
          "name": "subject",
          "valueString": "9baac6c5-1826-4c06-a4a4-6ef5bfda76ba"
        } ]
      } ],
      "extension": [ {
        "url": "http://hl7.org/fhir/us/cqfmeasures/StructureDefinition/cqfm-inputParameters",
        "valueReference": {
          "reference": "#e6a29411-8a79-446d-8a62-babe939e0b30-parameters"
        }
      }, {
        "url": "http://hl7.org/fhir/us/cqfmeasures/StructureDefinition/cqfm-testCaseDescription",
        "valueMarkdown": "2TimeIncreaseInCreatUseRelevantPeriod FEMALE\nVScode: Numerator=[Encounter(id=NUMERPass-SCrIncrease2x-02)]"
      } ],
      "modifierExtension": [ {
        "url": "http://hl7.org/fhir/us/cqfmeasures/StructureDefinition/cqfm-isTestCase",
        "valueBoolean": true
      } ],
      "status": "complete",
      "type": "individual",
      "measure": "https://madie.cms.gov/Measure/CMS832HHAKIFHIR",
      "period": {
        "start": "2026-01-01",
        "end": "2026-12-31"
      },
      "group": [ {
        "id": "67b50f879214df46de2f1fdb",
        "population": [ {
          "id": "DA0D3694-7F57-4FB9-8410-1F64E44CA01E",
          "code": {
            "coding": [ {
              "system": "http://terminology.hl7.org/CodeSystem/measure-population",
              "code": "initial-population",
              "display": "Initial Population"
            } ]
          },
          "count": 1
        }, {
          "id": "624D8554-9CB0-4BF0-882D-05C4F88BCC2C",
          "code": {
            "coding": [ {
              "system": "http://terminology.hl7.org/CodeSystem/measure-population",
              "code": "denominator",
              "display": "Denominator"
            } ]
          },
          "count": 1
        }, {
          "id": "000FF050-D4A2-4C8B-8123-4538D35D5441",
          "code": {
            "coding": [ {
              "system": "http://terminology.hl7.org/CodeSystem/measure-population",
              "code": "denominator-exclusion",
              "display": "Denominator Exclusion"
            } ]
          },
          "count": 0
        }, {
          "id": "01644D07-D9F8-403E-A66D-109ABA29BB6E",
          "code": {
            "coding": [ {
              "system": "http://terminology.hl7.org/CodeSystem/measure-population",
              "code": "numerator",
              "display": "Numerator"
            } ]
          },
          "count": 1
        } ],
        "measureScore": {
          "value": 0
        }
      } ],
      "evaluatedResource": [ {
        "reference": "Patient/2c96df6e-89f2-4cf6-8390-650767f59512"
      }, {
        "reference": "Encounter/dca2e8d1-b3c5-4112-b9dc-a6479189ff46"
      }, {
        "reference": "Encounter/cffc21b4-6dc2-44f7-80d5-69570dbe67be"
      }, {
        "reference": "Observation/20ac11ce-6ac3-4ca8-a7cb-4b4b814ca18e"
      }, {
        "reference": "Observation/d4545426-4dbc-4ac5-a76c-25e379209a42"
      }, {
        "reference": "Observation/f7cca849-075d-445b-aa42-2079c3703c8a"
      }, {
        "reference": "Observation/65d4df95-965d-4d2f-97eb-1aabdf44b4a4"
      }, {
        "reference": "Coverage/9bee9375-f26f-4b14-b1ab-8e10ef3b065d"
      }, {
        "reference": "Organization/19c3e3f2-d76d-459c-84e3-a20977d9291a"
      } ]
    },
    "request": {
      "method": "PUT",
      "url": "MeasureReport/29fb0fd8-e3b7-459e-a970-9e120bd6b029"
    }
  }, {
    "fullUrl": "https://madie.cms.gov/Observation/20ac11ce-6ac3-4ca8-a7cb-4b4b814ca18e",
    "resource": {
      "resourceType": "Observation",
      "id": "20ac11ce-6ac3-4ca8-a7cb-4b4b814ca18e",
      "meta": {
        "profile": [ "http://hl7.org/fhir/us/qicore/StructureDefinition/qicore-observation-lab" ]
      },
      "status": "final",
      "category": [ {
        "coding": [ {
          "system": "http://terminology.hl7.org/CodeSystem/observation-category",
          "code": "laboratory",
          "display": "Laboratory"
        } ]
      } ],
      "code": {
        "coding": [ {
          "system": "http://loinc.org",
          "version": "2.72",
          "code": "2160-0",
          "display": "Creatinine [Mass/volume] in Serum or Plasma",
          "userSelected": true
        } ]
      },
      "subject": {
        "reference": "Patient/2c96df6e-89f2-4cf6-8390-650767f59512"
      },
      "effectiveDateTime": "2026-09-30T09:00:00.000+00:00",
      "issued": "2026-09-30T09:30:00.000+00:00",
      "valueQuantity": {
        "value": 1.1,
        "unit": "mg/dL",
        "system": "http://unitsofmeasure.org",
        "code": "mg/dL"
      }
    },
    "request": {
      "method": "PUT",
      "url": "Observation/20ac11ce-6ac3-4ca8-a7cb-4b4b814ca18e"
    }
  }, {
    "fullUrl": "https://madie.cms.gov/Observation/65d4df95-965d-4d2f-97eb-1aabdf44b4a4",
    "resource": {
      "resourceType": "Observation",
      "id": "65d4df95-965d-4d2f-97eb-1aabdf44b4a4",
      "meta": {
        "profile": [ "http://hl7.org/fhir/us/qicore/StructureDefinition/qicore-observation-lab" ]
      },
      "status": "final",
      "category": [ {
        "coding": [ {
          "system": "http://terminology.hl7.org/CodeSystem/observation-category",
          "code": "laboratory",
          "display": "Laboratory"
        } ]
      } ],
      "code": {
        "coding": [ {
          "system": "http://loinc.org",
          "code": "2160-0",
          "display": "Creatinine [Mass/volume] in Serum or Plasma"
        } ]
      },
      "subject": {
        "reference": "Patient/2c96df6e-89f2-4cf6-8390-650767f59512"
      },
      "effectiveDateTime": "2026-10-03T08:00:00.000+00:00",
      "issued": "2026-10-03T08:30:00.000+00:00",
      "valueQuantity": {
        "value": 2.2,
        "unit": "mg/dL",
        "system": "http://unitsofmeasure.org",
        "code": "mg/dL"
      }
    },
    "request": {
      "method": "PUT",
      "url": "Observation/65d4df95-965d-4d2f-97eb-1aabdf44b4a4"
    }
  }, {
    "fullUrl": "https://madie.cms.gov/Observation/d4545426-4dbc-4ac5-a76c-25e379209a42",
    "resource": {
      "resourceType": "Observation",
      "id": "d4545426-4dbc-4ac5-a76c-25e379209a42",
      "meta": {
        "profile": [ "http://hl7.org/fhir/us/qicore/StructureDefinition/qicore-observation-lab" ]
      },
      "status": "final",
      "category": [ {
        "coding": [ {
          "system": "http://terminology.hl7.org/CodeSystem/observation-category",
          "code": "laboratory",
          "display": "Laboratory"
        } ]
      } ],
      "code": {
        "coding": [ {
          "system": "http://loinc.org",
          "version": "2.72",
          "code": "2160-0",
          "display": "Creatinine [Mass/volume] in Serum or Plasma",
          "userSelected": true
        } ]
      },
      "subject": {
        "reference": "Patient/2c96df6e-89f2-4cf6-8390-650767f59512"
      },
      "effectiveDateTime": "2026-09-30T08:00:00.000+00:00",
      "issued": "2026-09-30T08:30:00.000+00:00",
      "valueQuantity": {
        "value": 1,
        "unit": "mg/dL",
        "system": "http://unitsofmeasure.org",
        "code": "mg/dL"
      }
    },
    "request": {
      "method": "PUT",
      "url": "Observation/d4545426-4dbc-4ac5-a76c-25e379209a42"
    }
  }, {
    "fullUrl": "https://madie.cms.gov/Coverage/9bee9375-f26f-4b14-b1ab-8e10ef3b065d",
    "resource": {
      "resourceType": "Coverage",
      "id": "9bee9375-f26f-4b14-b1ab-8e10ef3b065d",
      "meta": {
        "profile": [ "http://hl7.org/fhir/us/qicore/StructureDefinition/qicore-coverage" ]
      },
      "status": "active",
      "type": {
        "coding": [ {
          "system": "https://nahdo.org/sopt",
          "version": "9.2",
          "code": "211",
          "display": "Medicaid HMO"
        } ]
      },
      "beneficiary": {
        "reference": "Patient/2c96df6e-89f2-4cf6-8390-650767f59512"
      },
      "period": {
        "start": "2024-12-01T00:00:00.000+00:00"
      },
      "payor": [ {
        "reference": "Organization/19c3e3f2-d76d-459c-84e3-a20977d9291a"
      } ]
    },
    "request": {
      "method": "PUT",
      "url": "Coverage/9bee9375-f26f-4b14-b1ab-8e10ef3b065d"
    }
  }, {
    "fullUrl": "https://madie.cms.gov/Procedure/7a1005c6-03c6-476c-8fce-a6059bb71c7a",
    "resource": {
      "resourceType": "Procedure",
      "id": "7a1005c6-03c6-476c-8fce-a6059bb71c7a",
      "meta": {
        "profile": [ "http://hl7.org/fhir/us/qicore/StructureDefinition/qicore-procedure" ]
      },
      "status": "completed",
      "code": {
        "coding": [ {
          "system": "http://snomed.info/sct",
          "code": "11932001"
        } ]
      },
      "subject": {
        "reference": "Patient/2c96df6e-89f2-4cf6-8390-650767f59512"
      },
      "performedDateTime": "2026-09-30T08:30:00.000+00:00",
      "performer": [ {
        "actor": {
          "reference": "Organization/19c3e3f2-d76d-459c-84e3-a20977d9291a"
        }
      } ]
    },
    "request": {
      "method": "PUT",
      "url": "Procedure/7a1005c6-03c6-476c-8fce-a6059bb71c7a"
    }
  }, {
    "fullUrl": "https://madie.cms.gov/Patient/2c96df6e-89f2-4cf6-8390-650767f59512",
    "resource": {
      "resourceType": "Patient",
      "id": "2c96df6e-89f2-4cf6-8390-650767f59512",
      "meta": {
        "profile": [ "http://hl7.org/fhir/us/qicore/StructureDefinition/qicore-patient" ]
      },
      "text": {
        "status": "generated",
        "div": "<div xmlns=\"http://www.w3.org/1999/xhtml\"><div class=\"hapiHeaderText\">Turns 18 day of Encounter <b>NUMERPass </b></div><table class=\"hapiPropertyTable\"><tbody><tr><td>Identifier</td><td>f0eda1c9668fdacdcad3378589bf6e0a71e7dec1618f14fca4d442ec96e402b1</td></tr><tr><td>Date of birth</td><td><span>29 September 2006</span></td></tr></tbody></table></div>"
      },
      "extension": [ {
        "url": "http://hl7.org/fhir/us/core/StructureDefinition/us-core-race",
        "extension": [ {
          "url": "ombCategory",
          "valueCoding": {
            "system": "urn:oid:2.16.840.1.113883.6.238",
            "code": "1002-5",
            "display": "American Indian or Alaska Native",
            "userSelected": true
          }
        }, {
          "url": "text",
          "valueString": "American Indian or Alaska Native"
        } ]
      }, {
        "url": "http://hl7.org/fhir/us/core/StructureDefinition/us-core-ethnicity",
        "extension": [ {
          "url": "ombCategory",
          "valueCoding": {
            "system": "urn:oid:2.16.840.1.113883.6.238",
            "code": "2135-2",
            "display": "Hispanic or Latino",
            "userSelected": true
          }
        }, {
          "url": "text",
          "valueString": "Hispanic or Latino"
        } ]
      }, {
        "url": "http://hl7.org/fhir/us/core/StructureDefinition/us-core-sex",
        "valueCode": "248152002"
      } ],
      "identifier": [ {
        "type": {
          "coding": [ {
            "system": "http://terminology.hl7.org/CodeSystem/v2-0203",
            "code": "MR"
          } ]
        },
        "system": "http://bonnie-fhir.healthit.gov/",
        "value": "NUMERPass-SCrIncrease2x"
      } ],
      "active": true,
      "name": [ {
        "use": "usual",
        "family": "NUMERPass",
        "given": [ "SCrIncrease2x" ]
      } ],
      "gender": "female",
      "birthDate": "1983-10-10"
    },
    "request": {
      "method": "PUT",
      "url": "Patient/2c96df6e-89f2-4cf6-8390-650767f59512"
    }
  }, {
    "fullUrl": "https://madie.cms.gov/MeasureReport/67c5678c-d14c-478b-9c65-4cc762facbcc",
    "resource": {
      "resourceType": "MeasureReport",
      "id": "67c5678c-d14c-478b-9c65-4cc762facbcc",
      "meta": {
        "profile": [ "http://hl7.org/fhir/us/cqfmeasures/StructureDefinition/test-case-cqfm" ]
      },
      "contained": [ {
        "resourceType": "Parameters",
        "id": "6fbbeae0-d364-4541-a3cd-1399349acc60-parameters",
        "parameter": [ {
          "name": "subject",
          "valueString": "2c96df6e-89f2-4cf6-8390-650767f59512"
        } ]
      } ],
      "extension": [ {
        "url": "http://hl7.org/fhir/StructureDefinition/cqf-inputParameters",
        "valueReference": {
          "reference": "#6fbbeae0-d364-4541-a3cd-1399349acc60-parameters"
        }
      }, {
        "url": "http://hl7.org/fhir/us/cqfmeasures/StructureDefinition/cqfm-testCaseDescription",
        "valueMarkdown": "2TimeIncreaseInCreatUseRelevantPeriod FEMALE\nDialysis performed less than 48 hours after encounter start\n"
      } ],
      "modifierExtension": [ {
        "url": "http://hl7.org/fhir/us/cqfmeasures/StructureDefinition/cqfm-isTestCase",
        "valueBoolean": true
      } ],
      "status": "complete",
      "type": "individual",
      "measure": "https://madie.cms.gov/Measure/CMS832HHAKIFHIR",
      "period": {
        "start": "2026-01-01",
        "end": "2026-12-31"
      },
      "group": [ {
        "id": "Group_1",
        "population": [ {
          "id": "InitialPopulation_1",
          "code": {
            "coding": [ {
              "system": "http://terminology.hl7.org/CodeSystem/measure-population",
              "code": "initial-population",
              "display": "Initial Population"
            } ]
          },
          "count": 1
        }, {
          "id": "Denominator_1",
          "code": {
            "coding": [ {
              "system": "http://terminology.hl7.org/CodeSystem/measure-population",
              "code": "denominator",
              "display": "Denominator"
            } ]
          },
          "count": 1
        }, {
          "id": "DenominatorExclusion_1",
          "code": {
            "coding": [ {
              "system": "http://terminology.hl7.org/CodeSystem/measure-population",
              "code": "denominator-exclusion",
              "display": "Denominator Exclusion"
            } ]
          },
          "count": 0
        }, {
          "id": "Numerator_1",
          "code": {
            "coding": [ {
              "system": "http://terminology.hl7.org/CodeSystem/measure-population",
              "code": "numerator",
              "display": "Numerator"
            } ]
          },
          "count": 1
        } ],
        "measureScore": {
          "value": 0.0
        }
      } ],
      "evaluatedResource": [ {
        "reference": "Encounter/dca2e8d1-b3c5-4112-b9dc-a6479189ff46"
      }, {
        "reference": "Organization/19c3e3f2-d76d-459c-84e3-a20977d9291a"
      }, {
        "reference": "Observation/f7cca849-075d-445b-aa42-2079c3703c8a"
      }, {
        "reference": "Encounter/cffc21b4-6dc2-44f7-80d5-69570dbe67be"
      }, {
        "reference": "MeasureReport/29fb0fd8-e3b7-459e-a970-9e120bd6b029"
      }, {
        "reference": "Observation/20ac11ce-6ac3-4ca8-a7cb-4b4b814ca18e"
      }, {
        "reference": "Observation/65d4df95-965d-4d2f-97eb-1aabdf44b4a4"
      }, {
        "reference": "Observation/d4545426-4dbc-4ac5-a76c-25e379209a42"
      }, {
        "reference": "Coverage/9bee9375-f26f-4b14-b1ab-8e10ef3b065d"
      }, {
        "reference": "Procedure/7a1005c6-03c6-476c-8fce-a6059bb71c7a"
      }, {
        "reference": "Patient/2c96df6e-89f2-4cf6-8390-650767f59512"
      } ]
    },
    "request": {
      "method": "PUT",
      "url": "MeasureReport/67c5678c-d14c-478b-9c65-4cc762facbcc"
    }
  } ]
}