{
  "resourceType": "Bundle",
  "id": "NUMERFail-IPStartsGTOneHrFromObservationEnd",
  "type": "transaction",
  "entry": [ {
    "fullUrl": "https://madie.cms.gov/Encounter/ed248762-f38b-4587-bcae-fb74f541d54f",
    "resource": {
      "resourceType": "Encounter",
      "id": "ed248762-f38b-4587-bcae-fb74f541d54f",
      "meta": {
        "profile": [ "http://hl7.org/fhir/us/qicore/StructureDefinition/qicore-encounter" ]
      },
      "status": "finished",
      "class": {
        "system": "http://terminology.hl7.org/CodeSystem/v3-ActCode",
        "code": "IMP",
        "display": "inpatient encounter"
      },
      "type": [ {
        "coding": [ {
          "system": "http://snomed.info/sct",
          "code": "183452005"
        } ]
      } ],
      "subject": {
        "reference": "Patient/8b63d691-46a8-4ce6-8dee-60aea7f34f82"
      },
      "period": {
        "start": "2026-11-07T09:16:00.000+00:00",
        "end": "2026-11-09T08:15:00.000+00:00"
      },
      "diagnosis": [ {
        "extension": [ {
          "url": "http://hl7.org/fhir/us/qicore/StructureDefinition/qicore-encounter-diagnosisPresentOnAdmission",
          "valueCodeableConcept": {
            "coding": [ {
              "system": "https://www.cms.gov/Medicare/Medicare-Fee-for-Service-Payment/HospitalAcqCond/Coding",
              "code": "N"
            } ]
          }
        } ],
        "condition": {
          "reference": "Condition/7c61b5a3-bac1-4b5c-a557-d5e0ed3ea0fa"
        }
      } ]
    },
    "request": {
      "method": "PUT",
      "url": "Encounter/ed248762-f38b-4587-bcae-fb74f541d54f"
    }
  }, {
    "fullUrl": "https://madie.cms.gov/Encounter/3633a068-1096-4e1d-94e6-22eaef39f0ae",
    "resource": {
      "resourceType": "Encounter",
      "id": "3633a068-1096-4e1d-94e6-22eaef39f0ae",
      "meta": {
        "profile": [ "http://hl7.org/fhir/us/qicore/StructureDefinition/qicore-encounter" ]
      },
      "status": "finished",
      "class": {
        "system": "http://terminology.hl7.org/CodeSystem/v3-ActCode",
        "code": "IMP",
        "display": "inpatient encounter"
      },
      "type": [ {
        "coding": [ {
          "system": "http://snomed.info/sct",
          "code": "448951000124107"
        } ]
      } ],
      "subject": {
        "reference": "Patient/8b63d691-46a8-4ce6-8dee-60aea7f34f82"
      },
      "period": {
        "start": "2026-11-06T08:00:00.000+00:00",
        "end": "2026-11-07T08:15:00.000+00:00"
      }
    },
    "request": {
      "method": "PUT",
      "url": "Encounter/3633a068-1096-4e1d-94e6-22eaef39f0ae"
    }
  }, {
    "fullUrl": "https://madie.cms.gov/Condition/7c61b5a3-bac1-4b5c-a557-d5e0ed3ea0fa",
    "resource": {
      "resourceType": "Condition",
      "id": "7c61b5a3-bac1-4b5c-a557-d5e0ed3ea0fa",
      "meta": {
        "profile": [ "http://hl7.org/fhir/us/qicore/StructureDefinition/qicore-condition" ]
      },
      "clinicalStatus": {
        "coding": [ {
          "system": "http://terminology.hl7.org/CodeSystem/condition-clinical",
          "code": "active"
        } ]
      },
      "verificationStatus": {
        "coding": [ {
          "system": "http://terminology.hl7.org/CodeSystem/condition-ver-status",
          "code": "confirmed"
        } ]
      },
      "category": [ {
        "coding": [ {
          "system": "http://terminology.hl7.org/CodeSystem/condition-category",
          "code": "encounter-diagnosis",
          "display": "Encounter Diagnosis"
        } ]
      } ],
      "code": {
        "coding": [ {
          "system": "http://hl7.org/fhir/sid/icd-10-cm",
          "code": "S01.312A"
        } ]
      },
      "subject": {
        "reference": "Patient/8b63d691-46a8-4ce6-8dee-60aea7f34f82"
      },
      "encounter": {
        "reference": "Encounter/ed248762-f38b-4587-bcae-fb74f541d54f"
      }
    },
    "request": {
      "method": "PUT",
      "url": "Condition/7c61b5a3-bac1-4b5c-a557-d5e0ed3ea0fa"
    }
  }, {
    "fullUrl": "https://madie.cms.gov/Patient/8b63d691-46a8-4ce6-8dee-60aea7f34f82",
    "resource": {
      "resourceType": "Patient",
      "id": "8b63d691-46a8-4ce6-8dee-60aea7f34f82",
      "meta": {
        "profile": [ "http://hl7.org/fhir/us/qicore/StructureDefinition/qicore-patient" ]
      },
      "extension": [ {
        "url": "http://hl7.org/fhir/us/core/StructureDefinition/us-core-race",
        "extension": [ {
          "url": "ombCategory",
          "valueCoding": {
            "system": "urn:oid:2.16.840.1.113883.6.238",
            "code": "2054-5",
            "display": "Black or African American",
            "userSelected": true
          }
        }, {
          "url": "text",
          "valueString": "Black or African American"
        } ]
      }, {
        "url": "http://hl7.org/fhir/us/core/StructureDefinition/us-core-ethnicity",
        "extension": [ {
          "url": "ombCategory",
          "valueCoding": {
            "system": "urn:oid:2.16.840.1.113883.6.238",
            "code": "2186-5",
            "display": "Not Hispanic or Latino",
            "userSelected": true
          }
        }, {
          "url": "text",
          "valueString": "Not Hispanic or Latino"
        } ]
      } ],
      "identifier": [ {
        "type": {
          "coding": [ {
            "system": "http://terminology.hl7.org/CodeSystem/v2-0203",
            "code": "MR"
          } ]
        },
        "system": "https://bonnie-fhir.healthit.gov/",
        "value": "61152a3b98086b7a79cbd7c1"
      } ],
      "active": true,
      "name": [ {
        "use": "usual",
        "family": "NUMERFail",
        "given": [ "IPStartsGTOneHrFromObservationEnd" ]
      } ],
      "gender": "male",
      "birthDate": "1964-12-11"
    },
    "request": {
      "method": "PUT",
      "url": "Patient/8b63d691-46a8-4ce6-8dee-60aea7f34f82"
    }
  }, {
    "fullUrl": "https://madie.cms.gov/AdverseEvent/31de8b17-05f3-4613-8e20-45bee789d380",
    "resource": {
      "resourceType": "AdverseEvent",
      "id": "31de8b17-05f3-4613-8e20-45bee789d380",
      "meta": {
        "profile": [ "http://hl7.org/fhir/us/qicore/StructureDefinition/qicore-adverseevent" ]
      },
      "actuality": "actual",
      "event": {
        "coding": [ {
          "system": "http://snomed.info/sct",
          "code": "217082002"
        } ]
      },
      "subject": {
        "reference": "Patient/8b63d691-46a8-4ce6-8dee-60aea7f34f82"
      },
      "date": "2026-11-06T09:00:00.000+00:00"
    },
    "request": {
      "method": "PUT",
      "url": "AdverseEvent/31de8b17-05f3-4613-8e20-45bee789d380"
    }
  }, {
    "fullUrl": "https://madie.cms.gov/MeasureReport/52ba7ca3-f735-430a-9572-773ed98d5ae3",
    "resource": {
      "resourceType": "MeasureReport",
      "id": "52ba7ca3-f735-430a-9572-773ed98d5ae3",
      "meta": {
        "profile": [ "http://hl7.org/fhir/us/cqfmeasures/StructureDefinition/test-case-cqfm" ]
      },
      "contained": [ {
        "resourceType": "Parameters",
        "id": "1571603a-2aeb-459d-b6fa-0399fc3404fb-parameters",
        "parameter": [ {
          "name": "subject",
          "valueString": "8b63d691-46a8-4ce6-8dee-60aea7f34f82"
        } ]
      } ],
      "extension": [ {
        "url": "http://hl7.org/fhir/StructureDefinition/cqf-inputParameters",
        "valueReference": {
          "reference": "#1571603a-2aeb-459d-b6fa-0399fc3404fb-parameters"
        }
      }, {
        "url": "http://hl7.org/fhir/us/cqfmeasures/StructureDefinition/cqfm-testCaseDescription",
        "valueMarkdown": "Patient w/ adverse event Fall in Observation. IP admission starts 1 hour  + 1 minute after Observation ends. IP has dx of injury NPOA, but does not meet Numerator because Observation is not part of encounter - IP start must be within 1hr from Obs end"
      } ],
      "modifierExtension": [ {
        "url": "http://hl7.org/fhir/us/cqfmeasures/StructureDefinition/cqfm-isTestCase",
        "valueBoolean": true
      } ],
      "status": "complete",
      "type": "individual",
      "measure": "https://madie.cms.gov/Measure/CMS1017FHIRHHFI",
      "period": {
        "start": "2026-01-01",
        "end": "2026-12-31"
      },
      "group": [ {
        "id": "Group_1",
        "population": [ {
          "id": "InitialPopulation_1",
          "code": {
            "coding": [ {
              "system": "http://terminology.hl7.org/CodeSystem/measure-population",
              "code": "initial-population",
              "display": "Initial Population"
            } ]
          },
          "count": 1
        }, {
          "id": "Denominator_1",
          "code": {
            "coding": [ {
              "system": "http://terminology.hl7.org/CodeSystem/measure-population",
              "code": "denominator",
              "display": "Denominator"
            } ]
          },
          "count": 1
        }, {
          "id": "DenominatorExclusion_1",
          "code": {
            "coding": [ {
              "system": "http://terminology.hl7.org/CodeSystem/measure-population",
              "code": "denominator-exclusion",
              "display": "Denominator Exclusion"
            } ]
          },
          "count": 0
        }, {
          "id": "Numerator_1",
          "code": {
            "coding": [ {
              "system": "http://terminology.hl7.org/CodeSystem/measure-population",
              "code": "numerator",
              "display": "Numerator"
            } ]
          },
          "count": 0
        }, {
          "id": "NumeratorExclusion_1",
          "code": {
            "coding": [ {
              "system": "http://terminology.hl7.org/CodeSystem/measure-population",
              "code": "numerator-exclusion",
              "display": "Numerator Exclusion"
            } ]
          },
          "count": 0
        }, {
          "id": "MeasureObservation_1_1_1",
          "code": {
            "coding": [ {
              "system": "http://terminology.hl7.org/CodeSystem/measure-population",
              "code": "measure-observation",
              "display": "Measure Observation"
            } ]
          },
          "count": 1
        } ],
        "measureScore": {
          "value": 0.0
        }
      } ],
      "evaluatedResource": [ {
        "reference": "Encounter/ed248762-f38b-4587-bcae-fb74f541d54f"
      }, {
        "reference": "Encounter/3633a068-1096-4e1d-94e6-22eaef39f0ae"
      }, {
        "reference": "Condition/7c61b5a3-bac1-4b5c-a557-d5e0ed3ea0fa"
      }, {
        "reference": "Patient/8b63d691-46a8-4ce6-8dee-60aea7f34f82"
      }, {
        "reference": "AdverseEvent/31de8b17-05f3-4613-8e20-45bee789d380"
      } ]
    },
    "request": {
      "method": "PUT",
      "url": "MeasureReport/52ba7ca3-f735-430a-9572-773ed98d5ae3"
    }
  } ]
}