{
  "resourceType": "Bundle",
  "id": "612e6ef202c62a011f2f0202",
  "type": "transaction",
  "entry": [ {
    "fullUrl": "https://madie.cms.gov/Patient/723ff153-68bd-455e-a841-4632cfde7193",
    "resource": {
      "resourceType": "Patient",
      "id": "723ff153-68bd-455e-a841-4632cfde7193",
      "meta": {
        "profile": [ "http://hl7.org/fhir/us/qicore/StructureDefinition/qicore-patient" ]
      },
      "text": {
        "status": "generated",
        "div": "<div xmlns=\"http://www.w3.org/1999/xhtml\"><div class=\"hapiHeaderText\">INREQ3AfterICU <b>NUMERFAIL </b></div><table class=\"hapiPropertyTable\"><tbody><tr><td>Identifier</td><td>2a602c8f4a3fe9ea878f24c5526d40d3</td></tr><tr><td>Date of birth</td><td><span>03 March 1974</span></td></tr></tbody></table></div>"
      },
      "extension": [ {
        "url": "http://hl7.org/fhir/us/core/StructureDefinition/us-core-race",
        "extension": [ {
          "url": "ombCategory",
          "valueCoding": {
            "system": "urn:oid:2.16.840.1.113883.6.238",
            "code": "1002-5",
            "display": "American Indian or Alaska Native",
            "userSelected": true
          }
        }, {
          "url": "text",
          "valueString": "American Indian or Alaska Native"
        } ]
      }, {
        "url": "http://hl7.org/fhir/us/core/StructureDefinition/us-core-ethnicity",
        "extension": [ {
          "url": "ombCategory",
          "valueCoding": {
            "system": "urn:oid:2.16.840.1.113883.6.238",
            "code": "2135-2",
            "display": "Hispanic or Latino",
            "userSelected": true
          }
        }, {
          "url": "text",
          "valueString": "Hispanic or Latino"
        } ]
      } ],
      "identifier": [ {
        "type": {
          "coding": [ {
            "system": "http://terminology.hl7.org/CodeSystem/v2-0203",
            "code": "MR"
          } ]
        },
        "system": "https://bonnie-fhir.healthit.gov/",
        "value": "612e6ef202c62a011f2f0202"
      } ],
      "active": true,
      "name": [ {
        "use": "usual",
        "family": "NUMERFail",
        "given": [ "INREQ3AfterICU " ]
      } ],
      "gender": "female",
      "birthDate": "1975-03-03"
    },
    "request": {
      "method": "PUT",
      "url": "Patient/723ff153-68bd-455e-a841-4632cfde7193"
    }
  }, {
    "fullUrl": "https://madie.cms.gov/Encounter/9b337330-00a4-4ece-8cd4-7de918666369",
    "resource": {
      "resourceType": "Encounter",
      "id": "9b337330-00a4-4ece-8cd4-7de918666369",
      "meta": {
        "profile": [ "http://hl7.org/fhir/us/qicore/StructureDefinition/qicore-encounter" ]
      },
      "status": "finished",
      "class": {
        "system": "http://terminology.hl7.org/CodeSystem/v3-ActCode",
        "code": "IMP",
        "display": "inpatient encounter"
      },
      "type": [ {
        "coding": [ {
          "system": "http://snomed.info/sct",
          "code": "8715000"
        } ]
      } ],
      "subject": {
        "reference": "Patient/723ff153-68bd-455e-a841-4632cfde7193"
      },
      "period": {
        "start": "2026-12-04T08:00:00.000+00:00",
        "end": "2026-12-30T08:15:00.000+00:00"
      },
      "length": {
        "value": 26,
        "unit": "days"
      },
      "location": [ {
        "location": {
          "reference": "Location/8a6d73a0-f876-4888-b6a0-9d583f1aaf4a"
        },
        "period": {
          "start": "2026-12-06T09:00:00.000+00:00",
          "end": "2026-12-12T08:15:00.000+00:00"
        }
      } ]
    },
    "request": {
      "method": "PUT",
      "url": "Encounter/9b337330-00a4-4ece-8cd4-7de918666369"
    }
  }, {
    "fullUrl": "https://madie.cms.gov/Coverage/7d57f0a8-2d8f-4755-bb55-ee5fc7384cfc",
    "resource": {
      "resourceType": "Coverage",
      "id": "7d57f0a8-2d8f-4755-bb55-ee5fc7384cfc",
      "status": "active",
      "beneficiary": {
        "reference": "Patient/723ff153-68bd-455e-a841-4632cfde7193"
      },
      "period": {
        "start": "1975-03-03T08:00:00.000+00:00"
      },
      "payor": [ {
        "reference": "Organization/99af1151-c432-4020-b8d2-5d6e94575d74"
      } ]
    },
    "request": {
      "method": "PUT",
      "url": "Coverage/7d57f0a8-2d8f-4755-bb55-ee5fc7384cfc"
    }
  }, {
    "fullUrl": "https://madie.cms.gov/Observation/e90bdba6-8ba6-47d3-b29a-5e650065ae82",
    "resource": {
      "resourceType": "Observation",
      "id": "e90bdba6-8ba6-47d3-b29a-5e650065ae82",
      "meta": {
        "profile": [ "http://hl7.org/fhir/us/qicore/StructureDefinition/qicore-observation-lab" ]
      },
      "status": "amended",
      "category": [ {
        "coding": [ {
          "system": "http://terminology.hl7.org/CodeSystem/observation-category",
          "code": "laboratory",
          "display": "Laboratory"
        } ]
      } ],
      "code": {
        "coding": [ {
          "system": "http://loinc.org",
          "code": "34714-6"
        } ]
      },
      "subject": {
        "reference": "Patient/723ff153-68bd-455e-a841-4632cfde7193"
      },
      "effectivePeriod": {
        "start": "2026-12-06T11:30:00.000+00:00"
      },
      "valueInteger": 3
    },
    "request": {
      "method": "PUT",
      "url": "Observation/e90bdba6-8ba6-47d3-b29a-5e650065ae82"
    }
  }, {
    "fullUrl": "https://madie.cms.gov/Location/8a6d73a0-f876-4888-b6a0-9d583f1aaf4a",
    "resource": {
      "resourceType": "Location",
      "id": "8a6d73a0-f876-4888-b6a0-9d583f1aaf4a",
      "meta": {
        "profile": [ "http://hl7.org/fhir/us/qicore/StructureDefinition/qicore-location" ]
      },
      "identifier": [ {
        "use": "usual",
        "system": "http://exampleoflocation.com",
        "value": "B1-S.F2"
      } ],
      "name": "Medical Surgical East, first floor",
      "type": [ {
        "coding": [ {
          "system": "https://www.cdc.gov/nhsn/cdaportal/terminology/codesystem/hsloc.html",
          "code": "1025-6",
          "display": "Trauma Critical Care",
          "userSelected": true
        } ]
      } ]
    },
    "request": {
      "method": "PUT",
      "url": "Location/8a6d73a0-f876-4888-b6a0-9d583f1aaf4a"
    }
  }, {
    "fullUrl": "https://madie.cms.gov/Organization/99af1151-c432-4020-b8d2-5d6e94575d74",
    "resource": {
      "resourceType": "Organization",
      "id": "99af1151-c432-4020-b8d2-5d6e94575d74",
      "meta": {
        "profile": [ "http://hl7.org/fhir/us/qicore/StructureDefinition/qicore-organization" ]
      },
      "identifier": [ {
        "use": "temp",
        "system": "urn:oid:2.16.840.1.113883.4.4",
        "value": "21-3259825"
      } ],
      "active": true,
      "type": [ {
        "coding": [ {
          "system": "http://terminology.hl7.org/CodeSystem/organization-type",
          "code": "pay",
          "display": "Payer"
        } ]
      } ],
      "name": "Blue Cross Blue Shield of Texas",
      "telecom": [ {
        "system": "phone",
        "value": "(+1) 972-766-6900"
      } ],
      "address": [ {
        "use": "billing",
        "type": "postal",
        "line": [ "P.O. Box 660044" ],
        "city": "Dallas",
        "state": "TX",
        "postalCode": "75266-0044",
        "country": "USA"
      } ]
    },
    "request": {
      "method": "PUT",
      "url": "Organization/99af1151-c432-4020-b8d2-5d6e94575d74"
    }
  }, {
    "fullUrl": "https://madie.cms.gov/Practitioner/56f9d5b3-3603-44b0-af75-af444106b5ce",
    "resource": {
      "resourceType": "Practitioner",
      "id": "56f9d5b3-3603-44b0-af75-af444106b5ce",
      "identifier": [ {
        "system": "http://hl7.org/fhir/sid/us-npi",
        "value": "123456"
      } ],
      "name": [ {
        "family": "Evil",
        "prefix": [ "Dr" ]
      } ]
    },
    "request": {
      "method": "PUT",
      "url": "Practitioner/56f9d5b3-3603-44b0-af75-af444106b5ce"
    }
  }, {
    "fullUrl": "https://madie.cms.gov/MeasureReport/25890834-23b6-4d4c-93c7-c2c94ab3fe98",
    "resource": {
      "resourceType": "MeasureReport",
      "id": "25890834-23b6-4d4c-93c7-c2c94ab3fe98",
      "meta": {
        "profile": [ "http://hl7.org/fhir/us/cqfmeasures/StructureDefinition/test-case-cqfm" ]
      },
      "contained": [ {
        "resourceType": "Parameters",
        "id": "d2e109fd-1c51-489a-8da0-18ca6c31b5a5-parameters",
        "parameter": [ {
          "name": "subject",
          "valueString": "723ff153-68bd-455e-a841-4632cfde7193"
        } ]
      } ],
      "extension": [ {
        "url": "http://hl7.org/fhir/StructureDefinition/cqf-inputParameters",
        "valueReference": {
          "reference": "#d2e109fd-1c51-489a-8da0-18ca6c31b5a5-parameters"
        }
      }, {
        "url": "http://hl7.org/fhir/us/cqfmeasures/StructureDefinition/cqfm-testCaseDescription",
        "valueMarkdown": "FAIL - meets IPP, meets Denominator, INR=3 starts after start ICU\n"
      } ],
      "modifierExtension": [ {
        "url": "http://hl7.org/fhir/us/cqfmeasures/StructureDefinition/cqfm-isTestCase",
        "valueBoolean": true
      } ],
      "status": "complete",
      "type": "individual",
      "measure": "https://madie.cms.gov/Measure/CMS190VTEProphylaxisICUFHIR",
      "period": {
        "start": "2026-01-01",
        "end": "2026-12-31"
      },
      "group": [ {
        "id": "Group_1",
        "population": [ {
          "id": "InitialPopulation_1",
          "code": {
            "coding": [ {
              "system": "http://terminology.hl7.org/CodeSystem/measure-population",
              "code": "initial-population",
              "display": "Initial Population"
            } ]
          },
          "count": 1
        }, {
          "id": "Denominator_1",
          "code": {
            "coding": [ {
              "system": "http://terminology.hl7.org/CodeSystem/measure-population",
              "code": "denominator",
              "display": "Denominator"
            } ]
          },
          "count": 1
        }, {
          "id": "DenominatorExclusion_1",
          "code": {
            "coding": [ {
              "system": "http://terminology.hl7.org/CodeSystem/measure-population",
              "code": "denominator-exclusion",
              "display": "Denominator Exclusion"
            } ]
          },
          "count": 0
        }, {
          "id": "Numerator_1",
          "code": {
            "coding": [ {
              "system": "http://terminology.hl7.org/CodeSystem/measure-population",
              "code": "numerator",
              "display": "Numerator"
            } ]
          },
          "count": 0
        }, {
          "id": "DenominatorException_1",
          "code": {
            "coding": [ {
              "system": "http://terminology.hl7.org/CodeSystem/measure-population",
              "code": "denominator-exception",
              "display": "Denominator Exception"
            } ]
          },
          "count": 0
        } ],
        "measureScore": {
          "value": 0.0
        }
      } ],
      "evaluatedResource": [ {
        "reference": "Patient/723ff153-68bd-455e-a841-4632cfde7193"
      }, {
        "reference": "Encounter/9b337330-00a4-4ece-8cd4-7de918666369"
      }, {
        "reference": "Coverage/7d57f0a8-2d8f-4755-bb55-ee5fc7384cfc"
      }, {
        "reference": "Observation/e90bdba6-8ba6-47d3-b29a-5e650065ae82"
      }, {
        "reference": "Location/8a6d73a0-f876-4888-b6a0-9d583f1aaf4a"
      }, {
        "reference": "Organization/99af1151-c432-4020-b8d2-5d6e94575d74"
      }, {
        "reference": "Practitioner/56f9d5b3-3603-44b0-af75-af444106b5ce"
      } ]
    },
    "request": {
      "method": "PUT",
      "url": "MeasureReport/25890834-23b6-4d4c-93c7-c2c94ab3fe98"
    }
  } ]
}