{
  "resourceType": "Bundle",
  "id": "6129133d02c62a011f2e69a8",
  "type": "transaction",
  "entry": [ {
    "fullUrl": "https://madie.cms.gov/Patient/15e67912-9913-4b22-9f1b-3e86879e1d6d",
    "resource": {
      "resourceType": "Patient",
      "id": "15e67912-9913-4b22-9f1b-3e86879e1d6d",
      "meta": {
        "profile": [ "http://hl7.org/fhir/us/qicore/StructureDefinition/qicore-patient" ]
      },
      "text": {
        "status": "generated",
        "div": "<div xmlns=\"http://www.w3.org/1999/xhtml\"><div class=\"hapiHeaderText\">CMOdurEnc_ED&lt;1hrObs&lt;1hrBFEnc <b>DENEXPASS </b></div><table class=\"hapiPropertyTable\"><tbody><tr><td>Identifier</td><td>7f541e179007ad9d60d9a7087c5b8c8d</td></tr><tr><td>Date of birth</td><td><span>21 August 1994</span></td></tr></tbody></table></div>"
      },
      "extension": [ {
        "url": "http://hl7.org/fhir/us/core/StructureDefinition/us-core-race",
        "extension": [ {
          "url": "ombCategory",
          "valueCoding": {
            "system": "urn:oid:2.16.840.1.113883.6.238",
            "code": "1002-5",
            "display": "American Indian or Alaska Native",
            "userSelected": true
          }
        }, {
          "url": "text",
          "valueString": "American Indian or Alaska Native"
        } ]
      }, {
        "url": "http://hl7.org/fhir/us/core/StructureDefinition/us-core-ethnicity",
        "extension": [ {
          "url": "ombCategory",
          "valueCoding": {
            "system": "urn:oid:2.16.840.1.113883.6.238",
            "code": "2135-2",
            "display": "Hispanic or Latino",
            "userSelected": true
          }
        }, {
          "url": "text",
          "valueString": "Hispanic or Latino"
        } ]
      } ],
      "identifier": [ {
        "type": {
          "coding": [ {
            "system": "http://terminology.hl7.org/CodeSystem/v2-0203",
            "code": "MR"
          } ]
        },
        "system": "https://bonnie-fhir.healthit.gov/",
        "value": "6129133d02c62a011f2e69a8"
      } ],
      "active": true,
      "name": [ {
        "use": "usual",
        "family": "DENEXPass",
        "given": [ "CMOdurEnc_ED<1hrObs<1hrBFEnc" ]
      } ],
      "gender": "male",
      "birthDate": "1995-08-21"
    },
    "request": {
      "method": "PUT",
      "url": "Patient/15e67912-9913-4b22-9f1b-3e86879e1d6d"
    }
  }, {
    "fullUrl": "https://madie.cms.gov/Encounter/9202803b-cf8b-43f8-8771-5dfaf46c594f",
    "resource": {
      "resourceType": "Encounter",
      "id": "9202803b-cf8b-43f8-8771-5dfaf46c594f",
      "meta": {
        "profile": [ "http://hl7.org/fhir/us/qicore/StructureDefinition/qicore-encounter" ]
      },
      "status": "finished",
      "class": {
        "system": "http://terminology.hl7.org/CodeSystem/v3-ActCode",
        "code": "EMER",
        "display": "emergency",
        "userSelected": true
      },
      "type": [ {
        "coding": [ {
          "system": "http://snomed.info/sct",
          "code": "4525004"
        } ]
      } ],
      "subject": {
        "reference": "Patient/15e67912-9913-4b22-9f1b-3e86879e1d6d"
      },
      "period": {
        "start": "2026-10-10T07:30:00+00:00",
        "end": "2026-10-10T07:35:00.000+00:00"
      },
      "length": {
        "value": 0,
        "unit": "days"
      }
    },
    "request": {
      "method": "PUT",
      "url": "Encounter/9202803b-cf8b-43f8-8771-5dfaf46c594f"
    }
  }, {
    "fullUrl": "https://madie.cms.gov/Encounter/5a782b64-5bd9-4144-937c-3dc807312b2b",
    "resource": {
      "resourceType": "Encounter",
      "id": "5a782b64-5bd9-4144-937c-3dc807312b2b",
      "meta": {
        "profile": [ "http://hl7.org/fhir/us/qicore/StructureDefinition/qicore-encounter" ]
      },
      "status": "finished",
      "class": {
        "system": "http://terminology.hl7.org/CodeSystem/v3-ActCode",
        "code": "OBSENC",
        "display": "observation encounter",
        "userSelected": true
      },
      "type": [ {
        "coding": [ {
          "system": "http://snomed.info/sct",
          "code": "448851000124103"
        } ]
      } ],
      "subject": {
        "reference": "Patient/15e67912-9913-4b22-9f1b-3e86879e1d6d"
      },
      "period": {
        "start": "2026-10-10T07:36:00+00:00",
        "end": "2026-10-10T07:40:00.000+00:00"
      },
      "length": {
        "value": 0,
        "unit": "days"
      }
    },
    "request": {
      "method": "PUT",
      "url": "Encounter/5a782b64-5bd9-4144-937c-3dc807312b2b"
    }
  }, {
    "fullUrl": "https://madie.cms.gov/Encounter/d180ed7d-9148-4eee-9d2a-a7f45cbe7167",
    "resource": {
      "resourceType": "Encounter",
      "id": "d180ed7d-9148-4eee-9d2a-a7f45cbe7167",
      "meta": {
        "profile": [ "http://hl7.org/fhir/us/qicore/StructureDefinition/qicore-encounter" ]
      },
      "status": "finished",
      "class": {
        "system": "http://terminology.hl7.org/CodeSystem/v3-ActCode",
        "code": "ACUTE",
        "display": "inpatient acute",
        "userSelected": true
      },
      "type": [ {
        "coding": [ {
          "system": "http://snomed.info/sct",
          "code": "32485007"
        } ]
      } ],
      "subject": {
        "reference": "Patient/15e67912-9913-4b22-9f1b-3e86879e1d6d"
      },
      "period": {
        "start": "2026-10-10T07:41:00+00:00",
        "end": "2026-10-12T10:30:00.000+00:00"
      },
      "length": {
        "value": 2,
        "unit": "days"
      },
      "diagnosis": [ {
        "condition": {
          "reference": "Condition/4aea967c-9f3c-4aad-b301-c177d38f1ed3"
        },
        "use": {
          "coding": [ {
            "system": "http://terminology.hl7.org/CodeSystem/diagnosis-role",
            "code": "billing",
            "display": "Billing"
          } ]
        },
        "rank": 1
      } ]
    },
    "request": {
      "method": "PUT",
      "url": "Encounter/d180ed7d-9148-4eee-9d2a-a7f45cbe7167"
    }
  }, {
    "fullUrl": "https://madie.cms.gov/claim/5ca62962b8484628b8de1ec5",
    "resource": {
      "resourceType": "Claim",
      "id": "5ca62962b8484628b8de1ec5",
      "meta": {
        "profile": [ "http://hl7.org/fhir/us/qicore/StructureDefinition/qicore-claim" ]
      },
      "status": "active",
      "type": {
        "coding": [ {
          "system": "http://terminology.hl7.org/CodeSystem/claim-type",
          "code": "institutional"
        } ]
      },
      "use": "claim",
      "patient": {
        "reference": "Patient/d170a0a8-b5ad-4303-b6df-e304dd5f92ad"
      },
      "created": "2026-12-01",
      "provider": {
        "reference": "Practitioner/practitioner-123456"
      },
      "priority": {
        "coding": [ {
          "system": "http://terminology.hl7.org/CodeSystem/processpriority",
          "code": "normal"
        } ]
      },
      "diagnosis": [ {
        "sequence": 1,
        "diagnosisCodeableConcept": {
          "coding": [ {
            "system": "http://hl7.org/fhir/sid/icd-10-cm",
            "code": "I63.00"
          } ]
        },
        "type": [ {
          "coding": [ {
            "system": "http://terminology.hl7.org/CodeSystem/ex-diagnosistype",
            "code": "principal"
          } ]
        } ]
      } ],
      "insurance": [ {
        "sequence": 1,
        "focal": true,
        "coverage": {
          "reference": "Coverage/5fa041661c76ba66d9959367"
        }
      } ],
      "item": [ {
        "sequence": 1,
        "diagnosisSequence": [ 1 ],
        "productOrService": {
          "coding": [ {
            "system": "http://terminology.hl7.org/CodeSystem/ex-USCLS",
            "code": "99555"
          } ]
        },
        "encounter": [ {
          "reference": "Encounter/d180ed7d-9148-4eee-9d2a-a7f45cbe7167"
        } ]
      } ]
    },
    "request": {
      "method": "PUT",
      "url": "Claim/5ca62962b8484628b8de1ec5"
    }
  }, {
    "fullUrl": "https://madie.cms.gov/ServiceRequest/d882078b-f56c-4773-bcb5-b2c0600e49e2",
    "resource": {
      "resourceType": "ServiceRequest",
      "id": "d882078b-f56c-4773-bcb5-b2c0600e49e2",
      "meta": {
        "profile": [ "http://hl7.org/fhir/us/qicore/StructureDefinition/qicore-servicerequest" ]
      },
      "status": "active",
      "intent": "order",
      "code": {
        "coding": [ {
          "system": "http://snomed.info/sct",
          "code": "133918004"
        } ]
      },
      "subject": {
        "reference": "Patient/15e67912-9913-4b22-9f1b-3e86879e1d6d"
      },
      "authoredOn": "2026-10-10T07:46:00+00:00"
    },
    "request": {
      "method": "PUT",
      "url": "ServiceRequest/d882078b-f56c-4773-bcb5-b2c0600e49e2"
    }
  }, {
    "fullUrl": "https://madie.cms.gov/Condition/4aea967c-9f3c-4aad-b301-c177d38f1ed3",
    "resource": {
      "resourceType": "Condition",
      "id": "4aea967c-9f3c-4aad-b301-c177d38f1ed3",
      "meta": {
        "profile": [ "http://hl7.org/fhir/us/qicore/StructureDefinition/qicore-condition" ]
      },
      "clinicalStatus": {
        "coding": [ {
          "system": "http://terminology.hl7.org/CodeSystem/condition-clinical",
          "code": "active"
        } ]
      },
      "verificationStatus": {
        "coding": [ {
          "system": "http://terminology.hl7.org/CodeSystem/condition-ver-status",
          "code": "confirmed"
        } ]
      },
      "category": [ {
        "coding": [ {
          "system": "http://terminology.hl7.org/CodeSystem/condition-category",
          "code": "encounter-diagnosis",
          "display": "Encounter Diagnosis"
        } ]
      } ],
      "code": {
        "coding": [ {
          "system": "http://snomed.info/sct",
          "version": "2020-09",
          "code": "111297002",
          "display": "Nonparalytic stroke (disorder)",
          "userSelected": true
        } ]
      },
      "subject": {
        "reference": "Patient/15e67912-9913-4b22-9f1b-3e86879e1d6d"
      },
      "recordedDate": "2026-07-14T08:00:00+00:00"
    },
    "request": {
      "method": "PUT",
      "url": "Condition/4aea967c-9f3c-4aad-b301-c177d38f1ed3"
    }
  }, {
    "fullUrl": "https://madie.cms.gov/Coverage/490b867f-0ce7-4ff9-94b0-894fbb95f6f8",
    "resource": {
      "resourceType": "Coverage",
      "id": "490b867f-0ce7-4ff9-94b0-894fbb95f6f8",
      "meta": {
        "profile": [ "http://hl7.org/fhir/us/qicore/StructureDefinition/qicore-coverage" ]
      },
      "status": "active",
      "beneficiary": {
        "reference": "Patient/15e67912-9913-4b22-9f1b-3e86879e1d6d"
      },
      "payor": [ {
        "reference": "Organization/936b86e4-b8d6-4a6a-8b75-a06c7d3b2c70"
      } ]
    },
    "request": {
      "method": "PUT",
      "url": "Coverage/490b867f-0ce7-4ff9-94b0-894fbb95f6f8"
    }
  }, {
    "fullUrl": "https://madie.cms.gov/Organization/936b86e4-b8d6-4a6a-8b75-a06c7d3b2c70",
    "resource": {
      "resourceType": "Organization",
      "id": "936b86e4-b8d6-4a6a-8b75-a06c7d3b2c70",
      "meta": {
        "profile": [ "http://hl7.org/fhir/us/qicore/StructureDefinition/qicore-organization" ]
      },
      "identifier": [ {
        "use": "temp",
        "system": "urn:oid:2.16.840.1.113883.4.4",
        "value": "21-3259825"
      } ],
      "active": true,
      "type": [ {
        "coding": [ {
          "system": "http://terminology.hl7.org/CodeSystem/organization-type",
          "code": "pay",
          "display": "Payer"
        } ]
      } ],
      "name": "Blue Cross Blue Shield of Texas",
      "telecom": [ {
        "system": "phone",
        "value": "(+1) 972-766-6900"
      } ],
      "address": [ {
        "use": "billing",
        "type": "postal",
        "line": [ "P.O. Box 660044" ],
        "city": "Dallas",
        "state": "TX",
        "postalCode": "75266-0044",
        "country": "USA"
      } ]
    },
    "request": {
      "method": "PUT",
      "url": "Organization/936b86e4-b8d6-4a6a-8b75-a06c7d3b2c70"
    }
  }, {
    "fullUrl": "https://madie.cms.gov/MeasureReport/bb3e82c8-3e08-4796-893d-74d29eac0f2a",
    "resource": {
      "resourceType": "MeasureReport",
      "id": "bb3e82c8-3e08-4796-893d-74d29eac0f2a",
      "meta": {
        "profile": [ "http://hl7.org/fhir/us/cqfmeasures/StructureDefinition/test-case-cqfm" ]
      },
      "contained": [ {
        "resourceType": "Parameters",
        "id": "0777c320-6da9-4ca2-a824-e6eee21aa5a7-parameters",
        "parameter": [ {
          "name": "subject",
          "valueString": "15e67912-9913-4b22-9f1b-3e86879e1d6d"
        } ]
      } ],
      "extension": [ {
        "url": "http://hl7.org/fhir/StructureDefinition/cqf-inputParameters",
        "valueReference": {
          "reference": "#0777c320-6da9-4ca2-a824-e6eee21aa5a7-parameters"
        }
      }, {
        "url": "http://hl7.org/fhir/us/cqfmeasures/StructureDefinition/cqfm-testCaseDescription",
        "valueMarkdown": "Patient receives CMO during inpatient encounter. ED ends 1 minute before observation. Obs ends 1 min before inpatient encounter start. Testing day of operator with HospitalizationWithObservation function."
      } ],
      "modifierExtension": [ {
        "url": "http://hl7.org/fhir/us/cqfmeasures/StructureDefinition/cqfm-isTestCase",
        "valueBoolean": true
      } ],
      "status": "complete",
      "type": "individual",
      "measure": "https://madie.cms.gov/Measure/CMS104FHIRSTKDCAntithrombotic",
      "period": {
        "start": "2026-01-01",
        "end": "2026-12-31"
      },
      "group": [ {
        "id": "Group_1",
        "population": [ {
          "id": "InitialPopulation_1",
          "code": {
            "coding": [ {
              "system": "http://terminology.hl7.org/CodeSystem/measure-population",
              "code": "initial-population",
              "display": "Initial Population"
            } ]
          },
          "count": 1
        }, {
          "id": "Denominator_1",
          "code": {
            "coding": [ {
              "system": "http://terminology.hl7.org/CodeSystem/measure-population",
              "code": "denominator",
              "display": "Denominator"
            } ]
          },
          "count": 1
        }, {
          "id": "DenominatorExclusion_1",
          "code": {
            "coding": [ {
              "system": "http://terminology.hl7.org/CodeSystem/measure-population",
              "code": "denominator-exclusion",
              "display": "Denominator Exclusion"
            } ]
          },
          "count": 1
        }, {
          "id": "Numerator_1",
          "code": {
            "coding": [ {
              "system": "http://terminology.hl7.org/CodeSystem/measure-population",
              "code": "numerator",
              "display": "Numerator"
            } ]
          },
          "count": 0
        }, {
          "id": "DenominatorException_1",
          "code": {
            "coding": [ {
              "system": "http://terminology.hl7.org/CodeSystem/measure-population",
              "code": "denominator-exception",
              "display": "Denominator Exception"
            } ]
          },
          "count": 0
        } ],
        "measureScore": {
          "value": 0.0
        }
      } ],
      "evaluatedResource": [ {
        "reference": "Patient/15e67912-9913-4b22-9f1b-3e86879e1d6d"
      }, {
        "reference": "Encounter/9202803b-cf8b-43f8-8771-5dfaf46c594f"
      }, {
        "reference": "Encounter/5a782b64-5bd9-4144-937c-3dc807312b2b"
      }, {
        "reference": "Encounter/d180ed7d-9148-4eee-9d2a-a7f45cbe7167"
      }, {
        "reference": "Claim/5ca62962b8484628b8de1ec5"
      }, {
        "reference": "ServiceRequest/d882078b-f56c-4773-bcb5-b2c0600e49e2"
      }, {
        "reference": "Condition/4aea967c-9f3c-4aad-b301-c177d38f1ed3"
      }, {
        "reference": "Coverage/490b867f-0ce7-4ff9-94b0-894fbb95f6f8"
      }, {
        "reference": "Organization/936b86e4-b8d6-4a6a-8b75-a06c7d3b2c70"
      } ]
    },
    "request": {
      "method": "PUT",
      "url": "MeasureReport/bb3e82c8-3e08-4796-893d-74d29eac0f2a"
    }
  } ]
}