{"resourceType":"Bundle","id":"tests-9a72ea26-595f-4442-8b00-fc52ed228aa6-bundle","type":"transaction","entry":[{"fullUrl":"Organization/6629081d-f559-4033-a2d4-597bd0885fc1","resource":{"resourceType":"Organization","id":"6629081d-f559-4033-a2d4-597bd0885fc1","meta":{"profile":["http://hl7.org/fhir/us/qicore/StructureDefinition/qicore-organization"]},"identifier":[{"use":"temp","system":"urn:oid:2.16.840.1.113883.4.4","value":"21-3259825"}],"active":true,"type":[{"coding":[{"system":"http://terminology.hl7.org/CodeSystem/organization-type","code":"pay","display":"Payer"}]}],"name":"Blue Cross Blue Shield of Texas","telecom":[{"system":"phone","value":"(+1) 972-766-6900"}],"address":[{"use":"billing","type":"postal","line":["P.O. Box 660044"],"city":"Dallas","state":"TX","postalCode":"75266-0044","country":"USA"}]},"request":{"method":"PUT","url":"Organization/6629081d-f559-4033-a2d4-597bd0885fc1"}},{"fullUrl":"Encounter/6a004f82-020b-4ff5-b323-17e6e7eb48c3","resource":{"resourceType":"Encounter","id":"6a004f82-020b-4ff5-b323-17e6e7eb48c3","meta":{"profile":["http://hl7.org/fhir/us/qicore/StructureDefinition/qicore-encounter"]},"status":"finished","class":{"system":"http://terminology.hl7.org/CodeSystem/v3-ActCode","code":"IMP","display":"inpatient encounter"},"type":[{"coding":[{"system":"http://snomed.info/sct","code":"32485007"}]}],"subject":{"reference":"Patient/9a72ea26-595f-4442-8b00-fc52ed228aa6"},"period":{"start":"2026-11-20T08:00:00Z","end":"2026-11-24T08:15:00.000+00:00"},"length":{"value":4,"unit":"days"},"reasonReference":[{"reference":"Condition/5b1b7dcd-67f2-40df-a0fe-f950657cea0c"}]},"request":{"method":"PUT","url":"Encounter/6a004f82-020b-4ff5-b323-17e6e7eb48c3"}},{"fullUrl":"Condition/5b1b7dcd-67f2-40df-a0fe-f950657cea0c","resource":{"resourceType":"Condition","id":"5b1b7dcd-67f2-40df-a0fe-f950657cea0c","meta":{"profile":["http://hl7.org/fhir/us/qicore/StructureDefinition/qicore-condition-problems-health-concerns"]},"clinicalStatus":{"coding":[{"system":"http://terminology.hl7.org/CodeSystem/condition-clinical","code":"active"}]},"verificationStatus":{"coding":[{"system":"http://terminology.hl7.org/CodeSystem/condition-ver-status","code":"confirmed"}]},"category":[{"coding":[{"system":"http://terminology.hl7.org/CodeSystem/condition-category","code":"encounter-diagnosis","display":"Encounter Diagnosis"}]}],"code":{"coding":[{"system":"http://snomed.info/sct","version":"2021-09","code":"111297002","display":"Nonparalytic stroke (disorder)","userSelected":true}]},"subject":{"reference":"Patient/9a72ea26-595f-4442-8b00-fc52ed228aa6"},"recordedDate":"2026-10-13T08:00:00Z"},"request":{"method":"PUT","url":"Condition/5b1b7dcd-67f2-40df-a0fe-f950657cea0c"}},{"fullUrl":"Bundle/633c9d030968f8012250fc8c","resource":{"resourceType":"Bundle","id":"633c9d030968f8012250fc8c","type":"transaction","entry":[{"fullUrl":"https://madie.cms.gov/Patient/9a72ea26-595f-4442-8b00-fc52ed228aa6","resource":{"resourceType":"Patient","id":"9a72ea26-595f-4442-8b00-fc52ed228aa6","meta":{"profile":["http://hl7.org/fhir/us/qicore/StructureDefinition/qicore-patient"]},"text":{"status":"generated","div":"<div xmlns=\"http://www.w3.org/1999/xhtml\"><div class=\"hapiHeaderText\">MedDCPatRefDuringEncInp <b>DENEXCEPPASS </b></div><table class=\"hapiPropertyTable\"><tbody><tr><td>Identifier</td><td>0c63b215784ea7e3383559263b15cd7e</td></tr><tr><td>Date of birth</td><td><span>23 May 1954</span></td></tr></tbody></table></div>"},"extension":[{"url":"http://hl7.org/fhir/us/core/StructureDefinition/us-core-race","extension":[{"url":"ombCategory","valueCoding":{"system":"urn:oid:2.16.840.1.113883.6.238","code":"1002-5","display":"American Indian or Alaska Native","userSelected":true}},{"url":"text","valueString":"American Indian or Alaska Native"}]},{"url":"http://hl7.org/fhir/us/core/StructureDefinition/us-core-ethnicity","extension":[{"url":"ombCategory","valueCoding":{"system":"urn:oid:2.16.840.1.113883.6.238","code":"2135-2","display":"Hispanic or Latino","userSelected":true}},{"url":"text","valueString":"Hispanic or Latino"}]}],"identifier":[{"type":{"coding":[{"system":"http://terminology.hl7.org/CodeSystem/v2-0203","code":"MR"}]},"system":"https://bonnie-fhir.healthit.gov/","value":"633c9d030968f8012250fc8c"}],"active":true,"name":[{"use":"usual","family":"DENEXCEPPass","given":["MedDCPatRefDuringEncInp"]}],"gender":"female","birthDate":"1955-05-23"},"request":{"method":"PUT","url":"Patient/9a72ea26-595f-4442-8b00-fc52ed228aa6"}},{"fullUrl":"https://madie.cms.gov/Encounter/6a004f82-020b-4ff5-b323-17e6e7eb48c3","resource":{"resourceType":"Encounter","id":"6a004f82-020b-4ff5-b323-17e6e7eb48c3","meta":{"profile":["http://hl7.org/fhir/us/qicore/StructureDefinition/qicore-encounter"]},"status":"finished","class":{"system":"http://terminology.hl7.org/CodeSystem/v3-ActCode","code":"IMP","display":"inpatient encounter"},"type":[{"coding":[{"system":"http://snomed.info/sct","code":"32485007"}]}],"subject":{"reference":"Patient/9a72ea26-595f-4442-8b00-fc52ed228aa6"},"period":{"start":"2026-11-20T08:00:00Z","end":"2026-11-24T08:15:00.000+00:00"},"length":{"value":4,"unit":"days"},"reasonReference":[{"reference":"Condition/5b1b7dcd-67f2-40df-a0fe-f950657cea0c"}]},"request":{"method":"PUT","url":"Encounter/6a004f82-020b-4ff5-b323-17e6e7eb48c3"}},{"fullUrl":"https://madie.cms.gov/claim/5ca62962b8484628b8de1ec5","resource":{"resourceType":"Claim","id":"5ca62962b8484628b8de1ec5","meta":{"profile":["http://hl7.org/fhir/us/qicore/StructureDefinition/qicore-claim"]},"status":"active","type":{"coding":[{"system":"http://terminology.hl7.org/CodeSystem/claim-type","code":"institutional"}]},"use":"claim","patient":{"reference":"Patient/d170a0a8-b5ad-4303-b6df-e304dd5f92ad"},"created":"2026-12-01","provider":{"reference":"Practitioner/practitioner-123456"},"priority":{"coding":[{"system":"http://terminology.hl7.org/CodeSystem/processpriority","code":"normal"}]},"diagnosis":[{"sequence":1,"diagnosisCodeableConcept":{"coding":[{"system":"http://hl7.org/fhir/sid/icd-10-cm","code":"I63.00"}]},"type":[{"coding":[{"system":"http://terminology.hl7.org/CodeSystem/ex-diagnosistype","code":"principal"}]}]}],"insurance":[{"sequence":1,"focal":true,"coverage":{"reference":"Coverage/5fa041661c76ba66d9959367"}}],"item":[{"sequence":1,"diagnosisSequence":[1],"productOrService":{"coding":[{"system":"http://terminology.hl7.org/CodeSystem/ex-USCLS","code":"99555"}]},"encounter":[{"reference":"Encounter/6a004f82-020b-4ff5-b323-17e6e7eb48c3"}]}]},"request":{"method":"PUT","url":"Claim/5ca62962b8484628b8de1ec5"}},{"fullUrl":"https://madie.cms.gov/MedicationRequest/64a01ec6-4c00-4c23-aeb5-65364231406d","resource":{"resourceType":"MedicationRequest","id":"64a01ec6-4c00-4c23-aeb5-65364231406d","meta":{"profile":["http://hl7.org/fhir/us/qicore/StructureDefinition/qicore-medicationrequest"]},"status":"active","intent":"order","category":[{"coding":[{"system":"http://terminology.hl7.org/CodeSystem/medicationrequest-category","code":"discharge","userSelected":true}]}],"medicationCodeableConcept":{"coding":[{"system":"http://www.nlm.nih.gov/research/umls/rxnorm","code":"308351"}]},"subject":{"reference":"Patient/ccfddeae-a86e-4e43-adca-2ceef716970e"},"authoredOn":"2026-11-20T08:00:00Z","requester":{"reference":"Practitioner/example"}},"request":{"method":"PUT","url":"MedicationRequest/64a01ec6-4c00-4c23-aeb5-65364231406d"}},{"fullUrl":"https://madie.cms.gov/Task/66587183-d1d6-468d-b2fd-a06bc14e712f","resource":{"resourceType":"Task","id":"66587183-d1d6-468d-b2fd-a06bc14e712f","meta":{"profile":["http://hl7.org/fhir/us/qicore/StructureDefinition/qicore-taskrejected"]},"status":"rejected","statusReason":{"coding":[{"system":"http://snomed.info/sct","code":"443390004","display":"Refusal of treatment by patient (situation)","userSelected":true}]},"code":{"coding":[{"system":"http://hl7.org/fhir/CodeSystem/task-code","code":"fulfill"}]},"focus":{"reference":"MedicationRequest/64a01ec6-4c00-4c23-aeb5-65364231406d"},"executionPeriod":{"start":"2026-11-20T08:00:00Z","end":"2026-11-24T08:15:00.000+00:00"}},"request":{"method":"PUT","url":"Task/66587183-d1d6-468d-b2fd-a06bc14e712f"}},{"fullUrl":"https://madie.cms.gov/Coverage/823dcc9f-5b19-423a-b13c-b264e12045dc","resource":{"resourceType":"Coverage","id":"823dcc9f-5b19-423a-b13c-b264e12045dc","meta":{"profile":["http://hl7.org/fhir/us/qicore/StructureDefinition/qicore-coverage"]},"status":"active","subscriberId":"523435","beneficiary":{"reference":"Patient/162a5913-9989-42f2-8d6a-ae460e245e4c"},"relationship":{"coding":[{"system":"http://terminology.hl7.org/CodeSystem/subscriber-relationship","code":"self"}]},"payor":[{"reference":"Organization/6629081d-f559-4033-a2d4-597bd0885fc1"}]},"request":{"method":"PUT","url":"Coverage/823dcc9f-5b19-423a-b13c-b264e12045dc"}},{"fullUrl":"https://madie.cms.gov/Procedure/8c16f6fc-31ac-46fe-8b76-835def67b6d8","resource":{"resourceType":"Procedure","id":"8c16f6fc-31ac-46fe-8b76-835def67b6d8","meta":{"profile":["http://hl7.org/fhir/us/qicore/StructureDefinition/qicore-procedure"]},"extension":[{"url":"http://hl7.org/fhir/us/qicore/StructureDefinition/qicore-recorded","valueDateTime":"2014-04-05T13:35:00Z"}],"status":"completed","code":{"coding":[{"system":"http://www.cms.gov/Medicare/Coding/ICD10","code":"02560ZZ"},{"system":"http://snomed.info/sct","code":"175095005"}]},"subject":{"reference":"Patient/9a72ea26-595f-4442-8b00-fc52ed228aa6"},"performedPeriod":{"start":"2026-11-20T06:00:00Z","end":"2026-11-20T07:15:00.000+00:00"}},"request":{"method":"PUT","url":"Procedure/8c16f6fc-31ac-46fe-8b76-835def67b6d8"}},{"fullUrl":"https://madie.cms.gov/Condition/5b1b7dcd-67f2-40df-a0fe-f950657cea0c","resource":{"resourceType":"Condition","id":"5b1b7dcd-67f2-40df-a0fe-f950657cea0c","meta":{"profile":["http://hl7.org/fhir/us/qicore/StructureDefinition/qicore-condition-problems-health-concerns"]},"clinicalStatus":{"coding":[{"system":"http://terminology.hl7.org/CodeSystem/condition-clinical","code":"active"}]},"verificationStatus":{"coding":[{"system":"http://terminology.hl7.org/CodeSystem/condition-ver-status","code":"confirmed"}]},"category":[{"coding":[{"system":"http://terminology.hl7.org/CodeSystem/condition-category","code":"encounter-diagnosis","display":"Encounter Diagnosis"}]}],"code":{"coding":[{"system":"http://snomed.info/sct","version":"2021-09","code":"111297002","display":"Nonparalytic stroke (disorder)","userSelected":true}]},"subject":{"reference":"Patient/9a72ea26-595f-4442-8b00-fc52ed228aa6"},"recordedDate":"2026-10-13T08:00:00Z"},"request":{"method":"PUT","url":"Condition/5b1b7dcd-67f2-40df-a0fe-f950657cea0c"}},{"fullUrl":"https://madie.cms.gov/Organization/6629081d-f559-4033-a2d4-597bd0885fc1","resource":{"resourceType":"Organization","id":"6629081d-f559-4033-a2d4-597bd0885fc1","meta":{"profile":["http://hl7.org/fhir/us/qicore/StructureDefinition/qicore-organization"]},"identifier":[{"use":"temp","system":"urn:oid:2.16.840.1.113883.4.4","value":"21-3259825"}],"active":true,"type":[{"coding":[{"system":"http://terminology.hl7.org/CodeSystem/organization-type","code":"pay","display":"Payer"}]}],"name":"Blue Cross Blue Shield of Texas","telecom":[{"system":"phone","value":"(+1) 972-766-6900"}],"address":[{"use":"billing","type":"postal","line":["P.O. Box 660044"],"city":"Dallas","state":"TX","postalCode":"75266-0044","country":"USA"}]},"request":{"method":"PUT","url":"Organization/6629081d-f559-4033-a2d4-597bd0885fc1"}},{"fullUrl":"https://madie.cms.gov/MeasureReport/7a6ecbbe-cecb-4a68-950a-ea53661d5a62","resource":{"resourceType":"MeasureReport","id":"7a6ecbbe-cecb-4a68-950a-ea53661d5a62","meta":{"profile":["http://hl7.org/fhir/us/cqfmeasures/StructureDefinition/test-case-cqfm"]},"contained":[{"resourceType":"Parameters","id":"d2e582af-8ef0-4012-8acb-485b1f178b32-parameters","parameter":[{"name":"subject","valueString":"9a72ea26-595f-4442-8b00-fc52ed228aa6"}]}],"extension":[{"url":"http://hl7.org/fhir/StructureDefinition/cqf-inputParameters","valueReference":{"reference":"#d2e582af-8ef0-4012-8acb-485b1f178b32-parameters"}},{"url":"http://hl7.org/fhir/us/cqfmeasures/StructureDefinition/cqfm-testCaseDescription","valueMarkdown":"Patient did not receive anticoagulant, patient refused\n"}],"modifierExtension":[{"url":"http://hl7.org/fhir/us/cqfmeasures/StructureDefinition/cqfm-isTestCase","valueBoolean":true}],"status":"complete","type":"individual","measure":"https://madie.cms.gov/Measure/CMS71FHIRSTKAnticoagAFFlutter","period":{"start":"2026-01-01","end":"2026-12-31"},"group":[{"id":"Group_1","population":[{"id":"InitialPopulation_1","code":{"coding":[{"system":"http://terminology.hl7.org/CodeSystem/measure-population","code":"initial-population","display":"Initial Population"}]},"count":1},{"id":"Denominator_1","code":{"coding":[{"system":"http://terminology.hl7.org/CodeSystem/measure-population","code":"denominator","display":"Denominator"}]},"count":1},{"id":"DenominatorExclusion_1","code":{"coding":[{"system":"http://terminology.hl7.org/CodeSystem/measure-population","code":"denominator-exclusion","display":"Denominator Exclusion"}]},"count":0},{"id":"Numerator_1","code":{"coding":[{"system":"http://terminology.hl7.org/CodeSystem/measure-population","code":"numerator","display":"Numerator"}]},"count":0},{"id":"DenominatorException_1","code":{"coding":[{"system":"http://terminology.hl7.org/CodeSystem/measure-population","code":"denominator-exception","display":"Denominator Exception"}]},"count":1}],"measureScore":{"value":0.0}}],"evaluatedResource":[{"reference":"Patient/9a72ea26-595f-4442-8b00-fc52ed228aa6"},{"reference":"Encounter/6a004f82-020b-4ff5-b323-17e6e7eb48c3"},{"reference":"Claim/5ca62962b8484628b8de1ec5"},{"reference":"MedicationRequest/64a01ec6-4c00-4c23-aeb5-65364231406d"},{"reference":"Task/66587183-d1d6-468d-b2fd-a06bc14e712f"},{"reference":"Coverage/823dcc9f-5b19-423a-b13c-b264e12045dc"},{"reference":"Procedure/8c16f6fc-31ac-46fe-8b76-835def67b6d8"},{"reference":"Condition/5b1b7dcd-67f2-40df-a0fe-f950657cea0c"},{"reference":"Organization/6629081d-f559-4033-a2d4-597bd0885fc1"}]},"request":{"method":"PUT","url":"MeasureReport/7a6ecbbe-cecb-4a68-950a-ea53661d5a62"}}]},"request":{"method":"PUT","url":"Bundle/633c9d030968f8012250fc8c"}},{"fullUrl":"Procedure/8c16f6fc-31ac-46fe-8b76-835def67b6d8","resource":{"resourceType":"Procedure","id":"8c16f6fc-31ac-46fe-8b76-835def67b6d8","meta":{"profile":["http://hl7.org/fhir/us/qicore/StructureDefinition/qicore-procedure"]},"extension":[{"url":"http://hl7.org/fhir/us/qicore/StructureDefinition/qicore-recorded","valueDateTime":"2014-04-05T13:35:00Z"}],"status":"completed","code":{"coding":[{"system":"http://www.cms.gov/Medicare/Coding/ICD10","code":"02560ZZ"},{"system":"http://snomed.info/sct","code":"175095005"}]},"subject":{"reference":"Patient/9a72ea26-595f-4442-8b00-fc52ed228aa6"},"performedPeriod":{"start":"2026-11-20T06:00:00Z","end":"2026-11-20T07:15:00.000+00:00"}},"request":{"method":"PUT","url":"Procedure/8c16f6fc-31ac-46fe-8b76-835def67b6d8"}},{"fullUrl":"Coverage/823dcc9f-5b19-423a-b13c-b264e12045dc","resource":{"resourceType":"Coverage","id":"823dcc9f-5b19-423a-b13c-b264e12045dc","meta":{"profile":["http://hl7.org/fhir/us/qicore/StructureDefinition/qicore-coverage"]},"status":"active","subscriberId":"523435","beneficiary":{"reference":"Patient/162a5913-9989-42f2-8d6a-ae460e245e4c"},"relationship":{"coding":[{"system":"http://terminology.hl7.org/CodeSystem/subscriber-relationship","code":"self"}]},"payor":[{"reference":"Organization/6629081d-f559-4033-a2d4-597bd0885fc1"}]},"request":{"method":"PUT","url":"Coverage/823dcc9f-5b19-423a-b13c-b264e12045dc"}},{"fullUrl":"Patient/9a72ea26-595f-4442-8b00-fc52ed228aa6","resource":{"resourceType":"Patient","id":"9a72ea26-595f-4442-8b00-fc52ed228aa6","meta":{"profile":["http://hl7.org/fhir/us/qicore/StructureDefinition/qicore-patient"]},"text":{"status":"generated","div":"<div xmlns=\"http://www.w3.org/1999/xhtml\"><div class=\"hapiHeaderText\">MedDCPatRefDuringEncInp <b>DENEXCEPPASS </b></div><table class=\"hapiPropertyTable\"><tbody><tr><td>Identifier</td><td>0c63b215784ea7e3383559263b15cd7e</td></tr><tr><td>Date of birth</td><td><span>23 May 1954</span></td></tr></tbody></table></div>"},"extension":[{"url":"http://hl7.org/fhir/us/core/StructureDefinition/us-core-race","extension":[{"url":"ombCategory","valueCoding":{"system":"urn:oid:2.16.840.1.113883.6.238","code":"1002-5","display":"American Indian or Alaska Native","userSelected":true}},{"url":"text","valueString":"American Indian or Alaska Native"}]},{"url":"http://hl7.org/fhir/us/core/StructureDefinition/us-core-ethnicity","extension":[{"url":"ombCategory","valueCoding":{"system":"urn:oid:2.16.840.1.113883.6.238","code":"2135-2","display":"Hispanic or Latino","userSelected":true}},{"url":"text","valueString":"Hispanic or Latino"}]}],"identifier":[{"type":{"coding":[{"system":"http://terminology.hl7.org/CodeSystem/v2-0203","code":"MR"}]},"system":"https://bonnie-fhir.healthit.gov/","value":"633c9d030968f8012250fc8c"}],"active":true,"name":[{"use":"usual","family":"DENEXCEPPass","given":["MedDCPatRefDuringEncInp"]}],"gender":"female","birthDate":"1955-05-23"},"request":{"method":"PUT","url":"Patient/9a72ea26-595f-4442-8b00-fc52ed228aa6"}},{"fullUrl":"MeasureReport/7a6ecbbe-cecb-4a68-950a-ea53661d5a62","resource":{"resourceType":"MeasureReport","id":"7a6ecbbe-cecb-4a68-950a-ea53661d5a62","meta":{"profile":["http://hl7.org/fhir/us/cqfmeasures/StructureDefinition/test-case-cqfm"]},"contained":[{"resourceType":"Parameters","id":"d2e582af-8ef0-4012-8acb-485b1f178b32-parameters","parameter":[{"name":"subject","valueString":"9a72ea26-595f-4442-8b00-fc52ed228aa6"}]}],"extension":[{"url":"http://hl7.org/fhir/StructureDefinition/cqf-inputParameters","valueReference":{"reference":"#d2e582af-8ef0-4012-8acb-485b1f178b32-parameters"}},{"url":"http://hl7.org/fhir/us/cqfmeasures/StructureDefinition/cqfm-testCaseDescription","valueMarkdown":"Patient did not receive anticoagulant, patient refused\n"}],"modifierExtension":[{"url":"http://hl7.org/fhir/us/cqfmeasures/StructureDefinition/cqfm-isTestCase","valueBoolean":true}],"status":"complete","type":"individual","measure":"https://madie.cms.gov/Measure/CMS71FHIRSTKAnticoagAFFlutter","period":{"start":"2026-01-01","end":"2026-12-31"},"group":[{"id":"Group_1","population":[{"id":"InitialPopulation_1","code":{"coding":[{"system":"http://terminology.hl7.org/CodeSystem/measure-population","code":"initial-population","display":"Initial Population"}]},"count":1},{"id":"Denominator_1","code":{"coding":[{"system":"http://terminology.hl7.org/CodeSystem/measure-population","code":"denominator","display":"Denominator"}]},"count":1},{"id":"DenominatorExclusion_1","code":{"coding":[{"system":"http://terminology.hl7.org/CodeSystem/measure-population","code":"denominator-exclusion","display":"Denominator Exclusion"}]},"count":0},{"id":"Numerator_1","code":{"coding":[{"system":"http://terminology.hl7.org/CodeSystem/measure-population","code":"numerator","display":"Numerator"}]},"count":0},{"id":"DenominatorException_1","code":{"coding":[{"system":"http://terminology.hl7.org/CodeSystem/measure-population","code":"denominator-exception","display":"Denominator Exception"}]},"count":1}],"measureScore":{"value":0.0}}],"evaluatedResource":[{"reference":"Patient/9a72ea26-595f-4442-8b00-fc52ed228aa6"},{"reference":"Encounter/6a004f82-020b-4ff5-b323-17e6e7eb48c3"},{"reference":"Claim/5ca62962b8484628b8de1ec5"},{"reference":"MedicationRequest/64a01ec6-4c00-4c23-aeb5-65364231406d"},{"reference":"Task/66587183-d1d6-468d-b2fd-a06bc14e712f"},{"reference":"Coverage/823dcc9f-5b19-423a-b13c-b264e12045dc"},{"reference":"Procedure/8c16f6fc-31ac-46fe-8b76-835def67b6d8"},{"reference":"Condition/5b1b7dcd-67f2-40df-a0fe-f950657cea0c"},{"reference":"Organization/6629081d-f559-4033-a2d4-597bd0885fc1"}]},"request":{"method":"PUT","url":"MeasureReport/7a6ecbbe-cecb-4a68-950a-ea53661d5a62"}},{"fullUrl":"Task/66587183-d1d6-468d-b2fd-a06bc14e712f","resource":{"resourceType":"Task","id":"66587183-d1d6-468d-b2fd-a06bc14e712f","meta":{"profile":["http://hl7.org/fhir/us/qicore/StructureDefinition/qicore-taskrejected"]},"status":"rejected","statusReason":{"coding":[{"system":"http://snomed.info/sct","code":"443390004","display":"Refusal of treatment by patient (situation)","userSelected":true}]},"code":{"coding":[{"system":"http://hl7.org/fhir/CodeSystem/task-code","code":"fulfill"}]},"focus":{"reference":"MedicationRequest/64a01ec6-4c00-4c23-aeb5-65364231406d"},"executionPeriod":{"start":"2026-11-20T08:00:00Z","end":"2026-11-24T08:15:00.000+00:00"}},"request":{"method":"PUT","url":"Task/66587183-d1d6-468d-b2fd-a06bc14e712f"}},{"fullUrl":"Claim/5ca62962b8484628b8de1ec5","resource":{"resourceType":"Claim","id":"5ca62962b8484628b8de1ec5","meta":{"profile":["http://hl7.org/fhir/us/qicore/StructureDefinition/qicore-claim"]},"status":"active","type":{"coding":[{"system":"http://terminology.hl7.org/CodeSystem/claim-type","code":"institutional"}]},"use":"claim","patient":{"reference":"Patient/d170a0a8-b5ad-4303-b6df-e304dd5f92ad"},"created":"2026-12-01","provider":{"reference":"Practitioner/practitioner-123456"},"priority":{"coding":[{"system":"http://terminology.hl7.org/CodeSystem/processpriority","code":"normal"}]},"diagnosis":[{"sequence":1,"diagnosisCodeableConcept":{"coding":[{"system":"http://hl7.org/fhir/sid/icd-10-cm","code":"I63.00"}]},"type":[{"coding":[{"system":"http://terminology.hl7.org/CodeSystem/ex-diagnosistype","code":"principal"}]}]}],"insurance":[{"sequence":1,"focal":true,"coverage":{"reference":"Coverage/5fa041661c76ba66d9959367"}}],"item":[{"sequence":1,"diagnosisSequence":[1],"productOrService":{"coding":[{"system":"http://terminology.hl7.org/CodeSystem/ex-USCLS","code":"99555"}]},"encounter":[{"reference":"Encounter/6a004f82-020b-4ff5-b323-17e6e7eb48c3"}]}]},"request":{"method":"PUT","url":"Claim/5ca62962b8484628b8de1ec5"}},{"fullUrl":"MedicationRequest/64a01ec6-4c00-4c23-aeb5-65364231406d","resource":{"resourceType":"MedicationRequest","id":"64a01ec6-4c00-4c23-aeb5-65364231406d","meta":{"profile":["http://hl7.org/fhir/us/qicore/StructureDefinition/qicore-medicationrequest"]},"status":"active","intent":"order","category":[{"coding":[{"system":"http://terminology.hl7.org/CodeSystem/medicationrequest-category","code":"discharge","userSelected":true}]}],"medicationCodeableConcept":{"coding":[{"system":"http://www.nlm.nih.gov/research/umls/rxnorm","code":"308351"}]},"subject":{"reference":"Patient/ccfddeae-a86e-4e43-adca-2ceef716970e"},"authoredOn":"2026-11-20T08:00:00Z","requester":{"reference":"Practitioner/example"}},"request":{"method":"PUT","url":"MedicationRequest/64a01ec6-4c00-4c23-aeb5-65364231406d"}}]}