{"resourceType":"Bundle","id":"tests-f0de258a-3358-4f1d-a91d-e1c57a2cb61a-bundle","type":"transaction","entry":[{"resource":{"resourceType":"MeasureReport","id":"d385d89e-17ac-41f8-9083-113360b0e526","meta":{"profile":["http://hl7.org/fhir/us/cqfmeasures/StructureDefinition/test-case-cqfm"]},"contained":[{"resourceType":"Parameters","id":"0c4c508b-e99d-4878-ad2b-ef32570421e3-parameters","parameter":[{"name":"subject","valueString":"f0de258a-3358-4f1d-a91d-e1c57a2cb61a"}]}],"extension":[{"url":"http://hl7.org/fhir/StructureDefinition/cqf-inputParameters","valueReference":{"reference":"#0c4c508b-e99d-4878-ad2b-ef32570421e3-parameters"}},{"url":"http://hl7.org/fhir/us/cqfmeasures/StructureDefinition/cqfm-testCaseDescription","valueMarkdown":"with active flutter and abatement time removed"}],"modifierExtension":[{"url":"http://hl7.org/fhir/us/cqfmeasures/StructureDefinition/cqfm-isTestCase","valueBoolean":true}],"status":"complete","type":"individual","measure":"https://madie.cms.gov/Measure/CMS71FHIRSTKAnticoagAFFlutter","period":{"start":"2026-01-01","end":"2026-12-31"},"group":[{"id":"Group_1","population":[{"id":"InitialPopulation_1","code":{"coding":[{"system":"http://terminology.hl7.org/CodeSystem/measure-population","code":"initial-population","display":"Initial Population"}]},"count":1},{"id":"Denominator_1","code":{"coding":[{"system":"http://terminology.hl7.org/CodeSystem/measure-population","code":"denominator","display":"Denominator"}]},"count":1},{"id":"DenominatorExclusion_1","code":{"coding":[{"system":"http://terminology.hl7.org/CodeSystem/measure-population","code":"denominator-exclusion","display":"Denominator Exclusion"}]},"count":0},{"id":"Numerator_1","code":{"coding":[{"system":"http://terminology.hl7.org/CodeSystem/measure-population","code":"numerator","display":"Numerator"}]},"count":0},{"id":"DenominatorException_1","code":{"coding":[{"system":"http://terminology.hl7.org/CodeSystem/measure-population","code":"denominator-exception","display":"Denominator Exception"}]},"count":0}],"measureScore":{"value":0.0}}],"evaluatedResource":[{"reference":"Patient/f0de258a-3358-4f1d-a91d-e1c57a2cb61a"},{"reference":"Condition/09917e38-9213-4962-ad9d-4f7e64fc546b"},{"reference":"Encounter/1419503b-ffec-47e3-9981-af3af767c1bc"},{"reference":"Claim/5ca62962b8484628b8de1ec5"},{"reference":"Coverage/7969a4fb-c30c-43ba-8b03-491954270162"},{"reference":"Condition/ee4ce053-bc56-45cf-becb-36f53b771779"},{"reference":"Organization/b3da710a-5498-4042-b5cc-09909ea36caa"},{"reference":"Practitioner/0472ab7c-1781-47d9-89d5-f073f426000f"}]},"request":{"method":"PUT","url":"MeasureReport/d385d89e-17ac-41f8-9083-113360b0e526"}},{"resource":{"resourceType":"Encounter","id":"1419503b-ffec-47e3-9981-af3af767c1bc","meta":{"profile":["http://hl7.org/fhir/us/qicore/StructureDefinition/qicore-encounter"]},"status":"finished","class":{"system":"http://terminology.hl7.org/CodeSystem/v3-ActCode","code":"IMP","display":"inpatient encounter"},"type":[{"coding":[{"system":"http://snomed.info/sct","code":"183452005"}]}],"subject":{"reference":"Patient/f0de258a-3358-4f1d-a91d-e1c57a2cb61a"},"period":{"start":"2026-02-08T08:00:00Z","end":"2026-02-10T08:15:00.000+00:00"},"length":{"value":2,"unit":"days"},"reasonReference":[{"reference":"Condition/09917e38-9213-4962-ad9d-4f7e64fc546b"}]},"request":{"method":"PUT","url":"Encounter/1419503b-ffec-47e3-9981-af3af767c1bc"}},{"resource":{"resourceType":"Patient","id":"f0de258a-3358-4f1d-a91d-e1c57a2cb61a","meta":{"profile":["http://hl7.org/fhir/us/qicore/StructureDefinition/qicore-patient"]},"text":{"status":"generated","div":"<div xmlns=\"http://www.w3.org/1999/xhtml\"><div class=\"hapiHeaderText\">Dx=Afib/flutterStart=EncEnd <b>DENOMPASS </b></div><table class=\"hapiPropertyTable\"><tbody><tr><td>Identifier</td><td>eea63111353acebe4dc924bd86a7bec7</td></tr><tr><td>Date of birth</td><td><span>01 December 1960</span></td></tr></tbody></table></div>"},"extension":[{"url":"http://hl7.org/fhir/us/core/StructureDefinition/us-core-race","extension":[{"url":"ombCategory","valueCoding":{"system":"urn:oid:2.16.840.1.113883.6.238","code":"1002-5","display":"American Indian or Alaska Native","userSelected":true}},{"url":"text","valueString":"American Indian or Alaska Native"}]},{"url":"http://hl7.org/fhir/us/core/StructureDefinition/us-core-ethnicity","extension":[{"url":"ombCategory","valueCoding":{"system":"urn:oid:2.16.840.1.113883.6.238","code":"2135-2","display":"Hispanic or Latino","userSelected":true}},{"url":"text","valueString":"Hispanic or Latino"}]}],"identifier":[{"type":{"coding":[{"system":"http://terminology.hl7.org/CodeSystem/v2-0203","code":"MR"}]},"system":"https://bonnie-fhir.healthit.gov/","value":"633c9d030968f8012250fc99"}],"active":true,"name":[{"use":"usual","family":"DENOMPass","given":["DxAfibflutterENC"]}],"gender":"male","birthDate":"1961-12-01"},"request":{"method":"PUT","url":"Patient/f0de258a-3358-4f1d-a91d-e1c57a2cb61a"}},{"resource":{"resourceType":"Practitioner","id":"0472ab7c-1781-47d9-89d5-f073f426000f","identifier":[{"system":"http://hl7.org/fhir/sid/us-npi","value":"123456"}],"name":[{"family":"Evil","prefix":["Dr"]}]},"request":{"method":"PUT","url":"Practitioner/0472ab7c-1781-47d9-89d5-f073f426000f"}},{"resource":{"resourceType":"Coverage","id":"7969a4fb-c30c-43ba-8b03-491954270162","meta":{"profile":["http://hl7.org/fhir/us/qicore/StructureDefinition/qicore-coverage"]},"status":"active","subscriberId":"523435","beneficiary":{"reference":"Patient/162a5913-9989-42f2-8d6a-ae460e245e4c"},"relationship":{"coding":[{"system":"http://terminology.hl7.org/CodeSystem/subscriber-relationship","code":"self"}]},"payor":[{"reference":"Organization/b3da710a-5498-4042-b5cc-09909ea36caa"}]},"request":{"method":"PUT","url":"Coverage/7969a4fb-c30c-43ba-8b03-491954270162"}},{"resource":{"resourceType":"Bundle","id":"633c9d030968f8012250fc99","type":"transaction","entry":[{"fullUrl":"https://madie.cms.gov/Patient/f0de258a-3358-4f1d-a91d-e1c57a2cb61a","resource":{"resourceType":"Patient","id":"f0de258a-3358-4f1d-a91d-e1c57a2cb61a","meta":{"profile":["http://hl7.org/fhir/us/qicore/StructureDefinition/qicore-patient"]},"text":{"status":"generated","div":"<div xmlns=\"http://www.w3.org/1999/xhtml\"><div class=\"hapiHeaderText\">Dx=Afib/flutterStart=EncEnd <b>DENOMPASS </b></div><table class=\"hapiPropertyTable\"><tbody><tr><td>Identifier</td><td>eea63111353acebe4dc924bd86a7bec7</td></tr><tr><td>Date of birth</td><td><span>01 December 1960</span></td></tr></tbody></table></div>"},"extension":[{"url":"http://hl7.org/fhir/us/core/StructureDefinition/us-core-race","extension":[{"url":"ombCategory","valueCoding":{"system":"urn:oid:2.16.840.1.113883.6.238","code":"1002-5","display":"American Indian or Alaska Native","userSelected":true}},{"url":"text","valueString":"American Indian or Alaska Native"}]},{"url":"http://hl7.org/fhir/us/core/StructureDefinition/us-core-ethnicity","extension":[{"url":"ombCategory","valueCoding":{"system":"urn:oid:2.16.840.1.113883.6.238","code":"2135-2","display":"Hispanic or Latino","userSelected":true}},{"url":"text","valueString":"Hispanic or Latino"}]}],"identifier":[{"type":{"coding":[{"system":"http://terminology.hl7.org/CodeSystem/v2-0203","code":"MR"}]},"system":"https://bonnie-fhir.healthit.gov/","value":"633c9d030968f8012250fc99"}],"active":true,"name":[{"use":"usual","family":"DENOMPass","given":["DxAfibflutterENC"]}],"gender":"male","birthDate":"1961-12-01"},"request":{"method":"PUT","url":"Patient/f0de258a-3358-4f1d-a91d-e1c57a2cb61a"}},{"fullUrl":"https://madie.cms.gov/Condition/09917e38-9213-4962-ad9d-4f7e64fc546b","resource":{"resourceType":"Condition","id":"09917e38-9213-4962-ad9d-4f7e64fc546b","meta":{"profile":["http://hl7.org/fhir/us/qicore/StructureDefinition/qicore-condition-encounter-diagnosis"]},"clinicalStatus":{"coding":[{"system":"http://terminology.hl7.org/CodeSystem/condition-clinical","code":"active"}]},"verificationStatus":{"coding":[{"system":"http://terminology.hl7.org/CodeSystem/condition-ver-status","code":"confirmed"}]},"category":[{"coding":[{"system":"http://terminology.hl7.org/CodeSystem/condition-category","code":"encounter-diagnosis","display":"Encounter Diagnosis"}]}],"code":{"coding":[{"system":"http://snomed.info/sct","code":"195080001"},{"system":"http://hl7.org/fhir/sid/icd-9-cm","code":"427.31"},{"system":"http://hl7.org/fhir/sid/icd-10-cm","code":"I48.0"}]},"subject":{"reference":"Patient/f0de258a-3358-4f1d-a91d-e1c57a2cb61a"},"encounter":{"reference":"Encounter/1419503b-ffec-47e3-9981-af3af767c1bc"},"onsetDateTime":"2026-02-10T08:15:00Z"},"request":{"method":"PUT","url":"Condition/09917e38-9213-4962-ad9d-4f7e64fc546b"}},{"fullUrl":"https://madie.cms.gov/Encounter/1419503b-ffec-47e3-9981-af3af767c1bc","resource":{"resourceType":"Encounter","id":"1419503b-ffec-47e3-9981-af3af767c1bc","meta":{"profile":["http://hl7.org/fhir/us/qicore/StructureDefinition/qicore-encounter"]},"status":"finished","class":{"system":"http://terminology.hl7.org/CodeSystem/v3-ActCode","code":"IMP","display":"inpatient encounter"},"type":[{"coding":[{"system":"http://snomed.info/sct","code":"183452005"}]}],"subject":{"reference":"Patient/f0de258a-3358-4f1d-a91d-e1c57a2cb61a"},"period":{"start":"2026-02-08T08:00:00Z","end":"2026-02-10T08:15:00.000+00:00"},"length":{"value":2,"unit":"days"},"reasonReference":[{"reference":"Condition/09917e38-9213-4962-ad9d-4f7e64fc546b"}]},"request":{"method":"PUT","url":"Encounter/1419503b-ffec-47e3-9981-af3af767c1bc"}},{"fullUrl":"https://madie.cms.gov/claim/5ca62962b8484628b8de1ec5","resource":{"resourceType":"Claim","id":"5ca62962b8484628b8de1ec5","meta":{"profile":["http://hl7.org/fhir/us/qicore/StructureDefinition/qicore-claim"]},"status":"active","type":{"coding":[{"system":"http://terminology.hl7.org/CodeSystem/claim-type","code":"institutional"}]},"use":"claim","patient":{"reference":"Patient/d170a0a8-b5ad-4303-b6df-e304dd5f92ad"},"created":"2026-12-01","provider":{"reference":"Practitioner/0472ab7c-1781-47d9-89d5-f073f426000f"},"priority":{"coding":[{"system":"http://terminology.hl7.org/CodeSystem/processpriority","code":"normal"}]},"diagnosis":[{"sequence":1,"diagnosisCodeableConcept":{"coding":[{"system":"http://hl7.org/fhir/sid/icd-10-cm","code":"I63.00"}]},"type":[{"coding":[{"system":"http://terminology.hl7.org/CodeSystem/ex-diagnosistype","code":"principal"}]}]}],"insurance":[{"sequence":1,"focal":true,"coverage":{"reference":"Coverage/5fa041661c76ba66d9959367"}}],"item":[{"sequence":1,"diagnosisSequence":[1],"productOrService":{"coding":[{"system":"http://terminology.hl7.org/CodeSystem/ex-USCLS","code":"99555"}]},"encounter":[{"reference":"Encounter/1419503b-ffec-47e3-9981-af3af767c1bc"}]}]},"request":{"method":"PUT","url":"Claim/5ca62962b8484628b8de1ec5"}},{"fullUrl":"https://madie.cms.gov/Coverage/7969a4fb-c30c-43ba-8b03-491954270162","resource":{"resourceType":"Coverage","id":"7969a4fb-c30c-43ba-8b03-491954270162","meta":{"profile":["http://hl7.org/fhir/us/qicore/StructureDefinition/qicore-coverage"]},"status":"active","subscriberId":"523435","beneficiary":{"reference":"Patient/162a5913-9989-42f2-8d6a-ae460e245e4c"},"relationship":{"coding":[{"system":"http://terminology.hl7.org/CodeSystem/subscriber-relationship","code":"self"}]},"payor":[{"reference":"Organization/b3da710a-5498-4042-b5cc-09909ea36caa"}]},"request":{"method":"PUT","url":"Coverage/7969a4fb-c30c-43ba-8b03-491954270162"}},{"fullUrl":"https://madie.cms.gov/Condition/ee4ce053-bc56-45cf-becb-36f53b771779","resource":{"resourceType":"Condition","id":"ee4ce053-bc56-45cf-becb-36f53b771779","meta":{"profile":["http://hl7.org/fhir/us/qicore/StructureDefinition/qicore-condition-problems-health-concerns"]},"clinicalStatus":{"coding":[{"system":"http://terminology.hl7.org/CodeSystem/condition-clinical","code":"active"}]},"verificationStatus":{"coding":[{"system":"http://terminology.hl7.org/CodeSystem/condition-ver-status","code":"confirmed"}]},"category":[{"coding":[{"system":"http://terminology.hl7.org/CodeSystem/condition-category","code":"encounter-diagnosis","display":"Encounter Diagnosis"}]}],"code":{"coding":[{"system":"http://snomed.info/sct","version":"2021-09","code":"111297002","display":"Nonparalytic stroke (disorder)","userSelected":true}]},"subject":{"reference":"Patient/f0de258a-3358-4f1d-a91d-e1c57a2cb61a"},"recordedDate":"2026-10-13T08:00:00Z"},"request":{"method":"PUT","url":"Condition/ee4ce053-bc56-45cf-becb-36f53b771779"}},{"fullUrl":"https://madie.cms.gov/Organization/b3da710a-5498-4042-b5cc-09909ea36caa","resource":{"resourceType":"Organization","id":"b3da710a-5498-4042-b5cc-09909ea36caa","meta":{"profile":["http://hl7.org/fhir/us/qicore/StructureDefinition/qicore-organization"]},"identifier":[{"use":"temp","system":"urn:oid:2.16.840.1.113883.4.4","value":"21-3259825"}],"active":true,"type":[{"coding":[{"system":"http://terminology.hl7.org/CodeSystem/organization-type","code":"pay","display":"Payer"}]}],"name":"Blue Cross Blue Shield of Texas","telecom":[{"system":"phone","value":"(+1) 972-766-6900"}],"address":[{"use":"billing","type":"postal","line":["P.O. Box 660044"],"city":"Dallas","state":"TX","postalCode":"75266-0044","country":"USA"}]},"request":{"method":"PUT","url":"Organization/b3da710a-5498-4042-b5cc-09909ea36caa"}},{"fullUrl":"https://madie.cms.gov/Practitioner/0472ab7c-1781-47d9-89d5-f073f426000f","resource":{"resourceType":"Practitioner","id":"0472ab7c-1781-47d9-89d5-f073f426000f","identifier":[{"system":"http://hl7.org/fhir/sid/us-npi","value":"123456"}],"name":[{"family":"Evil","prefix":["Dr"]}]},"request":{"method":"PUT","url":"Practitioner/0472ab7c-1781-47d9-89d5-f073f426000f"}},{"fullUrl":"https://madie.cms.gov/MeasureReport/d385d89e-17ac-41f8-9083-113360b0e526","resource":{"resourceType":"MeasureReport","id":"d385d89e-17ac-41f8-9083-113360b0e526","meta":{"profile":["http://hl7.org/fhir/us/cqfmeasures/StructureDefinition/test-case-cqfm"]},"contained":[{"resourceType":"Parameters","id":"0c4c508b-e99d-4878-ad2b-ef32570421e3-parameters","parameter":[{"name":"subject","valueString":"f0de258a-3358-4f1d-a91d-e1c57a2cb61a"}]}],"extension":[{"url":"http://hl7.org/fhir/StructureDefinition/cqf-inputParameters","valueReference":{"reference":"#0c4c508b-e99d-4878-ad2b-ef32570421e3-parameters"}},{"url":"http://hl7.org/fhir/us/cqfmeasures/StructureDefinition/cqfm-testCaseDescription","valueMarkdown":"with active flutter and abatement time removed"}],"modifierExtension":[{"url":"http://hl7.org/fhir/us/cqfmeasures/StructureDefinition/cqfm-isTestCase","valueBoolean":true}],"status":"complete","type":"individual","measure":"https://madie.cms.gov/Measure/CMS71FHIRSTKAnticoagAFFlutter","period":{"start":"2026-01-01","end":"2026-12-31"},"group":[{"id":"Group_1","population":[{"id":"InitialPopulation_1","code":{"coding":[{"system":"http://terminology.hl7.org/CodeSystem/measure-population","code":"initial-population","display":"Initial Population"}]},"count":1},{"id":"Denominator_1","code":{"coding":[{"system":"http://terminology.hl7.org/CodeSystem/measure-population","code":"denominator","display":"Denominator"}]},"count":1},{"id":"DenominatorExclusion_1","code":{"coding":[{"system":"http://terminology.hl7.org/CodeSystem/measure-population","code":"denominator-exclusion","display":"Denominator Exclusion"}]},"count":0},{"id":"Numerator_1","code":{"coding":[{"system":"http://terminology.hl7.org/CodeSystem/measure-population","code":"numerator","display":"Numerator"}]},"count":0},{"id":"DenominatorException_1","code":{"coding":[{"system":"http://terminology.hl7.org/CodeSystem/measure-population","code":"denominator-exception","display":"Denominator Exception"}]},"count":0}],"measureScore":{"value":0.0}}],"evaluatedResource":[{"reference":"Patient/f0de258a-3358-4f1d-a91d-e1c57a2cb61a"},{"reference":"Condition/09917e38-9213-4962-ad9d-4f7e64fc546b"},{"reference":"Encounter/1419503b-ffec-47e3-9981-af3af767c1bc"},{"reference":"Claim/5ca62962b8484628b8de1ec5"},{"reference":"Coverage/7969a4fb-c30c-43ba-8b03-491954270162"},{"reference":"Condition/ee4ce053-bc56-45cf-becb-36f53b771779"},{"reference":"Organization/b3da710a-5498-4042-b5cc-09909ea36caa"},{"reference":"Practitioner/0472ab7c-1781-47d9-89d5-f073f426000f"}]},"request":{"method":"PUT","url":"MeasureReport/d385d89e-17ac-41f8-9083-113360b0e526"}}]},"request":{"method":"PUT","url":"Bundle/633c9d030968f8012250fc99"}},{"resource":{"resourceType":"Condition","id":"09917e38-9213-4962-ad9d-4f7e64fc546b","meta":{"profile":["http://hl7.org/fhir/us/qicore/StructureDefinition/qicore-condition-encounter-diagnosis"]},"clinicalStatus":{"coding":[{"system":"http://terminology.hl7.org/CodeSystem/condition-clinical","code":"active"}]},"verificationStatus":{"coding":[{"system":"http://terminology.hl7.org/CodeSystem/condition-ver-status","code":"confirmed"}]},"category":[{"coding":[{"system":"http://terminology.hl7.org/CodeSystem/condition-category","code":"encounter-diagnosis","display":"Encounter Diagnosis"}]}],"code":{"coding":[{"system":"http://snomed.info/sct","code":"195080001"},{"system":"http://hl7.org/fhir/sid/icd-9-cm","code":"427.31"},{"system":"http://hl7.org/fhir/sid/icd-10-cm","code":"I48.0"}]},"subject":{"reference":"Patient/f0de258a-3358-4f1d-a91d-e1c57a2cb61a"},"encounter":{"reference":"Encounter/1419503b-ffec-47e3-9981-af3af767c1bc"},"onsetDateTime":"2026-02-10T08:15:00Z"},"request":{"method":"PUT","url":"Condition/09917e38-9213-4962-ad9d-4f7e64fc546b"}},{"resource":{"resourceType":"Condition","id":"ee4ce053-bc56-45cf-becb-36f53b771779","meta":{"profile":["http://hl7.org/fhir/us/qicore/StructureDefinition/qicore-condition-problems-health-concerns"]},"clinicalStatus":{"coding":[{"system":"http://terminology.hl7.org/CodeSystem/condition-clinical","code":"active"}]},"verificationStatus":{"coding":[{"system":"http://terminology.hl7.org/CodeSystem/condition-ver-status","code":"confirmed"}]},"category":[{"coding":[{"system":"http://terminology.hl7.org/CodeSystem/condition-category","code":"encounter-diagnosis","display":"Encounter Diagnosis"}]}],"code":{"coding":[{"system":"http://snomed.info/sct","version":"2021-09","code":"111297002","display":"Nonparalytic stroke (disorder)","userSelected":true}]},"subject":{"reference":"Patient/f0de258a-3358-4f1d-a91d-e1c57a2cb61a"},"recordedDate":"2026-10-13T08:00:00Z"},"request":{"method":"PUT","url":"Condition/ee4ce053-bc56-45cf-becb-36f53b771779"}},{"resource":{"resourceType":"Claim","id":"5ca62962b8484628b8de1ec5","meta":{"profile":["http://hl7.org/fhir/us/qicore/StructureDefinition/qicore-claim"]},"status":"active","type":{"coding":[{"system":"http://terminology.hl7.org/CodeSystem/claim-type","code":"institutional"}]},"use":"claim","patient":{"reference":"Patient/d170a0a8-b5ad-4303-b6df-e304dd5f92ad"},"created":"2026-12-01","provider":{"reference":"Practitioner/0472ab7c-1781-47d9-89d5-f073f426000f"},"priority":{"coding":[{"system":"http://terminology.hl7.org/CodeSystem/processpriority","code":"normal"}]},"diagnosis":[{"sequence":1,"diagnosisCodeableConcept":{"coding":[{"system":"http://hl7.org/fhir/sid/icd-10-cm","code":"I63.00"}]},"type":[{"coding":[{"system":"http://terminology.hl7.org/CodeSystem/ex-diagnosistype","code":"principal"}]}]}],"insurance":[{"sequence":1,"focal":true,"coverage":{"reference":"Coverage/5fa041661c76ba66d9959367"}}],"item":[{"sequence":1,"diagnosisSequence":[1],"productOrService":{"coding":[{"system":"http://terminology.hl7.org/CodeSystem/ex-USCLS","code":"99555"}]},"encounter":[{"reference":"Encounter/1419503b-ffec-47e3-9981-af3af767c1bc"}]}]},"request":{"method":"PUT","url":"Claim/5ca62962b8484628b8de1ec5"}},{"resource":{"resourceType":"Organization","id":"b3da710a-5498-4042-b5cc-09909ea36caa","meta":{"profile":["http://hl7.org/fhir/us/qicore/StructureDefinition/qicore-organization"]},"identifier":[{"use":"temp","system":"urn:oid:2.16.840.1.113883.4.4","value":"21-3259825"}],"active":true,"type":[{"coding":[{"system":"http://terminology.hl7.org/CodeSystem/organization-type","code":"pay","display":"Payer"}]}],"name":"Blue Cross Blue Shield of Texas","telecom":[{"system":"phone","value":"(+1) 972-766-6900"}],"address":[{"use":"billing","type":"postal","line":["P.O. Box 660044"],"city":"Dallas","state":"TX","postalCode":"75266-0044","country":"USA"}]},"request":{"method":"PUT","url":"Organization/b3da710a-5498-4042-b5cc-09909ea36caa"}}]}