{"resourceType":"Bundle","id":"tests-5dd3cb00-eb9b-42ba-9af5-9cafa1475528-bundle","type":"transaction","entry":[{"fullUrl":"Practitioner/e42f1d0e-2aaf-41bf-9612-8ef65a98adc2","resource":{"resourceType":"Practitioner","id":"e42f1d0e-2aaf-41bf-9612-8ef65a98adc2","meta":{"profile":["http://hl7.org/fhir/us/qicore/StructureDefinition/qicore-practitioner"]},"identifier":[{"system":"http://hl7.org/fhir/sid/us-npi","value":"9999999896"}],"name":[{"family":"Evil","prefix":["Dr"]}]},"request":{"method":"PUT","url":"Practitioner/e42f1d0e-2aaf-41bf-9612-8ef65a98adc2"}},{"fullUrl":"Procedure/9c7ef91a-061d-455f-939d-1fb0dbdaa1e9","resource":{"resourceType":"Procedure","id":"9c7ef91a-061d-455f-939d-1fb0dbdaa1e9","meta":{"profile":["http://hl7.org/fhir/us/qicore/StructureDefinition/qicore-procedure"]},"extension":[{"url":"http://hl7.org/fhir/us/qicore/StructureDefinition/qicore-recorded","valueDateTime":"2026-11-19T13:35:00Z"}],"status":"completed","code":{"coding":[{"system":"http://www.cms.gov/Medicare/Coding/ICD10","code":"02560ZZ"},{"system":"http://snomed.info/sct","code":"175095005"}]},"subject":{"reference":"Patient/5dd3cb00-eb9b-42ba-9af5-9cafa1475528"},"performedPeriod":{"start":"2026-02-08T08:00:00Z"}},"request":{"method":"PUT","url":"Procedure/9c7ef91a-061d-455f-939d-1fb0dbdaa1e9"}},{"fullUrl":"Coverage/08f3b008-2e9c-4b70-9807-f5376b9d3d8d","resource":{"resourceType":"Coverage","id":"08f3b008-2e9c-4b70-9807-f5376b9d3d8d","status":"active","subscriberId":"523435","beneficiary":{"reference":"Patient/5dd3cb00-eb9b-42ba-9af5-9cafa1475528"},"relationship":{"coding":[{"system":"http://terminology.hl7.org/CodeSystem/subscriber-relationship","code":"self"}]},"period":{"start":"1961-12-01T08:00:00Z"},"payor":[{"reference":"Organization/17d7c99e-ad30-4e3f-a931-7c757dc19dc6"}]},"request":{"method":"PUT","url":"Coverage/08f3b008-2e9c-4b70-9807-f5376b9d3d8d"}},{"fullUrl":"Patient/5dd3cb00-eb9b-42ba-9af5-9cafa1475528","resource":{"resourceType":"Patient","id":"5dd3cb00-eb9b-42ba-9af5-9cafa1475528","meta":{"profile":["http://hl7.org/fhir/us/qicore/StructureDefinition/qicore-patient"]},"text":{"status":"generated","div":"<div xmlns=\"http://www.w3.org/1999/xhtml\"><div class=\"hapiHeaderText\">AtrialAblStartTM=EncStartTM <b>DENOMFAIL </b></div><table class=\"hapiPropertyTable\"><tbody><tr><td>Identifier</td><td>17e7285219c0bb5f087df79f6dd558b0</td></tr><tr><td>Date of birth</td><td><span>01 December 1960</span></td></tr></tbody></table></div>"},"extension":[{"url":"http://hl7.org/fhir/us/core/StructureDefinition/us-core-race","extension":[{"url":"ombCategory","valueCoding":{"system":"urn:oid:2.16.840.1.113883.6.238","code":"1002-5","display":"American Indian or Alaska Native","userSelected":true}},{"url":"text","valueString":"American Indian or Alaska Native"}]},{"url":"http://hl7.org/fhir/us/core/StructureDefinition/us-core-ethnicity","extension":[{"url":"ombCategory","valueCoding":{"system":"urn:oid:2.16.840.1.113883.6.238","code":"2135-2","display":"Hispanic or Latino","userSelected":true}},{"url":"text","valueString":"Hispanic or Latino"}]}],"identifier":[{"type":{"coding":[{"system":"http://terminology.hl7.org/CodeSystem/v2-0203","code":"MR"}]},"system":"https://bonnie-fhir.healthit.gov/","value":"633c9d030968f8012250fc7a"}],"active":true,"name":[{"use":"usual","family":"DENOMFail","given":["AtrialAblStartTM=EncStartTM"]}],"gender":"male","birthDate":"1961-12-01"},"request":{"method":"PUT","url":"Patient/5dd3cb00-eb9b-42ba-9af5-9cafa1475528"}},{"fullUrl":"Condition/bad508b8-1c15-4e2a-abbc-c04fd0f1605f","resource":{"resourceType":"Condition","id":"bad508b8-1c15-4e2a-abbc-c04fd0f1605f","meta":{"profile":["http://hl7.org/fhir/us/qicore/StructureDefinition/qicore-condition-problems-health-concerns"]},"clinicalStatus":{"coding":[{"system":"http://terminology.hl7.org/CodeSystem/condition-clinical","code":"active"}]},"verificationStatus":{"coding":[{"system":"http://terminology.hl7.org/CodeSystem/condition-ver-status","code":"confirmed"}]},"category":[{"coding":[{"system":"http://terminology.hl7.org/CodeSystem/condition-category","code":"encounter-diagnosis","display":"Encounter Diagnosis"}]}],"code":{"coding":[{"system":"http://snomed.info/sct","version":"2021-09","code":"111297002","display":"Nonparalytic stroke (disorder)","userSelected":true}]},"subject":{"reference":"Patient/5dd3cb00-eb9b-42ba-9af5-9cafa1475528"},"recordedDate":"2026-10-13T08:00:00Z"},"request":{"method":"PUT","url":"Condition/bad508b8-1c15-4e2a-abbc-c04fd0f1605f"}},{"fullUrl":"Organization/17d7c99e-ad30-4e3f-a931-7c757dc19dc6","resource":{"resourceType":"Organization","id":"17d7c99e-ad30-4e3f-a931-7c757dc19dc6","meta":{"profile":["http://hl7.org/fhir/us/qicore/StructureDefinition/qicore-organization"]},"identifier":[{"use":"temp","system":"urn:oid:2.16.840.1.113883.4.4","value":"21-3259825"}],"active":true,"type":[{"coding":[{"system":"http://terminology.hl7.org/CodeSystem/organization-type","code":"pay","display":"Payer"}]}],"name":"Blue Cross Blue Shield of Texas","telecom":[{"system":"phone","value":"(+1) 972-766-6900"}],"address":[{"use":"billing","type":"postal","line":["P.O. Box 660044"],"city":"Dallas","state":"TX","postalCode":"75266-0044","country":"USA"}]},"request":{"method":"PUT","url":"Organization/17d7c99e-ad30-4e3f-a931-7c757dc19dc6"}},{"fullUrl":"Encounter/5648d968-88cf-466f-977f-1217ba84de16","resource":{"resourceType":"Encounter","id":"5648d968-88cf-466f-977f-1217ba84de16","meta":{"profile":["http://hl7.org/fhir/us/qicore/StructureDefinition/qicore-encounter"]},"status":"finished","class":{"system":"http://terminology.hl7.org/CodeSystem/v3-ActCode","code":"IMP","display":"inpatient encounter"},"type":[{"coding":[{"system":"http://snomed.info/sct","code":"32485007"}]}],"subject":{"reference":"Patient/5dd3cb00-eb9b-42ba-9af5-9cafa1475528"},"period":{"start":"2026-02-08T08:00:00Z","end":"2026-02-10T08:15:00.000+00:00"},"length":{"value":2,"unit":"days"},"reasonReference":[{"reference":"Condition/bad508b8-1c15-4e2a-abbc-c04fd0f1605f"}]},"request":{"method":"PUT","url":"Encounter/5648d968-88cf-466f-977f-1217ba84de16"}},{"fullUrl":"MeasureReport/9e850954-82e0-47e9-82c4-5adeeb3c5391","resource":{"resourceType":"MeasureReport","id":"9e850954-82e0-47e9-82c4-5adeeb3c5391","meta":{"profile":["http://hl7.org/fhir/us/cqfmeasures/StructureDefinition/test-case-cqfm"]},"contained":[{"resourceType":"Parameters","id":"cb67ab7d-7869-44f6-b498-e31ec034c64c-parameters","parameter":[{"name":"subject","valueString":"5dd3cb00-eb9b-42ba-9af5-9cafa1475528"}]}],"extension":[{"url":"http://hl7.org/fhir/StructureDefinition/cqf-inputParameters","valueReference":{"reference":"#cb67ab7d-7869-44f6-b498-e31ec034c64c-parameters"}},{"url":"http://hl7.org/fhir/us/cqfmeasures/StructureDefinition/cqfm-testCaseDescription","valueMarkdown":"Procedure performed Atrial Ablation starts at same time as OccA start time\n"}],"modifierExtension":[{"url":"http://hl7.org/fhir/us/cqfmeasures/StructureDefinition/cqfm-isTestCase","valueBoolean":true}],"status":"complete","type":"individual","measure":"https://madie.cms.gov/Measure/CMS71FHIRSTKAnticoagAFFlutter","period":{"start":"2026-01-01","end":"2026-12-31"},"group":[{"id":"Group_1","population":[{"id":"InitialPopulation_1","code":{"coding":[{"system":"http://terminology.hl7.org/CodeSystem/measure-population","code":"initial-population","display":"Initial Population"}]},"count":1},{"id":"Denominator_1","code":{"coding":[{"system":"http://terminology.hl7.org/CodeSystem/measure-population","code":"denominator","display":"Denominator"}]},"count":0},{"id":"DenominatorExclusion_1","code":{"coding":[{"system":"http://terminology.hl7.org/CodeSystem/measure-population","code":"denominator-exclusion","display":"Denominator Exclusion"}]},"count":0},{"id":"Numerator_1","code":{"coding":[{"system":"http://terminology.hl7.org/CodeSystem/measure-population","code":"numerator","display":"Numerator"}]},"count":0},{"id":"DenominatorException_1","code":{"coding":[{"system":"http://terminology.hl7.org/CodeSystem/measure-population","code":"denominator-exception","display":"Denominator Exception"}]},"count":0}],"measureScore":{"value":0.0}}],"evaluatedResource":[{"reference":"Patient/5dd3cb00-eb9b-42ba-9af5-9cafa1475528"},{"reference":"Claim/5ca62962b8484628b8de1ec5"},{"reference":"Encounter/5648d968-88cf-466f-977f-1217ba84de16"},{"reference":"Coverage/08f3b008-2e9c-4b70-9807-f5376b9d3d8d"},{"reference":"Procedure/9c7ef91a-061d-455f-939d-1fb0dbdaa1e9"},{"reference":"Condition/bad508b8-1c15-4e2a-abbc-c04fd0f1605f"},{"reference":"Organization/17d7c99e-ad30-4e3f-a931-7c757dc19dc6"},{"reference":"Practitioner/e42f1d0e-2aaf-41bf-9612-8ef65a98adc2"}]},"request":{"method":"PUT","url":"MeasureReport/9e850954-82e0-47e9-82c4-5adeeb3c5391"}},{"fullUrl":"Bundle/633c9d030968f8012250fc7a","resource":{"resourceType":"Bundle","id":"633c9d030968f8012250fc7a","type":"transaction","entry":[{"fullUrl":"https://madie.cms.gov/Patient/5dd3cb00-eb9b-42ba-9af5-9cafa1475528","resource":{"resourceType":"Patient","id":"5dd3cb00-eb9b-42ba-9af5-9cafa1475528","meta":{"profile":["http://hl7.org/fhir/us/qicore/StructureDefinition/qicore-patient"]},"text":{"status":"generated","div":"<div xmlns=\"http://www.w3.org/1999/xhtml\"><div class=\"hapiHeaderText\">AtrialAblStartTM=EncStartTM <b>DENOMFAIL </b></div><table class=\"hapiPropertyTable\"><tbody><tr><td>Identifier</td><td>17e7285219c0bb5f087df79f6dd558b0</td></tr><tr><td>Date of birth</td><td><span>01 December 1960</span></td></tr></tbody></table></div>"},"extension":[{"url":"http://hl7.org/fhir/us/core/StructureDefinition/us-core-race","extension":[{"url":"ombCategory","valueCoding":{"system":"urn:oid:2.16.840.1.113883.6.238","code":"1002-5","display":"American Indian or Alaska Native","userSelected":true}},{"url":"text","valueString":"American Indian or Alaska Native"}]},{"url":"http://hl7.org/fhir/us/core/StructureDefinition/us-core-ethnicity","extension":[{"url":"ombCategory","valueCoding":{"system":"urn:oid:2.16.840.1.113883.6.238","code":"2135-2","display":"Hispanic or Latino","userSelected":true}},{"url":"text","valueString":"Hispanic or Latino"}]}],"identifier":[{"type":{"coding":[{"system":"http://terminology.hl7.org/CodeSystem/v2-0203","code":"MR"}]},"system":"https://bonnie-fhir.healthit.gov/","value":"633c9d030968f8012250fc7a"}],"active":true,"name":[{"use":"usual","family":"DENOMFail","given":["AtrialAblStartTM=EncStartTM"]}],"gender":"male","birthDate":"1961-12-01"},"request":{"method":"PUT","url":"Patient/5dd3cb00-eb9b-42ba-9af5-9cafa1475528"}},{"fullUrl":"https://madie.cms.gov/claim/5ca62962b8484628b8de1ec5","resource":{"resourceType":"Claim","id":"5ca62962b8484628b8de1ec5","meta":{"profile":["http://hl7.org/fhir/us/qicore/StructureDefinition/qicore-claim"]},"status":"active","type":{"coding":[{"system":"http://terminology.hl7.org/CodeSystem/claim-type","code":"institutional"}]},"use":"claim","patient":{"reference":"Patient/d170a0a8-b5ad-4303-b6df-e304dd5f92ad"},"created":"2026-12-01","provider":{"reference":"Practitioner/e42f1d0e-2aaf-41bf-9612-8ef65a98adc2"},"priority":{"coding":[{"system":"http://terminology.hl7.org/CodeSystem/processpriority","code":"normal"}]},"diagnosis":[{"sequence":1,"diagnosisCodeableConcept":{"coding":[{"system":"http://hl7.org/fhir/sid/icd-10-cm","code":"I63.00"}]},"type":[{"coding":[{"system":"http://terminology.hl7.org/CodeSystem/ex-diagnosistype","code":"principal"}]}]}],"insurance":[{"sequence":1,"focal":true,"coverage":{"reference":"Coverage/5fa041661c76ba66d9959367"}}],"item":[{"sequence":1,"diagnosisSequence":[1],"productOrService":{"coding":[{"system":"http://terminology.hl7.org/CodeSystem/ex-USCLS","code":"99555"}]},"encounter":[{"reference":"Encounter/5648d968-88cf-466f-977f-1217ba84de16"}]}]},"request":{"method":"PUT","url":"Claim/5ca62962b8484628b8de1ec5"}},{"fullUrl":"https://madie.cms.gov/Encounter/5648d968-88cf-466f-977f-1217ba84de16","resource":{"resourceType":"Encounter","id":"5648d968-88cf-466f-977f-1217ba84de16","meta":{"profile":["http://hl7.org/fhir/us/qicore/StructureDefinition/qicore-encounter"]},"status":"finished","class":{"system":"http://terminology.hl7.org/CodeSystem/v3-ActCode","code":"IMP","display":"inpatient encounter"},"type":[{"coding":[{"system":"http://snomed.info/sct","code":"32485007"}]}],"subject":{"reference":"Patient/5dd3cb00-eb9b-42ba-9af5-9cafa1475528"},"period":{"start":"2026-02-08T08:00:00Z","end":"2026-02-10T08:15:00.000+00:00"},"length":{"value":2,"unit":"days"},"reasonReference":[{"reference":"Condition/bad508b8-1c15-4e2a-abbc-c04fd0f1605f"}]},"request":{"method":"PUT","url":"Encounter/5648d968-88cf-466f-977f-1217ba84de16"}},{"fullUrl":"https://madie.cms.gov/Coverage/08f3b008-2e9c-4b70-9807-f5376b9d3d8d","resource":{"resourceType":"Coverage","id":"08f3b008-2e9c-4b70-9807-f5376b9d3d8d","status":"active","subscriberId":"523435","beneficiary":{"reference":"Patient/5dd3cb00-eb9b-42ba-9af5-9cafa1475528"},"relationship":{"coding":[{"system":"http://terminology.hl7.org/CodeSystem/subscriber-relationship","code":"self"}]},"period":{"start":"1961-12-01T08:00:00Z"},"payor":[{"reference":"Organization/17d7c99e-ad30-4e3f-a931-7c757dc19dc6"}]},"request":{"method":"PUT","url":"Coverage/08f3b008-2e9c-4b70-9807-f5376b9d3d8d"}},{"fullUrl":"https://madie.cms.gov/Procedure/9c7ef91a-061d-455f-939d-1fb0dbdaa1e9","resource":{"resourceType":"Procedure","id":"9c7ef91a-061d-455f-939d-1fb0dbdaa1e9","meta":{"profile":["http://hl7.org/fhir/us/qicore/StructureDefinition/qicore-procedure"]},"extension":[{"url":"http://hl7.org/fhir/us/qicore/StructureDefinition/qicore-recorded","valueDateTime":"2026-11-19T13:35:00Z"}],"status":"completed","code":{"coding":[{"system":"http://www.cms.gov/Medicare/Coding/ICD10","code":"02560ZZ"},{"system":"http://snomed.info/sct","code":"175095005"}]},"subject":{"reference":"Patient/5dd3cb00-eb9b-42ba-9af5-9cafa1475528"},"performedPeriod":{"start":"2026-02-08T08:00:00Z"}},"request":{"method":"PUT","url":"Procedure/9c7ef91a-061d-455f-939d-1fb0dbdaa1e9"}},{"fullUrl":"https://madie.cms.gov/Condition/bad508b8-1c15-4e2a-abbc-c04fd0f1605f","resource":{"resourceType":"Condition","id":"bad508b8-1c15-4e2a-abbc-c04fd0f1605f","meta":{"profile":["http://hl7.org/fhir/us/qicore/StructureDefinition/qicore-condition-problems-health-concerns"]},"clinicalStatus":{"coding":[{"system":"http://terminology.hl7.org/CodeSystem/condition-clinical","code":"active"}]},"verificationStatus":{"coding":[{"system":"http://terminology.hl7.org/CodeSystem/condition-ver-status","code":"confirmed"}]},"category":[{"coding":[{"system":"http://terminology.hl7.org/CodeSystem/condition-category","code":"encounter-diagnosis","display":"Encounter Diagnosis"}]}],"code":{"coding":[{"system":"http://snomed.info/sct","version":"2021-09","code":"111297002","display":"Nonparalytic stroke (disorder)","userSelected":true}]},"subject":{"reference":"Patient/5dd3cb00-eb9b-42ba-9af5-9cafa1475528"},"recordedDate":"2026-10-13T08:00:00Z"},"request":{"method":"PUT","url":"Condition/bad508b8-1c15-4e2a-abbc-c04fd0f1605f"}},{"fullUrl":"https://madie.cms.gov/Organization/17d7c99e-ad30-4e3f-a931-7c757dc19dc6","resource":{"resourceType":"Organization","id":"17d7c99e-ad30-4e3f-a931-7c757dc19dc6","meta":{"profile":["http://hl7.org/fhir/us/qicore/StructureDefinition/qicore-organization"]},"identifier":[{"use":"temp","system":"urn:oid:2.16.840.1.113883.4.4","value":"21-3259825"}],"active":true,"type":[{"coding":[{"system":"http://terminology.hl7.org/CodeSystem/organization-type","code":"pay","display":"Payer"}]}],"name":"Blue Cross Blue Shield of Texas","telecom":[{"system":"phone","value":"(+1) 972-766-6900"}],"address":[{"use":"billing","type":"postal","line":["P.O. Box 660044"],"city":"Dallas","state":"TX","postalCode":"75266-0044","country":"USA"}]},"request":{"method":"PUT","url":"Organization/17d7c99e-ad30-4e3f-a931-7c757dc19dc6"}},{"fullUrl":"https://madie.cms.gov/Practitioner/e42f1d0e-2aaf-41bf-9612-8ef65a98adc2","resource":{"resourceType":"Practitioner","id":"e42f1d0e-2aaf-41bf-9612-8ef65a98adc2","meta":{"profile":["http://hl7.org/fhir/us/qicore/StructureDefinition/qicore-practitioner"]},"identifier":[{"system":"http://hl7.org/fhir/sid/us-npi","value":"9999999896"}],"name":[{"family":"Evil","prefix":["Dr"]}]},"request":{"method":"PUT","url":"Practitioner/e42f1d0e-2aaf-41bf-9612-8ef65a98adc2"}},{"fullUrl":"https://madie.cms.gov/MeasureReport/9e850954-82e0-47e9-82c4-5adeeb3c5391","resource":{"resourceType":"MeasureReport","id":"9e850954-82e0-47e9-82c4-5adeeb3c5391","meta":{"profile":["http://hl7.org/fhir/us/cqfmeasures/StructureDefinition/test-case-cqfm"]},"contained":[{"resourceType":"Parameters","id":"cb67ab7d-7869-44f6-b498-e31ec034c64c-parameters","parameter":[{"name":"subject","valueString":"5dd3cb00-eb9b-42ba-9af5-9cafa1475528"}]}],"extension":[{"url":"http://hl7.org/fhir/StructureDefinition/cqf-inputParameters","valueReference":{"reference":"#cb67ab7d-7869-44f6-b498-e31ec034c64c-parameters"}},{"url":"http://hl7.org/fhir/us/cqfmeasures/StructureDefinition/cqfm-testCaseDescription","valueMarkdown":"Procedure performed Atrial Ablation starts at same time as OccA start time\n"}],"modifierExtension":[{"url":"http://hl7.org/fhir/us/cqfmeasures/StructureDefinition/cqfm-isTestCase","valueBoolean":true}],"status":"complete","type":"individual","measure":"https://madie.cms.gov/Measure/CMS71FHIRSTKAnticoagAFFlutter","period":{"start":"2026-01-01","end":"2026-12-31"},"group":[{"id":"Group_1","population":[{"id":"InitialPopulation_1","code":{"coding":[{"system":"http://terminology.hl7.org/CodeSystem/measure-population","code":"initial-population","display":"Initial Population"}]},"count":1},{"id":"Denominator_1","code":{"coding":[{"system":"http://terminology.hl7.org/CodeSystem/measure-population","code":"denominator","display":"Denominator"}]},"count":0},{"id":"DenominatorExclusion_1","code":{"coding":[{"system":"http://terminology.hl7.org/CodeSystem/measure-population","code":"denominator-exclusion","display":"Denominator Exclusion"}]},"count":0},{"id":"Numerator_1","code":{"coding":[{"system":"http://terminology.hl7.org/CodeSystem/measure-population","code":"numerator","display":"Numerator"}]},"count":0},{"id":"DenominatorException_1","code":{"coding":[{"system":"http://terminology.hl7.org/CodeSystem/measure-population","code":"denominator-exception","display":"Denominator Exception"}]},"count":0}],"measureScore":{"value":0.0}}],"evaluatedResource":[{"reference":"Patient/5dd3cb00-eb9b-42ba-9af5-9cafa1475528"},{"reference":"Claim/5ca62962b8484628b8de1ec5"},{"reference":"Encounter/5648d968-88cf-466f-977f-1217ba84de16"},{"reference":"Coverage/08f3b008-2e9c-4b70-9807-f5376b9d3d8d"},{"reference":"Procedure/9c7ef91a-061d-455f-939d-1fb0dbdaa1e9"},{"reference":"Condition/bad508b8-1c15-4e2a-abbc-c04fd0f1605f"},{"reference":"Organization/17d7c99e-ad30-4e3f-a931-7c757dc19dc6"},{"reference":"Practitioner/e42f1d0e-2aaf-41bf-9612-8ef65a98adc2"}]},"request":{"method":"PUT","url":"MeasureReport/9e850954-82e0-47e9-82c4-5adeeb3c5391"}}]},"request":{"method":"PUT","url":"Bundle/633c9d030968f8012250fc7a"}},{"fullUrl":"Claim/5ca62962b8484628b8de1ec5","resource":{"resourceType":"Claim","id":"5ca62962b8484628b8de1ec5","meta":{"profile":["http://hl7.org/fhir/us/qicore/StructureDefinition/qicore-claim"]},"status":"active","type":{"coding":[{"system":"http://terminology.hl7.org/CodeSystem/claim-type","code":"institutional"}]},"use":"claim","patient":{"reference":"Patient/d170a0a8-b5ad-4303-b6df-e304dd5f92ad"},"created":"2026-12-01","provider":{"reference":"Practitioner/e42f1d0e-2aaf-41bf-9612-8ef65a98adc2"},"priority":{"coding":[{"system":"http://terminology.hl7.org/CodeSystem/processpriority","code":"normal"}]},"diagnosis":[{"sequence":1,"diagnosisCodeableConcept":{"coding":[{"system":"http://hl7.org/fhir/sid/icd-10-cm","code":"I63.00"}]},"type":[{"coding":[{"system":"http://terminology.hl7.org/CodeSystem/ex-diagnosistype","code":"principal"}]}]}],"insurance":[{"sequence":1,"focal":true,"coverage":{"reference":"Coverage/5fa041661c76ba66d9959367"}}],"item":[{"sequence":1,"diagnosisSequence":[1],"productOrService":{"coding":[{"system":"http://terminology.hl7.org/CodeSystem/ex-USCLS","code":"99555"}]},"encounter":[{"reference":"Encounter/5648d968-88cf-466f-977f-1217ba84de16"}]}]},"request":{"method":"PUT","url":"Claim/5ca62962b8484628b8de1ec5"}}]}