{"resourceType":"Bundle","id":"tests-1a19c21b-41f3-4376-9516-529ad9fb466f-bundle","type":"transaction","entry":[{"fullUrl":"Coverage/37c5bc2f-eceb-4efb-8d39-89386d3c6b58","resource":{"resourceType":"Coverage","id":"37c5bc2f-eceb-4efb-8d39-89386d3c6b58","meta":{"profile":["http://hl7.org/fhir/us/qicore/StructureDefinition/qicore-coverage"]},"status":"active","subscriberId":"523435","beneficiary":{"reference":"Patient/162a5913-9989-42f2-8d6a-ae460e245e4c"},"relationship":{"coding":[{"system":"http://terminology.hl7.org/CodeSystem/subscriber-relationship","code":"self"}]},"payor":[{"reference":"Organization/34349197-a31b-4191-8432-cf5c22d19d34"}]},"request":{"method":"PUT","url":"Coverage/37c5bc2f-eceb-4efb-8d39-89386d3c6b58"}},{"fullUrl":"MedicationRequest/479aa983-7337-4815-875e-beb09dd425e7","resource":{"resourceType":"MedicationRequest","id":"479aa983-7337-4815-875e-beb09dd425e7","meta":{"profile":["http://hl7.org/fhir/us/qicore/StructureDefinition/qicore-medicationrequest"]},"status":"active","intent":"order","category":[{"coding":[{"system":"http://terminology.hl7.org/CodeSystem/medicationrequest-category","code":"community","display":"Community","userSelected":true}]}],"medicationCodeableConcept":{"coding":[{"system":"http://www.nlm.nih.gov/research/umls/rxnorm","code":"308351"}]},"subject":{"reference":"Patient/1a19c21b-41f3-4376-9516-529ad9fb466f"},"authoredOn":"2026-11-24T08:15:00Z","requester":{"reference":"Practitioner/example"}},"request":{"method":"PUT","url":"MedicationRequest/479aa983-7337-4815-875e-beb09dd425e7"}},{"fullUrl":"Organization/34349197-a31b-4191-8432-cf5c22d19d34","resource":{"resourceType":"Organization","id":"34349197-a31b-4191-8432-cf5c22d19d34","meta":{"profile":["http://hl7.org/fhir/us/qicore/StructureDefinition/qicore-organization"]},"identifier":[{"use":"temp","system":"urn:oid:2.16.840.1.113883.4.4","value":"21-3259825"}],"active":true,"type":[{"coding":[{"system":"http://terminology.hl7.org/CodeSystem/organization-type","code":"pay","display":"Payer"}]}],"name":"Blue Cross Blue Shield of Texas","telecom":[{"system":"phone","value":"(+1) 972-766-6900"}],"address":[{"use":"billing","type":"postal","line":["P.O. Box 660044"],"city":"Dallas","state":"TX","postalCode":"75266-0044","country":"USA"}]},"request":{"method":"PUT","url":"Organization/34349197-a31b-4191-8432-cf5c22d19d34"}},{"fullUrl":"Practitioner/ef121680-99ea-477b-b32c-d9955410bdbf","resource":{"resourceType":"Practitioner","id":"ef121680-99ea-477b-b32c-d9955410bdbf","identifier":[{"system":"http://hl7.org/fhir/sid/us-npi","value":"123456"}],"name":[{"family":"Evil","prefix":["Dr"]}]},"request":{"method":"PUT","url":"Practitioner/ef121680-99ea-477b-b32c-d9955410bdbf"}},{"fullUrl":"Bundle/633c9d030968f8012250fc9d","resource":{"resourceType":"Bundle","id":"633c9d030968f8012250fc9d","type":"transaction","entry":[{"fullUrl":"https://madie.cms.gov/Patient/1a19c21b-41f3-4376-9516-529ad9fb466f","resource":{"resourceType":"Patient","id":"1a19c21b-41f3-4376-9516-529ad9fb466f","meta":{"profile":["http://hl7.org/fhir/us/qicore/StructureDefinition/qicore-patient"]},"text":{"status":"generated","div":"<div xmlns=\"http://www.w3.org/1999/xhtml\"><div class=\"hapiHeaderText\">MedDCAnticoaStartTmEQEncDischTm <b>NUMERPASS </b></div><table class=\"hapiPropertyTable\"><tbody><tr><td>Identifier</td><td>9128716b0b21eec571089f9d5d345182</td></tr><tr><td>Date of birth</td><td><span>23 May 1954</span></td></tr></tbody></table></div>"},"extension":[{"url":"http://hl7.org/fhir/us/core/StructureDefinition/us-core-race","extension":[{"url":"ombCategory","valueCoding":{"system":"urn:oid:2.16.840.1.113883.6.238","code":"1002-5","display":"American Indian or Alaska Native","userSelected":true}},{"url":"text","valueString":"American Indian or Alaska Native"}]},{"url":"http://hl7.org/fhir/us/core/StructureDefinition/us-core-ethnicity","extension":[{"url":"ombCategory","valueCoding":{"system":"urn:oid:2.16.840.1.113883.6.238","code":"2135-2","display":"Hispanic or Latino","userSelected":true}},{"url":"text","valueString":"Hispanic or Latino"}]}],"identifier":[{"type":{"coding":[{"system":"http://terminology.hl7.org/CodeSystem/v2-0203","code":"MR"}]},"system":"https://bonnie-fhir.healthit.gov/","value":"633c9d030968f8012250fc9d"}],"active":true,"name":[{"use":"usual","family":"NUMERPass","given":["MedDCAnticoaStartTmEQEncDischTm"]}],"gender":"female","birthDate":"1955-05-23"},"request":{"method":"PUT","url":"Patient/1a19c21b-41f3-4376-9516-529ad9fb466f"}},{"fullUrl":"https://madie.cms.gov/Encounter/b58119b7-751e-4f35-ba40-90e742058d8a","resource":{"resourceType":"Encounter","id":"b58119b7-751e-4f35-ba40-90e742058d8a","meta":{"profile":["http://hl7.org/fhir/us/qicore/StructureDefinition/qicore-encounter"]},"status":"finished","class":{"system":"http://terminology.hl7.org/CodeSystem/v3-ActCode","code":"IMP","display":"inpatient encounter"},"type":[{"coding":[{"system":"http://snomed.info/sct","code":"32485007"}]}],"subject":{"reference":"Patient/1a19c21b-41f3-4376-9516-529ad9fb466f"},"period":{"start":"2026-11-20T08:00:00Z","end":"2026-11-24T08:15:00.000+00:00"},"length":{"value":4,"unit":"days"},"reasonReference":[{"reference":"Condition/a5300d81-2039-43ac-9379-e4ba5784ce2d"}]},"request":{"method":"PUT","url":"Encounter/b58119b7-751e-4f35-ba40-90e742058d8a"}},{"fullUrl":"https://madie.cms.gov/MedicationRequest/479aa983-7337-4815-875e-beb09dd425e7","resource":{"resourceType":"MedicationRequest","id":"479aa983-7337-4815-875e-beb09dd425e7","meta":{"profile":["http://hl7.org/fhir/us/qicore/StructureDefinition/qicore-medicationrequest"]},"status":"active","intent":"order","category":[{"coding":[{"system":"http://terminology.hl7.org/CodeSystem/medicationrequest-category","code":"community","display":"Community","userSelected":true}]}],"medicationCodeableConcept":{"coding":[{"system":"http://www.nlm.nih.gov/research/umls/rxnorm","code":"308351"}]},"subject":{"reference":"Patient/1a19c21b-41f3-4376-9516-529ad9fb466f"},"authoredOn":"2026-11-24T08:15:00Z","requester":{"reference":"Practitioner/example"}},"request":{"method":"PUT","url":"MedicationRequest/479aa983-7337-4815-875e-beb09dd425e7"}},{"fullUrl":"https://madie.cms.gov/claim/5ca62962b8484628b8de1ec5","resource":{"resourceType":"Claim","id":"5ca62962b8484628b8de1ec5","meta":{"profile":["http://hl7.org/fhir/us/qicore/StructureDefinition/qicore-claim"]},"status":"active","type":{"coding":[{"system":"http://terminology.hl7.org/CodeSystem/claim-type","code":"institutional"}]},"use":"claim","patient":{"reference":"Patient/d170a0a8-b5ad-4303-b6df-e304dd5f92ad"},"created":"2026-12-01","provider":{"reference":"Practitioner/ef121680-99ea-477b-b32c-d9955410bdbf"},"priority":{"coding":[{"system":"http://terminology.hl7.org/CodeSystem/processpriority","code":"normal"}]},"diagnosis":[{"sequence":1,"diagnosisCodeableConcept":{"coding":[{"system":"http://hl7.org/fhir/sid/icd-10-cm","code":"I63.00"}]},"type":[{"coding":[{"system":"http://terminology.hl7.org/CodeSystem/ex-diagnosistype","code":"principal"}]}]}],"insurance":[{"sequence":1,"focal":true,"coverage":{"reference":"Coverage/5fa041661c76ba66d9959367"}}],"item":[{"sequence":1,"diagnosisSequence":[1],"productOrService":{"coding":[{"system":"http://terminology.hl7.org/CodeSystem/ex-USCLS","code":"99555"}]},"encounter":[{"reference":"Encounter/b58119b7-751e-4f35-ba40-90e742058d8a"}]}]},"request":{"method":"PUT","url":"Claim/5ca62962b8484628b8de1ec5"}},{"fullUrl":"https://madie.cms.gov/Coverage/37c5bc2f-eceb-4efb-8d39-89386d3c6b58","resource":{"resourceType":"Coverage","id":"37c5bc2f-eceb-4efb-8d39-89386d3c6b58","meta":{"profile":["http://hl7.org/fhir/us/qicore/StructureDefinition/qicore-coverage"]},"status":"active","subscriberId":"523435","beneficiary":{"reference":"Patient/162a5913-9989-42f2-8d6a-ae460e245e4c"},"relationship":{"coding":[{"system":"http://terminology.hl7.org/CodeSystem/subscriber-relationship","code":"self"}]},"payor":[{"reference":"Organization/34349197-a31b-4191-8432-cf5c22d19d34"}]},"request":{"method":"PUT","url":"Coverage/37c5bc2f-eceb-4efb-8d39-89386d3c6b58"}},{"fullUrl":"https://madie.cms.gov/Procedure/38f0a5f3-13c1-442c-ac9b-a275cf0e518e","resource":{"resourceType":"Procedure","id":"38f0a5f3-13c1-442c-ac9b-a275cf0e518e","meta":{"profile":["http://hl7.org/fhir/us/qicore/StructureDefinition/qicore-procedure"]},"extension":[{"url":"http://hl7.org/fhir/us/qicore/StructureDefinition/qicore-recorded","valueDateTime":"2026-11-19T13:35:00Z"}],"status":"completed","code":{"coding":[{"system":"http://www.cms.gov/Medicare/Coding/ICD10","code":"02560ZZ"},{"system":"http://snomed.info/sct","code":"175095005"}]},"subject":{"reference":"Patient/1a19c21b-41f3-4376-9516-529ad9fb466f"},"performedPeriod":{"start":"2026-11-20T06:00:00Z","end":"2026-11-20T07:15:00.000+00:00"}},"request":{"method":"PUT","url":"Procedure/38f0a5f3-13c1-442c-ac9b-a275cf0e518e"}},{"fullUrl":"https://madie.cms.gov/claim/5ca62962b8484628b8de1ec5","resource":{"resourceType":"Claim","id":"5ca62962b8484628b8de1ec5","meta":{"profile":["http://hl7.org/fhir/us/qicore/StructureDefinition/qicore-claim"]},"status":"active","type":{"coding":[{"system":"http://terminology.hl7.org/CodeSystem/claim-type","code":"institutional"}]},"use":"claim","patient":{"reference":"Patient/d170a0a8-b5ad-4303-b6df-e304dd5f92ad"},"created":"2026-12-01","provider":{"reference":"Practitioner/ef121680-99ea-477b-b32c-d9955410bdbf"},"priority":{"coding":[{"system":"http://terminology.hl7.org/CodeSystem/processpriority","code":"normal"}]},"diagnosis":[{"sequence":1,"diagnosisCodeableConcept":{"coding":[{"system":"http://hl7.org/fhir/sid/icd-10-cm","code":"I63.00"}]},"type":[{"coding":[{"system":"http://terminology.hl7.org/CodeSystem/ex-diagnosistype","code":"principal"}]}]}],"insurance":[{"sequence":1,"focal":true,"coverage":{"reference":"Coverage/5fa041661c76ba66d9959367"}}],"item":[{"sequence":1,"diagnosisSequence":[1],"productOrService":{"coding":[{"system":"http://terminology.hl7.org/CodeSystem/ex-USCLS","code":"99555"}]},"encounter":[{"reference":"Encounter/5ca4cde2b8484613a5552a68"}]}]},"request":{"method":"PUT","url":"Claim/5ca62962b8484628b8de1ec5"}},{"fullUrl":"https://madie.cms.gov/Condition/a5300d81-2039-43ac-9379-e4ba5784ce2d","resource":{"resourceType":"Condition","id":"a5300d81-2039-43ac-9379-e4ba5784ce2d","meta":{"profile":["http://hl7.org/fhir/us/qicore/StructureDefinition/qicore-condition-problems-health-concerns"]},"clinicalStatus":{"coding":[{"system":"http://terminology.hl7.org/CodeSystem/condition-clinical","code":"active"}]},"verificationStatus":{"coding":[{"system":"http://terminology.hl7.org/CodeSystem/condition-ver-status","code":"confirmed"}]},"category":[{"coding":[{"system":"http://terminology.hl7.org/CodeSystem/condition-category","code":"encounter-diagnosis","display":"Encounter Diagnosis"}]}],"code":{"coding":[{"system":"http://snomed.info/sct","version":"2021-09","code":"111297002","display":"Nonparalytic stroke (disorder)","userSelected":true}]},"subject":{"reference":"Patient/1a19c21b-41f3-4376-9516-529ad9fb466f"},"recordedDate":"2026-10-13T08:00:00Z"},"request":{"method":"PUT","url":"Condition/a5300d81-2039-43ac-9379-e4ba5784ce2d"}},{"fullUrl":"https://madie.cms.gov/Organization/34349197-a31b-4191-8432-cf5c22d19d34","resource":{"resourceType":"Organization","id":"34349197-a31b-4191-8432-cf5c22d19d34","meta":{"profile":["http://hl7.org/fhir/us/qicore/StructureDefinition/qicore-organization"]},"identifier":[{"use":"temp","system":"urn:oid:2.16.840.1.113883.4.4","value":"21-3259825"}],"active":true,"type":[{"coding":[{"system":"http://terminology.hl7.org/CodeSystem/organization-type","code":"pay","display":"Payer"}]}],"name":"Blue Cross Blue Shield of Texas","telecom":[{"system":"phone","value":"(+1) 972-766-6900"}],"address":[{"use":"billing","type":"postal","line":["P.O. Box 660044"],"city":"Dallas","state":"TX","postalCode":"75266-0044","country":"USA"}]},"request":{"method":"PUT","url":"Organization/34349197-a31b-4191-8432-cf5c22d19d34"}},{"fullUrl":"https://madie.cms.gov/Practitioner/ef121680-99ea-477b-b32c-d9955410bdbf","resource":{"resourceType":"Practitioner","id":"ef121680-99ea-477b-b32c-d9955410bdbf","identifier":[{"system":"http://hl7.org/fhir/sid/us-npi","value":"123456"}],"name":[{"family":"Evil","prefix":["Dr"]}]},"request":{"method":"PUT","url":"Practitioner/ef121680-99ea-477b-b32c-d9955410bdbf"}},{"fullUrl":"https://madie.cms.gov/MeasureReport/e51b6156-1a86-47b8-8071-6f7140ffc26d","resource":{"resourceType":"MeasureReport","id":"e51b6156-1a86-47b8-8071-6f7140ffc26d","meta":{"profile":["http://hl7.org/fhir/us/cqfmeasures/StructureDefinition/test-case-cqfm"]},"contained":[{"resourceType":"Parameters","id":"253c3bd2-ba20-4f31-837b-b5c4546dc832-parameters","parameter":[{"name":"subject","valueString":"1a19c21b-41f3-4376-9516-529ad9fb466f"}]}],"extension":[{"url":"http://hl7.org/fhir/StructureDefinition/cqf-inputParameters","valueReference":{"reference":"#253c3bd2-ba20-4f31-837b-b5c4546dc832-parameters"}},{"url":"http://hl7.org/fhir/us/cqfmeasures/StructureDefinition/cqfm-testCaseDescription","valueMarkdown":"Pt. discharged on anticoagulant, starts time = OccurA discharge time\n"}],"modifierExtension":[{"url":"http://hl7.org/fhir/us/cqfmeasures/StructureDefinition/cqfm-isTestCase","valueBoolean":true}],"status":"complete","type":"individual","measure":"https://madie.cms.gov/Measure/CMS71FHIRSTKAnticoagAFFlutter","period":{"start":"2026-01-01","end":"2026-12-31"},"group":[{"id":"Group_1","population":[{"id":"InitialPopulation_1","code":{"coding":[{"system":"http://terminology.hl7.org/CodeSystem/measure-population","code":"initial-population","display":"Initial Population"}]},"count":1},{"id":"Denominator_1","code":{"coding":[{"system":"http://terminology.hl7.org/CodeSystem/measure-population","code":"denominator","display":"Denominator"}]},"count":1},{"id":"DenominatorExclusion_1","code":{"coding":[{"system":"http://terminology.hl7.org/CodeSystem/measure-population","code":"denominator-exclusion","display":"Denominator Exclusion"}]},"count":0},{"id":"Numerator_1","code":{"coding":[{"system":"http://terminology.hl7.org/CodeSystem/measure-population","code":"numerator","display":"Numerator"}]},"count":1},{"id":"DenominatorException_1","code":{"coding":[{"system":"http://terminology.hl7.org/CodeSystem/measure-population","code":"denominator-exception","display":"Denominator Exception"}]},"count":0}],"measureScore":{"value":0.0}}],"evaluatedResource":[{"reference":"Patient/1a19c21b-41f3-4376-9516-529ad9fb466f"},{"reference":"Encounter/b58119b7-751e-4f35-ba40-90e742058d8a"},{"reference":"MedicationRequest/479aa983-7337-4815-875e-beb09dd425e7"},{"reference":"Claim/5ca62962b8484628b8de1ec5"},{"reference":"Coverage/37c5bc2f-eceb-4efb-8d39-89386d3c6b58"},{"reference":"Procedure/38f0a5f3-13c1-442c-ac9b-a275cf0e518e"},{"reference":"Claim/5ca62962b8484628b8de1ec5"},{"reference":"Condition/a5300d81-2039-43ac-9379-e4ba5784ce2d"},{"reference":"Organization/34349197-a31b-4191-8432-cf5c22d19d34"},{"reference":"Practitioner/ef121680-99ea-477b-b32c-d9955410bdbf"}]},"request":{"method":"PUT","url":"MeasureReport/e51b6156-1a86-47b8-8071-6f7140ffc26d"}}]},"request":{"method":"PUT","url":"Bundle/633c9d030968f8012250fc9d"}},{"fullUrl":"Procedure/38f0a5f3-13c1-442c-ac9b-a275cf0e518e","resource":{"resourceType":"Procedure","id":"38f0a5f3-13c1-442c-ac9b-a275cf0e518e","meta":{"profile":["http://hl7.org/fhir/us/qicore/StructureDefinition/qicore-procedure"]},"extension":[{"url":"http://hl7.org/fhir/us/qicore/StructureDefinition/qicore-recorded","valueDateTime":"2026-11-19T13:35:00Z"}],"status":"completed","code":{"coding":[{"system":"http://www.cms.gov/Medicare/Coding/ICD10","code":"02560ZZ"},{"system":"http://snomed.info/sct","code":"175095005"}]},"subject":{"reference":"Patient/1a19c21b-41f3-4376-9516-529ad9fb466f"},"performedPeriod":{"start":"2026-11-20T06:00:00Z","end":"2026-11-20T07:15:00.000+00:00"}},"request":{"method":"PUT","url":"Procedure/38f0a5f3-13c1-442c-ac9b-a275cf0e518e"}},{"fullUrl":"MeasureReport/e51b6156-1a86-47b8-8071-6f7140ffc26d","resource":{"resourceType":"MeasureReport","id":"e51b6156-1a86-47b8-8071-6f7140ffc26d","meta":{"profile":["http://hl7.org/fhir/us/cqfmeasures/StructureDefinition/test-case-cqfm"]},"contained":[{"resourceType":"Parameters","id":"253c3bd2-ba20-4f31-837b-b5c4546dc832-parameters","parameter":[{"name":"subject","valueString":"1a19c21b-41f3-4376-9516-529ad9fb466f"}]}],"extension":[{"url":"http://hl7.org/fhir/StructureDefinition/cqf-inputParameters","valueReference":{"reference":"#253c3bd2-ba20-4f31-837b-b5c4546dc832-parameters"}},{"url":"http://hl7.org/fhir/us/cqfmeasures/StructureDefinition/cqfm-testCaseDescription","valueMarkdown":"Pt. discharged on anticoagulant, starts time = OccurA discharge time\n"}],"modifierExtension":[{"url":"http://hl7.org/fhir/us/cqfmeasures/StructureDefinition/cqfm-isTestCase","valueBoolean":true}],"status":"complete","type":"individual","measure":"https://madie.cms.gov/Measure/CMS71FHIRSTKAnticoagAFFlutter","period":{"start":"2026-01-01","end":"2026-12-31"},"group":[{"id":"Group_1","population":[{"id":"InitialPopulation_1","code":{"coding":[{"system":"http://terminology.hl7.org/CodeSystem/measure-population","code":"initial-population","display":"Initial Population"}]},"count":1},{"id":"Denominator_1","code":{"coding":[{"system":"http://terminology.hl7.org/CodeSystem/measure-population","code":"denominator","display":"Denominator"}]},"count":1},{"id":"DenominatorExclusion_1","code":{"coding":[{"system":"http://terminology.hl7.org/CodeSystem/measure-population","code":"denominator-exclusion","display":"Denominator Exclusion"}]},"count":0},{"id":"Numerator_1","code":{"coding":[{"system":"http://terminology.hl7.org/CodeSystem/measure-population","code":"numerator","display":"Numerator"}]},"count":1},{"id":"DenominatorException_1","code":{"coding":[{"system":"http://terminology.hl7.org/CodeSystem/measure-population","code":"denominator-exception","display":"Denominator Exception"}]},"count":0}],"measureScore":{"value":0.0}}],"evaluatedResource":[{"reference":"Patient/1a19c21b-41f3-4376-9516-529ad9fb466f"},{"reference":"Encounter/b58119b7-751e-4f35-ba40-90e742058d8a"},{"reference":"MedicationRequest/479aa983-7337-4815-875e-beb09dd425e7"},{"reference":"Claim/5ca62962b8484628b8de1ec5"},{"reference":"Coverage/37c5bc2f-eceb-4efb-8d39-89386d3c6b58"},{"reference":"Procedure/38f0a5f3-13c1-442c-ac9b-a275cf0e518e"},{"reference":"Claim/5ca62962b8484628b8de1ec5"},{"reference":"Condition/a5300d81-2039-43ac-9379-e4ba5784ce2d"},{"reference":"Organization/34349197-a31b-4191-8432-cf5c22d19d34"},{"reference":"Practitioner/ef121680-99ea-477b-b32c-d9955410bdbf"}]},"request":{"method":"PUT","url":"MeasureReport/e51b6156-1a86-47b8-8071-6f7140ffc26d"}},{"fullUrl":"Encounter/b58119b7-751e-4f35-ba40-90e742058d8a","resource":{"resourceType":"Encounter","id":"b58119b7-751e-4f35-ba40-90e742058d8a","meta":{"profile":["http://hl7.org/fhir/us/qicore/StructureDefinition/qicore-encounter"]},"status":"finished","class":{"system":"http://terminology.hl7.org/CodeSystem/v3-ActCode","code":"IMP","display":"inpatient encounter"},"type":[{"coding":[{"system":"http://snomed.info/sct","code":"32485007"}]}],"subject":{"reference":"Patient/1a19c21b-41f3-4376-9516-529ad9fb466f"},"period":{"start":"2026-11-20T08:00:00Z","end":"2026-11-24T08:15:00.000+00:00"},"length":{"value":4,"unit":"days"},"reasonReference":[{"reference":"Condition/a5300d81-2039-43ac-9379-e4ba5784ce2d"}]},"request":{"method":"PUT","url":"Encounter/b58119b7-751e-4f35-ba40-90e742058d8a"}},{"fullUrl":"Condition/a5300d81-2039-43ac-9379-e4ba5784ce2d","resource":{"resourceType":"Condition","id":"a5300d81-2039-43ac-9379-e4ba5784ce2d","meta":{"profile":["http://hl7.org/fhir/us/qicore/StructureDefinition/qicore-condition-problems-health-concerns"]},"clinicalStatus":{"coding":[{"system":"http://terminology.hl7.org/CodeSystem/condition-clinical","code":"active"}]},"verificationStatus":{"coding":[{"system":"http://terminology.hl7.org/CodeSystem/condition-ver-status","code":"confirmed"}]},"category":[{"coding":[{"system":"http://terminology.hl7.org/CodeSystem/condition-category","code":"encounter-diagnosis","display":"Encounter Diagnosis"}]}],"code":{"coding":[{"system":"http://snomed.info/sct","version":"2021-09","code":"111297002","display":"Nonparalytic stroke (disorder)","userSelected":true}]},"subject":{"reference":"Patient/1a19c21b-41f3-4376-9516-529ad9fb466f"},"recordedDate":"2026-10-13T08:00:00Z"},"request":{"method":"PUT","url":"Condition/a5300d81-2039-43ac-9379-e4ba5784ce2d"}},{"fullUrl":"Patient/1a19c21b-41f3-4376-9516-529ad9fb466f","resource":{"resourceType":"Patient","id":"1a19c21b-41f3-4376-9516-529ad9fb466f","meta":{"profile":["http://hl7.org/fhir/us/qicore/StructureDefinition/qicore-patient"]},"text":{"status":"generated","div":"<div xmlns=\"http://www.w3.org/1999/xhtml\"><div class=\"hapiHeaderText\">MedDCAnticoaStartTmEQEncDischTm <b>NUMERPASS </b></div><table class=\"hapiPropertyTable\"><tbody><tr><td>Identifier</td><td>9128716b0b21eec571089f9d5d345182</td></tr><tr><td>Date of birth</td><td><span>23 May 1954</span></td></tr></tbody></table></div>"},"extension":[{"url":"http://hl7.org/fhir/us/core/StructureDefinition/us-core-race","extension":[{"url":"ombCategory","valueCoding":{"system":"urn:oid:2.16.840.1.113883.6.238","code":"1002-5","display":"American Indian or Alaska Native","userSelected":true}},{"url":"text","valueString":"American Indian or Alaska Native"}]},{"url":"http://hl7.org/fhir/us/core/StructureDefinition/us-core-ethnicity","extension":[{"url":"ombCategory","valueCoding":{"system":"urn:oid:2.16.840.1.113883.6.238","code":"2135-2","display":"Hispanic or Latino","userSelected":true}},{"url":"text","valueString":"Hispanic or Latino"}]}],"identifier":[{"type":{"coding":[{"system":"http://terminology.hl7.org/CodeSystem/v2-0203","code":"MR"}]},"system":"https://bonnie-fhir.healthit.gov/","value":"633c9d030968f8012250fc9d"}],"active":true,"name":[{"use":"usual","family":"NUMERPass","given":["MedDCAnticoaStartTmEQEncDischTm"]}],"gender":"female","birthDate":"1955-05-23"},"request":{"method":"PUT","url":"Patient/1a19c21b-41f3-4376-9516-529ad9fb466f"}},{"fullUrl":"Claim/5ca62962b8484628b8de1ec5","resource":{"resourceType":"Claim","id":"5ca62962b8484628b8de1ec5","meta":{"profile":["http://hl7.org/fhir/us/qicore/StructureDefinition/qicore-claim"]},"status":"active","type":{"coding":[{"system":"http://terminology.hl7.org/CodeSystem/claim-type","code":"institutional"}]},"use":"claim","patient":{"reference":"Patient/d170a0a8-b5ad-4303-b6df-e304dd5f92ad"},"created":"2026-12-01","provider":{"reference":"Practitioner/ef121680-99ea-477b-b32c-d9955410bdbf"},"priority":{"coding":[{"system":"http://terminology.hl7.org/CodeSystem/processpriority","code":"normal"}]},"diagnosis":[{"sequence":1,"diagnosisCodeableConcept":{"coding":[{"system":"http://hl7.org/fhir/sid/icd-10-cm","code":"I63.00"}]},"type":[{"coding":[{"system":"http://terminology.hl7.org/CodeSystem/ex-diagnosistype","code":"principal"}]}]}],"insurance":[{"sequence":1,"focal":true,"coverage":{"reference":"Coverage/5fa041661c76ba66d9959367"}}],"item":[{"sequence":1,"diagnosisSequence":[1],"productOrService":{"coding":[{"system":"http://terminology.hl7.org/CodeSystem/ex-USCLS","code":"99555"}]},"encounter":[{"reference":"Encounter/5ca4cde2b8484613a5552a68"}]}]},"request":{"method":"PUT","url":"Claim/5ca62962b8484628b8de1ec5"}}]}