{"resourceType":"Bundle","id":"tests-e75d7e1c-df18-487e-a8f0-0b140e120581-bundle","type":"transaction","entry":[{"fullUrl":"Bundle/633c9d030968f8012250fc6d","resource":{"resourceType":"Bundle","id":"633c9d030968f8012250fc6d","type":"transaction","entry":[{"fullUrl":"https://madie.cms.gov/Patient/e75d7e1c-df18-487e-a8f0-0b140e120581","resource":{"resourceType":"Patient","id":"e75d7e1c-df18-487e-a8f0-0b140e120581","meta":{"profile":["http://hl7.org/fhir/us/qicore/StructureDefinition/qicore-patient"]},"text":{"status":"generated","div":"<div xmlns=\"http://www.w3.org/1999/xhtml\"><div class=\"hapiHeaderText\">EncPrinDx=IschStk_EncDx=Afib/flutter <b>DENOMPASS </b></div><table class=\"hapiPropertyTable\"><tbody><tr><td>Identifier</td><td>bfd807e1d1993084d1164432ce591a06</td></tr><tr><td>Date of birth</td><td><span>01 December 1960</span></td></tr></tbody></table></div>"},"extension":[{"url":"http://hl7.org/fhir/us/core/StructureDefinition/us-core-race","extension":[{"url":"ombCategory","valueCoding":{"system":"urn:oid:2.16.840.1.113883.6.238","code":"1002-5","display":"American Indian or Alaska Native","userSelected":true}},{"url":"text","valueString":"American Indian or Alaska Native"}]},{"url":"http://hl7.org/fhir/us/core/StructureDefinition/us-core-ethnicity","extension":[{"url":"ombCategory","valueCoding":{"system":"urn:oid:2.16.840.1.113883.6.238","code":"2135-2","display":"Hispanic or Latino","userSelected":true}},{"url":"text","valueString":"Hispanic or Latino"}]}],"identifier":[{"type":{"coding":[{"system":"http://terminology.hl7.org/CodeSystem/v2-0203","code":"MR"}]},"system":"https://bonnie-fhir.healthit.gov/","value":"633c9d030968f8012250fc6d"}],"active":true,"name":[{"use":"usual","family":"DENOMPass","given":["EncPrinDx=IschStk_EncDx=Afib/flutter"]}],"gender":"male","birthDate":"1961-12-01"},"request":{"method":"PUT","url":"Patient/e75d7e1c-df18-487e-a8f0-0b140e120581"}},{"fullUrl":"https://madie.cms.gov/Encounter/3c4542fd-d773-49b4-bb93-ec7e117e3ad2","resource":{"resourceType":"Encounter","id":"3c4542fd-d773-49b4-bb93-ec7e117e3ad2","meta":{"profile":["http://hl7.org/fhir/us/qicore/StructureDefinition/qicore-encounter"]},"status":"finished","class":{"system":"http://terminology.hl7.org/CodeSystem/v3-ActCode","code":"IMP","display":"inpatient encounter"},"type":[{"coding":[{"system":"http://snomed.info/sct","code":"183452005"}]}],"subject":{"reference":"Patient/e75d7e1c-df18-487e-a8f0-0b140e120581"},"period":{"start":"2026-02-08T08:00:00Z","end":"2026-02-10T08:15:00.000+00:00"},"length":{"value":2,"unit":"days"},"reasonReference":[{"reference":"Condition/02442694-84e3-4b62-a00f-e15ba5814fc8"}]},"request":{"method":"PUT","url":"Encounter/3c4542fd-d773-49b4-bb93-ec7e117e3ad2"}},{"fullUrl":"https://madie.cms.gov/claim/5ca62962b8484628b8de1ec5","resource":{"resourceType":"Claim","id":"5ca62962b8484628b8de1ec5","meta":{"profile":["http://hl7.org/fhir/us/qicore/StructureDefinition/qicore-claim"]},"status":"active","type":{"coding":[{"system":"http://terminology.hl7.org/CodeSystem/claim-type","code":"institutional"}]},"use":"claim","patient":{"reference":"Patient/d170a0a8-b5ad-4303-b6df-e304dd5f92ad"},"created":"2026-12-01","provider":{"reference":"Practitioner/e9c054dd-a142-493e-8e09-42855a37b8bf"},"priority":{"coding":[{"system":"http://terminology.hl7.org/CodeSystem/processpriority","code":"normal"}]},"diagnosis":[{"sequence":1,"diagnosisCodeableConcept":{"coding":[{"system":"http://hl7.org/fhir/sid/icd-10-cm","code":"I63.00"}]},"type":[{"coding":[{"system":"http://terminology.hl7.org/CodeSystem/ex-diagnosistype","code":"principal"}]}]}],"insurance":[{"sequence":1,"focal":true,"coverage":{"reference":"Coverage/5fa041661c76ba66d9959367"}}],"item":[{"sequence":1,"diagnosisSequence":[1],"productOrService":{"coding":[{"system":"http://terminology.hl7.org/CodeSystem/ex-USCLS","code":"99555"}]},"encounter":[{"reference":"Encounter/3c4542fd-d773-49b4-bb93-ec7e117e3ad2"}]}]},"request":{"method":"PUT","url":"Claim/5ca62962b8484628b8de1ec5"}},{"fullUrl":"https://madie.cms.gov/Coverage/05f0673a-f8cb-41a5-8320-767baa8b3d8b","resource":{"resourceType":"Coverage","id":"05f0673a-f8cb-41a5-8320-767baa8b3d8b","meta":{"profile":["http://hl7.org/fhir/us/qicore/StructureDefinition/qicore-coverage"]},"status":"active","subscriberId":"523435","beneficiary":{"reference":"Patient/162a5913-9989-42f2-8d6a-ae460e245e4c"},"relationship":{"coding":[{"system":"http://terminology.hl7.org/CodeSystem/subscriber-relationship","code":"self"}]},"payor":[{"reference":"Organization/73b30212-85cc-43d6-aee1-fb940d4cc64f"}]},"request":{"method":"PUT","url":"Coverage/05f0673a-f8cb-41a5-8320-767baa8b3d8b"}},{"fullUrl":"https://madie.cms.gov/Condition/90d6bc48-f27d-4c70-a397-f7a30bd1c28c","resource":{"resourceType":"Condition","id":"90d6bc48-f27d-4c70-a397-f7a30bd1c28c","meta":{"profile":["http://hl7.org/fhir/us/qicore/StructureDefinition/qicore-condition-problems-health-concerns"]},"clinicalStatus":{"coding":[{"system":"http://terminology.hl7.org/CodeSystem/condition-clinical","code":"active"}]},"verificationStatus":{"coding":[{"system":"http://terminology.hl7.org/CodeSystem/condition-ver-status","code":"confirmed"}]},"category":[{"coding":[{"system":"http://terminology.hl7.org/CodeSystem/condition-category","code":"encounter-diagnosis","display":"Encounter Diagnosis"}]}],"code":{"coding":[{"system":"http://snomed.info/sct","version":"2021-09","code":"111297002","display":"Nonparalytic stroke (disorder)","userSelected":true}]},"subject":{"reference":"Patient/e75d7e1c-df18-487e-a8f0-0b140e120581"},"recordedDate":"2026-10-13T08:00:00Z"},"request":{"method":"PUT","url":"Condition/90d6bc48-f27d-4c70-a397-f7a30bd1c28c"}},{"fullUrl":"https://madie.cms.gov/Condition/02442694-84e3-4b62-a00f-e15ba5814fc8","resource":{"resourceType":"Condition","id":"02442694-84e3-4b62-a00f-e15ba5814fc8","meta":{"profile":["http://hl7.org/fhir/us/qicore/StructureDefinition/qicore-condition-problems-health-concerns"]},"clinicalStatus":{"coding":[{"system":"http://terminology.hl7.org/CodeSystem/condition-clinical","code":"active"}]},"verificationStatus":{"coding":[{"system":"http://terminology.hl7.org/CodeSystem/condition-ver-status","code":"confirmed"}]},"category":[{"coding":[{"system":"http://terminology.hl7.org/CodeSystem/condition-category","code":"encounter-diagnosis","display":"Encounter Diagnosis"}]}],"code":{"coding":[{"system":"http://snomed.info/sct","version":"2021-09","code":"120041000119109","display":"Atrial fibrillation with rapid ventricular response (disorder)","userSelected":true}]},"subject":{"reference":"Patient/e75d7e1c-df18-487e-a8f0-0b140e120581"},"recordedDate":"2026-10-13T08:00:00Z"},"request":{"method":"PUT","url":"Condition/02442694-84e3-4b62-a00f-e15ba5814fc8"}},{"fullUrl":"https://madie.cms.gov/Organization/73b30212-85cc-43d6-aee1-fb940d4cc64f","resource":{"resourceType":"Organization","id":"73b30212-85cc-43d6-aee1-fb940d4cc64f","meta":{"profile":["http://hl7.org/fhir/us/qicore/StructureDefinition/qicore-organization"]},"identifier":[{"use":"temp","system":"urn:oid:2.16.840.1.113883.4.4","value":"21-3259825"}],"active":true,"type":[{"coding":[{"system":"http://terminology.hl7.org/CodeSystem/organization-type","code":"pay","display":"Payer"}]}],"name":"Blue Cross Blue Shield of Texas","telecom":[{"system":"phone","value":"(+1) 972-766-6900"}],"address":[{"use":"billing","type":"postal","line":["P.O. Box 660044"],"city":"Dallas","state":"TX","postalCode":"75266-0044","country":"USA"}]},"request":{"method":"PUT","url":"Organization/73b30212-85cc-43d6-aee1-fb940d4cc64f"}},{"fullUrl":"https://madie.cms.gov/Practitioner/e9c054dd-a142-493e-8e09-42855a37b8bf","resource":{"resourceType":"Practitioner","id":"e9c054dd-a142-493e-8e09-42855a37b8bf","meta":{"profile":["http://hl7.org/fhir/us/qicore/StructureDefinition/qicore-practitioner"]},"identifier":[{"system":"http://hl7.org/fhir/sid/us-npi","value":"9999999896"}],"name":[{"family":"Evil","prefix":["Dr"]}]},"request":{"method":"PUT","url":"Practitioner/e9c054dd-a142-493e-8e09-42855a37b8bf"}},{"fullUrl":"https://madie.cms.gov/MeasureReport/5d9b72ae-67c4-4d8f-9325-8b81f8060863","resource":{"resourceType":"MeasureReport","id":"5d9b72ae-67c4-4d8f-9325-8b81f8060863","meta":{"profile":["http://hl7.org/fhir/us/cqfmeasures/StructureDefinition/test-case-cqfm"]},"contained":[{"resourceType":"Parameters","id":"1361c34c-e707-4d05-8728-d2f6fd73cf32-parameters","parameter":[{"name":"subject","valueString":"e75d7e1c-df18-487e-a8f0-0b140e120581"}]}],"extension":[{"url":"http://hl7.org/fhir/StructureDefinition/cqf-inputParameters","valueReference":{"reference":"#1361c34c-e707-4d05-8728-d2f6fd73cf32-parameters"}},{"url":"http://hl7.org/fhir/us/cqfmeasures/StructureDefinition/cqfm-testCaseDescription","valueMarkdown":"\"Diagnosis Attribute= Afib during encounter\nThis case tests the denominator diagnosis criteria (meets criteria). \"\n"}],"modifierExtension":[{"url":"http://hl7.org/fhir/us/cqfmeasures/StructureDefinition/cqfm-isTestCase","valueBoolean":true}],"status":"complete","type":"individual","measure":"https://madie.cms.gov/Measure/CMS71FHIRSTKAnticoagAFFlutter","period":{"start":"2026-01-01","end":"2026-12-31"},"group":[{"id":"Group_1","population":[{"id":"InitialPopulation_1","code":{"coding":[{"system":"http://terminology.hl7.org/CodeSystem/measure-population","code":"initial-population","display":"Initial Population"}]},"count":1},{"id":"Denominator_1","code":{"coding":[{"system":"http://terminology.hl7.org/CodeSystem/measure-population","code":"denominator","display":"Denominator"}]},"count":1},{"id":"DenominatorExclusion_1","code":{"coding":[{"system":"http://terminology.hl7.org/CodeSystem/measure-population","code":"denominator-exclusion","display":"Denominator Exclusion"}]},"count":0},{"id":"Numerator_1","code":{"coding":[{"system":"http://terminology.hl7.org/CodeSystem/measure-population","code":"numerator","display":"Numerator"}]},"count":0},{"id":"DenominatorException_1","code":{"coding":[{"system":"http://terminology.hl7.org/CodeSystem/measure-population","code":"denominator-exception","display":"Denominator Exception"}]},"count":0}],"measureScore":{"value":0.0}}],"evaluatedResource":[{"reference":"Patient/e75d7e1c-df18-487e-a8f0-0b140e120581"},{"reference":"Encounter/3c4542fd-d773-49b4-bb93-ec7e117e3ad2"},{"reference":"Claim/5ca62962b8484628b8de1ec5"},{"reference":"Coverage/05f0673a-f8cb-41a5-8320-767baa8b3d8b"},{"reference":"Condition/90d6bc48-f27d-4c70-a397-f7a30bd1c28c"},{"reference":"Condition/02442694-84e3-4b62-a00f-e15ba5814fc8"},{"reference":"Organization/73b30212-85cc-43d6-aee1-fb940d4cc64f"},{"reference":"Practitioner/e9c054dd-a142-493e-8e09-42855a37b8bf"}]},"request":{"method":"PUT","url":"MeasureReport/5d9b72ae-67c4-4d8f-9325-8b81f8060863"}}]},"request":{"method":"PUT","url":"Bundle/633c9d030968f8012250fc6d"}},{"fullUrl":"Condition/02442694-84e3-4b62-a00f-e15ba5814fc8","resource":{"resourceType":"Condition","id":"02442694-84e3-4b62-a00f-e15ba5814fc8","meta":{"profile":["http://hl7.org/fhir/us/qicore/StructureDefinition/qicore-condition-problems-health-concerns"]},"clinicalStatus":{"coding":[{"system":"http://terminology.hl7.org/CodeSystem/condition-clinical","code":"active"}]},"verificationStatus":{"coding":[{"system":"http://terminology.hl7.org/CodeSystem/condition-ver-status","code":"confirmed"}]},"category":[{"coding":[{"system":"http://terminology.hl7.org/CodeSystem/condition-category","code":"encounter-diagnosis","display":"Encounter Diagnosis"}]}],"code":{"coding":[{"system":"http://snomed.info/sct","version":"2021-09","code":"120041000119109","display":"Atrial fibrillation with rapid ventricular response (disorder)","userSelected":true}]},"subject":{"reference":"Patient/e75d7e1c-df18-487e-a8f0-0b140e120581"},"recordedDate":"2026-10-13T08:00:00Z"},"request":{"method":"PUT","url":"Condition/02442694-84e3-4b62-a00f-e15ba5814fc8"}},{"fullUrl":"Coverage/05f0673a-f8cb-41a5-8320-767baa8b3d8b","resource":{"resourceType":"Coverage","id":"05f0673a-f8cb-41a5-8320-767baa8b3d8b","meta":{"profile":["http://hl7.org/fhir/us/qicore/StructureDefinition/qicore-coverage"]},"status":"active","subscriberId":"523435","beneficiary":{"reference":"Patient/162a5913-9989-42f2-8d6a-ae460e245e4c"},"relationship":{"coding":[{"system":"http://terminology.hl7.org/CodeSystem/subscriber-relationship","code":"self"}]},"payor":[{"reference":"Organization/73b30212-85cc-43d6-aee1-fb940d4cc64f"}]},"request":{"method":"PUT","url":"Coverage/05f0673a-f8cb-41a5-8320-767baa8b3d8b"}},{"fullUrl":"MeasureReport/5d9b72ae-67c4-4d8f-9325-8b81f8060863","resource":{"resourceType":"MeasureReport","id":"5d9b72ae-67c4-4d8f-9325-8b81f8060863","meta":{"profile":["http://hl7.org/fhir/us/cqfmeasures/StructureDefinition/test-case-cqfm"]},"contained":[{"resourceType":"Parameters","id":"1361c34c-e707-4d05-8728-d2f6fd73cf32-parameters","parameter":[{"name":"subject","valueString":"e75d7e1c-df18-487e-a8f0-0b140e120581"}]}],"extension":[{"url":"http://hl7.org/fhir/StructureDefinition/cqf-inputParameters","valueReference":{"reference":"#1361c34c-e707-4d05-8728-d2f6fd73cf32-parameters"}},{"url":"http://hl7.org/fhir/us/cqfmeasures/StructureDefinition/cqfm-testCaseDescription","valueMarkdown":"\"Diagnosis Attribute= Afib during encounter\nThis case tests the denominator diagnosis criteria (meets criteria). \"\n"}],"modifierExtension":[{"url":"http://hl7.org/fhir/us/cqfmeasures/StructureDefinition/cqfm-isTestCase","valueBoolean":true}],"status":"complete","type":"individual","measure":"https://madie.cms.gov/Measure/CMS71FHIRSTKAnticoagAFFlutter","period":{"start":"2026-01-01","end":"2026-12-31"},"group":[{"id":"Group_1","population":[{"id":"InitialPopulation_1","code":{"coding":[{"system":"http://terminology.hl7.org/CodeSystem/measure-population","code":"initial-population","display":"Initial Population"}]},"count":1},{"id":"Denominator_1","code":{"coding":[{"system":"http://terminology.hl7.org/CodeSystem/measure-population","code":"denominator","display":"Denominator"}]},"count":1},{"id":"DenominatorExclusion_1","code":{"coding":[{"system":"http://terminology.hl7.org/CodeSystem/measure-population","code":"denominator-exclusion","display":"Denominator Exclusion"}]},"count":0},{"id":"Numerator_1","code":{"coding":[{"system":"http://terminology.hl7.org/CodeSystem/measure-population","code":"numerator","display":"Numerator"}]},"count":0},{"id":"DenominatorException_1","code":{"coding":[{"system":"http://terminology.hl7.org/CodeSystem/measure-population","code":"denominator-exception","display":"Denominator Exception"}]},"count":0}],"measureScore":{"value":0.0}}],"evaluatedResource":[{"reference":"Patient/e75d7e1c-df18-487e-a8f0-0b140e120581"},{"reference":"Encounter/3c4542fd-d773-49b4-bb93-ec7e117e3ad2"},{"reference":"Claim/5ca62962b8484628b8de1ec5"},{"reference":"Coverage/05f0673a-f8cb-41a5-8320-767baa8b3d8b"},{"reference":"Condition/90d6bc48-f27d-4c70-a397-f7a30bd1c28c"},{"reference":"Condition/02442694-84e3-4b62-a00f-e15ba5814fc8"},{"reference":"Organization/73b30212-85cc-43d6-aee1-fb940d4cc64f"},{"reference":"Practitioner/e9c054dd-a142-493e-8e09-42855a37b8bf"}]},"request":{"method":"PUT","url":"MeasureReport/5d9b72ae-67c4-4d8f-9325-8b81f8060863"}},{"fullUrl":"Practitioner/e9c054dd-a142-493e-8e09-42855a37b8bf","resource":{"resourceType":"Practitioner","id":"e9c054dd-a142-493e-8e09-42855a37b8bf","meta":{"profile":["http://hl7.org/fhir/us/qicore/StructureDefinition/qicore-practitioner"]},"identifier":[{"system":"http://hl7.org/fhir/sid/us-npi","value":"9999999896"}],"name":[{"family":"Evil","prefix":["Dr"]}]},"request":{"method":"PUT","url":"Practitioner/e9c054dd-a142-493e-8e09-42855a37b8bf"}},{"fullUrl":"Patient/e75d7e1c-df18-487e-a8f0-0b140e120581","resource":{"resourceType":"Patient","id":"e75d7e1c-df18-487e-a8f0-0b140e120581","meta":{"profile":["http://hl7.org/fhir/us/qicore/StructureDefinition/qicore-patient"]},"text":{"status":"generated","div":"<div xmlns=\"http://www.w3.org/1999/xhtml\"><div class=\"hapiHeaderText\">EncPrinDx=IschStk_EncDx=Afib/flutter <b>DENOMPASS </b></div><table class=\"hapiPropertyTable\"><tbody><tr><td>Identifier</td><td>bfd807e1d1993084d1164432ce591a06</td></tr><tr><td>Date of birth</td><td><span>01 December 1960</span></td></tr></tbody></table></div>"},"extension":[{"url":"http://hl7.org/fhir/us/core/StructureDefinition/us-core-race","extension":[{"url":"ombCategory","valueCoding":{"system":"urn:oid:2.16.840.1.113883.6.238","code":"1002-5","display":"American Indian or Alaska Native","userSelected":true}},{"url":"text","valueString":"American Indian or Alaska Native"}]},{"url":"http://hl7.org/fhir/us/core/StructureDefinition/us-core-ethnicity","extension":[{"url":"ombCategory","valueCoding":{"system":"urn:oid:2.16.840.1.113883.6.238","code":"2135-2","display":"Hispanic or Latino","userSelected":true}},{"url":"text","valueString":"Hispanic or Latino"}]}],"identifier":[{"type":{"coding":[{"system":"http://terminology.hl7.org/CodeSystem/v2-0203","code":"MR"}]},"system":"https://bonnie-fhir.healthit.gov/","value":"633c9d030968f8012250fc6d"}],"active":true,"name":[{"use":"usual","family":"DENOMPass","given":["EncPrinDx=IschStk_EncDx=Afib/flutter"]}],"gender":"male","birthDate":"1961-12-01"},"request":{"method":"PUT","url":"Patient/e75d7e1c-df18-487e-a8f0-0b140e120581"}},{"fullUrl":"Organization/73b30212-85cc-43d6-aee1-fb940d4cc64f","resource":{"resourceType":"Organization","id":"73b30212-85cc-43d6-aee1-fb940d4cc64f","meta":{"profile":["http://hl7.org/fhir/us/qicore/StructureDefinition/qicore-organization"]},"identifier":[{"use":"temp","system":"urn:oid:2.16.840.1.113883.4.4","value":"21-3259825"}],"active":true,"type":[{"coding":[{"system":"http://terminology.hl7.org/CodeSystem/organization-type","code":"pay","display":"Payer"}]}],"name":"Blue Cross Blue Shield of Texas","telecom":[{"system":"phone","value":"(+1) 972-766-6900"}],"address":[{"use":"billing","type":"postal","line":["P.O. Box 660044"],"city":"Dallas","state":"TX","postalCode":"75266-0044","country":"USA"}]},"request":{"method":"PUT","url":"Organization/73b30212-85cc-43d6-aee1-fb940d4cc64f"}},{"fullUrl":"Condition/90d6bc48-f27d-4c70-a397-f7a30bd1c28c","resource":{"resourceType":"Condition","id":"90d6bc48-f27d-4c70-a397-f7a30bd1c28c","meta":{"profile":["http://hl7.org/fhir/us/qicore/StructureDefinition/qicore-condition-problems-health-concerns"]},"clinicalStatus":{"coding":[{"system":"http://terminology.hl7.org/CodeSystem/condition-clinical","code":"active"}]},"verificationStatus":{"coding":[{"system":"http://terminology.hl7.org/CodeSystem/condition-ver-status","code":"confirmed"}]},"category":[{"coding":[{"system":"http://terminology.hl7.org/CodeSystem/condition-category","code":"encounter-diagnosis","display":"Encounter Diagnosis"}]}],"code":{"coding":[{"system":"http://snomed.info/sct","version":"2021-09","code":"111297002","display":"Nonparalytic stroke (disorder)","userSelected":true}]},"subject":{"reference":"Patient/e75d7e1c-df18-487e-a8f0-0b140e120581"},"recordedDate":"2026-10-13T08:00:00Z"},"request":{"method":"PUT","url":"Condition/90d6bc48-f27d-4c70-a397-f7a30bd1c28c"}},{"fullUrl":"Encounter/3c4542fd-d773-49b4-bb93-ec7e117e3ad2","resource":{"resourceType":"Encounter","id":"3c4542fd-d773-49b4-bb93-ec7e117e3ad2","meta":{"profile":["http://hl7.org/fhir/us/qicore/StructureDefinition/qicore-encounter"]},"status":"finished","class":{"system":"http://terminology.hl7.org/CodeSystem/v3-ActCode","code":"IMP","display":"inpatient encounter"},"type":[{"coding":[{"system":"http://snomed.info/sct","code":"183452005"}]}],"subject":{"reference":"Patient/e75d7e1c-df18-487e-a8f0-0b140e120581"},"period":{"start":"2026-02-08T08:00:00Z","end":"2026-02-10T08:15:00.000+00:00"},"length":{"value":2,"unit":"days"},"reasonReference":[{"reference":"Condition/02442694-84e3-4b62-a00f-e15ba5814fc8"}]},"request":{"method":"PUT","url":"Encounter/3c4542fd-d773-49b4-bb93-ec7e117e3ad2"}},{"fullUrl":"Claim/5ca62962b8484628b8de1ec5","resource":{"resourceType":"Claim","id":"5ca62962b8484628b8de1ec5","meta":{"profile":["http://hl7.org/fhir/us/qicore/StructureDefinition/qicore-claim"]},"status":"active","type":{"coding":[{"system":"http://terminology.hl7.org/CodeSystem/claim-type","code":"institutional"}]},"use":"claim","patient":{"reference":"Patient/d170a0a8-b5ad-4303-b6df-e304dd5f92ad"},"created":"2026-12-01","provider":{"reference":"Practitioner/e9c054dd-a142-493e-8e09-42855a37b8bf"},"priority":{"coding":[{"system":"http://terminology.hl7.org/CodeSystem/processpriority","code":"normal"}]},"diagnosis":[{"sequence":1,"diagnosisCodeableConcept":{"coding":[{"system":"http://hl7.org/fhir/sid/icd-10-cm","code":"I63.00"}]},"type":[{"coding":[{"system":"http://terminology.hl7.org/CodeSystem/ex-diagnosistype","code":"principal"}]}]}],"insurance":[{"sequence":1,"focal":true,"coverage":{"reference":"Coverage/5fa041661c76ba66d9959367"}}],"item":[{"sequence":1,"diagnosisSequence":[1],"productOrService":{"coding":[{"system":"http://terminology.hl7.org/CodeSystem/ex-USCLS","code":"99555"}]},"encounter":[{"reference":"Encounter/3c4542fd-d773-49b4-bb93-ec7e117e3ad2"}]}]},"request":{"method":"PUT","url":"Claim/5ca62962b8484628b8de1ec5"}}]}