{"resourceType":"Bundle","id":"tests-a998e27f-e0a9-475d-80e8-0e9344591294-bundle","type":"transaction","entry":[{"resource":{"resourceType":"Coverage","id":"05b01c52-20ac-4e11-a56e-c7aaa602e1d6","meta":{"profile":["http://hl7.org/fhir/us/qicore/StructureDefinition/qicore-coverage"]},"status":"active","subscriberId":"523435","beneficiary":{"reference":"Patient/162a5913-9989-42f2-8d6a-ae460e245e4c"},"relationship":{"coding":[{"system":"http://terminology.hl7.org/CodeSystem/subscriber-relationship","code":"self"}]},"payor":[{"reference":"Organization/15af7e0f-a01c-4480-90cf-408f1f2c7b76"}]},"request":{"method":"PUT","url":"Coverage/05b01c52-20ac-4e11-a56e-c7aaa602e1d6"}},{"resource":{"resourceType":"ServiceRequest","id":"5ce48e4c-6263-4f75-be2b-b0fba6385a72","meta":{"profile":["http://hl7.org/fhir/us/qicore/StructureDefinition/qicore-servicerequest"]},"status":"active","intent":"order","doNotPerform":false,"code":{"coding":[{"system":"http://snomed.info/sct","code":"133918004"}]},"subject":{"reference":"Patient/a998e27f-e0a9-475d-80e8-0e9344591294"},"authoredOn":"2026-10-01T09:15:00Z"},"request":{"method":"PUT","url":"ServiceRequest/5ce48e4c-6263-4f75-be2b-b0fba6385a72"}},{"resource":{"resourceType":"Encounter","id":"2235d718-1044-4b0e-8f02-72203c8b7bce","meta":{"profile":["http://hl7.org/fhir/us/qicore/StructureDefinition/qicore-encounter"]},"status":"finished","class":{"system":"http://terminology.hl7.org/CodeSystem/v3-ActCode","code":"IMP","display":"inpatient encounter"},"type":[{"coding":[{"system":"http://snomed.info/sct","code":"32485007"}]}],"subject":{"reference":"Patient/a998e27f-e0a9-475d-80e8-0e9344591294"},"period":{"start":"2026-10-01T13:15:00Z","end":"2026-10-12T00:15:00.000+00:00"},"length":{"value":11,"unit":"days"},"reasonReference":[{"reference":"Condition/9b8fcdf4-7ee6-46b4-ac0a-a15397815456"}]},"request":{"method":"PUT","url":"Encounter/2235d718-1044-4b0e-8f02-72203c8b7bce"}},{"resource":{"resourceType":"Patient","id":"a998e27f-e0a9-475d-80e8-0e9344591294","meta":{"profile":["http://hl7.org/fhir/us/qicore/StructureDefinition/qicore-patient"]},"text":{"status":"generated","div":"<div xmlns=\"http://www.w3.org/1999/xhtml\"><div class=\"hapiHeaderText\">CMOdurED_ED=1hrNoObsBFEnc <b>DENEXPASS </b></div><table class=\"hapiPropertyTable\"><tbody><tr><td>Identifier</td><td>670854918483ca8b7894283bd5cddbcf5037c5392991b8777bf3c4f78ed05f0b</td></tr><tr><td>Date of birth</td><td><span>18 September 1985</span></td></tr></tbody></table></div>"},"extension":[{"url":"http://hl7.org/fhir/us/core/StructureDefinition/us-core-race","extension":[{"url":"ombCategory","valueCoding":{"system":"urn:oid:2.16.840.1.113883.6.238","code":"1002-5","display":"American Indian or Alaska Native","userSelected":true}},{"url":"text","valueString":"American Indian or Alaska Native"}]},{"url":"http://hl7.org/fhir/us/core/StructureDefinition/us-core-ethnicity","extension":[{"url":"ombCategory","valueCoding":{"system":"urn:oid:2.16.840.1.113883.6.238","code":"2135-2","display":"Hispanic or Latino","userSelected":true}},{"url":"text","valueString":"Hispanic or Latino"}]}],"identifier":[{"type":{"coding":[{"system":"http://terminology.hl7.org/CodeSystem/v2-0203","code":"MR"}]},"system":"https://bonnie-fhir.healthit.gov/","value":"633c9d040968f8012250fca3"}],"active":true,"name":[{"use":"usual","family":"DENEXPASS","given":["CMOdurEDEDEQ1hrNoObsBFEncdoNotPerform"]}],"gender":"female","birthDate":"1986-09-18"},"request":{"method":"PUT","url":"Patient/a998e27f-e0a9-475d-80e8-0e9344591294"}},{"resource":{"resourceType":"Organization","id":"15af7e0f-a01c-4480-90cf-408f1f2c7b76","meta":{"profile":["http://hl7.org/fhir/us/qicore/StructureDefinition/qicore-organization"]},"identifier":[{"use":"temp","system":"urn:oid:2.16.840.1.113883.4.4","value":"21-3259825"}],"active":true,"type":[{"coding":[{"system":"http://terminology.hl7.org/CodeSystem/organization-type","code":"pay","display":"Payer"}]}],"name":"Blue Cross Blue Shield of Texas","telecom":[{"system":"phone","value":"(+1) 972-766-6900"}],"address":[{"use":"billing","type":"postal","line":["P.O. Box 660044"],"city":"Dallas","state":"TX","postalCode":"75266-0044","country":"USA"}]},"request":{"method":"PUT","url":"Organization/15af7e0f-a01c-4480-90cf-408f1f2c7b76"}},{"resource":{"resourceType":"Condition","id":"9b8fcdf4-7ee6-46b4-ac0a-a15397815456","meta":{"profile":["http://hl7.org/fhir/us/qicore/StructureDefinition/qicore-condition-problems-health-concerns"]},"clinicalStatus":{"coding":[{"system":"http://terminology.hl7.org/CodeSystem/condition-clinical","code":"inactive"}]},"verificationStatus":{"coding":[{"system":"http://terminology.hl7.org/CodeSystem/condition-ver-status","code":"confirmed"}]},"category":[{"coding":[{"system":"http://terminology.hl7.org/CodeSystem/condition-category","code":"encounter-diagnosis","display":"Encounter Diagnosis"}]}],"code":{"coding":[{"system":"http://hl7.org/fhir/sid/icd-10-cm","code":"I48.20"},{"system":"http://hl7.org/fhir/sid/icd-10-cm","code":"I48.0"},{"system":"http://snomed.info/sct","code":"5370000"}]},"subject":{"reference":"Patient/a998e27f-e0a9-475d-80e8-0e9344591294"},"onsetDateTime":"2026-10-01T09:01:00Z","abatementDateTime":"2026-10-12T00:15:00.000+00:00"},"request":{"method":"PUT","url":"Condition/9b8fcdf4-7ee6-46b4-ac0a-a15397815456"}},{"resource":{"resourceType":"Bundle","id":"633c9d040968f8012250fca3","type":"transaction","entry":[{"fullUrl":"https://madie.cms.gov/Patient/a998e27f-e0a9-475d-80e8-0e9344591294","resource":{"resourceType":"Patient","id":"a998e27f-e0a9-475d-80e8-0e9344591294","meta":{"profile":["http://hl7.org/fhir/us/qicore/StructureDefinition/qicore-patient"]},"text":{"status":"generated","div":"<div xmlns=\"http://www.w3.org/1999/xhtml\"><div class=\"hapiHeaderText\">CMOdurED_ED=1hrNoObsBFEnc <b>DENEXPASS </b></div><table class=\"hapiPropertyTable\"><tbody><tr><td>Identifier</td><td>670854918483ca8b7894283bd5cddbcf5037c5392991b8777bf3c4f78ed05f0b</td></tr><tr><td>Date of birth</td><td><span>18 September 1985</span></td></tr></tbody></table></div>"},"extension":[{"url":"http://hl7.org/fhir/us/core/StructureDefinition/us-core-race","extension":[{"url":"ombCategory","valueCoding":{"system":"urn:oid:2.16.840.1.113883.6.238","code":"1002-5","display":"American Indian or Alaska Native","userSelected":true}},{"url":"text","valueString":"American Indian or Alaska Native"}]},{"url":"http://hl7.org/fhir/us/core/StructureDefinition/us-core-ethnicity","extension":[{"url":"ombCategory","valueCoding":{"system":"urn:oid:2.16.840.1.113883.6.238","code":"2135-2","display":"Hispanic or Latino","userSelected":true}},{"url":"text","valueString":"Hispanic or Latino"}]}],"identifier":[{"type":{"coding":[{"system":"http://terminology.hl7.org/CodeSystem/v2-0203","code":"MR"}]},"system":"https://bonnie-fhir.healthit.gov/","value":"633c9d040968f8012250fca3"}],"active":true,"name":[{"use":"usual","family":"DENEXPASS","given":["CMOdurEDEDEQ1hrNoObsBFEncdoNotPerform"]}],"gender":"female","birthDate":"1986-09-18"},"request":{"method":"PUT","url":"Patient/a998e27f-e0a9-475d-80e8-0e9344591294"}},{"fullUrl":"https://madie.cms.gov/Condition/9b8fcdf4-7ee6-46b4-ac0a-a15397815456","resource":{"resourceType":"Condition","id":"9b8fcdf4-7ee6-46b4-ac0a-a15397815456","meta":{"profile":["http://hl7.org/fhir/us/qicore/StructureDefinition/qicore-condition-problems-health-concerns"]},"clinicalStatus":{"coding":[{"system":"http://terminology.hl7.org/CodeSystem/condition-clinical","code":"inactive"}]},"verificationStatus":{"coding":[{"system":"http://terminology.hl7.org/CodeSystem/condition-ver-status","code":"confirmed"}]},"category":[{"coding":[{"system":"http://terminology.hl7.org/CodeSystem/condition-category","code":"encounter-diagnosis","display":"Encounter Diagnosis"}]}],"code":{"coding":[{"system":"http://hl7.org/fhir/sid/icd-10-cm","code":"I48.20"},{"system":"http://hl7.org/fhir/sid/icd-10-cm","code":"I48.0"},{"system":"http://snomed.info/sct","code":"5370000"}]},"subject":{"reference":"Patient/a998e27f-e0a9-475d-80e8-0e9344591294"},"onsetDateTime":"2026-10-01T09:01:00Z","abatementDateTime":"2026-10-12T00:15:00.000+00:00"},"request":{"method":"PUT","url":"Condition/9b8fcdf4-7ee6-46b4-ac0a-a15397815456"}},{"fullUrl":"https://madie.cms.gov/Encounter/b60986f6-f5a1-4731-9388-445b78301832","resource":{"resourceType":"Encounter","id":"b60986f6-f5a1-4731-9388-445b78301832","meta":{"profile":["http://hl7.org/fhir/us/qicore/StructureDefinition/qicore-encounter"]},"status":"finished","class":{"system":"http://terminology.hl7.org/CodeSystem/v3-ActCode","code":"EMER","display":"emergency"},"type":[{"coding":[{"system":"http://snomed.info/sct","code":"4525004"}]}],"subject":{"reference":"Patient/a998e27f-e0a9-475d-80e8-0e9344591294"},"period":{"start":"2026-10-01T09:01:00Z","end":"2026-10-01T12:15:00.000+00:00"},"length":{"value":0,"unit":"days"}},"request":{"method":"PUT","url":"Encounter/b60986f6-f5a1-4731-9388-445b78301832"}},{"fullUrl":"https://madie.cms.gov/Encounter/2235d718-1044-4b0e-8f02-72203c8b7bce","resource":{"resourceType":"Encounter","id":"2235d718-1044-4b0e-8f02-72203c8b7bce","meta":{"profile":["http://hl7.org/fhir/us/qicore/StructureDefinition/qicore-encounter"]},"status":"finished","class":{"system":"http://terminology.hl7.org/CodeSystem/v3-ActCode","code":"IMP","display":"inpatient encounter"},"type":[{"coding":[{"system":"http://snomed.info/sct","code":"32485007"}]}],"subject":{"reference":"Patient/a998e27f-e0a9-475d-80e8-0e9344591294"},"period":{"start":"2026-10-01T13:15:00Z","end":"2026-10-12T00:15:00.000+00:00"},"length":{"value":11,"unit":"days"},"reasonReference":[{"reference":"Condition/9b8fcdf4-7ee6-46b4-ac0a-a15397815456"}]},"request":{"method":"PUT","url":"Encounter/2235d718-1044-4b0e-8f02-72203c8b7bce"}},{"fullUrl":"https://madie.cms.gov/ServiceRequest/5ce48e4c-6263-4f75-be2b-b0fba6385a72","resource":{"resourceType":"ServiceRequest","id":"5ce48e4c-6263-4f75-be2b-b0fba6385a72","meta":{"profile":["http://hl7.org/fhir/us/qicore/StructureDefinition/qicore-servicerequest"]},"status":"active","intent":"order","doNotPerform":false,"code":{"coding":[{"system":"http://snomed.info/sct","code":"133918004"}]},"subject":{"reference":"Patient/a998e27f-e0a9-475d-80e8-0e9344591294"},"authoredOn":"2026-10-01T09:15:00Z"},"request":{"method":"PUT","url":"ServiceRequest/5ce48e4c-6263-4f75-be2b-b0fba6385a72"}},{"fullUrl":"https://madie.cms.gov/Coverage/05b01c52-20ac-4e11-a56e-c7aaa602e1d6","resource":{"resourceType":"Coverage","id":"05b01c52-20ac-4e11-a56e-c7aaa602e1d6","meta":{"profile":["http://hl7.org/fhir/us/qicore/StructureDefinition/qicore-coverage"]},"status":"active","subscriberId":"523435","beneficiary":{"reference":"Patient/162a5913-9989-42f2-8d6a-ae460e245e4c"},"relationship":{"coding":[{"system":"http://terminology.hl7.org/CodeSystem/subscriber-relationship","code":"self"}]},"payor":[{"reference":"Organization/15af7e0f-a01c-4480-90cf-408f1f2c7b76"}]},"request":{"method":"PUT","url":"Coverage/05b01c52-20ac-4e11-a56e-c7aaa602e1d6"}},{"fullUrl":"https://madie.cms.gov/Condition/36db5fea-d73d-4f3f-9f51-cb03b9794160","resource":{"resourceType":"Condition","id":"36db5fea-d73d-4f3f-9f51-cb03b9794160","meta":{"profile":["http://hl7.org/fhir/us/qicore/StructureDefinition/qicore-condition-problems-health-concerns"]},"clinicalStatus":{"coding":[{"system":"http://terminology.hl7.org/CodeSystem/condition-clinical","code":"active"}]},"verificationStatus":{"coding":[{"system":"http://terminology.hl7.org/CodeSystem/condition-ver-status","code":"confirmed"}]},"category":[{"coding":[{"system":"http://terminology.hl7.org/CodeSystem/condition-category","code":"encounter-diagnosis","display":"Encounter Diagnosis"}]}],"code":{"coding":[{"system":"http://snomed.info/sct","version":"2021-09","code":"111297002","display":"Nonparalytic stroke (disorder)","userSelected":true}]},"subject":{"reference":"Patient/a998e27f-e0a9-475d-80e8-0e9344591294"},"recordedDate":"2026-10-13T08:00:00Z"},"request":{"method":"PUT","url":"Condition/36db5fea-d73d-4f3f-9f51-cb03b9794160"}},{"fullUrl":"https://madie.cms.gov/claim/5ca62962b8484628b8de1ec5","resource":{"resourceType":"Claim","id":"5ca62962b8484628b8de1ec5","meta":{"profile":["http://hl7.org/fhir/us/qicore/StructureDefinition/qicore-claim"]},"status":"active","type":{"coding":[{"system":"http://terminology.hl7.org/CodeSystem/claim-type","code":"institutional"}]},"use":"claim","patient":{"reference":"Patient/d170a0a8-b5ad-4303-b6df-e304dd5f92ad"},"created":"2026-12-01","provider":{"reference":"Practitioner/891abd3d-24b1-4616-b701-5fa6c1985216"},"priority":{"coding":[{"system":"http://terminology.hl7.org/CodeSystem/processpriority","code":"normal"}]},"diagnosis":[{"sequence":1,"diagnosisCodeableConcept":{"coding":[{"system":"http://hl7.org/fhir/sid/icd-10-cm","code":"I63.00"}]},"type":[{"coding":[{"system":"http://terminology.hl7.org/CodeSystem/ex-diagnosistype","code":"principal"}]}]}],"insurance":[{"sequence":1,"focal":true,"coverage":{"reference":"Coverage/5fa041661c76ba66d9959367"}}],"item":[{"sequence":1,"diagnosisSequence":[1],"productOrService":{"coding":[{"system":"http://terminology.hl7.org/CodeSystem/ex-USCLS","code":"99555"}]},"encounter":[{"reference":"Encounter/2235d718-1044-4b0e-8f02-72203c8b7bce"}]}]},"request":{"method":"PUT","url":"Claim/5ca62962b8484628b8de1ec5"}},{"fullUrl":"https://madie.cms.gov/Organization/15af7e0f-a01c-4480-90cf-408f1f2c7b76","resource":{"resourceType":"Organization","id":"15af7e0f-a01c-4480-90cf-408f1f2c7b76","meta":{"profile":["http://hl7.org/fhir/us/qicore/StructureDefinition/qicore-organization"]},"identifier":[{"use":"temp","system":"urn:oid:2.16.840.1.113883.4.4","value":"21-3259825"}],"active":true,"type":[{"coding":[{"system":"http://terminology.hl7.org/CodeSystem/organization-type","code":"pay","display":"Payer"}]}],"name":"Blue Cross Blue Shield of Texas","telecom":[{"system":"phone","value":"(+1) 972-766-6900"}],"address":[{"use":"billing","type":"postal","line":["P.O. Box 660044"],"city":"Dallas","state":"TX","postalCode":"75266-0044","country":"USA"}]},"request":{"method":"PUT","url":"Organization/15af7e0f-a01c-4480-90cf-408f1f2c7b76"}},{"fullUrl":"https://madie.cms.gov/Practitioner/891abd3d-24b1-4616-b701-5fa6c1985216","resource":{"resourceType":"Practitioner","id":"891abd3d-24b1-4616-b701-5fa6c1985216","meta":{"profile":["http://hl7.org/fhir/us/qicore/StructureDefinition/qicore-practitioner"]},"identifier":[{"system":"http://hl7.org/fhir/sid/us-npi","value":"9999999896"}],"name":[{"family":"Evil","prefix":["Dr"]}]},"request":{"method":"PUT","url":"Practitioner/891abd3d-24b1-4616-b701-5fa6c1985216"}},{"fullUrl":"https://madie.cms.gov/MeasureReport/8a65dca8-c792-4f62-900b-8ad2b6f69b21","resource":{"resourceType":"MeasureReport","id":"8a65dca8-c792-4f62-900b-8ad2b6f69b21","meta":{"profile":["http://hl7.org/fhir/us/cqfmeasures/StructureDefinition/test-case-cqfm"]},"contained":[{"resourceType":"Parameters","id":"969db8ad-60a1-4f9a-b3f5-25c06a37df61-parameters","parameter":[{"name":"subject","valueString":"a998e27f-e0a9-475d-80e8-0e9344591294"}]}],"extension":[{"url":"http://hl7.org/fhir/StructureDefinition/cqf-inputParameters","valueReference":{"reference":"#969db8ad-60a1-4f9a-b3f5-25c06a37df61-parameters"}},{"url":"http://hl7.org/fhir/us/cqfmeasures/StructureDefinition/cqfm-testCaseDescription","valueMarkdown":"Testing false donotperform CMO "}],"modifierExtension":[{"url":"http://hl7.org/fhir/us/cqfmeasures/StructureDefinition/cqfm-isTestCase","valueBoolean":true}],"status":"complete","type":"individual","measure":"https://madie.cms.gov/Measure/CMS71FHIRSTKAnticoagAFFlutter","period":{"start":"2026-01-01","end":"2026-12-31"},"group":[{"id":"Group_1","population":[{"id":"InitialPopulation_1","code":{"coding":[{"system":"http://terminology.hl7.org/CodeSystem/measure-population","code":"initial-population","display":"Initial Population"}]},"count":1},{"id":"Denominator_1","code":{"coding":[{"system":"http://terminology.hl7.org/CodeSystem/measure-population","code":"denominator","display":"Denominator"}]},"count":1},{"id":"DenominatorExclusion_1","code":{"coding":[{"system":"http://terminology.hl7.org/CodeSystem/measure-population","code":"denominator-exclusion","display":"Denominator Exclusion"}]},"count":1},{"id":"Numerator_1","code":{"coding":[{"system":"http://terminology.hl7.org/CodeSystem/measure-population","code":"numerator","display":"Numerator"}]},"count":0},{"id":"DenominatorException_1","code":{"coding":[{"system":"http://terminology.hl7.org/CodeSystem/measure-population","code":"denominator-exception","display":"Denominator Exception"}]},"count":0}],"measureScore":{"value":0.0}}],"evaluatedResource":[{"reference":"Patient/a998e27f-e0a9-475d-80e8-0e9344591294"},{"reference":"Condition/9b8fcdf4-7ee6-46b4-ac0a-a15397815456"},{"reference":"Encounter/b60986f6-f5a1-4731-9388-445b78301832"},{"reference":"Encounter/2235d718-1044-4b0e-8f02-72203c8b7bce"},{"reference":"ServiceRequest/5ce48e4c-6263-4f75-be2b-b0fba6385a72"},{"reference":"Coverage/05b01c52-20ac-4e11-a56e-c7aaa602e1d6"},{"reference":"Condition/36db5fea-d73d-4f3f-9f51-cb03b9794160"},{"reference":"Claim/5ca62962b8484628b8de1ec5"},{"reference":"Organization/15af7e0f-a01c-4480-90cf-408f1f2c7b76"},{"reference":"Practitioner/891abd3d-24b1-4616-b701-5fa6c1985216"}]},"request":{"method":"PUT","url":"MeasureReport/8a65dca8-c792-4f62-900b-8ad2b6f69b21"}}]},"request":{"method":"PUT","url":"Bundle/633c9d040968f8012250fca3"}},{"resource":{"resourceType":"MeasureReport","id":"8a65dca8-c792-4f62-900b-8ad2b6f69b21","meta":{"profile":["http://hl7.org/fhir/us/cqfmeasures/StructureDefinition/test-case-cqfm"]},"contained":[{"resourceType":"Parameters","id":"969db8ad-60a1-4f9a-b3f5-25c06a37df61-parameters","parameter":[{"name":"subject","valueString":"a998e27f-e0a9-475d-80e8-0e9344591294"}]}],"extension":[{"url":"http://hl7.org/fhir/StructureDefinition/cqf-inputParameters","valueReference":{"reference":"#969db8ad-60a1-4f9a-b3f5-25c06a37df61-parameters"}},{"url":"http://hl7.org/fhir/us/cqfmeasures/StructureDefinition/cqfm-testCaseDescription","valueMarkdown":"Testing false donotperform CMO "}],"modifierExtension":[{"url":"http://hl7.org/fhir/us/cqfmeasures/StructureDefinition/cqfm-isTestCase","valueBoolean":true}],"status":"complete","type":"individual","measure":"https://madie.cms.gov/Measure/CMS71FHIRSTKAnticoagAFFlutter","period":{"start":"2026-01-01","end":"2026-12-31"},"group":[{"id":"Group_1","population":[{"id":"InitialPopulation_1","code":{"coding":[{"system":"http://terminology.hl7.org/CodeSystem/measure-population","code":"initial-population","display":"Initial Population"}]},"count":1},{"id":"Denominator_1","code":{"coding":[{"system":"http://terminology.hl7.org/CodeSystem/measure-population","code":"denominator","display":"Denominator"}]},"count":1},{"id":"DenominatorExclusion_1","code":{"coding":[{"system":"http://terminology.hl7.org/CodeSystem/measure-population","code":"denominator-exclusion","display":"Denominator Exclusion"}]},"count":1},{"id":"Numerator_1","code":{"coding":[{"system":"http://terminology.hl7.org/CodeSystem/measure-population","code":"numerator","display":"Numerator"}]},"count":0},{"id":"DenominatorException_1","code":{"coding":[{"system":"http://terminology.hl7.org/CodeSystem/measure-population","code":"denominator-exception","display":"Denominator Exception"}]},"count":0}],"measureScore":{"value":0.0}}],"evaluatedResource":[{"reference":"Patient/a998e27f-e0a9-475d-80e8-0e9344591294"},{"reference":"Condition/9b8fcdf4-7ee6-46b4-ac0a-a15397815456"},{"reference":"Encounter/b60986f6-f5a1-4731-9388-445b78301832"},{"reference":"Encounter/2235d718-1044-4b0e-8f02-72203c8b7bce"},{"reference":"ServiceRequest/5ce48e4c-6263-4f75-be2b-b0fba6385a72"},{"reference":"Coverage/05b01c52-20ac-4e11-a56e-c7aaa602e1d6"},{"reference":"Condition/36db5fea-d73d-4f3f-9f51-cb03b9794160"},{"reference":"Claim/5ca62962b8484628b8de1ec5"},{"reference":"Organization/15af7e0f-a01c-4480-90cf-408f1f2c7b76"},{"reference":"Practitioner/891abd3d-24b1-4616-b701-5fa6c1985216"}]},"request":{"method":"PUT","url":"MeasureReport/8a65dca8-c792-4f62-900b-8ad2b6f69b21"}},{"resource":{"resourceType":"Condition","id":"36db5fea-d73d-4f3f-9f51-cb03b9794160","meta":{"profile":["http://hl7.org/fhir/us/qicore/StructureDefinition/qicore-condition-problems-health-concerns"]},"clinicalStatus":{"coding":[{"system":"http://terminology.hl7.org/CodeSystem/condition-clinical","code":"active"}]},"verificationStatus":{"coding":[{"system":"http://terminology.hl7.org/CodeSystem/condition-ver-status","code":"confirmed"}]},"category":[{"coding":[{"system":"http://terminology.hl7.org/CodeSystem/condition-category","code":"encounter-diagnosis","display":"Encounter Diagnosis"}]}],"code":{"coding":[{"system":"http://snomed.info/sct","version":"2021-09","code":"111297002","display":"Nonparalytic stroke (disorder)","userSelected":true}]},"subject":{"reference":"Patient/a998e27f-e0a9-475d-80e8-0e9344591294"},"recordedDate":"2026-10-13T08:00:00Z"},"request":{"method":"PUT","url":"Condition/36db5fea-d73d-4f3f-9f51-cb03b9794160"}},{"resource":{"resourceType":"Encounter","id":"b60986f6-f5a1-4731-9388-445b78301832","meta":{"profile":["http://hl7.org/fhir/us/qicore/StructureDefinition/qicore-encounter"]},"status":"finished","class":{"system":"http://terminology.hl7.org/CodeSystem/v3-ActCode","code":"EMER","display":"emergency"},"type":[{"coding":[{"system":"http://snomed.info/sct","code":"4525004"}]}],"subject":{"reference":"Patient/a998e27f-e0a9-475d-80e8-0e9344591294"},"period":{"start":"2026-10-01T09:01:00Z","end":"2026-10-01T12:15:00.000+00:00"},"length":{"value":0,"unit":"days"}},"request":{"method":"PUT","url":"Encounter/b60986f6-f5a1-4731-9388-445b78301832"}},{"resource":{"resourceType":"Practitioner","id":"891abd3d-24b1-4616-b701-5fa6c1985216","meta":{"profile":["http://hl7.org/fhir/us/qicore/StructureDefinition/qicore-practitioner"]},"identifier":[{"system":"http://hl7.org/fhir/sid/us-npi","value":"9999999896"}],"name":[{"family":"Evil","prefix":["Dr"]}]},"request":{"method":"PUT","url":"Practitioner/891abd3d-24b1-4616-b701-5fa6c1985216"}},{"resource":{"resourceType":"Claim","id":"5ca62962b8484628b8de1ec5","meta":{"profile":["http://hl7.org/fhir/us/qicore/StructureDefinition/qicore-claim"]},"status":"active","type":{"coding":[{"system":"http://terminology.hl7.org/CodeSystem/claim-type","code":"institutional"}]},"use":"claim","patient":{"reference":"Patient/d170a0a8-b5ad-4303-b6df-e304dd5f92ad"},"created":"2026-12-01","provider":{"reference":"Practitioner/891abd3d-24b1-4616-b701-5fa6c1985216"},"priority":{"coding":[{"system":"http://terminology.hl7.org/CodeSystem/processpriority","code":"normal"}]},"diagnosis":[{"sequence":1,"diagnosisCodeableConcept":{"coding":[{"system":"http://hl7.org/fhir/sid/icd-10-cm","code":"I63.00"}]},"type":[{"coding":[{"system":"http://terminology.hl7.org/CodeSystem/ex-diagnosistype","code":"principal"}]}]}],"insurance":[{"sequence":1,"focal":true,"coverage":{"reference":"Coverage/5fa041661c76ba66d9959367"}}],"item":[{"sequence":1,"diagnosisSequence":[1],"productOrService":{"coding":[{"system":"http://terminology.hl7.org/CodeSystem/ex-USCLS","code":"99555"}]},"encounter":[{"reference":"Encounter/2235d718-1044-4b0e-8f02-72203c8b7bce"}]}]},"request":{"method":"PUT","url":"Claim/5ca62962b8484628b8de1ec5"}}]}