{"resourceType":"Bundle","id":"tests-0daf2fdb-6abc-4b7c-9417-3972c4813295-bundle","type":"transaction","entry":[{"resource":{"resourceType":"Bundle","id":"633c9d040968f8012250fcb3","type":"transaction","entry":[{"fullUrl":"https://madie.cms.gov/Patient/0daf2fdb-6abc-4b7c-9417-3972c4813295","resource":{"resourceType":"Patient","id":"0daf2fdb-6abc-4b7c-9417-3972c4813295","meta":{"profile":["http://hl7.org/fhir/us/qicore/StructureDefinition/qicore-patient"]},"text":{"status":"generated","div":"<div xmlns=\"http://www.w3.org/1999/xhtml\"><div class=\"hapiHeaderText\">AtrialAblAfterEncStartDateTime <b>DENOMFAIL </b></div><table class=\"hapiPropertyTable\"><tbody><tr><td>Identifier</td><td>0ab8a288462c493a0716bd9a93a37855</td></tr><tr><td>Date of birth</td><td><span>01 December 1960</span></td></tr></tbody></table></div>"},"extension":[{"url":"http://hl7.org/fhir/us/core/StructureDefinition/us-core-race","extension":[{"url":"ombCategory","valueCoding":{"system":"urn:oid:2.16.840.1.113883.6.238","code":"1002-5","display":"American Indian or Alaska Native","userSelected":true}},{"url":"text","valueString":"American Indian or Alaska Native"}]},{"url":"http://hl7.org/fhir/us/core/StructureDefinition/us-core-ethnicity","extension":[{"url":"ombCategory","valueCoding":{"system":"urn:oid:2.16.840.1.113883.6.238","code":"2135-2","display":"Hispanic or Latino","userSelected":true}},{"url":"text","valueString":"Hispanic or Latino"}]}],"identifier":[{"type":{"coding":[{"system":"http://terminology.hl7.org/CodeSystem/v2-0203","code":"MR"}]},"system":"https://bonnie-fhir.healthit.gov/","value":"633c9d040968f8012250fcb3"}],"active":true,"name":[{"use":"usual","family":"DENOMFail","given":["AtrialAblAfterEncStartDateTime"]}],"gender":"male","birthDate":"1961-12-01"},"request":{"method":"PUT","url":"Patient/0daf2fdb-6abc-4b7c-9417-3972c4813295"}},{"fullUrl":"https://madie.cms.gov/claim/5ca62962b8484628b8de1ec5","resource":{"resourceType":"Claim","id":"5ca62962b8484628b8de1ec5","meta":{"profile":["http://hl7.org/fhir/us/qicore/StructureDefinition/qicore-claim"]},"status":"active","type":{"coding":[{"system":"http://terminology.hl7.org/CodeSystem/claim-type","code":"institutional"}]},"use":"claim","patient":{"reference":"Patient/d170a0a8-b5ad-4303-b6df-e304dd5f92ad"},"created":"2026-12-01","provider":{"reference":"Practitioner/4e3ba2df-3590-4c4e-9abd-21bae8b7936d"},"priority":{"coding":[{"system":"http://terminology.hl7.org/CodeSystem/processpriority","code":"normal"}]},"diagnosis":[{"sequence":1,"diagnosisCodeableConcept":{"coding":[{"system":"http://hl7.org/fhir/sid/icd-10-cm","code":"I63.00"}]},"type":[{"coding":[{"system":"http://terminology.hl7.org/CodeSystem/ex-diagnosistype","code":"principal"}]}]}],"insurance":[{"sequence":1,"focal":true,"coverage":{"reference":"Coverage/5fa041661c76ba66d9959367"}}],"item":[{"sequence":1,"diagnosisSequence":[1],"productOrService":{"coding":[{"system":"http://terminology.hl7.org/CodeSystem/ex-USCLS","code":"99555"}]},"encounter":[{"reference":"Encounter/3a7e3ec4-bb83-48bf-b8c8-f524fe42dbe1"}]}]},"request":{"method":"PUT","url":"Claim/5ca62962b8484628b8de1ec5"}},{"fullUrl":"https://madie.cms.gov/Encounter/3a7e3ec4-bb83-48bf-b8c8-f524fe42dbe1","resource":{"resourceType":"Encounter","id":"3a7e3ec4-bb83-48bf-b8c8-f524fe42dbe1","meta":{"profile":["http://hl7.org/fhir/us/qicore/StructureDefinition/qicore-encounter"]},"status":"finished","class":{"system":"http://terminology.hl7.org/CodeSystem/v3-ActCode","code":"IMP","display":"inpatient encounter"},"type":[{"coding":[{"system":"http://snomed.info/sct","code":"32485007"}]}],"subject":{"reference":"Patient/0daf2fdb-6abc-4b7c-9417-3972c4813295"},"period":{"start":"2026-02-08T08:00:00Z","end":"2026-02-10T08:15:00.000+00:00"},"length":{"value":2,"unit":"days"},"reasonReference":[{"reference":"Condition/e24d385e-7e97-4915-a761-e2807adee282"}]},"request":{"method":"PUT","url":"Encounter/3a7e3ec4-bb83-48bf-b8c8-f524fe42dbe1"}},{"fullUrl":"https://madie.cms.gov/Coverage/e4daff22-06fc-4ff1-b746-7ff84cf582cf","resource":{"resourceType":"Coverage","id":"e4daff22-06fc-4ff1-b746-7ff84cf582cf","status":"active","subscriberId":"523435","beneficiary":{"reference":"Patient/0daf2fdb-6abc-4b7c-9417-3972c4813295"},"relationship":{"coding":[{"system":"http://terminology.hl7.org/CodeSystem/subscriber-relationship","code":"self"}]},"period":{"start":"1961-12-01T08:00:00Z"},"payor":[{"reference":"Organization/c6554de0-b808-4348-82d5-bb68b83c71bc"}]},"request":{"method":"PUT","url":"Coverage/e4daff22-06fc-4ff1-b746-7ff84cf582cf"}},{"fullUrl":"https://madie.cms.gov/Procedure/d5220ddb-708d-4270-bab9-594b67930c74","resource":{"resourceType":"Procedure","id":"d5220ddb-708d-4270-bab9-594b67930c74","meta":{"profile":["http://hl7.org/fhir/us/qicore/StructureDefinition/qicore-procedure"]},"extension":[{"url":"http://hl7.org/fhir/us/qicore/StructureDefinition/qicore-recorded","valueDateTime":"2026-11-19T13:35:00Z"}],"status":"completed","code":{"coding":[{"system":"http://www.cms.gov/Medicare/Coding/ICD10","code":"02560ZZ"},{"system":"http://snomed.info/sct","code":"175095005"}]},"subject":{"reference":"Patient/0daf2fdb-6abc-4b7c-9417-3972c4813295"},"performedPeriod":{"start":"2026-02-08T09:00:00Z","end":"2026-02-08T10:00:00.000+00:00"}},"request":{"method":"PUT","url":"Procedure/d5220ddb-708d-4270-bab9-594b67930c74"}},{"fullUrl":"https://madie.cms.gov/Condition/e24d385e-7e97-4915-a761-e2807adee282","resource":{"resourceType":"Condition","id":"e24d385e-7e97-4915-a761-e2807adee282","meta":{"profile":["http://hl7.org/fhir/us/qicore/StructureDefinition/qicore-condition-problems-health-concerns"]},"clinicalStatus":{"coding":[{"system":"http://terminology.hl7.org/CodeSystem/condition-clinical","code":"active"}]},"verificationStatus":{"coding":[{"system":"http://terminology.hl7.org/CodeSystem/condition-ver-status","code":"confirmed"}]},"category":[{"coding":[{"system":"http://terminology.hl7.org/CodeSystem/condition-category","code":"encounter-diagnosis","display":"Encounter Diagnosis"}]}],"code":{"coding":[{"system":"http://snomed.info/sct","version":"2021-09","code":"111297002","display":"Nonparalytic stroke (disorder)","userSelected":true}]},"subject":{"reference":"Patient/0daf2fdb-6abc-4b7c-9417-3972c4813295"},"recordedDate":"2026-10-13T08:00:00Z"},"request":{"method":"PUT","url":"Condition/e24d385e-7e97-4915-a761-e2807adee282"}},{"fullUrl":"https://madie.cms.gov/Organization/c6554de0-b808-4348-82d5-bb68b83c71bc","resource":{"resourceType":"Organization","id":"c6554de0-b808-4348-82d5-bb68b83c71bc","meta":{"profile":["http://hl7.org/fhir/us/qicore/StructureDefinition/qicore-organization"]},"identifier":[{"use":"temp","system":"urn:oid:2.16.840.1.113883.4.4","value":"21-3259825"}],"active":true,"type":[{"coding":[{"system":"http://terminology.hl7.org/CodeSystem/organization-type","code":"pay","display":"Payer"}]}],"name":"Blue Cross Blue Shield of Texas","telecom":[{"system":"phone","value":"(+1) 972-766-6900"}],"address":[{"use":"billing","type":"postal","line":["P.O. Box 660044"],"city":"Dallas","state":"TX","postalCode":"75266-0044","country":"USA"}]},"request":{"method":"PUT","url":"Organization/c6554de0-b808-4348-82d5-bb68b83c71bc"}},{"fullUrl":"https://madie.cms.gov/Practitioner/4e3ba2df-3590-4c4e-9abd-21bae8b7936d","resource":{"resourceType":"Practitioner","id":"4e3ba2df-3590-4c4e-9abd-21bae8b7936d","meta":{"profile":["http://hl7.org/fhir/us/qicore/StructureDefinition/qicore-practitioner"]},"identifier":[{"system":"http://hl7.org/fhir/sid/us-npi","value":"9999999896"}],"name":[{"family":"Evil","prefix":["Dr"]}]},"request":{"method":"PUT","url":"Practitioner/4e3ba2df-3590-4c4e-9abd-21bae8b7936d"}},{"fullUrl":"https://madie.cms.gov/MeasureReport/d30e0804-a887-44fa-9bd1-ab5fb005b72a","resource":{"resourceType":"MeasureReport","id":"d30e0804-a887-44fa-9bd1-ab5fb005b72a","meta":{"profile":["http://hl7.org/fhir/us/cqfmeasures/StructureDefinition/test-case-cqfm"]},"contained":[{"resourceType":"Parameters","id":"918a7f6f-31d6-4894-a072-77ff85e1bb2b-parameters","parameter":[{"name":"subject","valueString":"0daf2fdb-6abc-4b7c-9417-3972c4813295"}]}],"extension":[{"url":"http://hl7.org/fhir/StructureDefinition/cqf-inputParameters","valueReference":{"reference":"#918a7f6f-31d6-4894-a072-77ff85e1bb2b-parameters"}},{"url":"http://hl7.org/fhir/us/cqfmeasures/StructureDefinition/cqfm-testCaseDescription","valueMarkdown":"Atrial Ablation starts after OccA Enc start time using Date Time. \n"}],"modifierExtension":[{"url":"http://hl7.org/fhir/us/cqfmeasures/StructureDefinition/cqfm-isTestCase","valueBoolean":true}],"status":"complete","type":"individual","measure":"https://madie.cms.gov/Measure/CMS71FHIRSTKAnticoagAFFlutter","period":{"start":"2026-01-01","end":"2026-12-31"},"group":[{"id":"Group_1","population":[{"id":"InitialPopulation_1","code":{"coding":[{"system":"http://terminology.hl7.org/CodeSystem/measure-population","code":"initial-population","display":"Initial Population"}]},"count":1},{"id":"Denominator_1","code":{"coding":[{"system":"http://terminology.hl7.org/CodeSystem/measure-population","code":"denominator","display":"Denominator"}]},"count":0},{"id":"DenominatorExclusion_1","code":{"coding":[{"system":"http://terminology.hl7.org/CodeSystem/measure-population","code":"denominator-exclusion","display":"Denominator Exclusion"}]},"count":0},{"id":"Numerator_1","code":{"coding":[{"system":"http://terminology.hl7.org/CodeSystem/measure-population","code":"numerator","display":"Numerator"}]},"count":0},{"id":"DenominatorException_1","code":{"coding":[{"system":"http://terminology.hl7.org/CodeSystem/measure-population","code":"denominator-exception","display":"Denominator Exception"}]},"count":0}],"measureScore":{"value":0.0}}],"evaluatedResource":[{"reference":"Patient/0daf2fdb-6abc-4b7c-9417-3972c4813295"},{"reference":"Claim/5ca62962b8484628b8de1ec5"},{"reference":"Encounter/3a7e3ec4-bb83-48bf-b8c8-f524fe42dbe1"},{"reference":"Coverage/e4daff22-06fc-4ff1-b746-7ff84cf582cf"},{"reference":"Procedure/d5220ddb-708d-4270-bab9-594b67930c74"},{"reference":"Condition/e24d385e-7e97-4915-a761-e2807adee282"},{"reference":"Organization/c6554de0-b808-4348-82d5-bb68b83c71bc"},{"reference":"Practitioner/4e3ba2df-3590-4c4e-9abd-21bae8b7936d"}]},"request":{"method":"PUT","url":"MeasureReport/d30e0804-a887-44fa-9bd1-ab5fb005b72a"}}]},"request":{"method":"PUT","url":"Bundle/633c9d040968f8012250fcb3"}},{"resource":{"resourceType":"Coverage","id":"e4daff22-06fc-4ff1-b746-7ff84cf582cf","status":"active","subscriberId":"523435","beneficiary":{"reference":"Patient/0daf2fdb-6abc-4b7c-9417-3972c4813295"},"relationship":{"coding":[{"system":"http://terminology.hl7.org/CodeSystem/subscriber-relationship","code":"self"}]},"period":{"start":"1961-12-01T08:00:00Z"},"payor":[{"reference":"Organization/c6554de0-b808-4348-82d5-bb68b83c71bc"}]},"request":{"method":"PUT","url":"Coverage/e4daff22-06fc-4ff1-b746-7ff84cf582cf"}},{"resource":{"resourceType":"Practitioner","id":"4e3ba2df-3590-4c4e-9abd-21bae8b7936d","meta":{"profile":["http://hl7.org/fhir/us/qicore/StructureDefinition/qicore-practitioner"]},"identifier":[{"system":"http://hl7.org/fhir/sid/us-npi","value":"9999999896"}],"name":[{"family":"Evil","prefix":["Dr"]}]},"request":{"method":"PUT","url":"Practitioner/4e3ba2df-3590-4c4e-9abd-21bae8b7936d"}},{"resource":{"resourceType":"MeasureReport","id":"d30e0804-a887-44fa-9bd1-ab5fb005b72a","meta":{"profile":["http://hl7.org/fhir/us/cqfmeasures/StructureDefinition/test-case-cqfm"]},"contained":[{"resourceType":"Parameters","id":"918a7f6f-31d6-4894-a072-77ff85e1bb2b-parameters","parameter":[{"name":"subject","valueString":"0daf2fdb-6abc-4b7c-9417-3972c4813295"}]}],"extension":[{"url":"http://hl7.org/fhir/StructureDefinition/cqf-inputParameters","valueReference":{"reference":"#918a7f6f-31d6-4894-a072-77ff85e1bb2b-parameters"}},{"url":"http://hl7.org/fhir/us/cqfmeasures/StructureDefinition/cqfm-testCaseDescription","valueMarkdown":"Atrial Ablation starts after OccA Enc start time using Date Time. \n"}],"modifierExtension":[{"url":"http://hl7.org/fhir/us/cqfmeasures/StructureDefinition/cqfm-isTestCase","valueBoolean":true}],"status":"complete","type":"individual","measure":"https://madie.cms.gov/Measure/CMS71FHIRSTKAnticoagAFFlutter","period":{"start":"2026-01-01","end":"2026-12-31"},"group":[{"id":"Group_1","population":[{"id":"InitialPopulation_1","code":{"coding":[{"system":"http://terminology.hl7.org/CodeSystem/measure-population","code":"initial-population","display":"Initial Population"}]},"count":1},{"id":"Denominator_1","code":{"coding":[{"system":"http://terminology.hl7.org/CodeSystem/measure-population","code":"denominator","display":"Denominator"}]},"count":0},{"id":"DenominatorExclusion_1","code":{"coding":[{"system":"http://terminology.hl7.org/CodeSystem/measure-population","code":"denominator-exclusion","display":"Denominator Exclusion"}]},"count":0},{"id":"Numerator_1","code":{"coding":[{"system":"http://terminology.hl7.org/CodeSystem/measure-population","code":"numerator","display":"Numerator"}]},"count":0},{"id":"DenominatorException_1","code":{"coding":[{"system":"http://terminology.hl7.org/CodeSystem/measure-population","code":"denominator-exception","display":"Denominator Exception"}]},"count":0}],"measureScore":{"value":0.0}}],"evaluatedResource":[{"reference":"Patient/0daf2fdb-6abc-4b7c-9417-3972c4813295"},{"reference":"Claim/5ca62962b8484628b8de1ec5"},{"reference":"Encounter/3a7e3ec4-bb83-48bf-b8c8-f524fe42dbe1"},{"reference":"Coverage/e4daff22-06fc-4ff1-b746-7ff84cf582cf"},{"reference":"Procedure/d5220ddb-708d-4270-bab9-594b67930c74"},{"reference":"Condition/e24d385e-7e97-4915-a761-e2807adee282"},{"reference":"Organization/c6554de0-b808-4348-82d5-bb68b83c71bc"},{"reference":"Practitioner/4e3ba2df-3590-4c4e-9abd-21bae8b7936d"}]},"request":{"method":"PUT","url":"MeasureReport/d30e0804-a887-44fa-9bd1-ab5fb005b72a"}},{"resource":{"resourceType":"Organization","id":"c6554de0-b808-4348-82d5-bb68b83c71bc","meta":{"profile":["http://hl7.org/fhir/us/qicore/StructureDefinition/qicore-organization"]},"identifier":[{"use":"temp","system":"urn:oid:2.16.840.1.113883.4.4","value":"21-3259825"}],"active":true,"type":[{"coding":[{"system":"http://terminology.hl7.org/CodeSystem/organization-type","code":"pay","display":"Payer"}]}],"name":"Blue Cross Blue Shield of Texas","telecom":[{"system":"phone","value":"(+1) 972-766-6900"}],"address":[{"use":"billing","type":"postal","line":["P.O. Box 660044"],"city":"Dallas","state":"TX","postalCode":"75266-0044","country":"USA"}]},"request":{"method":"PUT","url":"Organization/c6554de0-b808-4348-82d5-bb68b83c71bc"}},{"resource":{"resourceType":"Encounter","id":"3a7e3ec4-bb83-48bf-b8c8-f524fe42dbe1","meta":{"profile":["http://hl7.org/fhir/us/qicore/StructureDefinition/qicore-encounter"]},"status":"finished","class":{"system":"http://terminology.hl7.org/CodeSystem/v3-ActCode","code":"IMP","display":"inpatient encounter"},"type":[{"coding":[{"system":"http://snomed.info/sct","code":"32485007"}]}],"subject":{"reference":"Patient/0daf2fdb-6abc-4b7c-9417-3972c4813295"},"period":{"start":"2026-02-08T08:00:00Z","end":"2026-02-10T08:15:00.000+00:00"},"length":{"value":2,"unit":"days"},"reasonReference":[{"reference":"Condition/e24d385e-7e97-4915-a761-e2807adee282"}]},"request":{"method":"PUT","url":"Encounter/3a7e3ec4-bb83-48bf-b8c8-f524fe42dbe1"}},{"resource":{"resourceType":"Condition","id":"e24d385e-7e97-4915-a761-e2807adee282","meta":{"profile":["http://hl7.org/fhir/us/qicore/StructureDefinition/qicore-condition-problems-health-concerns"]},"clinicalStatus":{"coding":[{"system":"http://terminology.hl7.org/CodeSystem/condition-clinical","code":"active"}]},"verificationStatus":{"coding":[{"system":"http://terminology.hl7.org/CodeSystem/condition-ver-status","code":"confirmed"}]},"category":[{"coding":[{"system":"http://terminology.hl7.org/CodeSystem/condition-category","code":"encounter-diagnosis","display":"Encounter Diagnosis"}]}],"code":{"coding":[{"system":"http://snomed.info/sct","version":"2021-09","code":"111297002","display":"Nonparalytic stroke (disorder)","userSelected":true}]},"subject":{"reference":"Patient/0daf2fdb-6abc-4b7c-9417-3972c4813295"},"recordedDate":"2026-10-13T08:00:00Z"},"request":{"method":"PUT","url":"Condition/e24d385e-7e97-4915-a761-e2807adee282"}},{"resource":{"resourceType":"Patient","id":"0daf2fdb-6abc-4b7c-9417-3972c4813295","meta":{"profile":["http://hl7.org/fhir/us/qicore/StructureDefinition/qicore-patient"]},"text":{"status":"generated","div":"<div xmlns=\"http://www.w3.org/1999/xhtml\"><div class=\"hapiHeaderText\">AtrialAblAfterEncStartDateTime <b>DENOMFAIL </b></div><table class=\"hapiPropertyTable\"><tbody><tr><td>Identifier</td><td>0ab8a288462c493a0716bd9a93a37855</td></tr><tr><td>Date of birth</td><td><span>01 December 1960</span></td></tr></tbody></table></div>"},"extension":[{"url":"http://hl7.org/fhir/us/core/StructureDefinition/us-core-race","extension":[{"url":"ombCategory","valueCoding":{"system":"urn:oid:2.16.840.1.113883.6.238","code":"1002-5","display":"American Indian or Alaska Native","userSelected":true}},{"url":"text","valueString":"American Indian or Alaska Native"}]},{"url":"http://hl7.org/fhir/us/core/StructureDefinition/us-core-ethnicity","extension":[{"url":"ombCategory","valueCoding":{"system":"urn:oid:2.16.840.1.113883.6.238","code":"2135-2","display":"Hispanic or Latino","userSelected":true}},{"url":"text","valueString":"Hispanic or Latino"}]}],"identifier":[{"type":{"coding":[{"system":"http://terminology.hl7.org/CodeSystem/v2-0203","code":"MR"}]},"system":"https://bonnie-fhir.healthit.gov/","value":"633c9d040968f8012250fcb3"}],"active":true,"name":[{"use":"usual","family":"DENOMFail","given":["AtrialAblAfterEncStartDateTime"]}],"gender":"male","birthDate":"1961-12-01"},"request":{"method":"PUT","url":"Patient/0daf2fdb-6abc-4b7c-9417-3972c4813295"}},{"resource":{"resourceType":"Claim","id":"5ca62962b8484628b8de1ec5","meta":{"profile":["http://hl7.org/fhir/us/qicore/StructureDefinition/qicore-claim"]},"status":"active","type":{"coding":[{"system":"http://terminology.hl7.org/CodeSystem/claim-type","code":"institutional"}]},"use":"claim","patient":{"reference":"Patient/d170a0a8-b5ad-4303-b6df-e304dd5f92ad"},"created":"2026-12-01","provider":{"reference":"Practitioner/4e3ba2df-3590-4c4e-9abd-21bae8b7936d"},"priority":{"coding":[{"system":"http://terminology.hl7.org/CodeSystem/processpriority","code":"normal"}]},"diagnosis":[{"sequence":1,"diagnosisCodeableConcept":{"coding":[{"system":"http://hl7.org/fhir/sid/icd-10-cm","code":"I63.00"}]},"type":[{"coding":[{"system":"http://terminology.hl7.org/CodeSystem/ex-diagnosistype","code":"principal"}]}]}],"insurance":[{"sequence":1,"focal":true,"coverage":{"reference":"Coverage/5fa041661c76ba66d9959367"}}],"item":[{"sequence":1,"diagnosisSequence":[1],"productOrService":{"coding":[{"system":"http://terminology.hl7.org/CodeSystem/ex-USCLS","code":"99555"}]},"encounter":[{"reference":"Encounter/3a7e3ec4-bb83-48bf-b8c8-f524fe42dbe1"}]}]},"request":{"method":"PUT","url":"Claim/5ca62962b8484628b8de1ec5"}},{"resource":{"resourceType":"Procedure","id":"d5220ddb-708d-4270-bab9-594b67930c74","meta":{"profile":["http://hl7.org/fhir/us/qicore/StructureDefinition/qicore-procedure"]},"extension":[{"url":"http://hl7.org/fhir/us/qicore/StructureDefinition/qicore-recorded","valueDateTime":"2026-11-19T13:35:00Z"}],"status":"completed","code":{"coding":[{"system":"http://www.cms.gov/Medicare/Coding/ICD10","code":"02560ZZ"},{"system":"http://snomed.info/sct","code":"175095005"}]},"subject":{"reference":"Patient/0daf2fdb-6abc-4b7c-9417-3972c4813295"},"performedPeriod":{"start":"2026-02-08T09:00:00Z","end":"2026-02-08T10:00:00.000+00:00"}},"request":{"method":"PUT","url":"Procedure/d5220ddb-708d-4270-bab9-594b67930c74"}}]}