{"resourceType":"Bundle","id":"tests-f0d3eb0e-a93c-4caf-8233-499a105906de-bundle","type":"transaction","entry":[{"fullUrl":"Organization/3a648405-4c0b-4ce2-a1a4-dd5a5b9d39cd","resource":{"resourceType":"Organization","id":"3a648405-4c0b-4ce2-a1a4-dd5a5b9d39cd","meta":{"profile":["http://hl7.org/fhir/us/qicore/StructureDefinition/qicore-organization"]},"identifier":[{"use":"temp","system":"urn:oid:2.16.840.1.113883.4.4","value":"21-3259825"}],"active":true,"type":[{"coding":[{"system":"http://terminology.hl7.org/CodeSystem/organization-type","code":"pay","display":"Payer"}]}],"name":"Blue Cross Blue Shield of Texas","telecom":[{"system":"phone","value":"(+1) 972-766-6900"}],"address":[{"use":"billing","type":"postal","line":["P.O. Box 660044"],"city":"Dallas","state":"TX","postalCode":"75266-0044","country":"USA"}]},"request":{"method":"PUT","url":"Organization/3a648405-4c0b-4ce2-a1a4-dd5a5b9d39cd"}},{"fullUrl":"Procedure/97444739-9df1-4ccc-ba15-bfbd093c3082","resource":{"resourceType":"Procedure","id":"97444739-9df1-4ccc-ba15-bfbd093c3082","meta":{"profile":["http://hl7.org/fhir/us/qicore/StructureDefinition/qicore-procedure"]},"extension":[{"url":"http://hl7.org/fhir/us/qicore/StructureDefinition/qicore-recorded","valueDateTime":"2026-11-19T13:35:00Z"}],"status":"completed","code":{"coding":[{"system":"http://www.cms.gov/Medicare/Coding/ICD10","code":"02560ZZ"},{"system":"http://snomed.info/sct","code":"175095005"}]},"subject":{"reference":"Patient/f0d3eb0e-a93c-4caf-8233-499a105906de"},"performedPeriod":{"start":"2026-11-19T08:00:00Z","end":"2026-11-20T08:15:00.000+00:00"}},"request":{"method":"PUT","url":"Procedure/97444739-9df1-4ccc-ba15-bfbd093c3082"}},{"fullUrl":"Condition/f1ea19d2-8dec-4c6d-b032-2f506afecef7","resource":{"resourceType":"Condition","id":"f1ea19d2-8dec-4c6d-b032-2f506afecef7","meta":{"profile":["http://hl7.org/fhir/us/qicore/StructureDefinition/qicore-condition-problems-health-concerns"]},"clinicalStatus":{"coding":[{"system":"http://terminology.hl7.org/CodeSystem/condition-clinical","code":"active"}]},"verificationStatus":{"coding":[{"system":"http://terminology.hl7.org/CodeSystem/condition-ver-status","code":"confirmed"}]},"category":[{"coding":[{"system":"http://terminology.hl7.org/CodeSystem/condition-category","code":"encounter-diagnosis","display":"Encounter Diagnosis"}]}],"code":{"coding":[{"system":"http://snomed.info/sct","version":"2021-09","code":"111297002","display":"Nonparalytic stroke (disorder)","userSelected":true}]},"subject":{"reference":"Patient/f0d3eb0e-a93c-4caf-8233-499a105906de"},"recordedDate":"2026-10-13T08:00:00Z"},"request":{"method":"PUT","url":"Condition/f1ea19d2-8dec-4c6d-b032-2f506afecef7"}},{"fullUrl":"Encounter/815eab54-3bb3-4d3e-b096-660b1638cdcc","resource":{"resourceType":"Encounter","id":"815eab54-3bb3-4d3e-b096-660b1638cdcc","meta":{"profile":["http://hl7.org/fhir/us/qicore/StructureDefinition/qicore-encounter"]},"status":"finished","class":{"system":"http://terminology.hl7.org/CodeSystem/v3-ActCode","code":"IMP","display":"inpatient encounter"},"type":[{"coding":[{"system":"http://snomed.info/sct","code":"32485007"}]}],"subject":{"reference":"Patient/f0d3eb0e-a93c-4caf-8233-499a105906de"},"period":{"start":"2026-11-20T08:00:00Z","end":"2026-11-24T08:15:00.000+00:00"},"length":{"value":4,"unit":"days"},"hospitalization":{"dischargeDisposition":{"coding":[{"system":"http://snomed.info/sct","code":"428371000124100","display":"Discharged to Health Care Facility for Hospice Care"}]}}},"request":{"method":"PUT","url":"Encounter/815eab54-3bb3-4d3e-b096-660b1638cdcc"}},{"fullUrl":"Practitioner/1891fd35-86d3-4b33-a976-3c3347df2571","resource":{"resourceType":"Practitioner","id":"1891fd35-86d3-4b33-a976-3c3347df2571","meta":{"profile":["http://hl7.org/fhir/us/qicore/StructureDefinition/qicore-practitioner"]},"identifier":[{"system":"http://hl7.org/fhir/sid/us-npi","value":"9999999896"}],"name":[{"family":"Evil","prefix":["Dr"]}]},"request":{"method":"PUT","url":"Practitioner/1891fd35-86d3-4b33-a976-3c3347df2571"}},{"fullUrl":"Coverage/99919bb9-dec4-4743-8e22-70be84727af0","resource":{"resourceType":"Coverage","id":"99919bb9-dec4-4743-8e22-70be84727af0","meta":{"profile":["http://hl7.org/fhir/us/qicore/StructureDefinition/qicore-coverage"]},"status":"active","subscriberId":"523435","beneficiary":{"reference":"Patient/162a5913-9989-42f2-8d6a-ae460e245e4c"},"relationship":{"coding":[{"system":"http://terminology.hl7.org/CodeSystem/subscriber-relationship","code":"self"}]},"payor":[{"reference":"Organization/3a648405-4c0b-4ce2-a1a4-dd5a5b9d39cd"}]},"request":{"method":"PUT","url":"Coverage/99919bb9-dec4-4743-8e22-70be84727af0"}},{"fullUrl":"MeasureReport/2d36fcd8-1b3d-4106-b403-787a6d914526","resource":{"resourceType":"MeasureReport","id":"2d36fcd8-1b3d-4106-b403-787a6d914526","meta":{"profile":["http://hl7.org/fhir/us/cqfmeasures/StructureDefinition/test-case-cqfm"]},"contained":[{"resourceType":"Parameters","id":"bfd6af0c-45bd-4412-b92f-8dba78d52518-parameters","parameter":[{"name":"subject","valueString":"f0d3eb0e-a93c-4caf-8233-499a105906de"}]}],"extension":[{"url":"http://hl7.org/fhir/StructureDefinition/cqf-inputParameters","valueReference":{"reference":"#bfd6af0c-45bd-4412-b92f-8dba78d52518-parameters"}},{"url":"http://hl7.org/fhir/us/cqfmeasures/StructureDefinition/cqfm-testCaseDescription","valueMarkdown":"Discharge to health care facility for hospice.\n"}],"modifierExtension":[{"url":"http://hl7.org/fhir/us/cqfmeasures/StructureDefinition/cqfm-isTestCase","valueBoolean":true}],"status":"complete","type":"individual","measure":"https://madie.cms.gov/Measure/CMS71FHIRSTKAnticoagAFFlutter","period":{"start":"2026-01-01","end":"2026-12-31"},"group":[{"id":"Group_1","population":[{"id":"InitialPopulation_1","code":{"coding":[{"system":"http://terminology.hl7.org/CodeSystem/measure-population","code":"initial-population","display":"Initial Population"}]},"count":1},{"id":"Denominator_1","code":{"coding":[{"system":"http://terminology.hl7.org/CodeSystem/measure-population","code":"denominator","display":"Denominator"}]},"count":1},{"id":"DenominatorExclusion_1","code":{"coding":[{"system":"http://terminology.hl7.org/CodeSystem/measure-population","code":"denominator-exclusion","display":"Denominator Exclusion"}]},"count":1},{"id":"Numerator_1","code":{"coding":[{"system":"http://terminology.hl7.org/CodeSystem/measure-population","code":"numerator","display":"Numerator"}]},"count":0},{"id":"DenominatorException_1","code":{"coding":[{"system":"http://terminology.hl7.org/CodeSystem/measure-population","code":"denominator-exception","display":"Denominator Exception"}]},"count":0}],"measureScore":{"value":0.0}}],"evaluatedResource":[{"reference":"Patient/f0d3eb0e-a93c-4caf-8233-499a105906de"},{"reference":"Encounter/815eab54-3bb3-4d3e-b096-660b1638cdcc"},{"reference":"Claim/5ca62962b8484628b8de1ec5"},{"reference":"Coverage/99919bb9-dec4-4743-8e22-70be84727af0"},{"reference":"Procedure/97444739-9df1-4ccc-ba15-bfbd093c3082"},{"reference":"Condition/f1ea19d2-8dec-4c6d-b032-2f506afecef7"},{"reference":"Organization/3a648405-4c0b-4ce2-a1a4-dd5a5b9d39cd"},{"reference":"Practitioner/1891fd35-86d3-4b33-a976-3c3347df2571"}]},"request":{"method":"PUT","url":"MeasureReport/2d36fcd8-1b3d-4106-b403-787a6d914526"}},{"fullUrl":"Bundle/633c9d020968f8012250fc69","resource":{"resourceType":"Bundle","id":"633c9d020968f8012250fc69","type":"transaction","entry":[{"fullUrl":"https://madie.cms.gov/Patient/f0d3eb0e-a93c-4caf-8233-499a105906de","resource":{"resourceType":"Patient","id":"f0d3eb0e-a93c-4caf-8233-499a105906de","meta":{"profile":["http://hl7.org/fhir/us/qicore/StructureDefinition/qicore-patient"]},"text":{"status":"generated","div":"<div xmlns=\"http://www.w3.org/1999/xhtml\"><div class=\"hapiHeaderText\">DischargeFacilityHospice <b>DENEXPASS </b></div><table class=\"hapiPropertyTable\"><tbody><tr><td>Identifier</td><td>86442f6b546c921f8332256ec26a4c93</td></tr><tr><td>Date of birth</td><td><span>31 July 1969</span></td></tr></tbody></table></div>"},"extension":[{"url":"http://hl7.org/fhir/us/core/StructureDefinition/us-core-race","extension":[{"url":"ombCategory","valueCoding":{"system":"urn:oid:2.16.840.1.113883.6.238","code":"1002-5","display":"American Indian or Alaska Native","userSelected":true}},{"url":"text","valueString":"American Indian or Alaska Native"}]},{"url":"http://hl7.org/fhir/us/core/StructureDefinition/us-core-ethnicity","extension":[{"url":"ombCategory","valueCoding":{"system":"urn:oid:2.16.840.1.113883.6.238","code":"2135-2","display":"Hispanic or Latino","userSelected":true}},{"url":"text","valueString":"Hispanic or Latino"}]}],"identifier":[{"type":{"coding":[{"system":"http://terminology.hl7.org/CodeSystem/v2-0203","code":"MR"}]},"system":"https://bonnie-fhir.healthit.gov/","value":"633c9d020968f8012250fc69"}],"active":true,"name":[{"use":"usual","family":"DENEXPass","given":["DischargeFacilityHospice"]}],"gender":"male","birthDate":"1970-07-31"},"request":{"method":"PUT","url":"Patient/f0d3eb0e-a93c-4caf-8233-499a105906de"}},{"fullUrl":"https://madie.cms.gov/Encounter/815eab54-3bb3-4d3e-b096-660b1638cdcc","resource":{"resourceType":"Encounter","id":"815eab54-3bb3-4d3e-b096-660b1638cdcc","meta":{"profile":["http://hl7.org/fhir/us/qicore/StructureDefinition/qicore-encounter"]},"status":"finished","class":{"system":"http://terminology.hl7.org/CodeSystem/v3-ActCode","code":"IMP","display":"inpatient encounter"},"type":[{"coding":[{"system":"http://snomed.info/sct","code":"32485007"}]}],"subject":{"reference":"Patient/f0d3eb0e-a93c-4caf-8233-499a105906de"},"period":{"start":"2026-11-20T08:00:00Z","end":"2026-11-24T08:15:00.000+00:00"},"length":{"value":4,"unit":"days"},"hospitalization":{"dischargeDisposition":{"coding":[{"system":"http://snomed.info/sct","code":"428371000124100","display":"Discharged to Health Care Facility for Hospice Care"}]}}},"request":{"method":"PUT","url":"Encounter/815eab54-3bb3-4d3e-b096-660b1638cdcc"}},{"fullUrl":"https://madie.cms.gov/claim/5ca62962b8484628b8de1ec5","resource":{"resourceType":"Claim","id":"5ca62962b8484628b8de1ec5","meta":{"profile":["http://hl7.org/fhir/us/qicore/StructureDefinition/qicore-claim"]},"status":"active","type":{"coding":[{"system":"http://terminology.hl7.org/CodeSystem/claim-type","code":"institutional"}]},"use":"claim","patient":{"reference":"Patient/d170a0a8-b5ad-4303-b6df-e304dd5f92ad"},"created":"2026-12-01","provider":{"reference":"Practitioner/1891fd35-86d3-4b33-a976-3c3347df2571"},"priority":{"coding":[{"system":"http://terminology.hl7.org/CodeSystem/processpriority","code":"normal"}]},"diagnosis":[{"sequence":1,"diagnosisCodeableConcept":{"coding":[{"system":"http://hl7.org/fhir/sid/icd-10-cm","code":"I63.00"}]},"type":[{"coding":[{"system":"http://terminology.hl7.org/CodeSystem/ex-diagnosistype","code":"principal"}]}]}],"insurance":[{"sequence":1,"focal":true,"coverage":{"reference":"Coverage/5fa041661c76ba66d9959367"}}],"item":[{"sequence":1,"diagnosisSequence":[1],"productOrService":{"coding":[{"system":"http://terminology.hl7.org/CodeSystem/ex-USCLS","code":"99555"}]},"encounter":[{"reference":"Encounter/815eab54-3bb3-4d3e-b096-660b1638cdcc"}]}]},"request":{"method":"PUT","url":"Claim/5ca62962b8484628b8de1ec5"}},{"fullUrl":"https://madie.cms.gov/Coverage/99919bb9-dec4-4743-8e22-70be84727af0","resource":{"resourceType":"Coverage","id":"99919bb9-dec4-4743-8e22-70be84727af0","meta":{"profile":["http://hl7.org/fhir/us/qicore/StructureDefinition/qicore-coverage"]},"status":"active","subscriberId":"523435","beneficiary":{"reference":"Patient/162a5913-9989-42f2-8d6a-ae460e245e4c"},"relationship":{"coding":[{"system":"http://terminology.hl7.org/CodeSystem/subscriber-relationship","code":"self"}]},"payor":[{"reference":"Organization/3a648405-4c0b-4ce2-a1a4-dd5a5b9d39cd"}]},"request":{"method":"PUT","url":"Coverage/99919bb9-dec4-4743-8e22-70be84727af0"}},{"fullUrl":"https://madie.cms.gov/Procedure/97444739-9df1-4ccc-ba15-bfbd093c3082","resource":{"resourceType":"Procedure","id":"97444739-9df1-4ccc-ba15-bfbd093c3082","meta":{"profile":["http://hl7.org/fhir/us/qicore/StructureDefinition/qicore-procedure"]},"extension":[{"url":"http://hl7.org/fhir/us/qicore/StructureDefinition/qicore-recorded","valueDateTime":"2026-11-19T13:35:00Z"}],"status":"completed","code":{"coding":[{"system":"http://www.cms.gov/Medicare/Coding/ICD10","code":"02560ZZ"},{"system":"http://snomed.info/sct","code":"175095005"}]},"subject":{"reference":"Patient/f0d3eb0e-a93c-4caf-8233-499a105906de"},"performedPeriod":{"start":"2026-11-19T08:00:00Z","end":"2026-11-20T08:15:00.000+00:00"}},"request":{"method":"PUT","url":"Procedure/97444739-9df1-4ccc-ba15-bfbd093c3082"}},{"fullUrl":"https://madie.cms.gov/Condition/f1ea19d2-8dec-4c6d-b032-2f506afecef7","resource":{"resourceType":"Condition","id":"f1ea19d2-8dec-4c6d-b032-2f506afecef7","meta":{"profile":["http://hl7.org/fhir/us/qicore/StructureDefinition/qicore-condition-problems-health-concerns"]},"clinicalStatus":{"coding":[{"system":"http://terminology.hl7.org/CodeSystem/condition-clinical","code":"active"}]},"verificationStatus":{"coding":[{"system":"http://terminology.hl7.org/CodeSystem/condition-ver-status","code":"confirmed"}]},"category":[{"coding":[{"system":"http://terminology.hl7.org/CodeSystem/condition-category","code":"encounter-diagnosis","display":"Encounter Diagnosis"}]}],"code":{"coding":[{"system":"http://snomed.info/sct","version":"2021-09","code":"111297002","display":"Nonparalytic stroke (disorder)","userSelected":true}]},"subject":{"reference":"Patient/f0d3eb0e-a93c-4caf-8233-499a105906de"},"recordedDate":"2026-10-13T08:00:00Z"},"request":{"method":"PUT","url":"Condition/f1ea19d2-8dec-4c6d-b032-2f506afecef7"}},{"fullUrl":"https://madie.cms.gov/Organization/3a648405-4c0b-4ce2-a1a4-dd5a5b9d39cd","resource":{"resourceType":"Organization","id":"3a648405-4c0b-4ce2-a1a4-dd5a5b9d39cd","meta":{"profile":["http://hl7.org/fhir/us/qicore/StructureDefinition/qicore-organization"]},"identifier":[{"use":"temp","system":"urn:oid:2.16.840.1.113883.4.4","value":"21-3259825"}],"active":true,"type":[{"coding":[{"system":"http://terminology.hl7.org/CodeSystem/organization-type","code":"pay","display":"Payer"}]}],"name":"Blue Cross Blue Shield of Texas","telecom":[{"system":"phone","value":"(+1) 972-766-6900"}],"address":[{"use":"billing","type":"postal","line":["P.O. Box 660044"],"city":"Dallas","state":"TX","postalCode":"75266-0044","country":"USA"}]},"request":{"method":"PUT","url":"Organization/3a648405-4c0b-4ce2-a1a4-dd5a5b9d39cd"}},{"fullUrl":"https://madie.cms.gov/Practitioner/1891fd35-86d3-4b33-a976-3c3347df2571","resource":{"resourceType":"Practitioner","id":"1891fd35-86d3-4b33-a976-3c3347df2571","meta":{"profile":["http://hl7.org/fhir/us/qicore/StructureDefinition/qicore-practitioner"]},"identifier":[{"system":"http://hl7.org/fhir/sid/us-npi","value":"9999999896"}],"name":[{"family":"Evil","prefix":["Dr"]}]},"request":{"method":"PUT","url":"Practitioner/1891fd35-86d3-4b33-a976-3c3347df2571"}},{"fullUrl":"https://madie.cms.gov/MeasureReport/2d36fcd8-1b3d-4106-b403-787a6d914526","resource":{"resourceType":"MeasureReport","id":"2d36fcd8-1b3d-4106-b403-787a6d914526","meta":{"profile":["http://hl7.org/fhir/us/cqfmeasures/StructureDefinition/test-case-cqfm"]},"contained":[{"resourceType":"Parameters","id":"bfd6af0c-45bd-4412-b92f-8dba78d52518-parameters","parameter":[{"name":"subject","valueString":"f0d3eb0e-a93c-4caf-8233-499a105906de"}]}],"extension":[{"url":"http://hl7.org/fhir/StructureDefinition/cqf-inputParameters","valueReference":{"reference":"#bfd6af0c-45bd-4412-b92f-8dba78d52518-parameters"}},{"url":"http://hl7.org/fhir/us/cqfmeasures/StructureDefinition/cqfm-testCaseDescription","valueMarkdown":"Discharge to health care facility for hospice.\n"}],"modifierExtension":[{"url":"http://hl7.org/fhir/us/cqfmeasures/StructureDefinition/cqfm-isTestCase","valueBoolean":true}],"status":"complete","type":"individual","measure":"https://madie.cms.gov/Measure/CMS71FHIRSTKAnticoagAFFlutter","period":{"start":"2026-01-01","end":"2026-12-31"},"group":[{"id":"Group_1","population":[{"id":"InitialPopulation_1","code":{"coding":[{"system":"http://terminology.hl7.org/CodeSystem/measure-population","code":"initial-population","display":"Initial Population"}]},"count":1},{"id":"Denominator_1","code":{"coding":[{"system":"http://terminology.hl7.org/CodeSystem/measure-population","code":"denominator","display":"Denominator"}]},"count":1},{"id":"DenominatorExclusion_1","code":{"coding":[{"system":"http://terminology.hl7.org/CodeSystem/measure-population","code":"denominator-exclusion","display":"Denominator Exclusion"}]},"count":1},{"id":"Numerator_1","code":{"coding":[{"system":"http://terminology.hl7.org/CodeSystem/measure-population","code":"numerator","display":"Numerator"}]},"count":0},{"id":"DenominatorException_1","code":{"coding":[{"system":"http://terminology.hl7.org/CodeSystem/measure-population","code":"denominator-exception","display":"Denominator Exception"}]},"count":0}],"measureScore":{"value":0.0}}],"evaluatedResource":[{"reference":"Patient/f0d3eb0e-a93c-4caf-8233-499a105906de"},{"reference":"Encounter/815eab54-3bb3-4d3e-b096-660b1638cdcc"},{"reference":"Claim/5ca62962b8484628b8de1ec5"},{"reference":"Coverage/99919bb9-dec4-4743-8e22-70be84727af0"},{"reference":"Procedure/97444739-9df1-4ccc-ba15-bfbd093c3082"},{"reference":"Condition/f1ea19d2-8dec-4c6d-b032-2f506afecef7"},{"reference":"Organization/3a648405-4c0b-4ce2-a1a4-dd5a5b9d39cd"},{"reference":"Practitioner/1891fd35-86d3-4b33-a976-3c3347df2571"}]},"request":{"method":"PUT","url":"MeasureReport/2d36fcd8-1b3d-4106-b403-787a6d914526"}}]},"request":{"method":"PUT","url":"Bundle/633c9d020968f8012250fc69"}},{"fullUrl":"Patient/f0d3eb0e-a93c-4caf-8233-499a105906de","resource":{"resourceType":"Patient","id":"f0d3eb0e-a93c-4caf-8233-499a105906de","meta":{"profile":["http://hl7.org/fhir/us/qicore/StructureDefinition/qicore-patient"]},"text":{"status":"generated","div":"<div xmlns=\"http://www.w3.org/1999/xhtml\"><div class=\"hapiHeaderText\">DischargeFacilityHospice <b>DENEXPASS </b></div><table class=\"hapiPropertyTable\"><tbody><tr><td>Identifier</td><td>86442f6b546c921f8332256ec26a4c93</td></tr><tr><td>Date of birth</td><td><span>31 July 1969</span></td></tr></tbody></table></div>"},"extension":[{"url":"http://hl7.org/fhir/us/core/StructureDefinition/us-core-race","extension":[{"url":"ombCategory","valueCoding":{"system":"urn:oid:2.16.840.1.113883.6.238","code":"1002-5","display":"American Indian or Alaska Native","userSelected":true}},{"url":"text","valueString":"American Indian or Alaska Native"}]},{"url":"http://hl7.org/fhir/us/core/StructureDefinition/us-core-ethnicity","extension":[{"url":"ombCategory","valueCoding":{"system":"urn:oid:2.16.840.1.113883.6.238","code":"2135-2","display":"Hispanic or Latino","userSelected":true}},{"url":"text","valueString":"Hispanic or Latino"}]}],"identifier":[{"type":{"coding":[{"system":"http://terminology.hl7.org/CodeSystem/v2-0203","code":"MR"}]},"system":"https://bonnie-fhir.healthit.gov/","value":"633c9d020968f8012250fc69"}],"active":true,"name":[{"use":"usual","family":"DENEXPass","given":["DischargeFacilityHospice"]}],"gender":"male","birthDate":"1970-07-31"},"request":{"method":"PUT","url":"Patient/f0d3eb0e-a93c-4caf-8233-499a105906de"}},{"fullUrl":"Claim/5ca62962b8484628b8de1ec5","resource":{"resourceType":"Claim","id":"5ca62962b8484628b8de1ec5","meta":{"profile":["http://hl7.org/fhir/us/qicore/StructureDefinition/qicore-claim"]},"status":"active","type":{"coding":[{"system":"http://terminology.hl7.org/CodeSystem/claim-type","code":"institutional"}]},"use":"claim","patient":{"reference":"Patient/d170a0a8-b5ad-4303-b6df-e304dd5f92ad"},"created":"2026-12-01","provider":{"reference":"Practitioner/1891fd35-86d3-4b33-a976-3c3347df2571"},"priority":{"coding":[{"system":"http://terminology.hl7.org/CodeSystem/processpriority","code":"normal"}]},"diagnosis":[{"sequence":1,"diagnosisCodeableConcept":{"coding":[{"system":"http://hl7.org/fhir/sid/icd-10-cm","code":"I63.00"}]},"type":[{"coding":[{"system":"http://terminology.hl7.org/CodeSystem/ex-diagnosistype","code":"principal"}]}]}],"insurance":[{"sequence":1,"focal":true,"coverage":{"reference":"Coverage/5fa041661c76ba66d9959367"}}],"item":[{"sequence":1,"diagnosisSequence":[1],"productOrService":{"coding":[{"system":"http://terminology.hl7.org/CodeSystem/ex-USCLS","code":"99555"}]},"encounter":[{"reference":"Encounter/815eab54-3bb3-4d3e-b096-660b1638cdcc"}]}]},"request":{"method":"PUT","url":"Claim/5ca62962b8484628b8de1ec5"}}]}