{"resourceType":"Bundle","id":"tests-18912918-19e8-4d17-8160-71849eaede4b-bundle","type":"transaction","entry":[{"fullUrl":"MeasureReport/7e24cd63-e7ac-49e5-99c7-6c0cde350a00","resource":{"resourceType":"MeasureReport","id":"7e24cd63-e7ac-49e5-99c7-6c0cde350a00","meta":{"profile":["http://hl7.org/fhir/us/cqfmeasures/StructureDefinition/test-case-cqfm"]},"contained":[{"resourceType":"Parameters","id":"3420900f-5097-43a4-8ccf-d25df81312d5-parameters","parameter":[{"name":"subject","valueString":"18912918-19e8-4d17-8160-71849eaede4b"}]}],"extension":[{"url":"http://hl7.org/fhir/StructureDefinition/cqf-inputParameters","valueReference":{"reference":"#3420900f-5097-43a4-8ccf-d25df81312d5-parameters"}},{"url":"http://hl7.org/fhir/us/cqfmeasures/StructureDefinition/cqfm-testCaseDescription","valueMarkdown":"Principal diagnosis not in value set\n"}],"modifierExtension":[{"url":"http://hl7.org/fhir/us/cqfmeasures/StructureDefinition/cqfm-isTestCase","valueBoolean":true}],"status":"complete","type":"individual","measure":"https://madie.cms.gov/Measure/CMS71FHIRSTKAnticoagAFFlutter","period":{"start":"2026-01-01","end":"2026-12-31"},"group":[{"id":"Group_1","population":[{"id":"InitialPopulation_1","code":{"coding":[{"system":"http://terminology.hl7.org/CodeSystem/measure-population","code":"initial-population","display":"Initial Population"}]},"count":0},{"id":"Denominator_1","code":{"coding":[{"system":"http://terminology.hl7.org/CodeSystem/measure-population","code":"denominator","display":"Denominator"}]},"count":0},{"id":"DenominatorExclusion_1","code":{"coding":[{"system":"http://terminology.hl7.org/CodeSystem/measure-population","code":"denominator-exclusion","display":"Denominator Exclusion"}]},"count":0},{"id":"Numerator_1","code":{"coding":[{"system":"http://terminology.hl7.org/CodeSystem/measure-population","code":"numerator","display":"Numerator"}]},"count":0},{"id":"DenominatorException_1","code":{"coding":[{"system":"http://terminology.hl7.org/CodeSystem/measure-population","code":"denominator-exception","display":"Denominator Exception"}]},"count":0}],"measureScore":{"value":0.0}}],"evaluatedResource":[{"reference":"Patient/18912918-19e8-4d17-8160-71849eaede4b"},{"reference":"Encounter/db80c394-58ba-4071-95fa-a7d850d4f8cc"},{"reference":"Claim/5ca62962b8484628b8de1ec5"},{"reference":"Coverage/51da155e-e606-4b3d-ac03-f3124bb1e5cd"},{"reference":"Condition/29a6a463-e217-4382-ad68-debea1206ebc"},{"reference":"Organization/eea17acc-3333-48af-90c3-ded75df35064"},{"reference":"Practitioner/e4b69dfd-c341-4489-96b9-9a2023f5d14b"}]},"request":{"method":"PUT","url":"MeasureReport/7e24cd63-e7ac-49e5-99c7-6c0cde350a00"}},{"fullUrl":"Organization/eea17acc-3333-48af-90c3-ded75df35064","resource":{"resourceType":"Organization","id":"eea17acc-3333-48af-90c3-ded75df35064","meta":{"profile":["http://hl7.org/fhir/us/qicore/StructureDefinition/qicore-organization"]},"identifier":[{"use":"temp","system":"urn:oid:2.16.840.1.113883.4.4","value":"21-3259825"}],"active":true,"type":[{"coding":[{"system":"http://terminology.hl7.org/CodeSystem/organization-type","code":"pay","display":"Payer"}]}],"name":"Blue Cross Blue Shield of Texas","telecom":[{"system":"phone","value":"(+1) 972-766-6900"}],"address":[{"use":"billing","type":"postal","line":["P.O. Box 660044"],"city":"Dallas","state":"TX","postalCode":"75266-0044","country":"USA"}]},"request":{"method":"PUT","url":"Organization/eea17acc-3333-48af-90c3-ded75df35064"}},{"fullUrl":"Practitioner/e4b69dfd-c341-4489-96b9-9a2023f5d14b","resource":{"resourceType":"Practitioner","id":"e4b69dfd-c341-4489-96b9-9a2023f5d14b","meta":{"profile":["http://hl7.org/fhir/us/qicore/StructureDefinition/qicore-practitioner"]},"identifier":[{"system":"http://hl7.org/fhir/sid/us-npi","value":"9999999896"}],"name":[{"family":"Evil","prefix":["Dr"]}]},"request":{"method":"PUT","url":"Practitioner/e4b69dfd-c341-4489-96b9-9a2023f5d14b"}},{"fullUrl":"Encounter/db80c394-58ba-4071-95fa-a7d850d4f8cc","resource":{"resourceType":"Encounter","id":"db80c394-58ba-4071-95fa-a7d850d4f8cc","meta":{"profile":["http://hl7.org/fhir/us/qicore/StructureDefinition/qicore-encounter"]},"status":"finished","class":{"system":"http://terminology.hl7.org/CodeSystem/v3-ActCode","code":"IMP","display":"inpatient encounter"},"type":[{"coding":[{"system":"http://snomed.info/sct","code":"32485007"}]}],"subject":{"reference":"Patient/18912918-19e8-4d17-8160-71849eaede4b"},"period":{"start":"2026-02-08T08:00:00Z","end":"2026-02-10T08:15:00.000+00:00"},"length":{"value":2,"unit":"days"},"reasonReference":[{"reference":"Condition/29a6a463-e217-4382-ad68-debea1206ebc"}]},"request":{"method":"PUT","url":"Encounter/db80c394-58ba-4071-95fa-a7d850d4f8cc"}},{"fullUrl":"Bundle/633c9d040968f8012250fcab","resource":{"resourceType":"Bundle","id":"633c9d040968f8012250fcab","type":"transaction","entry":[{"fullUrl":"https://madie.cms.gov/Patient/18912918-19e8-4d17-8160-71849eaede4b","resource":{"resourceType":"Patient","id":"18912918-19e8-4d17-8160-71849eaede4b","meta":{"profile":["http://hl7.org/fhir/us/qicore/StructureDefinition/qicore-patient"]},"text":{"status":"generated","div":"<div xmlns=\"http://www.w3.org/1999/xhtml\"><div class=\"hapiHeaderText\">EncPrinDx=Afib/Flutter Rank2 <b>IPPFAIL </b></div><table class=\"hapiPropertyTable\"><tbody><tr><td>Identifier</td><td>2038d8a42effee0cae92f8c6fde4ebe8</td></tr><tr><td>Date of birth</td><td><span>01 December 1960</span></td></tr></tbody></table></div>"},"extension":[{"url":"http://hl7.org/fhir/us/core/StructureDefinition/us-core-race","extension":[{"url":"ombCategory","valueCoding":{"system":"urn:oid:2.16.840.1.113883.6.238","code":"1002-5","display":"American Indian or Alaska Native","userSelected":true}},{"url":"text","valueString":"American Indian or Alaska Native"}]},{"url":"http://hl7.org/fhir/us/core/StructureDefinition/us-core-ethnicity","extension":[{"url":"ombCategory","valueCoding":{"system":"urn:oid:2.16.840.1.113883.6.238","code":"2135-2","display":"Hispanic or Latino","userSelected":true}},{"url":"text","valueString":"Hispanic or Latino"}]}],"identifier":[{"type":{"coding":[{"system":"http://terminology.hl7.org/CodeSystem/v2-0203","code":"MR"}]},"system":"https://bonnie-fhir.healthit.gov/","value":"633c9d040968f8012250fcab"}],"active":true,"name":[{"use":"usual","family":"IPPFail ","given":["EncPrinDxEQAfibOrFlutter"]}],"gender":"male","birthDate":"1961-12-01"},"request":{"method":"PUT","url":"Patient/18912918-19e8-4d17-8160-71849eaede4b"}},{"fullUrl":"https://madie.cms.gov/Encounter/db80c394-58ba-4071-95fa-a7d850d4f8cc","resource":{"resourceType":"Encounter","id":"db80c394-58ba-4071-95fa-a7d850d4f8cc","meta":{"profile":["http://hl7.org/fhir/us/qicore/StructureDefinition/qicore-encounter"]},"status":"finished","class":{"system":"http://terminology.hl7.org/CodeSystem/v3-ActCode","code":"IMP","display":"inpatient encounter"},"type":[{"coding":[{"system":"http://snomed.info/sct","code":"32485007"}]}],"subject":{"reference":"Patient/18912918-19e8-4d17-8160-71849eaede4b"},"period":{"start":"2026-02-08T08:00:00Z","end":"2026-02-10T08:15:00.000+00:00"},"length":{"value":2,"unit":"days"},"reasonReference":[{"reference":"Condition/29a6a463-e217-4382-ad68-debea1206ebc"}]},"request":{"method":"PUT","url":"Encounter/db80c394-58ba-4071-95fa-a7d850d4f8cc"}},{"fullUrl":"https://madie.cms.gov/claim/5ca62962b8484628b8de1ec5","resource":{"resourceType":"Claim","id":"5ca62962b8484628b8de1ec5","meta":{"profile":["http://hl7.org/fhir/us/qicore/StructureDefinition/qicore-claim"]},"status":"active","type":{"coding":[{"system":"http://terminology.hl7.org/CodeSystem/claim-type","code":"institutional"}]},"use":"claim","patient":{"reference":"Patient/d170a0a8-b5ad-4303-b6df-e304dd5f92ad"},"created":"2026-12-01","provider":{"reference":"Practitioner/e4b69dfd-c341-4489-96b9-9a2023f5d14b"},"priority":{"coding":[{"system":"http://terminology.hl7.org/CodeSystem/processpriority","code":"normal"}]},"diagnosis":[{"sequence":1,"diagnosisCodeableConcept":{"coding":[{"system":"http://hl7.org/fhir/sid/icd-10-cm","code":"i48.0"}]},"type":[{"coding":[{"system":"http://terminology.hl7.org/CodeSystem/ex-diagnosistype","code":"principal"}]}]}],"insurance":[{"sequence":1,"focal":true,"coverage":{"reference":"Coverage/5fa041661c76ba66d9959367"}}],"item":[{"sequence":1,"diagnosisSequence":[1],"productOrService":{"coding":[{"system":"http://terminology.hl7.org/CodeSystem/ex-USCLS","code":"99555"}]},"encounter":[{"reference":"Encounter/db80c394-58ba-4071-95fa-a7d850d4f8cc"}]}]},"request":{"method":"PUT","url":"Claim/5ca62962b8484628b8de1ec5"}},{"fullUrl":"https://madie.cms.gov/Coverage/51da155e-e606-4b3d-ac03-f3124bb1e5cd","resource":{"resourceType":"Coverage","id":"51da155e-e606-4b3d-ac03-f3124bb1e5cd","meta":{"profile":["http://hl7.org/fhir/us/qicore/StructureDefinition/qicore-coverage"]},"status":"active","subscriberId":"523435","beneficiary":{"reference":"Patient/162a5913-9989-42f2-8d6a-ae460e245e4c"},"relationship":{"coding":[{"system":"http://terminology.hl7.org/CodeSystem/subscriber-relationship","code":"self"}]},"payor":[{"reference":"Organization/eea17acc-3333-48af-90c3-ded75df35064"}]},"request":{"method":"PUT","url":"Coverage/51da155e-e606-4b3d-ac03-f3124bb1e5cd"}},{"fullUrl":"https://madie.cms.gov/Condition/29a6a463-e217-4382-ad68-debea1206ebc","resource":{"resourceType":"Condition","id":"29a6a463-e217-4382-ad68-debea1206ebc","meta":{"profile":["http://hl7.org/fhir/us/qicore/StructureDefinition/qicore-condition-problems-health-concerns"]},"clinicalStatus":{"coding":[{"system":"http://terminology.hl7.org/CodeSystem/condition-clinical","code":"active"}]},"verificationStatus":{"coding":[{"system":"http://terminology.hl7.org/CodeSystem/condition-ver-status","code":"confirmed"}]},"category":[{"coding":[{"system":"http://terminology.hl7.org/CodeSystem/condition-category","code":"encounter-diagnosis","display":"Encounter Diagnosis"}]}],"code":{"coding":[{"system":"http://snomed.info/sct","version":"2021-09","code":"120041000119109","display":"Atrial fibrillation with rapid ventricular response (disorder)","userSelected":true}]},"subject":{"reference":"Patient/18912918-19e8-4d17-8160-71849eaede4b"},"recordedDate":"2026-10-13T08:00:00Z"},"request":{"method":"PUT","url":"Condition/29a6a463-e217-4382-ad68-debea1206ebc"}},{"fullUrl":"https://madie.cms.gov/Organization/eea17acc-3333-48af-90c3-ded75df35064","resource":{"resourceType":"Organization","id":"eea17acc-3333-48af-90c3-ded75df35064","meta":{"profile":["http://hl7.org/fhir/us/qicore/StructureDefinition/qicore-organization"]},"identifier":[{"use":"temp","system":"urn:oid:2.16.840.1.113883.4.4","value":"21-3259825"}],"active":true,"type":[{"coding":[{"system":"http://terminology.hl7.org/CodeSystem/organization-type","code":"pay","display":"Payer"}]}],"name":"Blue Cross Blue Shield of Texas","telecom":[{"system":"phone","value":"(+1) 972-766-6900"}],"address":[{"use":"billing","type":"postal","line":["P.O. Box 660044"],"city":"Dallas","state":"TX","postalCode":"75266-0044","country":"USA"}]},"request":{"method":"PUT","url":"Organization/eea17acc-3333-48af-90c3-ded75df35064"}},{"fullUrl":"https://madie.cms.gov/Practitioner/e4b69dfd-c341-4489-96b9-9a2023f5d14b","resource":{"resourceType":"Practitioner","id":"e4b69dfd-c341-4489-96b9-9a2023f5d14b","meta":{"profile":["http://hl7.org/fhir/us/qicore/StructureDefinition/qicore-practitioner"]},"identifier":[{"system":"http://hl7.org/fhir/sid/us-npi","value":"9999999896"}],"name":[{"family":"Evil","prefix":["Dr"]}]},"request":{"method":"PUT","url":"Practitioner/e4b69dfd-c341-4489-96b9-9a2023f5d14b"}},{"fullUrl":"https://madie.cms.gov/MeasureReport/7e24cd63-e7ac-49e5-99c7-6c0cde350a00","resource":{"resourceType":"MeasureReport","id":"7e24cd63-e7ac-49e5-99c7-6c0cde350a00","meta":{"profile":["http://hl7.org/fhir/us/cqfmeasures/StructureDefinition/test-case-cqfm"]},"contained":[{"resourceType":"Parameters","id":"3420900f-5097-43a4-8ccf-d25df81312d5-parameters","parameter":[{"name":"subject","valueString":"18912918-19e8-4d17-8160-71849eaede4b"}]}],"extension":[{"url":"http://hl7.org/fhir/StructureDefinition/cqf-inputParameters","valueReference":{"reference":"#3420900f-5097-43a4-8ccf-d25df81312d5-parameters"}},{"url":"http://hl7.org/fhir/us/cqfmeasures/StructureDefinition/cqfm-testCaseDescription","valueMarkdown":"Principal diagnosis not in value set\n"}],"modifierExtension":[{"url":"http://hl7.org/fhir/us/cqfmeasures/StructureDefinition/cqfm-isTestCase","valueBoolean":true}],"status":"complete","type":"individual","measure":"https://madie.cms.gov/Measure/CMS71FHIRSTKAnticoagAFFlutter","period":{"start":"2026-01-01","end":"2026-12-31"},"group":[{"id":"Group_1","population":[{"id":"InitialPopulation_1","code":{"coding":[{"system":"http://terminology.hl7.org/CodeSystem/measure-population","code":"initial-population","display":"Initial Population"}]},"count":0},{"id":"Denominator_1","code":{"coding":[{"system":"http://terminology.hl7.org/CodeSystem/measure-population","code":"denominator","display":"Denominator"}]},"count":0},{"id":"DenominatorExclusion_1","code":{"coding":[{"system":"http://terminology.hl7.org/CodeSystem/measure-population","code":"denominator-exclusion","display":"Denominator Exclusion"}]},"count":0},{"id":"Numerator_1","code":{"coding":[{"system":"http://terminology.hl7.org/CodeSystem/measure-population","code":"numerator","display":"Numerator"}]},"count":0},{"id":"DenominatorException_1","code":{"coding":[{"system":"http://terminology.hl7.org/CodeSystem/measure-population","code":"denominator-exception","display":"Denominator Exception"}]},"count":0}],"measureScore":{"value":0.0}}],"evaluatedResource":[{"reference":"Patient/18912918-19e8-4d17-8160-71849eaede4b"},{"reference":"Encounter/db80c394-58ba-4071-95fa-a7d850d4f8cc"},{"reference":"Claim/5ca62962b8484628b8de1ec5"},{"reference":"Coverage/51da155e-e606-4b3d-ac03-f3124bb1e5cd"},{"reference":"Condition/29a6a463-e217-4382-ad68-debea1206ebc"},{"reference":"Organization/eea17acc-3333-48af-90c3-ded75df35064"},{"reference":"Practitioner/e4b69dfd-c341-4489-96b9-9a2023f5d14b"}]},"request":{"method":"PUT","url":"MeasureReport/7e24cd63-e7ac-49e5-99c7-6c0cde350a00"}}]},"request":{"method":"PUT","url":"Bundle/633c9d040968f8012250fcab"}},{"fullUrl":"Patient/18912918-19e8-4d17-8160-71849eaede4b","resource":{"resourceType":"Patient","id":"18912918-19e8-4d17-8160-71849eaede4b","meta":{"profile":["http://hl7.org/fhir/us/qicore/StructureDefinition/qicore-patient"]},"text":{"status":"generated","div":"<div xmlns=\"http://www.w3.org/1999/xhtml\"><div class=\"hapiHeaderText\">EncPrinDx=Afib/Flutter Rank2 <b>IPPFAIL </b></div><table class=\"hapiPropertyTable\"><tbody><tr><td>Identifier</td><td>2038d8a42effee0cae92f8c6fde4ebe8</td></tr><tr><td>Date of birth</td><td><span>01 December 1960</span></td></tr></tbody></table></div>"},"extension":[{"url":"http://hl7.org/fhir/us/core/StructureDefinition/us-core-race","extension":[{"url":"ombCategory","valueCoding":{"system":"urn:oid:2.16.840.1.113883.6.238","code":"1002-5","display":"American Indian or Alaska Native","userSelected":true}},{"url":"text","valueString":"American Indian or Alaska Native"}]},{"url":"http://hl7.org/fhir/us/core/StructureDefinition/us-core-ethnicity","extension":[{"url":"ombCategory","valueCoding":{"system":"urn:oid:2.16.840.1.113883.6.238","code":"2135-2","display":"Hispanic or Latino","userSelected":true}},{"url":"text","valueString":"Hispanic or Latino"}]}],"identifier":[{"type":{"coding":[{"system":"http://terminology.hl7.org/CodeSystem/v2-0203","code":"MR"}]},"system":"https://bonnie-fhir.healthit.gov/","value":"633c9d040968f8012250fcab"}],"active":true,"name":[{"use":"usual","family":"IPPFail ","given":["EncPrinDxEQAfibOrFlutter"]}],"gender":"male","birthDate":"1961-12-01"},"request":{"method":"PUT","url":"Patient/18912918-19e8-4d17-8160-71849eaede4b"}},{"fullUrl":"Claim/5ca62962b8484628b8de1ec5","resource":{"resourceType":"Claim","id":"5ca62962b8484628b8de1ec5","meta":{"profile":["http://hl7.org/fhir/us/qicore/StructureDefinition/qicore-claim"]},"status":"active","type":{"coding":[{"system":"http://terminology.hl7.org/CodeSystem/claim-type","code":"institutional"}]},"use":"claim","patient":{"reference":"Patient/d170a0a8-b5ad-4303-b6df-e304dd5f92ad"},"created":"2026-12-01","provider":{"reference":"Practitioner/e4b69dfd-c341-4489-96b9-9a2023f5d14b"},"priority":{"coding":[{"system":"http://terminology.hl7.org/CodeSystem/processpriority","code":"normal"}]},"diagnosis":[{"sequence":1,"diagnosisCodeableConcept":{"coding":[{"system":"http://hl7.org/fhir/sid/icd-10-cm","code":"i48.0"}]},"type":[{"coding":[{"system":"http://terminology.hl7.org/CodeSystem/ex-diagnosistype","code":"principal"}]}]}],"insurance":[{"sequence":1,"focal":true,"coverage":{"reference":"Coverage/5fa041661c76ba66d9959367"}}],"item":[{"sequence":1,"diagnosisSequence":[1],"productOrService":{"coding":[{"system":"http://terminology.hl7.org/CodeSystem/ex-USCLS","code":"99555"}]},"encounter":[{"reference":"Encounter/db80c394-58ba-4071-95fa-a7d850d4f8cc"}]}]},"request":{"method":"PUT","url":"Claim/5ca62962b8484628b8de1ec5"}},{"fullUrl":"Condition/29a6a463-e217-4382-ad68-debea1206ebc","resource":{"resourceType":"Condition","id":"29a6a463-e217-4382-ad68-debea1206ebc","meta":{"profile":["http://hl7.org/fhir/us/qicore/StructureDefinition/qicore-condition-problems-health-concerns"]},"clinicalStatus":{"coding":[{"system":"http://terminology.hl7.org/CodeSystem/condition-clinical","code":"active"}]},"verificationStatus":{"coding":[{"system":"http://terminology.hl7.org/CodeSystem/condition-ver-status","code":"confirmed"}]},"category":[{"coding":[{"system":"http://terminology.hl7.org/CodeSystem/condition-category","code":"encounter-diagnosis","display":"Encounter Diagnosis"}]}],"code":{"coding":[{"system":"http://snomed.info/sct","version":"2021-09","code":"120041000119109","display":"Atrial fibrillation with rapid ventricular response (disorder)","userSelected":true}]},"subject":{"reference":"Patient/18912918-19e8-4d17-8160-71849eaede4b"},"recordedDate":"2026-10-13T08:00:00Z"},"request":{"method":"PUT","url":"Condition/29a6a463-e217-4382-ad68-debea1206ebc"}},{"fullUrl":"Coverage/51da155e-e606-4b3d-ac03-f3124bb1e5cd","resource":{"resourceType":"Coverage","id":"51da155e-e606-4b3d-ac03-f3124bb1e5cd","meta":{"profile":["http://hl7.org/fhir/us/qicore/StructureDefinition/qicore-coverage"]},"status":"active","subscriberId":"523435","beneficiary":{"reference":"Patient/162a5913-9989-42f2-8d6a-ae460e245e4c"},"relationship":{"coding":[{"system":"http://terminology.hl7.org/CodeSystem/subscriber-relationship","code":"self"}]},"payor":[{"reference":"Organization/eea17acc-3333-48af-90c3-ded75df35064"}]},"request":{"method":"PUT","url":"Coverage/51da155e-e606-4b3d-ac03-f3124bb1e5cd"}}]}