{"resourceType":"Bundle","id":"tests-dbe7efdb-fd75-4da4-a998-ae7e04051bd1-bundle","type":"transaction","entry":[{"resource":{"resourceType":"Condition","id":"3a4fcfed-6628-48aa-93fb-ae390834e843","meta":{"profile":["http://hl7.org/fhir/us/qicore/StructureDefinition/qicore-condition-problems-health-concerns"]},"clinicalStatus":{"coding":[{"system":"http://terminology.hl7.org/CodeSystem/condition-clinical","code":"active"}]},"verificationStatus":{"coding":[{"system":"http://terminology.hl7.org/CodeSystem/condition-ver-status","code":"confirmed"}]},"category":[{"coding":[{"system":"http://terminology.hl7.org/CodeSystem/condition-category","code":"encounter-diagnosis","display":"Encounter Diagnosis"}]}],"code":{"coding":[{"system":"http://snomed.info/sct","version":"2021-09","code":"111297002","display":"Nonparalytic stroke (disorder)","userSelected":true}]},"subject":{"reference":"Patient/dbe7efdb-fd75-4da4-a998-ae7e04051bd1"},"recordedDate":"2026-10-13T08:00:00Z"},"request":{"method":"PUT","url":"Condition/3a4fcfed-6628-48aa-93fb-ae390834e843"}},{"resource":{"resourceType":"Patient","id":"dbe7efdb-fd75-4da4-a998-ae7e04051bd1","meta":{"profile":["http://hl7.org/fhir/us/qicore/StructureDefinition/qicore-patient"]},"text":{"status":"generated","div":"<div xmlns=\"http://www.w3.org/1999/xhtml\"><div class=\"hapiHeaderText\">CMOdurED_ED=1hrNoObsBFEnc <b>DENEXPASS </b></div><table class=\"hapiPropertyTable\"><tbody><tr><td>Identifier</td><td>670854918483ca8b7894283bd5cddbcf5037c5392991b8777bf3c4f78ed05f0b</td></tr><tr><td>Date of birth</td><td><span>18 September 1985</span></td></tr></tbody></table></div>"},"extension":[{"url":"http://hl7.org/fhir/us/core/StructureDefinition/us-core-race","extension":[{"url":"ombCategory","valueCoding":{"system":"urn:oid:2.16.840.1.113883.6.238","code":"1002-5","display":"American Indian or Alaska Native","userSelected":true}},{"url":"text","valueString":"American Indian or Alaska Native"}]},{"url":"http://hl7.org/fhir/us/core/StructureDefinition/us-core-ethnicity","extension":[{"url":"ombCategory","valueCoding":{"system":"urn:oid:2.16.840.1.113883.6.238","code":"2135-2","display":"Hispanic or Latino","userSelected":true}},{"url":"text","valueString":"Hispanic or Latino"}]}],"identifier":[{"type":{"coding":[{"system":"http://terminology.hl7.org/CodeSystem/v2-0203","code":"MR"}]},"system":"https://bonnie-fhir.healthit.gov/","value":"633c9d040968f8012250fca3"}],"active":true,"name":[{"use":"usual","family":"DENEXPass","given":["CMOdurED_ED=1hrNoObsBFEnc"]}],"gender":"female","birthDate":"1986-09-18"},"request":{"method":"PUT","url":"Patient/dbe7efdb-fd75-4da4-a998-ae7e04051bd1"}},{"resource":{"resourceType":"Organization","id":"d29a3987-65e3-4015-af74-9bce622fe654","meta":{"profile":["http://hl7.org/fhir/us/qicore/StructureDefinition/qicore-organization"]},"identifier":[{"use":"temp","system":"urn:oid:2.16.840.1.113883.4.4","value":"21-3259825"}],"active":true,"type":[{"coding":[{"system":"http://terminology.hl7.org/CodeSystem/organization-type","code":"pay","display":"Payer"}]}],"name":"Blue Cross Blue Shield of Texas","telecom":[{"system":"phone","value":"(+1) 972-766-6900"}],"address":[{"use":"billing","type":"postal","line":["P.O. Box 660044"],"city":"Dallas","state":"TX","postalCode":"75266-0044","country":"USA"}]},"request":{"method":"PUT","url":"Organization/d29a3987-65e3-4015-af74-9bce622fe654"}},{"resource":{"resourceType":"ServiceRequest","id":"75c48a87-190c-41cd-8dd1-c645d81270a5","meta":{"profile":["http://hl7.org/fhir/us/qicore/StructureDefinition/qicore-servicerequest"]},"status":"active","intent":"order","doNotPerform":true,"code":{"coding":[{"system":"http://snomed.info/sct","code":"133918004"}]},"subject":{"reference":"Patient/dbe7efdb-fd75-4da4-a998-ae7e04051bd1"},"authoredOn":"2026-10-01T09:15:00Z"},"request":{"method":"PUT","url":"ServiceRequest/75c48a87-190c-41cd-8dd1-c645d81270a5"}},{"resource":{"resourceType":"Encounter","id":"0b163f4e-09ef-4b09-8148-03df310cc4bc","meta":{"profile":["http://hl7.org/fhir/us/qicore/StructureDefinition/qicore-encounter"]},"status":"finished","class":{"system":"http://terminology.hl7.org/CodeSystem/v3-ActCode","code":"EMER","display":"emergency"},"type":[{"coding":[{"system":"http://snomed.info/sct","code":"4525004"}]}],"subject":{"reference":"Patient/dbe7efdb-fd75-4da4-a998-ae7e04051bd1"},"period":{"start":"2026-10-01T09:01:00Z","end":"2026-10-01T12:15:00.000+00:00"},"length":{"value":0,"unit":"days"}},"request":{"method":"PUT","url":"Encounter/0b163f4e-09ef-4b09-8148-03df310cc4bc"}},{"resource":{"resourceType":"Bundle","id":"633c9d040968f8012250fca3","type":"transaction","entry":[{"fullUrl":"https://madie.cms.gov/Patient/dbe7efdb-fd75-4da4-a998-ae7e04051bd1","resource":{"resourceType":"Patient","id":"dbe7efdb-fd75-4da4-a998-ae7e04051bd1","meta":{"profile":["http://hl7.org/fhir/us/qicore/StructureDefinition/qicore-patient"]},"text":{"status":"generated","div":"<div xmlns=\"http://www.w3.org/1999/xhtml\"><div class=\"hapiHeaderText\">CMOdurED_ED=1hrNoObsBFEnc <b>DENEXPASS </b></div><table class=\"hapiPropertyTable\"><tbody><tr><td>Identifier</td><td>670854918483ca8b7894283bd5cddbcf5037c5392991b8777bf3c4f78ed05f0b</td></tr><tr><td>Date of birth</td><td><span>18 September 1985</span></td></tr></tbody></table></div>"},"extension":[{"url":"http://hl7.org/fhir/us/core/StructureDefinition/us-core-race","extension":[{"url":"ombCategory","valueCoding":{"system":"urn:oid:2.16.840.1.113883.6.238","code":"1002-5","display":"American Indian or Alaska Native","userSelected":true}},{"url":"text","valueString":"American Indian or Alaska Native"}]},{"url":"http://hl7.org/fhir/us/core/StructureDefinition/us-core-ethnicity","extension":[{"url":"ombCategory","valueCoding":{"system":"urn:oid:2.16.840.1.113883.6.238","code":"2135-2","display":"Hispanic or Latino","userSelected":true}},{"url":"text","valueString":"Hispanic or Latino"}]}],"identifier":[{"type":{"coding":[{"system":"http://terminology.hl7.org/CodeSystem/v2-0203","code":"MR"}]},"system":"https://bonnie-fhir.healthit.gov/","value":"633c9d040968f8012250fca3"}],"active":true,"name":[{"use":"usual","family":"DENEXPass","given":["CMOdurED_ED=1hrNoObsBFEnc"]}],"gender":"female","birthDate":"1986-09-18"},"request":{"method":"PUT","url":"Patient/dbe7efdb-fd75-4da4-a998-ae7e04051bd1"}},{"fullUrl":"https://madie.cms.gov/Condition/1ec8c93d-a04d-4824-842d-9d68a948c6bd","resource":{"resourceType":"Condition","id":"1ec8c93d-a04d-4824-842d-9d68a948c6bd","meta":{"profile":["http://hl7.org/fhir/us/qicore/StructureDefinition/qicore-condition-problems-health-concerns"]},"clinicalStatus":{"coding":[{"system":"http://terminology.hl7.org/CodeSystem/condition-clinical","code":"inactive"}]},"verificationStatus":{"coding":[{"system":"http://terminology.hl7.org/CodeSystem/condition-ver-status","code":"confirmed"}]},"category":[{"coding":[{"system":"http://terminology.hl7.org/CodeSystem/condition-category","code":"encounter-diagnosis","display":"Encounter Diagnosis"}]}],"code":{"coding":[{"system":"http://hl7.org/fhir/sid/icd-10-cm","code":"I48.20"},{"system":"http://hl7.org/fhir/sid/icd-10-cm","code":"I48.0"},{"system":"http://snomed.info/sct","code":"5370000"}]},"subject":{"reference":"Patient/dbe7efdb-fd75-4da4-a998-ae7e04051bd1"},"onsetDateTime":"2026-10-01T09:01:00Z","abatementDateTime":"2026-10-12T00:15:00.000+00:00"},"request":{"method":"PUT","url":"Condition/1ec8c93d-a04d-4824-842d-9d68a948c6bd"}},{"fullUrl":"https://madie.cms.gov/Encounter/0b163f4e-09ef-4b09-8148-03df310cc4bc","resource":{"resourceType":"Encounter","id":"0b163f4e-09ef-4b09-8148-03df310cc4bc","meta":{"profile":["http://hl7.org/fhir/us/qicore/StructureDefinition/qicore-encounter"]},"status":"finished","class":{"system":"http://terminology.hl7.org/CodeSystem/v3-ActCode","code":"EMER","display":"emergency"},"type":[{"coding":[{"system":"http://snomed.info/sct","code":"4525004"}]}],"subject":{"reference":"Patient/dbe7efdb-fd75-4da4-a998-ae7e04051bd1"},"period":{"start":"2026-10-01T09:01:00Z","end":"2026-10-01T12:15:00.000+00:00"},"length":{"value":0,"unit":"days"}},"request":{"method":"PUT","url":"Encounter/0b163f4e-09ef-4b09-8148-03df310cc4bc"}},{"fullUrl":"https://madie.cms.gov/Encounter/b45ae9b1-c57f-43eb-ace3-8b9aed0d6e4a","resource":{"resourceType":"Encounter","id":"b45ae9b1-c57f-43eb-ace3-8b9aed0d6e4a","meta":{"profile":["http://hl7.org/fhir/us/qicore/StructureDefinition/qicore-encounter"]},"status":"finished","class":{"system":"http://terminology.hl7.org/CodeSystem/v3-ActCode","code":"IMP","display":"inpatient encounter"},"type":[{"coding":[{"system":"http://snomed.info/sct","code":"32485007"}]}],"subject":{"reference":"Patient/dbe7efdb-fd75-4da4-a998-ae7e04051bd1"},"period":{"start":"2026-10-01T13:15:00Z","end":"2026-10-12T00:15:00.000+00:00"},"length":{"value":11,"unit":"days"},"reasonReference":[{"reference":"Condition/1ec8c93d-a04d-4824-842d-9d68a948c6bd"}]},"request":{"method":"PUT","url":"Encounter/b45ae9b1-c57f-43eb-ace3-8b9aed0d6e4a"}},{"fullUrl":"https://madie.cms.gov/claim/5ca62962b8484628b8de1ec5","resource":{"resourceType":"Claim","id":"5ca62962b8484628b8de1ec5","meta":{"profile":["http://hl7.org/fhir/us/qicore/StructureDefinition/qicore-claim"]},"status":"active","type":{"coding":[{"system":"http://terminology.hl7.org/CodeSystem/claim-type","code":"institutional"}]},"use":"claim","patient":{"reference":"Patient/d170a0a8-b5ad-4303-b6df-e304dd5f92ad"},"created":"2026-12-01","provider":{"reference":"Practitioner/8576aab0-e276-40a6-952a-6cf7243d4590"},"priority":{"coding":[{"system":"http://terminology.hl7.org/CodeSystem/processpriority","code":"normal"}]},"diagnosis":[{"sequence":1,"diagnosisCodeableConcept":{"coding":[{"system":"http://hl7.org/fhir/sid/icd-10-cm","code":"I63.00"}]},"type":[{"coding":[{"system":"http://terminology.hl7.org/CodeSystem/ex-diagnosistype","code":"principal"}]}]}],"insurance":[{"sequence":1,"focal":true,"coverage":{"reference":"Coverage/5fa041661c76ba66d9959367"}}],"item":[{"sequence":1,"diagnosisSequence":[1],"productOrService":{"coding":[{"system":"http://terminology.hl7.org/CodeSystem/ex-USCLS","code":"99555"}]},"encounter":[{"reference":"Encounter/b45ae9b1-c57f-43eb-ace3-8b9aed0d6e4a"}]}]},"request":{"method":"PUT","url":"Claim/5ca62962b8484628b8de1ec5"}},{"fullUrl":"https://madie.cms.gov/ServiceRequest/75c48a87-190c-41cd-8dd1-c645d81270a5","resource":{"resourceType":"ServiceRequest","id":"75c48a87-190c-41cd-8dd1-c645d81270a5","meta":{"profile":["http://hl7.org/fhir/us/qicore/StructureDefinition/qicore-servicerequest"]},"status":"active","intent":"order","doNotPerform":true,"code":{"coding":[{"system":"http://snomed.info/sct","code":"133918004"}]},"subject":{"reference":"Patient/dbe7efdb-fd75-4da4-a998-ae7e04051bd1"},"authoredOn":"2026-10-01T09:15:00Z"},"request":{"method":"PUT","url":"ServiceRequest/75c48a87-190c-41cd-8dd1-c645d81270a5"}},{"fullUrl":"https://madie.cms.gov/Coverage/e34418c4-a625-4248-a394-3416ff93cc9f","resource":{"resourceType":"Coverage","id":"e34418c4-a625-4248-a394-3416ff93cc9f","meta":{"profile":["http://hl7.org/fhir/us/qicore/StructureDefinition/qicore-coverage"]},"status":"active","subscriberId":"523435","beneficiary":{"reference":"Patient/162a5913-9989-42f2-8d6a-ae460e245e4c"},"relationship":{"coding":[{"system":"http://terminology.hl7.org/CodeSystem/subscriber-relationship","code":"self"}]},"payor":[{"reference":"Organization/d29a3987-65e3-4015-af74-9bce622fe654"}]},"request":{"method":"PUT","url":"Coverage/e34418c4-a625-4248-a394-3416ff93cc9f"}},{"fullUrl":"https://madie.cms.gov/Condition/3a4fcfed-6628-48aa-93fb-ae390834e843","resource":{"resourceType":"Condition","id":"3a4fcfed-6628-48aa-93fb-ae390834e843","meta":{"profile":["http://hl7.org/fhir/us/qicore/StructureDefinition/qicore-condition-problems-health-concerns"]},"clinicalStatus":{"coding":[{"system":"http://terminology.hl7.org/CodeSystem/condition-clinical","code":"active"}]},"verificationStatus":{"coding":[{"system":"http://terminology.hl7.org/CodeSystem/condition-ver-status","code":"confirmed"}]},"category":[{"coding":[{"system":"http://terminology.hl7.org/CodeSystem/condition-category","code":"encounter-diagnosis","display":"Encounter Diagnosis"}]}],"code":{"coding":[{"system":"http://snomed.info/sct","version":"2021-09","code":"111297002","display":"Nonparalytic stroke (disorder)","userSelected":true}]},"subject":{"reference":"Patient/dbe7efdb-fd75-4da4-a998-ae7e04051bd1"},"recordedDate":"2026-10-13T08:00:00Z"},"request":{"method":"PUT","url":"Condition/3a4fcfed-6628-48aa-93fb-ae390834e843"}},{"fullUrl":"https://madie.cms.gov/Organization/d29a3987-65e3-4015-af74-9bce622fe654","resource":{"resourceType":"Organization","id":"d29a3987-65e3-4015-af74-9bce622fe654","meta":{"profile":["http://hl7.org/fhir/us/qicore/StructureDefinition/qicore-organization"]},"identifier":[{"use":"temp","system":"urn:oid:2.16.840.1.113883.4.4","value":"21-3259825"}],"active":true,"type":[{"coding":[{"system":"http://terminology.hl7.org/CodeSystem/organization-type","code":"pay","display":"Payer"}]}],"name":"Blue Cross Blue Shield of Texas","telecom":[{"system":"phone","value":"(+1) 972-766-6900"}],"address":[{"use":"billing","type":"postal","line":["P.O. Box 660044"],"city":"Dallas","state":"TX","postalCode":"75266-0044","country":"USA"}]},"request":{"method":"PUT","url":"Organization/d29a3987-65e3-4015-af74-9bce622fe654"}},{"fullUrl":"https://madie.cms.gov/Practitioner/8576aab0-e276-40a6-952a-6cf7243d4590","resource":{"resourceType":"Practitioner","id":"8576aab0-e276-40a6-952a-6cf7243d4590","meta":{"profile":["http://hl7.org/fhir/us/qicore/StructureDefinition/qicore-practitioner"]},"identifier":[{"system":"http://hl7.org/fhir/sid/us-npi","value":"9999999896"}],"name":[{"family":"Evil","prefix":["Dr"]}]},"request":{"method":"PUT","url":"Practitioner/8576aab0-e276-40a6-952a-6cf7243d4590"}},{"fullUrl":"https://madie.cms.gov/MeasureReport/db379169-2a2e-4fc6-b1b6-e7fba1f099c3","resource":{"resourceType":"MeasureReport","id":"db379169-2a2e-4fc6-b1b6-e7fba1f099c3","meta":{"profile":["http://hl7.org/fhir/us/cqfmeasures/StructureDefinition/test-case-cqfm"]},"contained":[{"resourceType":"Parameters","id":"c9847595-b70e-40bf-8bdc-402e38e7963d-parameters","parameter":[{"name":"subject","valueString":"dbe7efdb-fd75-4da4-a998-ae7e04051bd1"}]}],"extension":[{"url":"http://hl7.org/fhir/StructureDefinition/cqf-inputParameters","valueReference":{"reference":"#c9847595-b70e-40bf-8bdc-402e38e7963d-parameters"}},{"url":"http://hl7.org/fhir/us/cqfmeasures/StructureDefinition/cqfm-testCaseDescription","valueMarkdown":"Testing Coverage issue do not perform is true"}],"modifierExtension":[{"url":"http://hl7.org/fhir/us/cqfmeasures/StructureDefinition/cqfm-isTestCase","valueBoolean":true}],"status":"complete","type":"individual","measure":"https://madie.cms.gov/Measure/CMS71FHIRSTKAnticoagAFFlutter","period":{"start":"2026-01-01","end":"2026-12-31"},"group":[{"id":"Group_1","population":[{"id":"InitialPopulation_1","code":{"coding":[{"system":"http://terminology.hl7.org/CodeSystem/measure-population","code":"initial-population","display":"Initial Population"}]},"count":1},{"id":"Denominator_1","code":{"coding":[{"system":"http://terminology.hl7.org/CodeSystem/measure-population","code":"denominator","display":"Denominator"}]},"count":1},{"id":"DenominatorExclusion_1","code":{"coding":[{"system":"http://terminology.hl7.org/CodeSystem/measure-population","code":"denominator-exclusion","display":"Denominator Exclusion"}]},"count":0},{"id":"Numerator_1","code":{"coding":[{"system":"http://terminology.hl7.org/CodeSystem/measure-population","code":"numerator","display":"Numerator"}]},"count":0},{"id":"DenominatorException_1","code":{"coding":[{"system":"http://terminology.hl7.org/CodeSystem/measure-population","code":"denominator-exception","display":"Denominator Exception"}]},"count":0}],"measureScore":{"value":0.0}}],"evaluatedResource":[{"reference":"Patient/dbe7efdb-fd75-4da4-a998-ae7e04051bd1"},{"reference":"Condition/1ec8c93d-a04d-4824-842d-9d68a948c6bd"},{"reference":"Encounter/0b163f4e-09ef-4b09-8148-03df310cc4bc"},{"reference":"Encounter/b45ae9b1-c57f-43eb-ace3-8b9aed0d6e4a"},{"reference":"Claim/5ca62962b8484628b8de1ec5"},{"reference":"ServiceRequest/75c48a87-190c-41cd-8dd1-c645d81270a5"},{"reference":"Coverage/e34418c4-a625-4248-a394-3416ff93cc9f"},{"reference":"Condition/3a4fcfed-6628-48aa-93fb-ae390834e843"},{"reference":"Organization/d29a3987-65e3-4015-af74-9bce622fe654"},{"reference":"Practitioner/8576aab0-e276-40a6-952a-6cf7243d4590"}]},"request":{"method":"PUT","url":"MeasureReport/db379169-2a2e-4fc6-b1b6-e7fba1f099c3"}}]},"request":{"method":"PUT","url":"Bundle/633c9d040968f8012250fca3"}},{"resource":{"resourceType":"Practitioner","id":"8576aab0-e276-40a6-952a-6cf7243d4590","meta":{"profile":["http://hl7.org/fhir/us/qicore/StructureDefinition/qicore-practitioner"]},"identifier":[{"system":"http://hl7.org/fhir/sid/us-npi","value":"9999999896"}],"name":[{"family":"Evil","prefix":["Dr"]}]},"request":{"method":"PUT","url":"Practitioner/8576aab0-e276-40a6-952a-6cf7243d4590"}},{"resource":{"resourceType":"Condition","id":"1ec8c93d-a04d-4824-842d-9d68a948c6bd","meta":{"profile":["http://hl7.org/fhir/us/qicore/StructureDefinition/qicore-condition-problems-health-concerns"]},"clinicalStatus":{"coding":[{"system":"http://terminology.hl7.org/CodeSystem/condition-clinical","code":"inactive"}]},"verificationStatus":{"coding":[{"system":"http://terminology.hl7.org/CodeSystem/condition-ver-status","code":"confirmed"}]},"category":[{"coding":[{"system":"http://terminology.hl7.org/CodeSystem/condition-category","code":"encounter-diagnosis","display":"Encounter Diagnosis"}]}],"code":{"coding":[{"system":"http://hl7.org/fhir/sid/icd-10-cm","code":"I48.20"},{"system":"http://hl7.org/fhir/sid/icd-10-cm","code":"I48.0"},{"system":"http://snomed.info/sct","code":"5370000"}]},"subject":{"reference":"Patient/dbe7efdb-fd75-4da4-a998-ae7e04051bd1"},"onsetDateTime":"2026-10-01T09:01:00Z","abatementDateTime":"2026-10-12T00:15:00.000+00:00"},"request":{"method":"PUT","url":"Condition/1ec8c93d-a04d-4824-842d-9d68a948c6bd"}},{"resource":{"resourceType":"MeasureReport","id":"db379169-2a2e-4fc6-b1b6-e7fba1f099c3","meta":{"profile":["http://hl7.org/fhir/us/cqfmeasures/StructureDefinition/test-case-cqfm"]},"contained":[{"resourceType":"Parameters","id":"c9847595-b70e-40bf-8bdc-402e38e7963d-parameters","parameter":[{"name":"subject","valueString":"dbe7efdb-fd75-4da4-a998-ae7e04051bd1"}]}],"extension":[{"url":"http://hl7.org/fhir/StructureDefinition/cqf-inputParameters","valueReference":{"reference":"#c9847595-b70e-40bf-8bdc-402e38e7963d-parameters"}},{"url":"http://hl7.org/fhir/us/cqfmeasures/StructureDefinition/cqfm-testCaseDescription","valueMarkdown":"Testing Coverage issue do not perform is true"}],"modifierExtension":[{"url":"http://hl7.org/fhir/us/cqfmeasures/StructureDefinition/cqfm-isTestCase","valueBoolean":true}],"status":"complete","type":"individual","measure":"https://madie.cms.gov/Measure/CMS71FHIRSTKAnticoagAFFlutter","period":{"start":"2026-01-01","end":"2026-12-31"},"group":[{"id":"Group_1","population":[{"id":"InitialPopulation_1","code":{"coding":[{"system":"http://terminology.hl7.org/CodeSystem/measure-population","code":"initial-population","display":"Initial Population"}]},"count":1},{"id":"Denominator_1","code":{"coding":[{"system":"http://terminology.hl7.org/CodeSystem/measure-population","code":"denominator","display":"Denominator"}]},"count":1},{"id":"DenominatorExclusion_1","code":{"coding":[{"system":"http://terminology.hl7.org/CodeSystem/measure-population","code":"denominator-exclusion","display":"Denominator Exclusion"}]},"count":0},{"id":"Numerator_1","code":{"coding":[{"system":"http://terminology.hl7.org/CodeSystem/measure-population","code":"numerator","display":"Numerator"}]},"count":0},{"id":"DenominatorException_1","code":{"coding":[{"system":"http://terminology.hl7.org/CodeSystem/measure-population","code":"denominator-exception","display":"Denominator Exception"}]},"count":0}],"measureScore":{"value":0.0}}],"evaluatedResource":[{"reference":"Patient/dbe7efdb-fd75-4da4-a998-ae7e04051bd1"},{"reference":"Condition/1ec8c93d-a04d-4824-842d-9d68a948c6bd"},{"reference":"Encounter/0b163f4e-09ef-4b09-8148-03df310cc4bc"},{"reference":"Encounter/b45ae9b1-c57f-43eb-ace3-8b9aed0d6e4a"},{"reference":"Claim/5ca62962b8484628b8de1ec5"},{"reference":"ServiceRequest/75c48a87-190c-41cd-8dd1-c645d81270a5"},{"reference":"Coverage/e34418c4-a625-4248-a394-3416ff93cc9f"},{"reference":"Condition/3a4fcfed-6628-48aa-93fb-ae390834e843"},{"reference":"Organization/d29a3987-65e3-4015-af74-9bce622fe654"},{"reference":"Practitioner/8576aab0-e276-40a6-952a-6cf7243d4590"}]},"request":{"method":"PUT","url":"MeasureReport/db379169-2a2e-4fc6-b1b6-e7fba1f099c3"}},{"resource":{"resourceType":"Coverage","id":"e34418c4-a625-4248-a394-3416ff93cc9f","meta":{"profile":["http://hl7.org/fhir/us/qicore/StructureDefinition/qicore-coverage"]},"status":"active","subscriberId":"523435","beneficiary":{"reference":"Patient/162a5913-9989-42f2-8d6a-ae460e245e4c"},"relationship":{"coding":[{"system":"http://terminology.hl7.org/CodeSystem/subscriber-relationship","code":"self"}]},"payor":[{"reference":"Organization/d29a3987-65e3-4015-af74-9bce622fe654"}]},"request":{"method":"PUT","url":"Coverage/e34418c4-a625-4248-a394-3416ff93cc9f"}},{"resource":{"resourceType":"Encounter","id":"b45ae9b1-c57f-43eb-ace3-8b9aed0d6e4a","meta":{"profile":["http://hl7.org/fhir/us/qicore/StructureDefinition/qicore-encounter"]},"status":"finished","class":{"system":"http://terminology.hl7.org/CodeSystem/v3-ActCode","code":"IMP","display":"inpatient encounter"},"type":[{"coding":[{"system":"http://snomed.info/sct","code":"32485007"}]}],"subject":{"reference":"Patient/dbe7efdb-fd75-4da4-a998-ae7e04051bd1"},"period":{"start":"2026-10-01T13:15:00Z","end":"2026-10-12T00:15:00.000+00:00"},"length":{"value":11,"unit":"days"},"reasonReference":[{"reference":"Condition/1ec8c93d-a04d-4824-842d-9d68a948c6bd"}]},"request":{"method":"PUT","url":"Encounter/b45ae9b1-c57f-43eb-ace3-8b9aed0d6e4a"}},{"resource":{"resourceType":"Claim","id":"5ca62962b8484628b8de1ec5","meta":{"profile":["http://hl7.org/fhir/us/qicore/StructureDefinition/qicore-claim"]},"status":"active","type":{"coding":[{"system":"http://terminology.hl7.org/CodeSystem/claim-type","code":"institutional"}]},"use":"claim","patient":{"reference":"Patient/d170a0a8-b5ad-4303-b6df-e304dd5f92ad"},"created":"2026-12-01","provider":{"reference":"Practitioner/8576aab0-e276-40a6-952a-6cf7243d4590"},"priority":{"coding":[{"system":"http://terminology.hl7.org/CodeSystem/processpriority","code":"normal"}]},"diagnosis":[{"sequence":1,"diagnosisCodeableConcept":{"coding":[{"system":"http://hl7.org/fhir/sid/icd-10-cm","code":"I63.00"}]},"type":[{"coding":[{"system":"http://terminology.hl7.org/CodeSystem/ex-diagnosistype","code":"principal"}]}]}],"insurance":[{"sequence":1,"focal":true,"coverage":{"reference":"Coverage/5fa041661c76ba66d9959367"}}],"item":[{"sequence":1,"diagnosisSequence":[1],"productOrService":{"coding":[{"system":"http://terminology.hl7.org/CodeSystem/ex-USCLS","code":"99555"}]},"encounter":[{"reference":"Encounter/b45ae9b1-c57f-43eb-ace3-8b9aed0d6e4a"}]}]},"request":{"method":"PUT","url":"Claim/5ca62962b8484628b8de1ec5"}}]}