{"resourceType":"Bundle","id":"tests-4151585a-f621-4de5-91df-4e4227e2165e-bundle","type":"transaction","entry":[{"fullUrl":"Procedure/432dd51f-2496-4bde-922d-c29aaa0424d6","resource":{"resourceType":"Procedure","id":"432dd51f-2496-4bde-922d-c29aaa0424d6","meta":{"profile":["http://hl7.org/fhir/us/qicore/StructureDefinition/qicore-procedure"]},"extension":[{"url":"http://hl7.org/fhir/us/qicore/StructureDefinition/qicore-recorded","valueDateTime":"2026-11-19T13:35:00Z"}],"status":"completed","code":{"coding":[{"system":"http://www.cms.gov/Medicare/Coding/ICD10","code":"02560ZZ"},{"system":"http://snomed.info/sct","code":"175095005"}]},"subject":{"reference":"Patient/4151585a-f621-4de5-91df-4e4227e2165e"},"performedPeriod":{"start":"2026-10-10T08:30:00Z"}},"request":{"method":"PUT","url":"Procedure/432dd51f-2496-4bde-922d-c29aaa0424d6"}},{"fullUrl":"Organization/d683629d-bb82-48e2-afe3-39aa6df18f37","resource":{"resourceType":"Organization","id":"d683629d-bb82-48e2-afe3-39aa6df18f37","meta":{"profile":["http://hl7.org/fhir/us/qicore/StructureDefinition/qicore-organization"]},"identifier":[{"use":"temp","system":"urn:oid:2.16.840.1.113883.4.4","value":"21-3259825"}],"active":true,"type":[{"coding":[{"system":"http://terminology.hl7.org/CodeSystem/organization-type","code":"pay","display":"Payer"}]}],"name":"Blue Cross Blue Shield of Texas","telecom":[{"system":"phone","value":"(+1) 972-766-6900"}],"address":[{"use":"billing","type":"postal","line":["P.O. Box 660044"],"city":"Dallas","state":"TX","postalCode":"75266-0044","country":"USA"}]},"request":{"method":"PUT","url":"Organization/d683629d-bb82-48e2-afe3-39aa6df18f37"}},{"fullUrl":"MeasureReport/028005ec-0455-4bef-94e6-8810a95f346a","resource":{"resourceType":"MeasureReport","id":"028005ec-0455-4bef-94e6-8810a95f346a","meta":{"profile":["http://hl7.org/fhir/us/cqfmeasures/StructureDefinition/test-case-cqfm"]},"contained":[{"resourceType":"Parameters","id":"c074ac53-0d71-48d9-b6ff-a57ccd78295c-parameters","parameter":[{"name":"subject","valueString":"4151585a-f621-4de5-91df-4e4227e2165e"}]}],"extension":[{"url":"http://hl7.org/fhir/StructureDefinition/cqf-inputParameters","valueReference":{"reference":"#c074ac53-0d71-48d9-b6ff-a57ccd78295c-parameters"}},{"url":"http://hl7.org/fhir/us/cqfmeasures/StructureDefinition/cqfm-testCaseDescription","valueMarkdown":"Patient is 18 with Non-Elective Inpatient Encounter (LOS 120 days) with principal diagnosis of ischemic stroke ends during MP received medication not found in anticoagulant value set during IP encounter\n"}],"modifierExtension":[{"url":"http://hl7.org/fhir/us/cqfmeasures/StructureDefinition/cqfm-isTestCase","valueBoolean":true}],"status":"complete","type":"individual","measure":"https://madie.cms.gov/Measure/CMS71FHIRSTKAnticoagAFFlutter","period":{"start":"2026-01-01","end":"2026-12-31"},"group":[{"id":"Group_1","population":[{"id":"InitialPopulation_1","code":{"coding":[{"system":"http://terminology.hl7.org/CodeSystem/measure-population","code":"initial-population","display":"Initial Population"}]},"count":1},{"id":"Denominator_1","code":{"coding":[{"system":"http://terminology.hl7.org/CodeSystem/measure-population","code":"denominator","display":"Denominator"}]},"count":1},{"id":"DenominatorExclusion_1","code":{"coding":[{"system":"http://terminology.hl7.org/CodeSystem/measure-population","code":"denominator-exclusion","display":"Denominator Exclusion"}]},"count":0},{"id":"Numerator_1","code":{"coding":[{"system":"http://terminology.hl7.org/CodeSystem/measure-population","code":"numerator","display":"Numerator"}]},"count":0},{"id":"DenominatorException_1","code":{"coding":[{"system":"http://terminology.hl7.org/CodeSystem/measure-population","code":"denominator-exception","display":"Denominator Exception"}]},"count":0}],"measureScore":{"value":0.0}}],"evaluatedResource":[{"reference":"Patient/4151585a-f621-4de5-91df-4e4227e2165e"},{"reference":"Encounter/4f72db39-bb3e-4c49-abf3-69d1308d8616"},{"reference":"MedicationRequest/c21c7256-89a8-4537-a0cc-7c80b4cdb850"},{"reference":"Coverage/3455d1dd-bf39-4161-a49b-fd40b4442242"},{"reference":"Procedure/432dd51f-2496-4bde-922d-c29aaa0424d6"},{"reference":"Condition/8703066b-05b3-4c0a-938b-a4525972b616"},{"reference":"Claim/5ca62962b8484628b8de1ec5"},{"reference":"Organization/d683629d-bb82-48e2-afe3-39aa6df18f37"},{"reference":"Practitioner/c47a5eca-9bd2-4cc1-9f1e-ca644c897d6b"}]},"request":{"method":"PUT","url":"MeasureReport/028005ec-0455-4bef-94e6-8810a95f346a"}},{"fullUrl":"Coverage/3455d1dd-bf39-4161-a49b-fd40b4442242","resource":{"resourceType":"Coverage","id":"3455d1dd-bf39-4161-a49b-fd40b4442242","meta":{"profile":["http://hl7.org/fhir/us/qicore/StructureDefinition/qicore-coverage"]},"status":"active","subscriberId":"523435","beneficiary":{"reference":"Patient/162a5913-9989-42f2-8d6a-ae460e245e4c"},"relationship":{"coding":[{"system":"http://terminology.hl7.org/CodeSystem/subscriber-relationship","code":"self"}]},"payor":[{"reference":"Organization/d683629d-bb82-48e2-afe3-39aa6df18f37"}]},"request":{"method":"PUT","url":"Coverage/3455d1dd-bf39-4161-a49b-fd40b4442242"}},{"fullUrl":"Bundle/633c9d030968f8012250fc91","resource":{"resourceType":"Bundle","id":"633c9d030968f8012250fc91","type":"transaction","entry":[{"fullUrl":"https://madie.cms.gov/Patient/4151585a-f621-4de5-91df-4e4227e2165e","resource":{"resourceType":"Patient","id":"4151585a-f621-4de5-91df-4e4227e2165e","meta":{"profile":["http://hl7.org/fhir/us/qicore/StructureDefinition/qicore-patient"]},"text":{"status":"generated","div":"<div xmlns=\"http://www.w3.org/1999/xhtml\"><div class=\"hapiHeaderText\">CustomCode <b>NUMERFAIL </b></div><table class=\"hapiPropertyTable\"><tbody><tr><td>Identifier</td><td>067c4f753ca8fc3fba90168757c33218</td></tr><tr><td>Date of birth</td><td><span>21 August 1994</span></td></tr></tbody></table></div>"},"extension":[{"url":"http://hl7.org/fhir/us/core/StructureDefinition/us-core-race","extension":[{"url":"ombCategory","valueCoding":{"system":"urn:oid:2.16.840.1.113883.6.238","code":"1002-5","display":"American Indian or Alaska Native","userSelected":true}},{"url":"text","valueString":"American Indian or Alaska Native"}]},{"url":"http://hl7.org/fhir/us/core/StructureDefinition/us-core-ethnicity","extension":[{"url":"ombCategory","valueCoding":{"system":"urn:oid:2.16.840.1.113883.6.238","code":"2135-2","display":"Hispanic or Latino","userSelected":true}},{"url":"text","valueString":"Hispanic or Latino"}]}],"identifier":[{"type":{"coding":[{"system":"http://terminology.hl7.org/CodeSystem/v2-0203","code":"MR"}]},"system":"https://bonnie-fhir.healthit.gov/","value":"633c9d030968f8012250fc91"}],"active":true,"name":[{"use":"usual","family":"NUMERFail","given":["CustomCode"]}],"gender":"male","birthDate":"1995-08-21"},"request":{"method":"PUT","url":"Patient/4151585a-f621-4de5-91df-4e4227e2165e"}},{"fullUrl":"https://madie.cms.gov/Encounter/4f72db39-bb3e-4c49-abf3-69d1308d8616","resource":{"resourceType":"Encounter","id":"4f72db39-bb3e-4c49-abf3-69d1308d8616","meta":{"profile":["http://hl7.org/fhir/us/qicore/StructureDefinition/qicore-encounter"]},"status":"finished","class":{"system":"http://terminology.hl7.org/CodeSystem/v3-ActCode","code":"IMP","display":"inpatient encounter"},"type":[{"coding":[{"system":"http://snomed.info/sct","code":"32485007"}]}],"subject":{"reference":"Patient/4151585a-f621-4de5-91df-4e4227e2165e"},"period":{"start":"2026-10-10T09:30:00Z","end":"2026-10-12T10:30:00.000+00:00"},"length":{"value":2,"unit":"days"}},"request":{"method":"PUT","url":"Encounter/4f72db39-bb3e-4c49-abf3-69d1308d8616"}},{"fullUrl":"https://madie.cms.gov/MedicationRequest/c21c7256-89a8-4537-a0cc-7c80b4cdb850","resource":{"resourceType":"MedicationRequest","id":"c21c7256-89a8-4537-a0cc-7c80b4cdb850","meta":{"profile":["http://hl7.org/fhir/us/qicore/StructureDefinition/qicore-medicationrequest"]},"status":"active","intent":"order","medicationCodeableConcept":{"coding":[{"system":"http://www.nlm.nih.gov/research/umls/rxnorm","code":"1006608"}]},"subject":{"reference":"Patient/4151585a-f621-4de5-91df-4e4227e2165e"},"authoredOn":"2026-10-10T09:30:00Z","requester":{"reference":"Practitioner/example"}},"request":{"method":"PUT","url":"MedicationRequest/c21c7256-89a8-4537-a0cc-7c80b4cdb850"}},{"fullUrl":"https://madie.cms.gov/Coverage/3455d1dd-bf39-4161-a49b-fd40b4442242","resource":{"resourceType":"Coverage","id":"3455d1dd-bf39-4161-a49b-fd40b4442242","meta":{"profile":["http://hl7.org/fhir/us/qicore/StructureDefinition/qicore-coverage"]},"status":"active","subscriberId":"523435","beneficiary":{"reference":"Patient/162a5913-9989-42f2-8d6a-ae460e245e4c"},"relationship":{"coding":[{"system":"http://terminology.hl7.org/CodeSystem/subscriber-relationship","code":"self"}]},"payor":[{"reference":"Organization/d683629d-bb82-48e2-afe3-39aa6df18f37"}]},"request":{"method":"PUT","url":"Coverage/3455d1dd-bf39-4161-a49b-fd40b4442242"}},{"fullUrl":"https://madie.cms.gov/Procedure/432dd51f-2496-4bde-922d-c29aaa0424d6","resource":{"resourceType":"Procedure","id":"432dd51f-2496-4bde-922d-c29aaa0424d6","meta":{"profile":["http://hl7.org/fhir/us/qicore/StructureDefinition/qicore-procedure"]},"extension":[{"url":"http://hl7.org/fhir/us/qicore/StructureDefinition/qicore-recorded","valueDateTime":"2026-11-19T13:35:00Z"}],"status":"completed","code":{"coding":[{"system":"http://www.cms.gov/Medicare/Coding/ICD10","code":"02560ZZ"},{"system":"http://snomed.info/sct","code":"175095005"}]},"subject":{"reference":"Patient/4151585a-f621-4de5-91df-4e4227e2165e"},"performedPeriod":{"start":"2026-10-10T08:30:00Z"}},"request":{"method":"PUT","url":"Procedure/432dd51f-2496-4bde-922d-c29aaa0424d6"}},{"fullUrl":"https://madie.cms.gov/Condition/8703066b-05b3-4c0a-938b-a4525972b616","resource":{"resourceType":"Condition","id":"8703066b-05b3-4c0a-938b-a4525972b616","meta":{"profile":["http://hl7.org/fhir/us/qicore/StructureDefinition/qicore-condition-problems-health-concerns"]},"clinicalStatus":{"coding":[{"system":"http://terminology.hl7.org/CodeSystem/condition-clinical","code":"active"}]},"verificationStatus":{"coding":[{"system":"http://terminology.hl7.org/CodeSystem/condition-ver-status","code":"confirmed"}]},"category":[{"coding":[{"system":"http://terminology.hl7.org/CodeSystem/condition-category","code":"encounter-diagnosis","display":"Encounter Diagnosis"}]}],"code":{"coding":[{"system":"http://snomed.info/sct","version":"2021-09","code":"111297002","display":"Nonparalytic stroke (disorder)","userSelected":true}]},"subject":{"reference":"Patient/4151585a-f621-4de5-91df-4e4227e2165e"},"recordedDate":"2026-10-13T08:00:00Z"},"request":{"method":"PUT","url":"Condition/8703066b-05b3-4c0a-938b-a4525972b616"}},{"fullUrl":"https://madie.cms.gov/claim/5ca62962b8484628b8de1ec5","resource":{"resourceType":"Claim","id":"5ca62962b8484628b8de1ec5","meta":{"profile":["http://hl7.org/fhir/us/qicore/StructureDefinition/qicore-claim"]},"status":"active","type":{"coding":[{"system":"http://terminology.hl7.org/CodeSystem/claim-type","code":"institutional"}]},"use":"claim","patient":{"reference":"Patient/d170a0a8-b5ad-4303-b6df-e304dd5f92ad"},"created":"2026-12-01","provider":{"reference":"Practitioner/c47a5eca-9bd2-4cc1-9f1e-ca644c897d6b"},"priority":{"coding":[{"system":"http://terminology.hl7.org/CodeSystem/processpriority","code":"normal"}]},"diagnosis":[{"sequence":1,"diagnosisCodeableConcept":{"coding":[{"system":"http://hl7.org/fhir/sid/icd-10-cm","code":"I63.00"}]},"type":[{"coding":[{"system":"http://terminology.hl7.org/CodeSystem/ex-diagnosistype","code":"principal"}]}]}],"insurance":[{"sequence":1,"focal":true,"coverage":{"reference":"Coverage/5fa041661c76ba66d9959367"}}],"item":[{"sequence":1,"diagnosisSequence":[1],"productOrService":{"coding":[{"system":"http://terminology.hl7.org/CodeSystem/ex-USCLS","code":"99555"}]},"encounter":[{"reference":"Encounter/4f72db39-bb3e-4c49-abf3-69d1308d8616"}]}]},"request":{"method":"PUT","url":"Claim/5ca62962b8484628b8de1ec5"}},{"fullUrl":"https://madie.cms.gov/Organization/d683629d-bb82-48e2-afe3-39aa6df18f37","resource":{"resourceType":"Organization","id":"d683629d-bb82-48e2-afe3-39aa6df18f37","meta":{"profile":["http://hl7.org/fhir/us/qicore/StructureDefinition/qicore-organization"]},"identifier":[{"use":"temp","system":"urn:oid:2.16.840.1.113883.4.4","value":"21-3259825"}],"active":true,"type":[{"coding":[{"system":"http://terminology.hl7.org/CodeSystem/organization-type","code":"pay","display":"Payer"}]}],"name":"Blue Cross Blue Shield of Texas","telecom":[{"system":"phone","value":"(+1) 972-766-6900"}],"address":[{"use":"billing","type":"postal","line":["P.O. Box 660044"],"city":"Dallas","state":"TX","postalCode":"75266-0044","country":"USA"}]},"request":{"method":"PUT","url":"Organization/d683629d-bb82-48e2-afe3-39aa6df18f37"}},{"fullUrl":"https://madie.cms.gov/Practitioner/c47a5eca-9bd2-4cc1-9f1e-ca644c897d6b","resource":{"resourceType":"Practitioner","id":"c47a5eca-9bd2-4cc1-9f1e-ca644c897d6b","meta":{"profile":["http://hl7.org/fhir/us/qicore/StructureDefinition/qicore-practitioner"]},"identifier":[{"system":"http://hl7.org/fhir/sid/us-npi","value":"9999999896"}],"name":[{"family":"Evil","prefix":["Dr"]}]},"request":{"method":"PUT","url":"Practitioner/c47a5eca-9bd2-4cc1-9f1e-ca644c897d6b"}},{"fullUrl":"https://madie.cms.gov/MeasureReport/028005ec-0455-4bef-94e6-8810a95f346a","resource":{"resourceType":"MeasureReport","id":"028005ec-0455-4bef-94e6-8810a95f346a","meta":{"profile":["http://hl7.org/fhir/us/cqfmeasures/StructureDefinition/test-case-cqfm"]},"contained":[{"resourceType":"Parameters","id":"c074ac53-0d71-48d9-b6ff-a57ccd78295c-parameters","parameter":[{"name":"subject","valueString":"4151585a-f621-4de5-91df-4e4227e2165e"}]}],"extension":[{"url":"http://hl7.org/fhir/StructureDefinition/cqf-inputParameters","valueReference":{"reference":"#c074ac53-0d71-48d9-b6ff-a57ccd78295c-parameters"}},{"url":"http://hl7.org/fhir/us/cqfmeasures/StructureDefinition/cqfm-testCaseDescription","valueMarkdown":"Patient is 18 with Non-Elective Inpatient Encounter (LOS 120 days) with principal diagnosis of ischemic stroke ends during MP received medication not found in anticoagulant value set during IP encounter\n"}],"modifierExtension":[{"url":"http://hl7.org/fhir/us/cqfmeasures/StructureDefinition/cqfm-isTestCase","valueBoolean":true}],"status":"complete","type":"individual","measure":"https://madie.cms.gov/Measure/CMS71FHIRSTKAnticoagAFFlutter","period":{"start":"2026-01-01","end":"2026-12-31"},"group":[{"id":"Group_1","population":[{"id":"InitialPopulation_1","code":{"coding":[{"system":"http://terminology.hl7.org/CodeSystem/measure-population","code":"initial-population","display":"Initial Population"}]},"count":1},{"id":"Denominator_1","code":{"coding":[{"system":"http://terminology.hl7.org/CodeSystem/measure-population","code":"denominator","display":"Denominator"}]},"count":1},{"id":"DenominatorExclusion_1","code":{"coding":[{"system":"http://terminology.hl7.org/CodeSystem/measure-population","code":"denominator-exclusion","display":"Denominator Exclusion"}]},"count":0},{"id":"Numerator_1","code":{"coding":[{"system":"http://terminology.hl7.org/CodeSystem/measure-population","code":"numerator","display":"Numerator"}]},"count":0},{"id":"DenominatorException_1","code":{"coding":[{"system":"http://terminology.hl7.org/CodeSystem/measure-population","code":"denominator-exception","display":"Denominator Exception"}]},"count":0}],"measureScore":{"value":0.0}}],"evaluatedResource":[{"reference":"Patient/4151585a-f621-4de5-91df-4e4227e2165e"},{"reference":"Encounter/4f72db39-bb3e-4c49-abf3-69d1308d8616"},{"reference":"MedicationRequest/c21c7256-89a8-4537-a0cc-7c80b4cdb850"},{"reference":"Coverage/3455d1dd-bf39-4161-a49b-fd40b4442242"},{"reference":"Procedure/432dd51f-2496-4bde-922d-c29aaa0424d6"},{"reference":"Condition/8703066b-05b3-4c0a-938b-a4525972b616"},{"reference":"Claim/5ca62962b8484628b8de1ec5"},{"reference":"Organization/d683629d-bb82-48e2-afe3-39aa6df18f37"},{"reference":"Practitioner/c47a5eca-9bd2-4cc1-9f1e-ca644c897d6b"}]},"request":{"method":"PUT","url":"MeasureReport/028005ec-0455-4bef-94e6-8810a95f346a"}}]},"request":{"method":"PUT","url":"Bundle/633c9d030968f8012250fc91"}},{"fullUrl":"Patient/4151585a-f621-4de5-91df-4e4227e2165e","resource":{"resourceType":"Patient","id":"4151585a-f621-4de5-91df-4e4227e2165e","meta":{"profile":["http://hl7.org/fhir/us/qicore/StructureDefinition/qicore-patient"]},"text":{"status":"generated","div":"<div xmlns=\"http://www.w3.org/1999/xhtml\"><div class=\"hapiHeaderText\">CustomCode <b>NUMERFAIL </b></div><table class=\"hapiPropertyTable\"><tbody><tr><td>Identifier</td><td>067c4f753ca8fc3fba90168757c33218</td></tr><tr><td>Date of birth</td><td><span>21 August 1994</span></td></tr></tbody></table></div>"},"extension":[{"url":"http://hl7.org/fhir/us/core/StructureDefinition/us-core-race","extension":[{"url":"ombCategory","valueCoding":{"system":"urn:oid:2.16.840.1.113883.6.238","code":"1002-5","display":"American Indian or Alaska Native","userSelected":true}},{"url":"text","valueString":"American Indian or Alaska Native"}]},{"url":"http://hl7.org/fhir/us/core/StructureDefinition/us-core-ethnicity","extension":[{"url":"ombCategory","valueCoding":{"system":"urn:oid:2.16.840.1.113883.6.238","code":"2135-2","display":"Hispanic or Latino","userSelected":true}},{"url":"text","valueString":"Hispanic or Latino"}]}],"identifier":[{"type":{"coding":[{"system":"http://terminology.hl7.org/CodeSystem/v2-0203","code":"MR"}]},"system":"https://bonnie-fhir.healthit.gov/","value":"633c9d030968f8012250fc91"}],"active":true,"name":[{"use":"usual","family":"NUMERFail","given":["CustomCode"]}],"gender":"male","birthDate":"1995-08-21"},"request":{"method":"PUT","url":"Patient/4151585a-f621-4de5-91df-4e4227e2165e"}},{"fullUrl":"MedicationRequest/c21c7256-89a8-4537-a0cc-7c80b4cdb850","resource":{"resourceType":"MedicationRequest","id":"c21c7256-89a8-4537-a0cc-7c80b4cdb850","meta":{"profile":["http://hl7.org/fhir/us/qicore/StructureDefinition/qicore-medicationrequest"]},"status":"active","intent":"order","medicationCodeableConcept":{"coding":[{"system":"http://www.nlm.nih.gov/research/umls/rxnorm","code":"1006608"}]},"subject":{"reference":"Patient/4151585a-f621-4de5-91df-4e4227e2165e"},"authoredOn":"2026-10-10T09:30:00Z","requester":{"reference":"Practitioner/example"}},"request":{"method":"PUT","url":"MedicationRequest/c21c7256-89a8-4537-a0cc-7c80b4cdb850"}},{"fullUrl":"Condition/8703066b-05b3-4c0a-938b-a4525972b616","resource":{"resourceType":"Condition","id":"8703066b-05b3-4c0a-938b-a4525972b616","meta":{"profile":["http://hl7.org/fhir/us/qicore/StructureDefinition/qicore-condition-problems-health-concerns"]},"clinicalStatus":{"coding":[{"system":"http://terminology.hl7.org/CodeSystem/condition-clinical","code":"active"}]},"verificationStatus":{"coding":[{"system":"http://terminology.hl7.org/CodeSystem/condition-ver-status","code":"confirmed"}]},"category":[{"coding":[{"system":"http://terminology.hl7.org/CodeSystem/condition-category","code":"encounter-diagnosis","display":"Encounter Diagnosis"}]}],"code":{"coding":[{"system":"http://snomed.info/sct","version":"2021-09","code":"111297002","display":"Nonparalytic stroke (disorder)","userSelected":true}]},"subject":{"reference":"Patient/4151585a-f621-4de5-91df-4e4227e2165e"},"recordedDate":"2026-10-13T08:00:00Z"},"request":{"method":"PUT","url":"Condition/8703066b-05b3-4c0a-938b-a4525972b616"}},{"fullUrl":"Practitioner/c47a5eca-9bd2-4cc1-9f1e-ca644c897d6b","resource":{"resourceType":"Practitioner","id":"c47a5eca-9bd2-4cc1-9f1e-ca644c897d6b","meta":{"profile":["http://hl7.org/fhir/us/qicore/StructureDefinition/qicore-practitioner"]},"identifier":[{"system":"http://hl7.org/fhir/sid/us-npi","value":"9999999896"}],"name":[{"family":"Evil","prefix":["Dr"]}]},"request":{"method":"PUT","url":"Practitioner/c47a5eca-9bd2-4cc1-9f1e-ca644c897d6b"}},{"fullUrl":"Encounter/4f72db39-bb3e-4c49-abf3-69d1308d8616","resource":{"resourceType":"Encounter","id":"4f72db39-bb3e-4c49-abf3-69d1308d8616","meta":{"profile":["http://hl7.org/fhir/us/qicore/StructureDefinition/qicore-encounter"]},"status":"finished","class":{"system":"http://terminology.hl7.org/CodeSystem/v3-ActCode","code":"IMP","display":"inpatient encounter"},"type":[{"coding":[{"system":"http://snomed.info/sct","code":"32485007"}]}],"subject":{"reference":"Patient/4151585a-f621-4de5-91df-4e4227e2165e"},"period":{"start":"2026-10-10T09:30:00Z","end":"2026-10-12T10:30:00.000+00:00"},"length":{"value":2,"unit":"days"}},"request":{"method":"PUT","url":"Encounter/4f72db39-bb3e-4c49-abf3-69d1308d8616"}},{"fullUrl":"Claim/5ca62962b8484628b8de1ec5","resource":{"resourceType":"Claim","id":"5ca62962b8484628b8de1ec5","meta":{"profile":["http://hl7.org/fhir/us/qicore/StructureDefinition/qicore-claim"]},"status":"active","type":{"coding":[{"system":"http://terminology.hl7.org/CodeSystem/claim-type","code":"institutional"}]},"use":"claim","patient":{"reference":"Patient/d170a0a8-b5ad-4303-b6df-e304dd5f92ad"},"created":"2026-12-01","provider":{"reference":"Practitioner/c47a5eca-9bd2-4cc1-9f1e-ca644c897d6b"},"priority":{"coding":[{"system":"http://terminology.hl7.org/CodeSystem/processpriority","code":"normal"}]},"diagnosis":[{"sequence":1,"diagnosisCodeableConcept":{"coding":[{"system":"http://hl7.org/fhir/sid/icd-10-cm","code":"I63.00"}]},"type":[{"coding":[{"system":"http://terminology.hl7.org/CodeSystem/ex-diagnosistype","code":"principal"}]}]}],"insurance":[{"sequence":1,"focal":true,"coverage":{"reference":"Coverage/5fa041661c76ba66d9959367"}}],"item":[{"sequence":1,"diagnosisSequence":[1],"productOrService":{"coding":[{"system":"http://terminology.hl7.org/CodeSystem/ex-USCLS","code":"99555"}]},"encounter":[{"reference":"Encounter/4f72db39-bb3e-4c49-abf3-69d1308d8616"}]}]},"request":{"method":"PUT","url":"Claim/5ca62962b8484628b8de1ec5"}}]}