{"resourceType":"Bundle","id":"tests-0fc5a0c1-02c0-4427-87d8-2e58f4be7b07-bundle","type":"transaction","entry":[{"fullUrl":"Condition/3d16cb58-611f-444c-a9b2-7daec567dce6","resource":{"resourceType":"Condition","id":"3d16cb58-611f-444c-a9b2-7daec567dce6","meta":{"profile":["http://hl7.org/fhir/us/qicore/StructureDefinition/qicore-condition-problems-health-concerns"]},"clinicalStatus":{"coding":[{"system":"http://terminology.hl7.org/CodeSystem/condition-clinical","code":"active"}]},"verificationStatus":{"coding":[{"system":"http://terminology.hl7.org/CodeSystem/condition-ver-status","code":"confirmed"}]},"category":[{"coding":[{"system":"http://terminology.hl7.org/CodeSystem/condition-category","code":"encounter-diagnosis","display":"Encounter Diagnosis"}]}],"code":{"coding":[{"system":"http://snomed.info/sct","version":"2021-09","code":"111297002","display":"Nonparalytic stroke (disorder)","userSelected":true}]},"subject":{"reference":"Patient/0fc5a0c1-02c0-4427-87d8-2e58f4be7b07"},"recordedDate":"2026-10-13T08:00:00Z"},"request":{"method":"PUT","url":"Condition/3d16cb58-611f-444c-a9b2-7daec567dce6"}},{"fullUrl":"Organization/f5a6238a-f6aa-44b1-b74f-5636da6e8302","resource":{"resourceType":"Organization","id":"f5a6238a-f6aa-44b1-b74f-5636da6e8302","meta":{"profile":["http://hl7.org/fhir/us/qicore/StructureDefinition/qicore-organization"]},"identifier":[{"use":"temp","system":"urn:oid:2.16.840.1.113883.4.4","value":"21-3259825"}],"active":true,"type":[{"coding":[{"system":"http://terminology.hl7.org/CodeSystem/organization-type","code":"pay","display":"Payer"}]}],"name":"Blue Cross Blue Shield of Texas","telecom":[{"system":"phone","value":"(+1) 972-766-6900"}],"address":[{"use":"billing","type":"postal","line":["P.O. Box 660044"],"city":"Dallas","state":"TX","postalCode":"75266-0044","country":"USA"}]},"request":{"method":"PUT","url":"Organization/f5a6238a-f6aa-44b1-b74f-5636da6e8302"}},{"fullUrl":"Practitioner/14f9ff36-1458-4d18-a721-9448830a8ff9","resource":{"resourceType":"Practitioner","id":"14f9ff36-1458-4d18-a721-9448830a8ff9","meta":{"profile":["http://hl7.org/fhir/us/qicore/StructureDefinition/qicore-practitioner"]},"identifier":[{"system":"http://hl7.org/fhir/sid/us-npi","value":"9999999896"}],"name":[{"family":"Evil","prefix":["Dr"]}]},"request":{"method":"PUT","url":"Practitioner/14f9ff36-1458-4d18-a721-9448830a8ff9"}},{"fullUrl":"Bundle/633c9d030968f8012250fc70","resource":{"resourceType":"Bundle","id":"633c9d030968f8012250fc70","type":"transaction","entry":[{"fullUrl":"https://madie.cms.gov/Patient/0fc5a0c1-02c0-4427-87d8-2e58f4be7b07","resource":{"resourceType":"Patient","id":"0fc5a0c1-02c0-4427-87d8-2e58f4be7b07","meta":{"profile":["http://hl7.org/fhir/us/qicore/StructureDefinition/qicore-patient"]},"text":{"status":"generated","div":"<div xmlns=\"http://www.w3.org/1999/xhtml\"><div class=\"hapiHeaderText\">Age&lt;18 <b>IPPFAIL </b></div><table class=\"hapiPropertyTable\"><tbody><tr><td>Identifier</td><td>ca0f0d86cef05422cfb8f64b99a26e8f</td></tr><tr><td>Date of birth</td><td><span>09 February 1994</span></td></tr></tbody></table></div>"},"extension":[{"url":"http://hl7.org/fhir/us/core/StructureDefinition/us-core-race","extension":[{"url":"ombCategory","valueCoding":{"system":"urn:oid:2.16.840.1.113883.6.238","code":"1002-5","display":"American Indian or Alaska Native","userSelected":true}},{"url":"text","valueString":"American Indian or Alaska Native"}]},{"url":"http://hl7.org/fhir/us/core/StructureDefinition/us-core-ethnicity","extension":[{"url":"ombCategory","valueCoding":{"system":"urn:oid:2.16.840.1.113883.6.238","code":"2135-2","display":"Hispanic or Latino","userSelected":true}},{"url":"text","valueString":"Hispanic or Latino"}]}],"identifier":[{"type":{"coding":[{"system":"http://terminology.hl7.org/CodeSystem/v2-0203","code":"MR"}]},"system":"https://bonnie-fhir.healthit.gov/","value":"633c9d030968f8012250fc70"}],"active":true,"name":[{"use":"usual","family":"IPPFail","given":["Age<18"]}],"gender":"male","birthDate":"2008-02-09"},"request":{"method":"PUT","url":"Patient/0fc5a0c1-02c0-4427-87d8-2e58f4be7b07"}},{"fullUrl":"https://madie.cms.gov/Encounter/b6cf8e91-d1a0-40ea-8cde-162b91021473","resource":{"resourceType":"Encounter","id":"b6cf8e91-d1a0-40ea-8cde-162b91021473","meta":{"profile":["http://hl7.org/fhir/us/qicore/StructureDefinition/qicore-encounter"]},"status":"finished","class":{"system":"http://terminology.hl7.org/CodeSystem/v3-ActCode","code":"IMP","display":"inpatient encounter"},"type":[{"coding":[{"system":"http://snomed.info/sct","code":"32485007"}]}],"subject":{"reference":"Patient/0fc5a0c1-02c0-4427-87d8-2e58f4be7b07"},"period":{"start":"2026-02-08T08:00:00Z","end":"2026-02-10T08:15:00.000+00:00"},"length":{"value":2,"unit":"days"},"diagnosis":[{"condition":{"reference":"Condition/3d16cb58-611f-444c-a9b2-7daec567dce6"},"rank":1}]},"request":{"method":"PUT","url":"Encounter/b6cf8e91-d1a0-40ea-8cde-162b91021473"}},{"fullUrl":"https://madie.cms.gov/claim/5ca62962b8484628b8de1ec5","resource":{"resourceType":"Claim","id":"5ca62962b8484628b8de1ec5","meta":{"profile":["http://hl7.org/fhir/us/qicore/StructureDefinition/qicore-claim"]},"status":"active","type":{"coding":[{"system":"http://terminology.hl7.org/CodeSystem/claim-type","code":"institutional"}]},"use":"claim","patient":{"reference":"Patient/d170a0a8-b5ad-4303-b6df-e304dd5f92ad"},"created":"2026-12-01","provider":{"reference":"Practitioner/14f9ff36-1458-4d18-a721-9448830a8ff9"},"priority":{"coding":[{"system":"http://terminology.hl7.org/CodeSystem/processpriority","code":"normal"}]},"diagnosis":[{"sequence":1,"diagnosisCodeableConcept":{"coding":[{"system":"http://hl7.org/fhir/sid/icd-10-cm","code":"I63.00"}]},"type":[{"coding":[{"system":"http://terminology.hl7.org/CodeSystem/ex-diagnosistype","code":"principal"}]}]}],"insurance":[{"sequence":1,"focal":true,"coverage":{"reference":"Coverage/5fa041661c76ba66d9959367"}}],"item":[{"sequence":1,"diagnosisSequence":[1],"productOrService":{"coding":[{"system":"http://terminology.hl7.org/CodeSystem/ex-USCLS","code":"99555"}]},"encounter":[{"reference":"Encounter/b6cf8e91-d1a0-40ea-8cde-162b91021473"}]}]},"request":{"method":"PUT","url":"Claim/5ca62962b8484628b8de1ec5"}},{"fullUrl":"https://madie.cms.gov/Coverage/d417c5ed-ec2c-44d0-80e0-1e4acff3278d","resource":{"resourceType":"Coverage","id":"d417c5ed-ec2c-44d0-80e0-1e4acff3278d","meta":{"profile":["http://hl7.org/fhir/us/qicore/StructureDefinition/qicore-coverage"]},"status":"active","subscriberId":"523435","beneficiary":{"reference":"Patient/162a5913-9989-42f2-8d6a-ae460e245e4c"},"relationship":{"coding":[{"system":"http://terminology.hl7.org/CodeSystem/subscriber-relationship","code":"self"}]},"payor":[{"reference":"Organization/f5a6238a-f6aa-44b1-b74f-5636da6e8302"}]},"request":{"method":"PUT","url":"Coverage/d417c5ed-ec2c-44d0-80e0-1e4acff3278d"}},{"fullUrl":"https://madie.cms.gov/Condition/3d16cb58-611f-444c-a9b2-7daec567dce6","resource":{"resourceType":"Condition","id":"3d16cb58-611f-444c-a9b2-7daec567dce6","meta":{"profile":["http://hl7.org/fhir/us/qicore/StructureDefinition/qicore-condition-problems-health-concerns"]},"clinicalStatus":{"coding":[{"system":"http://terminology.hl7.org/CodeSystem/condition-clinical","code":"active"}]},"verificationStatus":{"coding":[{"system":"http://terminology.hl7.org/CodeSystem/condition-ver-status","code":"confirmed"}]},"category":[{"coding":[{"system":"http://terminology.hl7.org/CodeSystem/condition-category","code":"encounter-diagnosis","display":"Encounter Diagnosis"}]}],"code":{"coding":[{"system":"http://snomed.info/sct","version":"2021-09","code":"111297002","display":"Nonparalytic stroke (disorder)","userSelected":true}]},"subject":{"reference":"Patient/0fc5a0c1-02c0-4427-87d8-2e58f4be7b07"},"recordedDate":"2026-10-13T08:00:00Z"},"request":{"method":"PUT","url":"Condition/3d16cb58-611f-444c-a9b2-7daec567dce6"}},{"fullUrl":"https://madie.cms.gov/Organization/f5a6238a-f6aa-44b1-b74f-5636da6e8302","resource":{"resourceType":"Organization","id":"f5a6238a-f6aa-44b1-b74f-5636da6e8302","meta":{"profile":["http://hl7.org/fhir/us/qicore/StructureDefinition/qicore-organization"]},"identifier":[{"use":"temp","system":"urn:oid:2.16.840.1.113883.4.4","value":"21-3259825"}],"active":true,"type":[{"coding":[{"system":"http://terminology.hl7.org/CodeSystem/organization-type","code":"pay","display":"Payer"}]}],"name":"Blue Cross Blue Shield of Texas","telecom":[{"system":"phone","value":"(+1) 972-766-6900"}],"address":[{"use":"billing","type":"postal","line":["P.O. Box 660044"],"city":"Dallas","state":"TX","postalCode":"75266-0044","country":"USA"}]},"request":{"method":"PUT","url":"Organization/f5a6238a-f6aa-44b1-b74f-5636da6e8302"}},{"fullUrl":"https://madie.cms.gov/Practitioner/14f9ff36-1458-4d18-a721-9448830a8ff9","resource":{"resourceType":"Practitioner","id":"14f9ff36-1458-4d18-a721-9448830a8ff9","meta":{"profile":["http://hl7.org/fhir/us/qicore/StructureDefinition/qicore-practitioner"]},"identifier":[{"system":"http://hl7.org/fhir/sid/us-npi","value":"9999999896"}],"name":[{"family":"Evil","prefix":["Dr"]}]},"request":{"method":"PUT","url":"Practitioner/14f9ff36-1458-4d18-a721-9448830a8ff9"}},{"fullUrl":"https://madie.cms.gov/MeasureReport/65fd2edf-687a-4b5f-90ae-bf6c8a6d8677","resource":{"resourceType":"MeasureReport","id":"65fd2edf-687a-4b5f-90ae-bf6c8a6d8677","meta":{"profile":["http://hl7.org/fhir/us/cqfmeasures/StructureDefinition/test-case-cqfm"]},"contained":[{"resourceType":"Parameters","id":"836f2c40-6b2f-4c41-8c79-c0647cf128a7-parameters","parameter":[{"name":"subject","valueString":"0fc5a0c1-02c0-4427-87d8-2e58f4be7b07"}]}],"extension":[{"url":"http://hl7.org/fhir/StructureDefinition/cqf-inputParameters","valueReference":{"reference":"#836f2c40-6b2f-4c41-8c79-c0647cf128a7-parameters"}},{"url":"http://hl7.org/fhir/us/cqfmeasures/StructureDefinition/cqfm-testCaseDescription","valueMarkdown":"Principal diagnosis = ischemic stroke, patient turns 18 one day after OccurA starts\n"}],"modifierExtension":[{"url":"http://hl7.org/fhir/us/cqfmeasures/StructureDefinition/cqfm-isTestCase","valueBoolean":true}],"status":"complete","type":"individual","measure":"https://madie.cms.gov/Measure/CMS71FHIRSTKAnticoagAFFlutter","period":{"start":"2026-01-01","end":"2026-12-31"},"group":[{"id":"Group_1","population":[{"id":"InitialPopulation_1","code":{"coding":[{"system":"http://terminology.hl7.org/CodeSystem/measure-population","code":"initial-population","display":"Initial Population"}]},"count":0},{"id":"Denominator_1","code":{"coding":[{"system":"http://terminology.hl7.org/CodeSystem/measure-population","code":"denominator","display":"Denominator"}]},"count":0},{"id":"DenominatorExclusion_1","code":{"coding":[{"system":"http://terminology.hl7.org/CodeSystem/measure-population","code":"denominator-exclusion","display":"Denominator Exclusion"}]},"count":0},{"id":"Numerator_1","code":{"coding":[{"system":"http://terminology.hl7.org/CodeSystem/measure-population","code":"numerator","display":"Numerator"}]},"count":0},{"id":"DenominatorException_1","code":{"coding":[{"system":"http://terminology.hl7.org/CodeSystem/measure-population","code":"denominator-exception","display":"Denominator Exception"}]},"count":0}],"measureScore":{"value":0.0}}],"evaluatedResource":[{"reference":"Patient/0fc5a0c1-02c0-4427-87d8-2e58f4be7b07"},{"reference":"Encounter/b6cf8e91-d1a0-40ea-8cde-162b91021473"},{"reference":"Claim/5ca62962b8484628b8de1ec5"},{"reference":"Coverage/d417c5ed-ec2c-44d0-80e0-1e4acff3278d"},{"reference":"Condition/3d16cb58-611f-444c-a9b2-7daec567dce6"},{"reference":"Organization/f5a6238a-f6aa-44b1-b74f-5636da6e8302"},{"reference":"Practitioner/14f9ff36-1458-4d18-a721-9448830a8ff9"}]},"request":{"method":"PUT","url":"MeasureReport/65fd2edf-687a-4b5f-90ae-bf6c8a6d8677"}}]},"request":{"method":"PUT","url":"Bundle/633c9d030968f8012250fc70"}},{"fullUrl":"MeasureReport/65fd2edf-687a-4b5f-90ae-bf6c8a6d8677","resource":{"resourceType":"MeasureReport","id":"65fd2edf-687a-4b5f-90ae-bf6c8a6d8677","meta":{"profile":["http://hl7.org/fhir/us/cqfmeasures/StructureDefinition/test-case-cqfm"]},"contained":[{"resourceType":"Parameters","id":"836f2c40-6b2f-4c41-8c79-c0647cf128a7-parameters","parameter":[{"name":"subject","valueString":"0fc5a0c1-02c0-4427-87d8-2e58f4be7b07"}]}],"extension":[{"url":"http://hl7.org/fhir/StructureDefinition/cqf-inputParameters","valueReference":{"reference":"#836f2c40-6b2f-4c41-8c79-c0647cf128a7-parameters"}},{"url":"http://hl7.org/fhir/us/cqfmeasures/StructureDefinition/cqfm-testCaseDescription","valueMarkdown":"Principal diagnosis = ischemic stroke, patient turns 18 one day after OccurA starts\n"}],"modifierExtension":[{"url":"http://hl7.org/fhir/us/cqfmeasures/StructureDefinition/cqfm-isTestCase","valueBoolean":true}],"status":"complete","type":"individual","measure":"https://madie.cms.gov/Measure/CMS71FHIRSTKAnticoagAFFlutter","period":{"start":"2026-01-01","end":"2026-12-31"},"group":[{"id":"Group_1","population":[{"id":"InitialPopulation_1","code":{"coding":[{"system":"http://terminology.hl7.org/CodeSystem/measure-population","code":"initial-population","display":"Initial Population"}]},"count":0},{"id":"Denominator_1","code":{"coding":[{"system":"http://terminology.hl7.org/CodeSystem/measure-population","code":"denominator","display":"Denominator"}]},"count":0},{"id":"DenominatorExclusion_1","code":{"coding":[{"system":"http://terminology.hl7.org/CodeSystem/measure-population","code":"denominator-exclusion","display":"Denominator Exclusion"}]},"count":0},{"id":"Numerator_1","code":{"coding":[{"system":"http://terminology.hl7.org/CodeSystem/measure-population","code":"numerator","display":"Numerator"}]},"count":0},{"id":"DenominatorException_1","code":{"coding":[{"system":"http://terminology.hl7.org/CodeSystem/measure-population","code":"denominator-exception","display":"Denominator Exception"}]},"count":0}],"measureScore":{"value":0.0}}],"evaluatedResource":[{"reference":"Patient/0fc5a0c1-02c0-4427-87d8-2e58f4be7b07"},{"reference":"Encounter/b6cf8e91-d1a0-40ea-8cde-162b91021473"},{"reference":"Claim/5ca62962b8484628b8de1ec5"},{"reference":"Coverage/d417c5ed-ec2c-44d0-80e0-1e4acff3278d"},{"reference":"Condition/3d16cb58-611f-444c-a9b2-7daec567dce6"},{"reference":"Organization/f5a6238a-f6aa-44b1-b74f-5636da6e8302"},{"reference":"Practitioner/14f9ff36-1458-4d18-a721-9448830a8ff9"}]},"request":{"method":"PUT","url":"MeasureReport/65fd2edf-687a-4b5f-90ae-bf6c8a6d8677"}},{"fullUrl":"Coverage/d417c5ed-ec2c-44d0-80e0-1e4acff3278d","resource":{"resourceType":"Coverage","id":"d417c5ed-ec2c-44d0-80e0-1e4acff3278d","meta":{"profile":["http://hl7.org/fhir/us/qicore/StructureDefinition/qicore-coverage"]},"status":"active","subscriberId":"523435","beneficiary":{"reference":"Patient/162a5913-9989-42f2-8d6a-ae460e245e4c"},"relationship":{"coding":[{"system":"http://terminology.hl7.org/CodeSystem/subscriber-relationship","code":"self"}]},"payor":[{"reference":"Organization/f5a6238a-f6aa-44b1-b74f-5636da6e8302"}]},"request":{"method":"PUT","url":"Coverage/d417c5ed-ec2c-44d0-80e0-1e4acff3278d"}},{"fullUrl":"Encounter/b6cf8e91-d1a0-40ea-8cde-162b91021473","resource":{"resourceType":"Encounter","id":"b6cf8e91-d1a0-40ea-8cde-162b91021473","meta":{"profile":["http://hl7.org/fhir/us/qicore/StructureDefinition/qicore-encounter"]},"status":"finished","class":{"system":"http://terminology.hl7.org/CodeSystem/v3-ActCode","code":"IMP","display":"inpatient encounter"},"type":[{"coding":[{"system":"http://snomed.info/sct","code":"32485007"}]}],"subject":{"reference":"Patient/0fc5a0c1-02c0-4427-87d8-2e58f4be7b07"},"period":{"start":"2026-02-08T08:00:00Z","end":"2026-02-10T08:15:00.000+00:00"},"length":{"value":2,"unit":"days"},"diagnosis":[{"condition":{"reference":"Condition/3d16cb58-611f-444c-a9b2-7daec567dce6"},"rank":1}]},"request":{"method":"PUT","url":"Encounter/b6cf8e91-d1a0-40ea-8cde-162b91021473"}},{"fullUrl":"Patient/0fc5a0c1-02c0-4427-87d8-2e58f4be7b07","resource":{"resourceType":"Patient","id":"0fc5a0c1-02c0-4427-87d8-2e58f4be7b07","meta":{"profile":["http://hl7.org/fhir/us/qicore/StructureDefinition/qicore-patient"]},"text":{"status":"generated","div":"<div xmlns=\"http://www.w3.org/1999/xhtml\"><div class=\"hapiHeaderText\">Age&lt;18 <b>IPPFAIL </b></div><table class=\"hapiPropertyTable\"><tbody><tr><td>Identifier</td><td>ca0f0d86cef05422cfb8f64b99a26e8f</td></tr><tr><td>Date of birth</td><td><span>09 February 1994</span></td></tr></tbody></table></div>"},"extension":[{"url":"http://hl7.org/fhir/us/core/StructureDefinition/us-core-race","extension":[{"url":"ombCategory","valueCoding":{"system":"urn:oid:2.16.840.1.113883.6.238","code":"1002-5","display":"American Indian or Alaska Native","userSelected":true}},{"url":"text","valueString":"American Indian or Alaska Native"}]},{"url":"http://hl7.org/fhir/us/core/StructureDefinition/us-core-ethnicity","extension":[{"url":"ombCategory","valueCoding":{"system":"urn:oid:2.16.840.1.113883.6.238","code":"2135-2","display":"Hispanic or Latino","userSelected":true}},{"url":"text","valueString":"Hispanic or Latino"}]}],"identifier":[{"type":{"coding":[{"system":"http://terminology.hl7.org/CodeSystem/v2-0203","code":"MR"}]},"system":"https://bonnie-fhir.healthit.gov/","value":"633c9d030968f8012250fc70"}],"active":true,"name":[{"use":"usual","family":"IPPFail","given":["Age<18"]}],"gender":"male","birthDate":"2008-02-09"},"request":{"method":"PUT","url":"Patient/0fc5a0c1-02c0-4427-87d8-2e58f4be7b07"}},{"fullUrl":"Claim/5ca62962b8484628b8de1ec5","resource":{"resourceType":"Claim","id":"5ca62962b8484628b8de1ec5","meta":{"profile":["http://hl7.org/fhir/us/qicore/StructureDefinition/qicore-claim"]},"status":"active","type":{"coding":[{"system":"http://terminology.hl7.org/CodeSystem/claim-type","code":"institutional"}]},"use":"claim","patient":{"reference":"Patient/d170a0a8-b5ad-4303-b6df-e304dd5f92ad"},"created":"2026-12-01","provider":{"reference":"Practitioner/14f9ff36-1458-4d18-a721-9448830a8ff9"},"priority":{"coding":[{"system":"http://terminology.hl7.org/CodeSystem/processpriority","code":"normal"}]},"diagnosis":[{"sequence":1,"diagnosisCodeableConcept":{"coding":[{"system":"http://hl7.org/fhir/sid/icd-10-cm","code":"I63.00"}]},"type":[{"coding":[{"system":"http://terminology.hl7.org/CodeSystem/ex-diagnosistype","code":"principal"}]}]}],"insurance":[{"sequence":1,"focal":true,"coverage":{"reference":"Coverage/5fa041661c76ba66d9959367"}}],"item":[{"sequence":1,"diagnosisSequence":[1],"productOrService":{"coding":[{"system":"http://terminology.hl7.org/CodeSystem/ex-USCLS","code":"99555"}]},"encounter":[{"reference":"Encounter/b6cf8e91-d1a0-40ea-8cde-162b91021473"}]}]},"request":{"method":"PUT","url":"Claim/5ca62962b8484628b8de1ec5"}}]}