{"resourceType":"Bundle","id":"tests-12f5363d-fa3f-4a61-aad9-defc8583ca12-bundle","type":"transaction","entry":[{"resource":{"resourceType":"Encounter","id":"b4d2622d-3730-4b3a-bb26-b1a234086024","meta":{"profile":["http://hl7.org/fhir/us/qicore/StructureDefinition/qicore-encounter"]},"status":"finished","class":{"system":"http://terminology.hl7.org/CodeSystem/v3-ActCode","code":"EMER","display":"emergency"},"type":[{"coding":[{"system":"http://snomed.info/sct","code":"4525004"}]}],"subject":{"reference":"Patient/12f5363d-fa3f-4a61-aad9-defc8583ca12"},"period":{"start":"2026-10-01T09:01:00Z","end":"2026-10-01T12:15:00.000+00:00"},"length":{"value":0,"unit":"days"}},"request":{"method":"PUT","url":"Encounter/b4d2622d-3730-4b3a-bb26-b1a234086024"}},{"resource":{"resourceType":"Encounter","id":"4a3b33ce-34d2-40ac-9ec0-caa68352454f","meta":{"profile":["http://hl7.org/fhir/us/qicore/StructureDefinition/qicore-encounter"]},"status":"finished","class":{"system":"http://terminology.hl7.org/CodeSystem/v3-ActCode","code":"IMP","display":"inpatient encounter"},"type":[{"coding":[{"system":"http://snomed.info/sct","code":"32485007"}]}],"subject":{"reference":"Patient/12f5363d-fa3f-4a61-aad9-defc8583ca12"},"period":{"start":"2026-10-01T13:15:00Z","end":"2026-10-12T00:15:00.000+00:00"},"length":{"value":11,"unit":"days"},"reasonReference":[{"reference":"Condition/0d92c6a7-71de-425d-98ef-b308cc4dee43"}]},"request":{"method":"PUT","url":"Encounter/4a3b33ce-34d2-40ac-9ec0-caa68352454f"}},{"resource":{"resourceType":"Condition","id":"0d92c6a7-71de-425d-98ef-b308cc4dee43","meta":{"profile":["http://hl7.org/fhir/us/qicore/StructureDefinition/qicore-condition-problems-health-concerns"]},"clinicalStatus":{"coding":[{"system":"http://terminology.hl7.org/CodeSystem/condition-clinical","code":"inactive"}]},"verificationStatus":{"coding":[{"system":"http://terminology.hl7.org/CodeSystem/condition-ver-status","code":"confirmed"}]},"category":[{"coding":[{"system":"http://terminology.hl7.org/CodeSystem/condition-category","code":"encounter-diagnosis","display":"Encounter Diagnosis"}]}],"code":{"coding":[{"system":"http://hl7.org/fhir/sid/icd-10-cm","code":"I48.20"},{"system":"http://hl7.org/fhir/sid/icd-10-cm","code":"I48.0"},{"system":"http://snomed.info/sct","code":"5370000"}]},"subject":{"reference":"Patient/12f5363d-fa3f-4a61-aad9-defc8583ca12"},"onsetDateTime":"2026-10-01T09:01:00Z","abatementDateTime":"2026-10-12T00:15:00.000+00:00"},"request":{"method":"PUT","url":"Condition/0d92c6a7-71de-425d-98ef-b308cc4dee43"}},{"resource":{"resourceType":"Condition","id":"141dcd17-3ece-487c-9b65-6dbbed92583c","meta":{"profile":["http://hl7.org/fhir/us/qicore/StructureDefinition/qicore-condition-problems-health-concerns"]},"clinicalStatus":{"coding":[{"system":"http://terminology.hl7.org/CodeSystem/condition-clinical","code":"active"}]},"verificationStatus":{"coding":[{"system":"http://terminology.hl7.org/CodeSystem/condition-ver-status","code":"confirmed"}]},"category":[{"coding":[{"system":"http://terminology.hl7.org/CodeSystem/condition-category","code":"encounter-diagnosis","display":"Encounter Diagnosis"}]}],"code":{"coding":[{"system":"http://snomed.info/sct","version":"2021-09","code":"111297002","display":"Nonparalytic stroke (disorder)","userSelected":true}]},"subject":{"reference":"Patient/12f5363d-fa3f-4a61-aad9-defc8583ca12"},"recordedDate":"2026-10-13T08:00:00Z"},"request":{"method":"PUT","url":"Condition/141dcd17-3ece-487c-9b65-6dbbed92583c"}},{"resource":{"resourceType":"ServiceRequest","id":"706b12e7-e0ee-4847-b7de-e3bb35df43c1","meta":{"profile":["http://hl7.org/fhir/us/qicore/StructureDefinition/qicore-servicerequest"]},"status":"active","intent":"order","code":{"coding":[{"system":"http://snomed.info/sct","code":"133918004"}]},"subject":{"reference":"Patient/12f5363d-fa3f-4a61-aad9-defc8583ca12"},"authoredOn":"2026-10-01T09:15:00Z"},"request":{"method":"PUT","url":"ServiceRequest/706b12e7-e0ee-4847-b7de-e3bb35df43c1"}},{"resource":{"resourceType":"Practitioner","id":"7630cbb3-c158-4325-a864-6a9ab23154b4","meta":{"profile":["http://hl7.org/fhir/us/qicore/StructureDefinition/qicore-practitioner"]},"identifier":[{"system":"http://hl7.org/fhir/sid/us-npi","value":"9999999896"}],"name":[{"family":"Evil","prefix":["Dr"]}]},"request":{"method":"PUT","url":"Practitioner/7630cbb3-c158-4325-a864-6a9ab23154b4"}},{"resource":{"resourceType":"Patient","id":"12f5363d-fa3f-4a61-aad9-defc8583ca12","meta":{"profile":["http://hl7.org/fhir/us/qicore/StructureDefinition/qicore-patient"]},"text":{"status":"generated","div":"<div xmlns=\"http://www.w3.org/1999/xhtml\"><div class=\"hapiHeaderText\">CMOdurED_ED=1hrNoObsBFEnc <b>DENEXPASS </b></div><table class=\"hapiPropertyTable\"><tbody><tr><td>Identifier</td><td>670854918483ca8b7894283bd5cddbcf5037c5392991b8777bf3c4f78ed05f0b</td></tr><tr><td>Date of birth</td><td><span>18 September 1985</span></td></tr></tbody></table></div>"},"extension":[{"url":"http://hl7.org/fhir/us/core/StructureDefinition/us-core-race","extension":[{"url":"ombCategory","valueCoding":{"system":"urn:oid:2.16.840.1.113883.6.238","code":"1002-5","display":"American Indian or Alaska Native","userSelected":true}},{"url":"text","valueString":"American Indian or Alaska Native"}]},{"url":"http://hl7.org/fhir/us/core/StructureDefinition/us-core-ethnicity","extension":[{"url":"ombCategory","valueCoding":{"system":"urn:oid:2.16.840.1.113883.6.238","code":"2135-2","display":"Hispanic or Latino","userSelected":true}},{"url":"text","valueString":"Hispanic or Latino"}]}],"identifier":[{"type":{"coding":[{"system":"http://terminology.hl7.org/CodeSystem/v2-0203","code":"MR"}]},"system":"https://bonnie-fhir.healthit.gov/","value":"633c9d040968f8012250fca3"}],"active":true,"name":[{"use":"usual","family":"DENEXPass","given":["CMOdurEDED1hrNoObsBFEnc"]}],"gender":"female","birthDate":"1986-09-18"},"request":{"method":"PUT","url":"Patient/12f5363d-fa3f-4a61-aad9-defc8583ca12"}},{"resource":{"resourceType":"Organization","id":"51dce0d2-65f8-40bb-9f11-0f194a2a3da6","meta":{"profile":["http://hl7.org/fhir/us/qicore/StructureDefinition/qicore-organization"]},"identifier":[{"use":"temp","system":"urn:oid:2.16.840.1.113883.4.4","value":"21-3259825"}],"active":true,"type":[{"coding":[{"system":"http://terminology.hl7.org/CodeSystem/organization-type","code":"pay","display":"Payer"}]}],"name":"Blue Cross Blue Shield of Texas","telecom":[{"system":"phone","value":"(+1) 972-766-6900"}],"address":[{"use":"billing","type":"postal","line":["P.O. Box 660044"],"city":"Dallas","state":"TX","postalCode":"75266-0044","country":"USA"}]},"request":{"method":"PUT","url":"Organization/51dce0d2-65f8-40bb-9f11-0f194a2a3da6"}},{"resource":{"resourceType":"MeasureReport","id":"2839b0f2-793f-457b-b7da-c00f7bb60ed1","meta":{"profile":["http://hl7.org/fhir/us/cqfmeasures/StructureDefinition/test-case-cqfm"]},"contained":[{"resourceType":"Parameters","id":"336d0103-5088-43f3-ba54-826362edf015-parameters","parameter":[{"name":"subject","valueString":"12f5363d-fa3f-4a61-aad9-defc8583ca12"}]}],"extension":[{"url":"http://hl7.org/fhir/StructureDefinition/cqf-inputParameters","valueReference":{"reference":"#336d0103-5088-43f3-ba54-826362edf015-parameters"}},{"url":"http://hl7.org/fhir/us/cqfmeasures/StructureDefinition/cqfm-testCaseDescription","valueMarkdown":"\"Patient receives CMO during ED. ED ends 60 min before Inpatient start. No Observation. Testing day HospitalizationWithObservation function\n\"\n"}],"modifierExtension":[{"url":"http://hl7.org/fhir/us/cqfmeasures/StructureDefinition/cqfm-isTestCase","valueBoolean":true}],"status":"complete","type":"individual","measure":"https://madie.cms.gov/Measure/CMS71FHIRSTKAnticoagAFFlutter","period":{"start":"2026-01-01","end":"2026-12-31"},"group":[{"id":"Group_1","population":[{"id":"InitialPopulation_1","code":{"coding":[{"system":"http://terminology.hl7.org/CodeSystem/measure-population","code":"initial-population","display":"Initial Population"}]},"count":1},{"id":"Denominator_1","code":{"coding":[{"system":"http://terminology.hl7.org/CodeSystem/measure-population","code":"denominator","display":"Denominator"}]},"count":1},{"id":"DenominatorExclusion_1","code":{"coding":[{"system":"http://terminology.hl7.org/CodeSystem/measure-population","code":"denominator-exclusion","display":"Denominator Exclusion"}]},"count":1},{"id":"Numerator_1","code":{"coding":[{"system":"http://terminology.hl7.org/CodeSystem/measure-population","code":"numerator","display":"Numerator"}]},"count":0},{"id":"DenominatorException_1","code":{"coding":[{"system":"http://terminology.hl7.org/CodeSystem/measure-population","code":"denominator-exception","display":"Denominator Exception"}]},"count":0}],"measureScore":{"value":0.0}}],"evaluatedResource":[{"reference":"Patient/12f5363d-fa3f-4a61-aad9-defc8583ca12"},{"reference":"Condition/0d92c6a7-71de-425d-98ef-b308cc4dee43"},{"reference":"Encounter/b4d2622d-3730-4b3a-bb26-b1a234086024"},{"reference":"Encounter/4a3b33ce-34d2-40ac-9ec0-caa68352454f"},{"reference":"Claim/5ca62962b8484628b8de1ec5"},{"reference":"ServiceRequest/706b12e7-e0ee-4847-b7de-e3bb35df43c1"},{"reference":"Coverage/d4332b83-16a8-4125-8d3d-d917a95f1857"},{"reference":"Condition/141dcd17-3ece-487c-9b65-6dbbed92583c"},{"reference":"Organization/51dce0d2-65f8-40bb-9f11-0f194a2a3da6"},{"reference":"Practitioner/7630cbb3-c158-4325-a864-6a9ab23154b4"}]},"request":{"method":"PUT","url":"MeasureReport/2839b0f2-793f-457b-b7da-c00f7bb60ed1"}},{"resource":{"resourceType":"Bundle","id":"633c9d040968f8012250fca3","type":"transaction","entry":[{"fullUrl":"https://madie.cms.gov/Patient/12f5363d-fa3f-4a61-aad9-defc8583ca12","resource":{"resourceType":"Patient","id":"12f5363d-fa3f-4a61-aad9-defc8583ca12","meta":{"profile":["http://hl7.org/fhir/us/qicore/StructureDefinition/qicore-patient"]},"text":{"status":"generated","div":"<div xmlns=\"http://www.w3.org/1999/xhtml\"><div class=\"hapiHeaderText\">CMOdurED_ED=1hrNoObsBFEnc <b>DENEXPASS </b></div><table class=\"hapiPropertyTable\"><tbody><tr><td>Identifier</td><td>670854918483ca8b7894283bd5cddbcf5037c5392991b8777bf3c4f78ed05f0b</td></tr><tr><td>Date of birth</td><td><span>18 September 1985</span></td></tr></tbody></table></div>"},"extension":[{"url":"http://hl7.org/fhir/us/core/StructureDefinition/us-core-race","extension":[{"url":"ombCategory","valueCoding":{"system":"urn:oid:2.16.840.1.113883.6.238","code":"1002-5","display":"American Indian or Alaska Native","userSelected":true}},{"url":"text","valueString":"American Indian or Alaska Native"}]},{"url":"http://hl7.org/fhir/us/core/StructureDefinition/us-core-ethnicity","extension":[{"url":"ombCategory","valueCoding":{"system":"urn:oid:2.16.840.1.113883.6.238","code":"2135-2","display":"Hispanic or Latino","userSelected":true}},{"url":"text","valueString":"Hispanic or Latino"}]}],"identifier":[{"type":{"coding":[{"system":"http://terminology.hl7.org/CodeSystem/v2-0203","code":"MR"}]},"system":"https://bonnie-fhir.healthit.gov/","value":"633c9d040968f8012250fca3"}],"active":true,"name":[{"use":"usual","family":"DENEXPass","given":["CMOdurEDED1hrNoObsBFEnc"]}],"gender":"female","birthDate":"1986-09-18"},"request":{"method":"PUT","url":"Patient/12f5363d-fa3f-4a61-aad9-defc8583ca12"}},{"fullUrl":"https://madie.cms.gov/Condition/0d92c6a7-71de-425d-98ef-b308cc4dee43","resource":{"resourceType":"Condition","id":"0d92c6a7-71de-425d-98ef-b308cc4dee43","meta":{"profile":["http://hl7.org/fhir/us/qicore/StructureDefinition/qicore-condition-problems-health-concerns"]},"clinicalStatus":{"coding":[{"system":"http://terminology.hl7.org/CodeSystem/condition-clinical","code":"inactive"}]},"verificationStatus":{"coding":[{"system":"http://terminology.hl7.org/CodeSystem/condition-ver-status","code":"confirmed"}]},"category":[{"coding":[{"system":"http://terminology.hl7.org/CodeSystem/condition-category","code":"encounter-diagnosis","display":"Encounter Diagnosis"}]}],"code":{"coding":[{"system":"http://hl7.org/fhir/sid/icd-10-cm","code":"I48.20"},{"system":"http://hl7.org/fhir/sid/icd-10-cm","code":"I48.0"},{"system":"http://snomed.info/sct","code":"5370000"}]},"subject":{"reference":"Patient/12f5363d-fa3f-4a61-aad9-defc8583ca12"},"onsetDateTime":"2026-10-01T09:01:00Z","abatementDateTime":"2026-10-12T00:15:00.000+00:00"},"request":{"method":"PUT","url":"Condition/0d92c6a7-71de-425d-98ef-b308cc4dee43"}},{"fullUrl":"https://madie.cms.gov/Encounter/b4d2622d-3730-4b3a-bb26-b1a234086024","resource":{"resourceType":"Encounter","id":"b4d2622d-3730-4b3a-bb26-b1a234086024","meta":{"profile":["http://hl7.org/fhir/us/qicore/StructureDefinition/qicore-encounter"]},"status":"finished","class":{"system":"http://terminology.hl7.org/CodeSystem/v3-ActCode","code":"EMER","display":"emergency"},"type":[{"coding":[{"system":"http://snomed.info/sct","code":"4525004"}]}],"subject":{"reference":"Patient/12f5363d-fa3f-4a61-aad9-defc8583ca12"},"period":{"start":"2026-10-01T09:01:00Z","end":"2026-10-01T12:15:00.000+00:00"},"length":{"value":0,"unit":"days"}},"request":{"method":"PUT","url":"Encounter/b4d2622d-3730-4b3a-bb26-b1a234086024"}},{"fullUrl":"https://madie.cms.gov/Encounter/4a3b33ce-34d2-40ac-9ec0-caa68352454f","resource":{"resourceType":"Encounter","id":"4a3b33ce-34d2-40ac-9ec0-caa68352454f","meta":{"profile":["http://hl7.org/fhir/us/qicore/StructureDefinition/qicore-encounter"]},"status":"finished","class":{"system":"http://terminology.hl7.org/CodeSystem/v3-ActCode","code":"IMP","display":"inpatient encounter"},"type":[{"coding":[{"system":"http://snomed.info/sct","code":"32485007"}]}],"subject":{"reference":"Patient/12f5363d-fa3f-4a61-aad9-defc8583ca12"},"period":{"start":"2026-10-01T13:15:00Z","end":"2026-10-12T00:15:00.000+00:00"},"length":{"value":11,"unit":"days"},"reasonReference":[{"reference":"Condition/0d92c6a7-71de-425d-98ef-b308cc4dee43"}]},"request":{"method":"PUT","url":"Encounter/4a3b33ce-34d2-40ac-9ec0-caa68352454f"}},{"fullUrl":"https://madie.cms.gov/claim/5ca62962b8484628b8de1ec5","resource":{"resourceType":"Claim","id":"5ca62962b8484628b8de1ec5","meta":{"profile":["http://hl7.org/fhir/us/qicore/StructureDefinition/qicore-claim"]},"status":"active","type":{"coding":[{"system":"http://terminology.hl7.org/CodeSystem/claim-type","code":"institutional"}]},"use":"claim","patient":{"reference":"Patient/d170a0a8-b5ad-4303-b6df-e304dd5f92ad"},"created":"2026-12-01","provider":{"reference":"Practitioner/7630cbb3-c158-4325-a864-6a9ab23154b4"},"priority":{"coding":[{"system":"http://terminology.hl7.org/CodeSystem/processpriority","code":"normal"}]},"diagnosis":[{"sequence":1,"diagnosisCodeableConcept":{"coding":[{"system":"http://hl7.org/fhir/sid/icd-10-cm","code":"I63.00"}]},"type":[{"coding":[{"system":"http://terminology.hl7.org/CodeSystem/ex-diagnosistype","code":"principal"}]}]}],"insurance":[{"sequence":1,"focal":true,"coverage":{"reference":"Coverage/5fa041661c76ba66d9959367"}}],"item":[{"sequence":1,"diagnosisSequence":[1],"productOrService":{"coding":[{"system":"http://terminology.hl7.org/CodeSystem/ex-USCLS","code":"99555"}]},"encounter":[{"reference":"Encounter/4a3b33ce-34d2-40ac-9ec0-caa68352454f"}]}]},"request":{"method":"PUT","url":"Claim/5ca62962b8484628b8de1ec5"}},{"fullUrl":"https://madie.cms.gov/ServiceRequest/706b12e7-e0ee-4847-b7de-e3bb35df43c1","resource":{"resourceType":"ServiceRequest","id":"706b12e7-e0ee-4847-b7de-e3bb35df43c1","meta":{"profile":["http://hl7.org/fhir/us/qicore/StructureDefinition/qicore-servicerequest"]},"status":"active","intent":"order","code":{"coding":[{"system":"http://snomed.info/sct","code":"133918004"}]},"subject":{"reference":"Patient/12f5363d-fa3f-4a61-aad9-defc8583ca12"},"authoredOn":"2026-10-01T09:15:00Z"},"request":{"method":"PUT","url":"ServiceRequest/706b12e7-e0ee-4847-b7de-e3bb35df43c1"}},{"fullUrl":"https://madie.cms.gov/Coverage/d4332b83-16a8-4125-8d3d-d917a95f1857","resource":{"resourceType":"Coverage","id":"d4332b83-16a8-4125-8d3d-d917a95f1857","status":"active","subscriberId":"523435","beneficiary":{"reference":"Patient/12f5363d-fa3f-4a61-aad9-defc8583ca12"},"relationship":{"coding":[{"system":"http://terminology.hl7.org/CodeSystem/subscriber-relationship","code":"self"}]},"period":{"start":"1986-09-18T08:00:00Z"},"payor":[{"reference":"Organization/51dce0d2-65f8-40bb-9f11-0f194a2a3da6"}]},"request":{"method":"PUT","url":"Coverage/d4332b83-16a8-4125-8d3d-d917a95f1857"}},{"fullUrl":"https://madie.cms.gov/Condition/141dcd17-3ece-487c-9b65-6dbbed92583c","resource":{"resourceType":"Condition","id":"141dcd17-3ece-487c-9b65-6dbbed92583c","meta":{"profile":["http://hl7.org/fhir/us/qicore/StructureDefinition/qicore-condition-problems-health-concerns"]},"clinicalStatus":{"coding":[{"system":"http://terminology.hl7.org/CodeSystem/condition-clinical","code":"active"}]},"verificationStatus":{"coding":[{"system":"http://terminology.hl7.org/CodeSystem/condition-ver-status","code":"confirmed"}]},"category":[{"coding":[{"system":"http://terminology.hl7.org/CodeSystem/condition-category","code":"encounter-diagnosis","display":"Encounter Diagnosis"}]}],"code":{"coding":[{"system":"http://snomed.info/sct","version":"2021-09","code":"111297002","display":"Nonparalytic stroke (disorder)","userSelected":true}]},"subject":{"reference":"Patient/12f5363d-fa3f-4a61-aad9-defc8583ca12"},"recordedDate":"2026-10-13T08:00:00Z"},"request":{"method":"PUT","url":"Condition/141dcd17-3ece-487c-9b65-6dbbed92583c"}},{"fullUrl":"https://madie.cms.gov/Organization/51dce0d2-65f8-40bb-9f11-0f194a2a3da6","resource":{"resourceType":"Organization","id":"51dce0d2-65f8-40bb-9f11-0f194a2a3da6","meta":{"profile":["http://hl7.org/fhir/us/qicore/StructureDefinition/qicore-organization"]},"identifier":[{"use":"temp","system":"urn:oid:2.16.840.1.113883.4.4","value":"21-3259825"}],"active":true,"type":[{"coding":[{"system":"http://terminology.hl7.org/CodeSystem/organization-type","code":"pay","display":"Payer"}]}],"name":"Blue Cross Blue Shield of Texas","telecom":[{"system":"phone","value":"(+1) 972-766-6900"}],"address":[{"use":"billing","type":"postal","line":["P.O. Box 660044"],"city":"Dallas","state":"TX","postalCode":"75266-0044","country":"USA"}]},"request":{"method":"PUT","url":"Organization/51dce0d2-65f8-40bb-9f11-0f194a2a3da6"}},{"fullUrl":"https://madie.cms.gov/Practitioner/7630cbb3-c158-4325-a864-6a9ab23154b4","resource":{"resourceType":"Practitioner","id":"7630cbb3-c158-4325-a864-6a9ab23154b4","meta":{"profile":["http://hl7.org/fhir/us/qicore/StructureDefinition/qicore-practitioner"]},"identifier":[{"system":"http://hl7.org/fhir/sid/us-npi","value":"9999999896"}],"name":[{"family":"Evil","prefix":["Dr"]}]},"request":{"method":"PUT","url":"Practitioner/7630cbb3-c158-4325-a864-6a9ab23154b4"}},{"fullUrl":"https://madie.cms.gov/MeasureReport/2839b0f2-793f-457b-b7da-c00f7bb60ed1","resource":{"resourceType":"MeasureReport","id":"2839b0f2-793f-457b-b7da-c00f7bb60ed1","meta":{"profile":["http://hl7.org/fhir/us/cqfmeasures/StructureDefinition/test-case-cqfm"]},"contained":[{"resourceType":"Parameters","id":"336d0103-5088-43f3-ba54-826362edf015-parameters","parameter":[{"name":"subject","valueString":"12f5363d-fa3f-4a61-aad9-defc8583ca12"}]}],"extension":[{"url":"http://hl7.org/fhir/StructureDefinition/cqf-inputParameters","valueReference":{"reference":"#336d0103-5088-43f3-ba54-826362edf015-parameters"}},{"url":"http://hl7.org/fhir/us/cqfmeasures/StructureDefinition/cqfm-testCaseDescription","valueMarkdown":"\"Patient receives CMO during ED. ED ends 60 min before Inpatient start. No Observation. Testing day HospitalizationWithObservation function\n\"\n"}],"modifierExtension":[{"url":"http://hl7.org/fhir/us/cqfmeasures/StructureDefinition/cqfm-isTestCase","valueBoolean":true}],"status":"complete","type":"individual","measure":"https://madie.cms.gov/Measure/CMS71FHIRSTKAnticoagAFFlutter","period":{"start":"2026-01-01","end":"2026-12-31"},"group":[{"id":"Group_1","population":[{"id":"InitialPopulation_1","code":{"coding":[{"system":"http://terminology.hl7.org/CodeSystem/measure-population","code":"initial-population","display":"Initial Population"}]},"count":1},{"id":"Denominator_1","code":{"coding":[{"system":"http://terminology.hl7.org/CodeSystem/measure-population","code":"denominator","display":"Denominator"}]},"count":1},{"id":"DenominatorExclusion_1","code":{"coding":[{"system":"http://terminology.hl7.org/CodeSystem/measure-population","code":"denominator-exclusion","display":"Denominator Exclusion"}]},"count":1},{"id":"Numerator_1","code":{"coding":[{"system":"http://terminology.hl7.org/CodeSystem/measure-population","code":"numerator","display":"Numerator"}]},"count":0},{"id":"DenominatorException_1","code":{"coding":[{"system":"http://terminology.hl7.org/CodeSystem/measure-population","code":"denominator-exception","display":"Denominator Exception"}]},"count":0}],"measureScore":{"value":0.0}}],"evaluatedResource":[{"reference":"Patient/12f5363d-fa3f-4a61-aad9-defc8583ca12"},{"reference":"Condition/0d92c6a7-71de-425d-98ef-b308cc4dee43"},{"reference":"Encounter/b4d2622d-3730-4b3a-bb26-b1a234086024"},{"reference":"Encounter/4a3b33ce-34d2-40ac-9ec0-caa68352454f"},{"reference":"Claim/5ca62962b8484628b8de1ec5"},{"reference":"ServiceRequest/706b12e7-e0ee-4847-b7de-e3bb35df43c1"},{"reference":"Coverage/d4332b83-16a8-4125-8d3d-d917a95f1857"},{"reference":"Condition/141dcd17-3ece-487c-9b65-6dbbed92583c"},{"reference":"Organization/51dce0d2-65f8-40bb-9f11-0f194a2a3da6"},{"reference":"Practitioner/7630cbb3-c158-4325-a864-6a9ab23154b4"}]},"request":{"method":"PUT","url":"MeasureReport/2839b0f2-793f-457b-b7da-c00f7bb60ed1"}}]},"request":{"method":"PUT","url":"Bundle/633c9d040968f8012250fca3"}},{"resource":{"resourceType":"Claim","id":"5ca62962b8484628b8de1ec5","meta":{"profile":["http://hl7.org/fhir/us/qicore/StructureDefinition/qicore-claim"]},"status":"active","type":{"coding":[{"system":"http://terminology.hl7.org/CodeSystem/claim-type","code":"institutional"}]},"use":"claim","patient":{"reference":"Patient/d170a0a8-b5ad-4303-b6df-e304dd5f92ad"},"created":"2026-12-01","provider":{"reference":"Practitioner/7630cbb3-c158-4325-a864-6a9ab23154b4"},"priority":{"coding":[{"system":"http://terminology.hl7.org/CodeSystem/processpriority","code":"normal"}]},"diagnosis":[{"sequence":1,"diagnosisCodeableConcept":{"coding":[{"system":"http://hl7.org/fhir/sid/icd-10-cm","code":"I63.00"}]},"type":[{"coding":[{"system":"http://terminology.hl7.org/CodeSystem/ex-diagnosistype","code":"principal"}]}]}],"insurance":[{"sequence":1,"focal":true,"coverage":{"reference":"Coverage/5fa041661c76ba66d9959367"}}],"item":[{"sequence":1,"diagnosisSequence":[1],"productOrService":{"coding":[{"system":"http://terminology.hl7.org/CodeSystem/ex-USCLS","code":"99555"}]},"encounter":[{"reference":"Encounter/4a3b33ce-34d2-40ac-9ec0-caa68352454f"}]}]},"request":{"method":"PUT","url":"Claim/5ca62962b8484628b8de1ec5"}},{"resource":{"resourceType":"Coverage","id":"d4332b83-16a8-4125-8d3d-d917a95f1857","status":"active","subscriberId":"523435","beneficiary":{"reference":"Patient/12f5363d-fa3f-4a61-aad9-defc8583ca12"},"relationship":{"coding":[{"system":"http://terminology.hl7.org/CodeSystem/subscriber-relationship","code":"self"}]},"period":{"start":"1986-09-18T08:00:00Z"},"payor":[{"reference":"Organization/51dce0d2-65f8-40bb-9f11-0f194a2a3da6"}]},"request":{"method":"PUT","url":"Coverage/d4332b83-16a8-4125-8d3d-d917a95f1857"}}]}