{"resourceType":"Bundle","id":"tests-2c1e6f23-20a1-44c3-8c2a-0bec67c3d2f5-bundle","type":"transaction","entry":[{"fullUrl":"Organization/532d2b11-a3dd-4019-9b18-81ff71b5b7eb","resource":{"resourceType":"Organization","id":"532d2b11-a3dd-4019-9b18-81ff71b5b7eb","meta":{"profile":["http://hl7.org/fhir/us/qicore/StructureDefinition/qicore-organization"]},"identifier":[{"use":"temp","system":"urn:oid:2.16.840.1.113883.4.4","value":"21-3259825"}],"active":true,"type":[{"coding":[{"system":"http://terminology.hl7.org/CodeSystem/organization-type","code":"pay","display":"Payer"}]}],"name":"Blue Cross Blue Shield of Texas","telecom":[{"system":"phone","value":"(+1) 972-766-6900"}],"address":[{"use":"billing","type":"postal","line":["P.O. Box 660044"],"city":"Dallas","state":"TX","postalCode":"75266-0044","country":"USA"}]},"request":{"method":"PUT","url":"Organization/532d2b11-a3dd-4019-9b18-81ff71b5b7eb"}},{"fullUrl":"MeasureReport/3d9eb619-5d92-4f18-a254-c7a4fdbd189d","resource":{"resourceType":"MeasureReport","id":"3d9eb619-5d92-4f18-a254-c7a4fdbd189d","meta":{"profile":["http://hl7.org/fhir/us/cqfmeasures/StructureDefinition/test-case-cqfm"]},"contained":[{"resourceType":"Parameters","id":"26ef8a8b-89b1-4f24-8d24-976f898c2da7-parameters","parameter":[{"name":"subject","valueString":"2c1e6f23-20a1-44c3-8c2a-0bec67c3d2f5"}]}],"extension":[{"url":"http://hl7.org/fhir/StructureDefinition/cqf-inputParameters","valueReference":{"reference":"#26ef8a8b-89b1-4f24-8d24-976f898c2da7-parameters"}},{"url":"http://hl7.org/fhir/us/cqfmeasures/StructureDefinition/cqfm-testCaseDescription","valueMarkdown":"Principal diagnosis = ischemic stroke, age GT 18\n"}],"modifierExtension":[{"url":"http://hl7.org/fhir/us/cqfmeasures/StructureDefinition/cqfm-isTestCase","valueBoolean":true}],"status":"complete","type":"individual","measure":"https://madie.cms.gov/Measure/CMS71FHIRSTKAnticoagAFFlutter","period":{"start":"2026-01-01","end":"2026-12-31"},"group":[{"id":"Group_1","population":[{"id":"InitialPopulation_1","code":{"coding":[{"system":"http://terminology.hl7.org/CodeSystem/measure-population","code":"initial-population","display":"Initial Population"}]},"count":1},{"id":"Denominator_1","code":{"coding":[{"system":"http://terminology.hl7.org/CodeSystem/measure-population","code":"denominator","display":"Denominator"}]},"count":0},{"id":"DenominatorExclusion_1","code":{"coding":[{"system":"http://terminology.hl7.org/CodeSystem/measure-population","code":"denominator-exclusion","display":"Denominator Exclusion"}]},"count":0},{"id":"Numerator_1","code":{"coding":[{"system":"http://terminology.hl7.org/CodeSystem/measure-population","code":"numerator","display":"Numerator"}]},"count":0},{"id":"DenominatorException_1","code":{"coding":[{"system":"http://terminology.hl7.org/CodeSystem/measure-population","code":"denominator-exception","display":"Denominator Exception"}]},"count":0}],"measureScore":{"value":0.0}}],"evaluatedResource":[{"reference":"Patient/2c1e6f23-20a1-44c3-8c2a-0bec67c3d2f5"},{"reference":"Encounter/89a2be8f-3380-4976-ac42-e8e76c8b9bf3"},{"reference":"Claim/5ca62962b8484628b8de1ec5"},{"reference":"Coverage/24d2093d-03de-4216-a11e-dee551e75b04"},{"reference":"Condition/84e5f22b-3b28-4180-9aad-a6e73cb719c2"},{"reference":"Organization/532d2b11-a3dd-4019-9b18-81ff71b5b7eb"},{"reference":"Practitioner/4db72323-9111-4237-a17b-ed0f7fad7da4"}]},"request":{"method":"PUT","url":"MeasureReport/3d9eb619-5d92-4f18-a254-c7a4fdbd189d"}},{"fullUrl":"Practitioner/4db72323-9111-4237-a17b-ed0f7fad7da4","resource":{"resourceType":"Practitioner","id":"4db72323-9111-4237-a17b-ed0f7fad7da4","identifier":[{"system":"http://hl7.org/fhir/sid/us-npi","value":"123456"}],"name":[{"family":"Evil","prefix":["Dr"]}]},"request":{"method":"PUT","url":"Practitioner/4db72323-9111-4237-a17b-ed0f7fad7da4"}},{"fullUrl":"Condition/84e5f22b-3b28-4180-9aad-a6e73cb719c2","resource":{"resourceType":"Condition","id":"84e5f22b-3b28-4180-9aad-a6e73cb719c2","meta":{"profile":["http://hl7.org/fhir/us/qicore/StructureDefinition/qicore-condition"]},"clinicalStatus":{"coding":[{"system":"http://terminology.hl7.org/CodeSystem/condition-clinical","code":"active"}]},"verificationStatus":{"coding":[{"system":"http://terminology.hl7.org/CodeSystem/condition-ver-status","code":"confirmed"}]},"category":[{"coding":[{"system":"http://terminology.hl7.org/CodeSystem/condition-category","code":"encounter-diagnosis","display":"Encounter Diagnosis"}]}],"code":{"coding":[{"system":"http://snomed.info/sct","version":"2021-09","code":"111297002","display":"Nonparalytic stroke (disorder)","userSelected":true}]},"subject":{"reference":"Patient/2c1e6f23-20a1-44c3-8c2a-0bec67c3d2f5"},"recordedDate":"2026-10-13T08:00:00Z"},"request":{"method":"PUT","url":"Condition/84e5f22b-3b28-4180-9aad-a6e73cb719c2"}},{"fullUrl":"Coverage/24d2093d-03de-4216-a11e-dee551e75b04","resource":{"resourceType":"Coverage","id":"24d2093d-03de-4216-a11e-dee551e75b04","status":"active","beneficiary":{"reference":"Patient/2c1e6f23-20a1-44c3-8c2a-0bec67c3d2f5"},"period":{"start":"1961-12-01T08:00:00Z"},"payor":[{"reference":"Organization/532d2b11-a3dd-4019-9b18-81ff71b5b7eb"}]},"request":{"method":"PUT","url":"Coverage/24d2093d-03de-4216-a11e-dee551e75b04"}},{"fullUrl":"Bundle/633c9d030968f8012250fc6b","resource":{"resourceType":"Bundle","id":"633c9d030968f8012250fc6b","type":"transaction","entry":[{"fullUrl":"https://madie.cms.gov/Patient/2c1e6f23-20a1-44c3-8c2a-0bec67c3d2f5","resource":{"resourceType":"Patient","id":"2c1e6f23-20a1-44c3-8c2a-0bec67c3d2f5","meta":{"profile":["http://hl7.org/fhir/us/qicore/StructureDefinition/qicore-patient"]},"text":{"status":"generated","div":"<div xmlns=\"http://www.w3.org/1999/xhtml\"><div class=\"hapiHeaderText\">EncPrinDx=IschemicStroke <b>IPPPASS </b></div><table class=\"hapiPropertyTable\"><tbody><tr><td>Identifier</td><td>e24e934ef2385ddb5e9ee5c55913bf5e</td></tr><tr><td>Date of birth</td><td><span>01 December 1960</span></td></tr></tbody></table></div>"},"extension":[{"url":"http://hl7.org/fhir/us/core/StructureDefinition/us-core-race","extension":[{"url":"ombCategory","valueCoding":{"system":"urn:oid:2.16.840.1.113883.6.238","code":"1002-5","display":"American Indian or Alaska Native","userSelected":true}},{"url":"text","valueString":"American Indian or Alaska Native"}]},{"url":"http://hl7.org/fhir/us/core/StructureDefinition/us-core-ethnicity","extension":[{"url":"ombCategory","valueCoding":{"system":"urn:oid:2.16.840.1.113883.6.238","code":"2135-2","display":"Hispanic or Latino","userSelected":true}},{"url":"text","valueString":"Hispanic or Latino"}]}],"identifier":[{"type":{"coding":[{"system":"http://terminology.hl7.org/CodeSystem/v2-0203","code":"MR"}]},"system":"https://bonnie-fhir.healthit.gov/","value":"633c9d030968f8012250fc6b"}],"active":true,"name":[{"use":"usual","family":"IPPPass ","given":["EncPrinDx=IschemicStroke"]}],"gender":"male","birthDate":"1961-12-01"},"request":{"method":"PUT","url":"Patient/2c1e6f23-20a1-44c3-8c2a-0bec67c3d2f5"}},{"fullUrl":"https://madie.cms.gov/Encounter/89a2be8f-3380-4976-ac42-e8e76c8b9bf3","resource":{"resourceType":"Encounter","id":"89a2be8f-3380-4976-ac42-e8e76c8b9bf3","meta":{"profile":["http://hl7.org/fhir/us/qicore/StructureDefinition/qicore-encounter"]},"status":"finished","class":{"system":"http://terminology.hl7.org/CodeSystem/v3-ActCode","code":"IMP","display":"inpatient encounter"},"type":[{"coding":[{"system":"http://snomed.info/sct","code":"32485007"}]}],"subject":{"reference":"Patient/2c1e6f23-20a1-44c3-8c2a-0bec67c3d2f5"},"period":{"start":"2026-02-08T08:00:00Z","end":"2026-02-10T08:15:00.000+00:00"},"length":{"value":2,"unit":"days"},"diagnosis":[{"condition":{"reference":"Condition/84e5f22b-3b28-4180-9aad-a6e73cb719c2"},"use":{"coding":[{"system":"http://terminology.hl7.org/CodeSystem/diagnosis-role","code":"billing","display":"Billing"}]},"rank":1}]},"request":{"method":"PUT","url":"Encounter/89a2be8f-3380-4976-ac42-e8e76c8b9bf3"}},{"fullUrl":"https://madie.cms.gov/claim/5ca62962b8484628b8de1ec5","resource":{"resourceType":"Claim","id":"5ca62962b8484628b8de1ec5","meta":{"profile":["http://hl7.org/fhir/us/qicore/StructureDefinition/qicore-claim"]},"status":"active","type":{"coding":[{"system":"http://terminology.hl7.org/CodeSystem/claim-type","code":"institutional"}]},"use":"claim","patient":{"reference":"Patient/d170a0a8-b5ad-4303-b6df-e304dd5f92ad"},"created":"2026-12-01","provider":{"reference":"Practitioner/4db72323-9111-4237-a17b-ed0f7fad7da4"},"priority":{"coding":[{"system":"http://terminology.hl7.org/CodeSystem/processpriority","code":"normal"}]},"diagnosis":[{"sequence":1,"diagnosisCodeableConcept":{"coding":[{"system":"http://hl7.org/fhir/sid/icd-10-cm","code":"I63.00"}]},"type":[{"coding":[{"system":"http://terminology.hl7.org/CodeSystem/ex-diagnosistype","code":"principal"}]}]}],"insurance":[{"sequence":1,"focal":true,"coverage":{"reference":"Coverage/5fa041661c76ba66d9959367"}}],"item":[{"sequence":1,"diagnosisSequence":[1],"productOrService":{"coding":[{"system":"http://terminology.hl7.org/CodeSystem/ex-USCLS","code":"99555"}]},"encounter":[{"reference":"Encounter/89a2be8f-3380-4976-ac42-e8e76c8b9bf3"}]}]},"request":{"method":"PUT","url":"Claim/5ca62962b8484628b8de1ec5"}},{"fullUrl":"https://madie.cms.gov/Coverage/24d2093d-03de-4216-a11e-dee551e75b04","resource":{"resourceType":"Coverage","id":"24d2093d-03de-4216-a11e-dee551e75b04","status":"active","beneficiary":{"reference":"Patient/2c1e6f23-20a1-44c3-8c2a-0bec67c3d2f5"},"period":{"start":"1961-12-01T08:00:00Z"},"payor":[{"reference":"Organization/532d2b11-a3dd-4019-9b18-81ff71b5b7eb"}]},"request":{"method":"PUT","url":"Coverage/24d2093d-03de-4216-a11e-dee551e75b04"}},{"fullUrl":"https://madie.cms.gov/Condition/84e5f22b-3b28-4180-9aad-a6e73cb719c2","resource":{"resourceType":"Condition","id":"84e5f22b-3b28-4180-9aad-a6e73cb719c2","meta":{"profile":["http://hl7.org/fhir/us/qicore/StructureDefinition/qicore-condition"]},"clinicalStatus":{"coding":[{"system":"http://terminology.hl7.org/CodeSystem/condition-clinical","code":"active"}]},"verificationStatus":{"coding":[{"system":"http://terminology.hl7.org/CodeSystem/condition-ver-status","code":"confirmed"}]},"category":[{"coding":[{"system":"http://terminology.hl7.org/CodeSystem/condition-category","code":"encounter-diagnosis","display":"Encounter Diagnosis"}]}],"code":{"coding":[{"system":"http://snomed.info/sct","version":"2021-09","code":"111297002","display":"Nonparalytic stroke (disorder)","userSelected":true}]},"subject":{"reference":"Patient/2c1e6f23-20a1-44c3-8c2a-0bec67c3d2f5"},"recordedDate":"2026-10-13T08:00:00Z"},"request":{"method":"PUT","url":"Condition/84e5f22b-3b28-4180-9aad-a6e73cb719c2"}},{"fullUrl":"https://madie.cms.gov/Organization/532d2b11-a3dd-4019-9b18-81ff71b5b7eb","resource":{"resourceType":"Organization","id":"532d2b11-a3dd-4019-9b18-81ff71b5b7eb","meta":{"profile":["http://hl7.org/fhir/us/qicore/StructureDefinition/qicore-organization"]},"identifier":[{"use":"temp","system":"urn:oid:2.16.840.1.113883.4.4","value":"21-3259825"}],"active":true,"type":[{"coding":[{"system":"http://terminology.hl7.org/CodeSystem/organization-type","code":"pay","display":"Payer"}]}],"name":"Blue Cross Blue Shield of Texas","telecom":[{"system":"phone","value":"(+1) 972-766-6900"}],"address":[{"use":"billing","type":"postal","line":["P.O. Box 660044"],"city":"Dallas","state":"TX","postalCode":"75266-0044","country":"USA"}]},"request":{"method":"PUT","url":"Organization/532d2b11-a3dd-4019-9b18-81ff71b5b7eb"}},{"fullUrl":"https://madie.cms.gov/Practitioner/4db72323-9111-4237-a17b-ed0f7fad7da4","resource":{"resourceType":"Practitioner","id":"4db72323-9111-4237-a17b-ed0f7fad7da4","identifier":[{"system":"http://hl7.org/fhir/sid/us-npi","value":"123456"}],"name":[{"family":"Evil","prefix":["Dr"]}]},"request":{"method":"PUT","url":"Practitioner/4db72323-9111-4237-a17b-ed0f7fad7da4"}},{"fullUrl":"https://madie.cms.gov/MeasureReport/3d9eb619-5d92-4f18-a254-c7a4fdbd189d","resource":{"resourceType":"MeasureReport","id":"3d9eb619-5d92-4f18-a254-c7a4fdbd189d","meta":{"profile":["http://hl7.org/fhir/us/cqfmeasures/StructureDefinition/test-case-cqfm"]},"contained":[{"resourceType":"Parameters","id":"26ef8a8b-89b1-4f24-8d24-976f898c2da7-parameters","parameter":[{"name":"subject","valueString":"2c1e6f23-20a1-44c3-8c2a-0bec67c3d2f5"}]}],"extension":[{"url":"http://hl7.org/fhir/StructureDefinition/cqf-inputParameters","valueReference":{"reference":"#26ef8a8b-89b1-4f24-8d24-976f898c2da7-parameters"}},{"url":"http://hl7.org/fhir/us/cqfmeasures/StructureDefinition/cqfm-testCaseDescription","valueMarkdown":"Principal diagnosis = ischemic stroke, age GT 18\n"}],"modifierExtension":[{"url":"http://hl7.org/fhir/us/cqfmeasures/StructureDefinition/cqfm-isTestCase","valueBoolean":true}],"status":"complete","type":"individual","measure":"https://madie.cms.gov/Measure/CMS71FHIRSTKAnticoagAFFlutter","period":{"start":"2026-01-01","end":"2026-12-31"},"group":[{"id":"Group_1","population":[{"id":"InitialPopulation_1","code":{"coding":[{"system":"http://terminology.hl7.org/CodeSystem/measure-population","code":"initial-population","display":"Initial Population"}]},"count":1},{"id":"Denominator_1","code":{"coding":[{"system":"http://terminology.hl7.org/CodeSystem/measure-population","code":"denominator","display":"Denominator"}]},"count":0},{"id":"DenominatorExclusion_1","code":{"coding":[{"system":"http://terminology.hl7.org/CodeSystem/measure-population","code":"denominator-exclusion","display":"Denominator Exclusion"}]},"count":0},{"id":"Numerator_1","code":{"coding":[{"system":"http://terminology.hl7.org/CodeSystem/measure-population","code":"numerator","display":"Numerator"}]},"count":0},{"id":"DenominatorException_1","code":{"coding":[{"system":"http://terminology.hl7.org/CodeSystem/measure-population","code":"denominator-exception","display":"Denominator Exception"}]},"count":0}],"measureScore":{"value":0.0}}],"evaluatedResource":[{"reference":"Patient/2c1e6f23-20a1-44c3-8c2a-0bec67c3d2f5"},{"reference":"Encounter/89a2be8f-3380-4976-ac42-e8e76c8b9bf3"},{"reference":"Claim/5ca62962b8484628b8de1ec5"},{"reference":"Coverage/24d2093d-03de-4216-a11e-dee551e75b04"},{"reference":"Condition/84e5f22b-3b28-4180-9aad-a6e73cb719c2"},{"reference":"Organization/532d2b11-a3dd-4019-9b18-81ff71b5b7eb"},{"reference":"Practitioner/4db72323-9111-4237-a17b-ed0f7fad7da4"}]},"request":{"method":"PUT","url":"MeasureReport/3d9eb619-5d92-4f18-a254-c7a4fdbd189d"}}]},"request":{"method":"PUT","url":"Bundle/633c9d030968f8012250fc6b"}},{"fullUrl":"Encounter/89a2be8f-3380-4976-ac42-e8e76c8b9bf3","resource":{"resourceType":"Encounter","id":"89a2be8f-3380-4976-ac42-e8e76c8b9bf3","meta":{"profile":["http://hl7.org/fhir/us/qicore/StructureDefinition/qicore-encounter"]},"status":"finished","class":{"system":"http://terminology.hl7.org/CodeSystem/v3-ActCode","code":"IMP","display":"inpatient encounter"},"type":[{"coding":[{"system":"http://snomed.info/sct","code":"32485007"}]}],"subject":{"reference":"Patient/2c1e6f23-20a1-44c3-8c2a-0bec67c3d2f5"},"period":{"start":"2026-02-08T08:00:00Z","end":"2026-02-10T08:15:00.000+00:00"},"length":{"value":2,"unit":"days"},"diagnosis":[{"condition":{"reference":"Condition/84e5f22b-3b28-4180-9aad-a6e73cb719c2"},"use":{"coding":[{"system":"http://terminology.hl7.org/CodeSystem/diagnosis-role","code":"billing","display":"Billing"}]},"rank":1}]},"request":{"method":"PUT","url":"Encounter/89a2be8f-3380-4976-ac42-e8e76c8b9bf3"}},{"fullUrl":"Patient/2c1e6f23-20a1-44c3-8c2a-0bec67c3d2f5","resource":{"resourceType":"Patient","id":"2c1e6f23-20a1-44c3-8c2a-0bec67c3d2f5","meta":{"profile":["http://hl7.org/fhir/us/qicore/StructureDefinition/qicore-patient"]},"text":{"status":"generated","div":"<div xmlns=\"http://www.w3.org/1999/xhtml\"><div class=\"hapiHeaderText\">EncPrinDx=IschemicStroke <b>IPPPASS </b></div><table class=\"hapiPropertyTable\"><tbody><tr><td>Identifier</td><td>e24e934ef2385ddb5e9ee5c55913bf5e</td></tr><tr><td>Date of birth</td><td><span>01 December 1960</span></td></tr></tbody></table></div>"},"extension":[{"url":"http://hl7.org/fhir/us/core/StructureDefinition/us-core-race","extension":[{"url":"ombCategory","valueCoding":{"system":"urn:oid:2.16.840.1.113883.6.238","code":"1002-5","display":"American Indian or Alaska Native","userSelected":true}},{"url":"text","valueString":"American Indian or Alaska Native"}]},{"url":"http://hl7.org/fhir/us/core/StructureDefinition/us-core-ethnicity","extension":[{"url":"ombCategory","valueCoding":{"system":"urn:oid:2.16.840.1.113883.6.238","code":"2135-2","display":"Hispanic or Latino","userSelected":true}},{"url":"text","valueString":"Hispanic or Latino"}]}],"identifier":[{"type":{"coding":[{"system":"http://terminology.hl7.org/CodeSystem/v2-0203","code":"MR"}]},"system":"https://bonnie-fhir.healthit.gov/","value":"633c9d030968f8012250fc6b"}],"active":true,"name":[{"use":"usual","family":"IPPPass ","given":["EncPrinDx=IschemicStroke"]}],"gender":"male","birthDate":"1961-12-01"},"request":{"method":"PUT","url":"Patient/2c1e6f23-20a1-44c3-8c2a-0bec67c3d2f5"}},{"fullUrl":"Claim/5ca62962b8484628b8de1ec5","resource":{"resourceType":"Claim","id":"5ca62962b8484628b8de1ec5","meta":{"profile":["http://hl7.org/fhir/us/qicore/StructureDefinition/qicore-claim"]},"status":"active","type":{"coding":[{"system":"http://terminology.hl7.org/CodeSystem/claim-type","code":"institutional"}]},"use":"claim","patient":{"reference":"Patient/d170a0a8-b5ad-4303-b6df-e304dd5f92ad"},"created":"2026-12-01","provider":{"reference":"Practitioner/4db72323-9111-4237-a17b-ed0f7fad7da4"},"priority":{"coding":[{"system":"http://terminology.hl7.org/CodeSystem/processpriority","code":"normal"}]},"diagnosis":[{"sequence":1,"diagnosisCodeableConcept":{"coding":[{"system":"http://hl7.org/fhir/sid/icd-10-cm","code":"I63.00"}]},"type":[{"coding":[{"system":"http://terminology.hl7.org/CodeSystem/ex-diagnosistype","code":"principal"}]}]}],"insurance":[{"sequence":1,"focal":true,"coverage":{"reference":"Coverage/5fa041661c76ba66d9959367"}}],"item":[{"sequence":1,"diagnosisSequence":[1],"productOrService":{"coding":[{"system":"http://terminology.hl7.org/CodeSystem/ex-USCLS","code":"99555"}]},"encounter":[{"reference":"Encounter/89a2be8f-3380-4976-ac42-e8e76c8b9bf3"}]}]},"request":{"method":"PUT","url":"Claim/5ca62962b8484628b8de1ec5"}}]}