{"resourceType":"Bundle","id":"tests-c6b15880-138d-42cd-8350-8a16968c246b-bundle","type":"transaction","entry":[{"fullUrl":"Coverage/0429fa6d-4291-4c35-a85e-e1a8eeb66471","resource":{"resourceType":"Coverage","id":"0429fa6d-4291-4c35-a85e-e1a8eeb66471","status":"active","subscriberId":"523435","beneficiary":{"reference":"Patient/c6b15880-138d-42cd-8350-8a16968c246b"},"relationship":{"coding":[{"system":"http://terminology.hl7.org/CodeSystem/subscriber-relationship","code":"self"}]},"period":{"start":"1986-09-18T08:00:00Z"},"payor":[{"reference":"Organization/19d4c187-159a-4f63-bd12-54df960e694b"}]},"request":{"method":"PUT","url":"Coverage/0429fa6d-4291-4c35-a85e-e1a8eeb66471"}},{"fullUrl":"Condition/f6b1994c-2381-4a15-a0ff-80cbf7ec5132","resource":{"resourceType":"Condition","id":"f6b1994c-2381-4a15-a0ff-80cbf7ec5132","meta":{"profile":["http://hl7.org/fhir/us/qicore/StructureDefinition/qicore-condition"]},"clinicalStatus":{"coding":[{"system":"http://terminology.hl7.org/CodeSystem/condition-clinical","code":"active"}]},"verificationStatus":{"coding":[{"system":"http://terminology.hl7.org/CodeSystem/condition-ver-status","code":"confirmed"}]},"category":[{"coding":[{"system":"http://terminology.hl7.org/CodeSystem/condition-category","code":"encounter-diagnosis","display":"Encounter Diagnosis"}]}],"code":{"coding":[{"system":"http://snomed.info/sct","version":"2021-09","code":"111297002","display":"Nonparalytic stroke (disorder)","userSelected":true}]},"subject":{"reference":"Patient/c6b15880-138d-42cd-8350-8a16968c246b"},"recordedDate":"2026-10-13T08:00:00Z"},"request":{"method":"PUT","url":"Condition/f6b1994c-2381-4a15-a0ff-80cbf7ec5132"}},{"fullUrl":"Organization/19d4c187-159a-4f63-bd12-54df960e694b","resource":{"resourceType":"Organization","id":"19d4c187-159a-4f63-bd12-54df960e694b","meta":{"profile":["http://hl7.org/fhir/us/qicore/StructureDefinition/qicore-organization"]},"identifier":[{"use":"temp","system":"urn:oid:2.16.840.1.113883.4.4","value":"21-3259825"}],"active":true,"type":[{"coding":[{"system":"http://terminology.hl7.org/CodeSystem/organization-type","code":"pay","display":"Payer"}]}],"name":"Blue Cross Blue Shield of Texas","telecom":[{"system":"phone","value":"(+1) 972-766-6900"}],"address":[{"use":"billing","type":"postal","line":["P.O. Box 660044"],"city":"Dallas","state":"TX","postalCode":"75266-0044","country":"USA"}]},"request":{"method":"PUT","url":"Organization/19d4c187-159a-4f63-bd12-54df960e694b"}},{"fullUrl":"Procedure/8fd644a4-c68f-4bf6-adee-46aaabd08a09","resource":{"resourceType":"Procedure","id":"8fd644a4-c68f-4bf6-adee-46aaabd08a09","meta":{"profile":["http://hl7.org/fhir/us/qicore/StructureDefinition/qicore-procedure"]},"extension":[{"url":"http://hl7.org/fhir/us/qicore/StructureDefinition/qicore-recorded","valueDateTime":"2026-11-19T13:35:00Z"}],"status":"completed","code":{"coding":[{"system":"http://snomed.info/sct","code":"133918004"}]},"subject":{"reference":"Patient/c6b15880-138d-42cd-8350-8a16968c246b"},"performedPeriod":{"start":"2026-10-01T09:00:00Z","end":"2026-10-12T00:15:00.000+00:00"}},"request":{"method":"PUT","url":"Procedure/8fd644a4-c68f-4bf6-adee-46aaabd08a09"}},{"fullUrl":"Patient/c6b15880-138d-42cd-8350-8a16968c246b","resource":{"resourceType":"Patient","id":"c6b15880-138d-42cd-8350-8a16968c246b","meta":{"profile":["http://hl7.org/fhir/us/qicore/StructureDefinition/qicore-patient"]},"text":{"status":"generated","div":"<div xmlns=\"http://www.w3.org/1999/xhtml\"><div class=\"hapiHeaderText\">CMPdurEnc_NoEDNoObsBFEnc <b>DENEXPASS </b></div><table class=\"hapiPropertyTable\"><tbody><tr><td>Identifier</td><td>669cd2691aaab3d70b8b307e64426a43</td></tr><tr><td>Date of birth</td><td><span>18 September 1985</span></td></tr></tbody></table></div>"},"extension":[{"url":"http://hl7.org/fhir/us/core/StructureDefinition/us-core-race","extension":[{"url":"ombCategory","valueCoding":{"system":"urn:oid:2.16.840.1.113883.6.238","code":"1002-5","display":"American Indian or Alaska Native","userSelected":true}},{"url":"text","valueString":"American Indian or Alaska Native"}]},{"url":"http://hl7.org/fhir/us/core/StructureDefinition/us-core-ethnicity","extension":[{"url":"ombCategory","valueCoding":{"system":"urn:oid:2.16.840.1.113883.6.238","code":"2135-2","display":"Hispanic or Latino","userSelected":true}},{"url":"text","valueString":"Hispanic or Latino"}]}],"identifier":[{"type":{"coding":[{"system":"http://terminology.hl7.org/CodeSystem/v2-0203","code":"MR"}]},"system":"https://bonnie-fhir.healthit.gov/","value":"633c9d030968f8012250fc80"}],"active":true,"name":[{"use":"usual","family":"DENEXPass","given":["CMPdurEnc_NoEDNoObsBFEnc"]}],"gender":"female","birthDate":"1986-09-18"},"request":{"method":"PUT","url":"Patient/c6b15880-138d-42cd-8350-8a16968c246b"}},{"fullUrl":"Practitioner/39385a37-5647-4a6c-a03a-b35b62c34c9c","resource":{"resourceType":"Practitioner","id":"39385a37-5647-4a6c-a03a-b35b62c34c9c","meta":{"profile":["http://hl7.org/fhir/us/qicore/StructureDefinition/qicore-practitioner"]},"identifier":[{"system":"http://hl7.org/fhir/sid/us-npi","value":"9999999896"}],"name":[{"family":"Evil","prefix":["Dr"]}]},"request":{"method":"PUT","url":"Practitioner/39385a37-5647-4a6c-a03a-b35b62c34c9c"}},{"fullUrl":"Bundle/633c9d030968f8012250fc80","resource":{"resourceType":"Bundle","id":"633c9d030968f8012250fc80","type":"transaction","entry":[{"fullUrl":"https://madie.cms.gov/Patient/c6b15880-138d-42cd-8350-8a16968c246b","resource":{"resourceType":"Patient","id":"c6b15880-138d-42cd-8350-8a16968c246b","meta":{"profile":["http://hl7.org/fhir/us/qicore/StructureDefinition/qicore-patient"]},"text":{"status":"generated","div":"<div xmlns=\"http://www.w3.org/1999/xhtml\"><div class=\"hapiHeaderText\">CMPdurEnc_NoEDNoObsBFEnc <b>DENEXPASS </b></div><table class=\"hapiPropertyTable\"><tbody><tr><td>Identifier</td><td>669cd2691aaab3d70b8b307e64426a43</td></tr><tr><td>Date of birth</td><td><span>18 September 1985</span></td></tr></tbody></table></div>"},"extension":[{"url":"http://hl7.org/fhir/us/core/StructureDefinition/us-core-race","extension":[{"url":"ombCategory","valueCoding":{"system":"urn:oid:2.16.840.1.113883.6.238","code":"1002-5","display":"American Indian or Alaska Native","userSelected":true}},{"url":"text","valueString":"American Indian or Alaska Native"}]},{"url":"http://hl7.org/fhir/us/core/StructureDefinition/us-core-ethnicity","extension":[{"url":"ombCategory","valueCoding":{"system":"urn:oid:2.16.840.1.113883.6.238","code":"2135-2","display":"Hispanic or Latino","userSelected":true}},{"url":"text","valueString":"Hispanic or Latino"}]}],"identifier":[{"type":{"coding":[{"system":"http://terminology.hl7.org/CodeSystem/v2-0203","code":"MR"}]},"system":"https://bonnie-fhir.healthit.gov/","value":"633c9d030968f8012250fc80"}],"active":true,"name":[{"use":"usual","family":"DENEXPass","given":["CMPdurEnc_NoEDNoObsBFEnc"]}],"gender":"female","birthDate":"1986-09-18"},"request":{"method":"PUT","url":"Patient/c6b15880-138d-42cd-8350-8a16968c246b"}},{"fullUrl":"https://madie.cms.gov/Condition/7de3f426-c999-4615-a64e-51ab58a25c35","resource":{"resourceType":"Condition","id":"7de3f426-c999-4615-a64e-51ab58a25c35","meta":{"profile":["http://hl7.org/fhir/us/qicore/StructureDefinition/qicore-condition-problems-health-concerns"]},"clinicalStatus":{"coding":[{"system":"http://terminology.hl7.org/CodeSystem/condition-clinical","code":"inactive"}]},"verificationStatus":{"coding":[{"system":"http://terminology.hl7.org/CodeSystem/condition-ver-status","code":"confirmed"}]},"category":[{"coding":[{"system":"http://terminology.hl7.org/CodeSystem/condition-category","code":"encounter-diagnosis","display":"Encounter Diagnosis"}]}],"code":{"coding":[{"system":"http://hl7.org/fhir/sid/icd-10-cm","code":"I48.20"},{"system":"http://hl7.org/fhir/sid/icd-10-cm","code":"I48.0"},{"system":"http://snomed.info/sct","code":"5370000"}]},"subject":{"reference":"Patient/c6b15880-138d-42cd-8350-8a16968c246b"},"onsetDateTime":"2026-10-01T09:00:00Z","abatementDateTime":"2026-10-12T00:15:00.000+00:00"},"request":{"method":"PUT","url":"Condition/7de3f426-c999-4615-a64e-51ab58a25c35"}},{"fullUrl":"https://madie.cms.gov/Encounter/66a39607-a36a-4653-8398-022bc48dd2bd","resource":{"resourceType":"Encounter","id":"66a39607-a36a-4653-8398-022bc48dd2bd","meta":{"profile":["http://hl7.org/fhir/us/qicore/StructureDefinition/qicore-encounter"]},"status":"finished","class":{"system":"http://terminology.hl7.org/CodeSystem/v3-ActCode","code":"IMP","display":"inpatient encounter"},"type":[{"coding":[{"system":"http://snomed.info/sct","code":"32485007"}]}],"subject":{"reference":"Patient/c6b15880-138d-42cd-8350-8a16968c246b"},"period":{"start":"2026-10-01T09:00:00Z","end":"2026-10-12T00:15:00.000+00:00"},"length":{"value":11,"unit":"days"},"reasonReference":[{"reference":"Condition/7de3f426-c999-4615-a64e-51ab58a25c35"}]},"request":{"method":"PUT","url":"Encounter/66a39607-a36a-4653-8398-022bc48dd2bd"}},{"fullUrl":"https://madie.cms.gov/Procedure/8fd644a4-c68f-4bf6-adee-46aaabd08a09","resource":{"resourceType":"Procedure","id":"8fd644a4-c68f-4bf6-adee-46aaabd08a09","meta":{"profile":["http://hl7.org/fhir/us/qicore/StructureDefinition/qicore-procedure"]},"extension":[{"url":"http://hl7.org/fhir/us/qicore/StructureDefinition/qicore-recorded","valueDateTime":"2026-11-19T13:35:00Z"}],"status":"completed","code":{"coding":[{"system":"http://snomed.info/sct","code":"133918004"}]},"subject":{"reference":"Patient/c6b15880-138d-42cd-8350-8a16968c246b"},"performedPeriod":{"start":"2026-10-01T09:00:00Z","end":"2026-10-12T00:15:00.000+00:00"}},"request":{"method":"PUT","url":"Procedure/8fd644a4-c68f-4bf6-adee-46aaabd08a09"}},{"fullUrl":"https://madie.cms.gov/Coverage/0429fa6d-4291-4c35-a85e-e1a8eeb66471","resource":{"resourceType":"Coverage","id":"0429fa6d-4291-4c35-a85e-e1a8eeb66471","status":"active","subscriberId":"523435","beneficiary":{"reference":"Patient/c6b15880-138d-42cd-8350-8a16968c246b"},"relationship":{"coding":[{"system":"http://terminology.hl7.org/CodeSystem/subscriber-relationship","code":"self"}]},"period":{"start":"1986-09-18T08:00:00Z"},"payor":[{"reference":"Organization/19d4c187-159a-4f63-bd12-54df960e694b"}]},"request":{"method":"PUT","url":"Coverage/0429fa6d-4291-4c35-a85e-e1a8eeb66471"}},{"fullUrl":"https://madie.cms.gov/Condition/f6b1994c-2381-4a15-a0ff-80cbf7ec5132","resource":{"resourceType":"Condition","id":"f6b1994c-2381-4a15-a0ff-80cbf7ec5132","meta":{"profile":["http://hl7.org/fhir/us/qicore/StructureDefinition/qicore-condition"]},"clinicalStatus":{"coding":[{"system":"http://terminology.hl7.org/CodeSystem/condition-clinical","code":"active"}]},"verificationStatus":{"coding":[{"system":"http://terminology.hl7.org/CodeSystem/condition-ver-status","code":"confirmed"}]},"category":[{"coding":[{"system":"http://terminology.hl7.org/CodeSystem/condition-category","code":"encounter-diagnosis","display":"Encounter Diagnosis"}]}],"code":{"coding":[{"system":"http://snomed.info/sct","version":"2021-09","code":"111297002","display":"Nonparalytic stroke (disorder)","userSelected":true}]},"subject":{"reference":"Patient/c6b15880-138d-42cd-8350-8a16968c246b"},"recordedDate":"2026-10-13T08:00:00Z"},"request":{"method":"PUT","url":"Condition/f6b1994c-2381-4a15-a0ff-80cbf7ec5132"}},{"fullUrl":"https://madie.cms.gov/claim/5ca62962b8484628b8de1ec5","resource":{"resourceType":"Claim","id":"5ca62962b8484628b8de1ec5","meta":{"profile":["http://hl7.org/fhir/us/qicore/StructureDefinition/qicore-claim"]},"status":"active","type":{"coding":[{"system":"http://terminology.hl7.org/CodeSystem/claim-type","code":"institutional"}]},"use":"claim","patient":{"reference":"Patient/d170a0a8-b5ad-4303-b6df-e304dd5f92ad"},"created":"2026-12-01","provider":{"reference":"Practitioner/39385a37-5647-4a6c-a03a-b35b62c34c9c"},"priority":{"coding":[{"system":"http://terminology.hl7.org/CodeSystem/processpriority","code":"normal"}]},"diagnosis":[{"sequence":1,"diagnosisCodeableConcept":{"coding":[{"system":"http://hl7.org/fhir/sid/icd-10-cm","code":"I63.00"}]},"type":[{"coding":[{"system":"http://terminology.hl7.org/CodeSystem/ex-diagnosistype","code":"principal"}]}]}],"insurance":[{"sequence":1,"focal":true,"coverage":{"reference":"Coverage/5fa041661c76ba66d9959367"}}],"item":[{"sequence":1,"diagnosisSequence":[1],"productOrService":{"coding":[{"system":"http://terminology.hl7.org/CodeSystem/ex-USCLS","code":"99555"}]},"encounter":[{"reference":"Encounter/66a39607-a36a-4653-8398-022bc48dd2bd"}]}]},"request":{"method":"PUT","url":"Claim/5ca62962b8484628b8de1ec5"}},{"fullUrl":"https://madie.cms.gov/Organization/19d4c187-159a-4f63-bd12-54df960e694b","resource":{"resourceType":"Organization","id":"19d4c187-159a-4f63-bd12-54df960e694b","meta":{"profile":["http://hl7.org/fhir/us/qicore/StructureDefinition/qicore-organization"]},"identifier":[{"use":"temp","system":"urn:oid:2.16.840.1.113883.4.4","value":"21-3259825"}],"active":true,"type":[{"coding":[{"system":"http://terminology.hl7.org/CodeSystem/organization-type","code":"pay","display":"Payer"}]}],"name":"Blue Cross Blue Shield of Texas","telecom":[{"system":"phone","value":"(+1) 972-766-6900"}],"address":[{"use":"billing","type":"postal","line":["P.O. Box 660044"],"city":"Dallas","state":"TX","postalCode":"75266-0044","country":"USA"}]},"request":{"method":"PUT","url":"Organization/19d4c187-159a-4f63-bd12-54df960e694b"}},{"fullUrl":"https://madie.cms.gov/Practitioner/39385a37-5647-4a6c-a03a-b35b62c34c9c","resource":{"resourceType":"Practitioner","id":"39385a37-5647-4a6c-a03a-b35b62c34c9c","meta":{"profile":["http://hl7.org/fhir/us/qicore/StructureDefinition/qicore-practitioner"]},"identifier":[{"system":"http://hl7.org/fhir/sid/us-npi","value":"9999999896"}],"name":[{"family":"Evil","prefix":["Dr"]}]},"request":{"method":"PUT","url":"Practitioner/39385a37-5647-4a6c-a03a-b35b62c34c9c"}},{"fullUrl":"https://madie.cms.gov/MeasureReport/7784b14b-f4ac-4e5e-8e5e-55b23d604b61","resource":{"resourceType":"MeasureReport","id":"7784b14b-f4ac-4e5e-8e5e-55b23d604b61","meta":{"profile":["http://hl7.org/fhir/us/cqfmeasures/StructureDefinition/test-case-cqfm"]},"contained":[{"resourceType":"Parameters","id":"f597fde3-2117-4d08-bb30-3f2dcb7b5e93-parameters","parameter":[{"name":"subject","valueString":"c6b15880-138d-42cd-8350-8a16968c246b"}]}],"extension":[{"url":"http://hl7.org/fhir/StructureDefinition/cqf-inputParameters","valueReference":{"reference":"#f597fde3-2117-4d08-bb30-3f2dcb7b5e93-parameters"}},{"url":"http://hl7.org/fhir/us/cqfmeasures/StructureDefinition/cqfm-testCaseDescription","valueMarkdown":"Patient receives CMP during inpatient encounter. No ED. No Obs. Testing HospitalizationWithObservation function\n"}],"modifierExtension":[{"url":"http://hl7.org/fhir/us/cqfmeasures/StructureDefinition/cqfm-isTestCase","valueBoolean":true}],"status":"complete","type":"individual","measure":"https://madie.cms.gov/Measure/CMS71FHIRSTKAnticoagAFFlutter","period":{"start":"2026-01-01","end":"2026-12-31"},"group":[{"id":"Group_1","population":[{"id":"InitialPopulation_1","code":{"coding":[{"system":"http://terminology.hl7.org/CodeSystem/measure-population","code":"initial-population","display":"Initial Population"}]},"count":1},{"id":"Denominator_1","code":{"coding":[{"system":"http://terminology.hl7.org/CodeSystem/measure-population","code":"denominator","display":"Denominator"}]},"count":1},{"id":"DenominatorExclusion_1","code":{"coding":[{"system":"http://terminology.hl7.org/CodeSystem/measure-population","code":"denominator-exclusion","display":"Denominator Exclusion"}]},"count":1},{"id":"Numerator_1","code":{"coding":[{"system":"http://terminology.hl7.org/CodeSystem/measure-population","code":"numerator","display":"Numerator"}]},"count":0},{"id":"DenominatorException_1","code":{"coding":[{"system":"http://terminology.hl7.org/CodeSystem/measure-population","code":"denominator-exception","display":"Denominator Exception"}]},"count":0}],"measureScore":{"value":0.0}}],"evaluatedResource":[{"reference":"Patient/c6b15880-138d-42cd-8350-8a16968c246b"},{"reference":"Condition/7de3f426-c999-4615-a64e-51ab58a25c35"},{"reference":"Encounter/66a39607-a36a-4653-8398-022bc48dd2bd"},{"reference":"Procedure/8fd644a4-c68f-4bf6-adee-46aaabd08a09"},{"reference":"Coverage/0429fa6d-4291-4c35-a85e-e1a8eeb66471"},{"reference":"Condition/f6b1994c-2381-4a15-a0ff-80cbf7ec5132"},{"reference":"Claim/5ca62962b8484628b8de1ec5"},{"reference":"Organization/19d4c187-159a-4f63-bd12-54df960e694b"},{"reference":"Practitioner/39385a37-5647-4a6c-a03a-b35b62c34c9c"}]},"request":{"method":"PUT","url":"MeasureReport/7784b14b-f4ac-4e5e-8e5e-55b23d604b61"}}]},"request":{"method":"PUT","url":"Bundle/633c9d030968f8012250fc80"}},{"fullUrl":"Encounter/66a39607-a36a-4653-8398-022bc48dd2bd","resource":{"resourceType":"Encounter","id":"66a39607-a36a-4653-8398-022bc48dd2bd","meta":{"profile":["http://hl7.org/fhir/us/qicore/StructureDefinition/qicore-encounter"]},"status":"finished","class":{"system":"http://terminology.hl7.org/CodeSystem/v3-ActCode","code":"IMP","display":"inpatient encounter"},"type":[{"coding":[{"system":"http://snomed.info/sct","code":"32485007"}]}],"subject":{"reference":"Patient/c6b15880-138d-42cd-8350-8a16968c246b"},"period":{"start":"2026-10-01T09:00:00Z","end":"2026-10-12T00:15:00.000+00:00"},"length":{"value":11,"unit":"days"},"reasonReference":[{"reference":"Condition/7de3f426-c999-4615-a64e-51ab58a25c35"}]},"request":{"method":"PUT","url":"Encounter/66a39607-a36a-4653-8398-022bc48dd2bd"}},{"fullUrl":"MeasureReport/7784b14b-f4ac-4e5e-8e5e-55b23d604b61","resource":{"resourceType":"MeasureReport","id":"7784b14b-f4ac-4e5e-8e5e-55b23d604b61","meta":{"profile":["http://hl7.org/fhir/us/cqfmeasures/StructureDefinition/test-case-cqfm"]},"contained":[{"resourceType":"Parameters","id":"f597fde3-2117-4d08-bb30-3f2dcb7b5e93-parameters","parameter":[{"name":"subject","valueString":"c6b15880-138d-42cd-8350-8a16968c246b"}]}],"extension":[{"url":"http://hl7.org/fhir/StructureDefinition/cqf-inputParameters","valueReference":{"reference":"#f597fde3-2117-4d08-bb30-3f2dcb7b5e93-parameters"}},{"url":"http://hl7.org/fhir/us/cqfmeasures/StructureDefinition/cqfm-testCaseDescription","valueMarkdown":"Patient receives CMP during inpatient encounter. No ED. No Obs. Testing HospitalizationWithObservation function\n"}],"modifierExtension":[{"url":"http://hl7.org/fhir/us/cqfmeasures/StructureDefinition/cqfm-isTestCase","valueBoolean":true}],"status":"complete","type":"individual","measure":"https://madie.cms.gov/Measure/CMS71FHIRSTKAnticoagAFFlutter","period":{"start":"2026-01-01","end":"2026-12-31"},"group":[{"id":"Group_1","population":[{"id":"InitialPopulation_1","code":{"coding":[{"system":"http://terminology.hl7.org/CodeSystem/measure-population","code":"initial-population","display":"Initial Population"}]},"count":1},{"id":"Denominator_1","code":{"coding":[{"system":"http://terminology.hl7.org/CodeSystem/measure-population","code":"denominator","display":"Denominator"}]},"count":1},{"id":"DenominatorExclusion_1","code":{"coding":[{"system":"http://terminology.hl7.org/CodeSystem/measure-population","code":"denominator-exclusion","display":"Denominator Exclusion"}]},"count":1},{"id":"Numerator_1","code":{"coding":[{"system":"http://terminology.hl7.org/CodeSystem/measure-population","code":"numerator","display":"Numerator"}]},"count":0},{"id":"DenominatorException_1","code":{"coding":[{"system":"http://terminology.hl7.org/CodeSystem/measure-population","code":"denominator-exception","display":"Denominator Exception"}]},"count":0}],"measureScore":{"value":0.0}}],"evaluatedResource":[{"reference":"Patient/c6b15880-138d-42cd-8350-8a16968c246b"},{"reference":"Condition/7de3f426-c999-4615-a64e-51ab58a25c35"},{"reference":"Encounter/66a39607-a36a-4653-8398-022bc48dd2bd"},{"reference":"Procedure/8fd644a4-c68f-4bf6-adee-46aaabd08a09"},{"reference":"Coverage/0429fa6d-4291-4c35-a85e-e1a8eeb66471"},{"reference":"Condition/f6b1994c-2381-4a15-a0ff-80cbf7ec5132"},{"reference":"Claim/5ca62962b8484628b8de1ec5"},{"reference":"Organization/19d4c187-159a-4f63-bd12-54df960e694b"},{"reference":"Practitioner/39385a37-5647-4a6c-a03a-b35b62c34c9c"}]},"request":{"method":"PUT","url":"MeasureReport/7784b14b-f4ac-4e5e-8e5e-55b23d604b61"}},{"fullUrl":"Condition/7de3f426-c999-4615-a64e-51ab58a25c35","resource":{"resourceType":"Condition","id":"7de3f426-c999-4615-a64e-51ab58a25c35","meta":{"profile":["http://hl7.org/fhir/us/qicore/StructureDefinition/qicore-condition-problems-health-concerns"]},"clinicalStatus":{"coding":[{"system":"http://terminology.hl7.org/CodeSystem/condition-clinical","code":"inactive"}]},"verificationStatus":{"coding":[{"system":"http://terminology.hl7.org/CodeSystem/condition-ver-status","code":"confirmed"}]},"category":[{"coding":[{"system":"http://terminology.hl7.org/CodeSystem/condition-category","code":"encounter-diagnosis","display":"Encounter Diagnosis"}]}],"code":{"coding":[{"system":"http://hl7.org/fhir/sid/icd-10-cm","code":"I48.20"},{"system":"http://hl7.org/fhir/sid/icd-10-cm","code":"I48.0"},{"system":"http://snomed.info/sct","code":"5370000"}]},"subject":{"reference":"Patient/c6b15880-138d-42cd-8350-8a16968c246b"},"onsetDateTime":"2026-10-01T09:00:00Z","abatementDateTime":"2026-10-12T00:15:00.000+00:00"},"request":{"method":"PUT","url":"Condition/7de3f426-c999-4615-a64e-51ab58a25c35"}},{"fullUrl":"Claim/5ca62962b8484628b8de1ec5","resource":{"resourceType":"Claim","id":"5ca62962b8484628b8de1ec5","meta":{"profile":["http://hl7.org/fhir/us/qicore/StructureDefinition/qicore-claim"]},"status":"active","type":{"coding":[{"system":"http://terminology.hl7.org/CodeSystem/claim-type","code":"institutional"}]},"use":"claim","patient":{"reference":"Patient/d170a0a8-b5ad-4303-b6df-e304dd5f92ad"},"created":"2026-12-01","provider":{"reference":"Practitioner/39385a37-5647-4a6c-a03a-b35b62c34c9c"},"priority":{"coding":[{"system":"http://terminology.hl7.org/CodeSystem/processpriority","code":"normal"}]},"diagnosis":[{"sequence":1,"diagnosisCodeableConcept":{"coding":[{"system":"http://hl7.org/fhir/sid/icd-10-cm","code":"I63.00"}]},"type":[{"coding":[{"system":"http://terminology.hl7.org/CodeSystem/ex-diagnosistype","code":"principal"}]}]}],"insurance":[{"sequence":1,"focal":true,"coverage":{"reference":"Coverage/5fa041661c76ba66d9959367"}}],"item":[{"sequence":1,"diagnosisSequence":[1],"productOrService":{"coding":[{"system":"http://terminology.hl7.org/CodeSystem/ex-USCLS","code":"99555"}]},"encounter":[{"reference":"Encounter/66a39607-a36a-4653-8398-022bc48dd2bd"}]}]},"request":{"method":"PUT","url":"Claim/5ca62962b8484628b8de1ec5"}}]}