{"resourceType":"Bundle","id":"tests-3b8d6a18-b4a3-4369-b33c-6a6daa6b5b4c-bundle","type":"transaction","entry":[{"fullUrl":"Encounter/388b1c20-c00d-4207-a9f9-003c098e03d7","resource":{"resourceType":"Encounter","id":"388b1c20-c00d-4207-a9f9-003c098e03d7","meta":{"profile":["http://hl7.org/fhir/us/qicore/StructureDefinition/qicore-encounter"]},"status":"finished","class":{"system":"http://terminology.hl7.org/CodeSystem/v3-ActCode","code":"IMP","display":"inpatient encounter"},"type":[{"coding":[{"system":"http://snomed.info/sct","code":"32485007"}]}],"subject":{"reference":"Patient/3b8d6a18-b4a3-4369-b33c-6a6daa6b5b4c"},"period":{"start":"2026-11-20T08:00:00Z","end":"2026-11-24T08:15:00.000+00:00"},"length":{"value":4,"unit":"days"},"diagnosis":[{"condition":{"reference":"Condition/40b9c573-aa59-471b-9cf1-2a612ad0d904"},"use":{"coding":[{"system":"http://terminology.hl7.org/CodeSystem/diagnosis-role","code":"billing","display":"Billing"}]},"rank":1}]},"request":{"method":"PUT","url":"Encounter/388b1c20-c00d-4207-a9f9-003c098e03d7"}},{"fullUrl":"Practitioner/e7808541-ec74-48e2-8247-4b30d0a7b804","resource":{"resourceType":"Practitioner","id":"e7808541-ec74-48e2-8247-4b30d0a7b804","identifier":[{"system":"http://hl7.org/fhir/sid/us-npi","value":"123456"}],"name":[{"family":"Evil","prefix":["Dr"]}]},"request":{"method":"PUT","url":"Practitioner/e7808541-ec74-48e2-8247-4b30d0a7b804"}},{"fullUrl":"Coverage/edbc7c78-71f8-4b7d-af11-3dddf66e6214","resource":{"resourceType":"Coverage","id":"edbc7c78-71f8-4b7d-af11-3dddf66e6214","status":"active","beneficiary":{"reference":"Patient/3b8d6a18-b4a3-4369-b33c-6a6daa6b5b4c"},"period":{"start":"1955-05-23T08:00:00Z"},"payor":[{"reference":"Organization/84f2a33a-4804-47e5-9ff8-92fbdc7ecb79"}]},"request":{"method":"PUT","url":"Coverage/edbc7c78-71f8-4b7d-af11-3dddf66e6214"}},{"fullUrl":"MedicationRequest/9a0a6693-838d-4539-8835-e404318b6faa","resource":{"resourceType":"MedicationRequest","id":"9a0a6693-838d-4539-8835-e404318b6faa","meta":{"profile":["http://hl7.org/fhir/us/qicore/StructureDefinition/qicore-medicationnotrequested"]},"status":"active","intent":"order","category":[{"coding":[{"system":"http://terminology.hl7.org/CodeSystem/medicationrequest-category","code":"community","display":"Community","userSelected":true}]}],"medicationCodeableConcept":{"coding":[{"system":"http://www.nlm.nih.gov/research/umls/rxnorm","code":"308351"}]},"subject":{"reference":"Patient/3b8d6a18-b4a3-4369-b33c-6a6daa6b5b4c"},"authoredOn":"2026-11-24T08:15:00Z","requester":{"reference":"Practitioner/example"}},"request":{"method":"PUT","url":"MedicationRequest/9a0a6693-838d-4539-8835-e404318b6faa"}},{"fullUrl":"Condition/40b9c573-aa59-471b-9cf1-2a612ad0d904","resource":{"resourceType":"Condition","id":"40b9c573-aa59-471b-9cf1-2a612ad0d904","meta":{"profile":["http://hl7.org/fhir/us/qicore/StructureDefinition/qicore-condition"]},"clinicalStatus":{"coding":[{"system":"http://terminology.hl7.org/CodeSystem/condition-clinical","code":"active"}]},"verificationStatus":{"coding":[{"system":"http://terminology.hl7.org/CodeSystem/condition-ver-status","code":"confirmed"}]},"category":[{"coding":[{"system":"http://terminology.hl7.org/CodeSystem/condition-category","code":"encounter-diagnosis","display":"Encounter Diagnosis"}]}],"code":{"coding":[{"system":"http://snomed.info/sct","version":"2021-09","code":"111297002","display":"Nonparalytic stroke (disorder)","userSelected":true}]},"subject":{"reference":"Patient/3b8d6a18-b4a3-4369-b33c-6a6daa6b5b4c"},"recordedDate":"2026-10-13T08:00:00Z"},"request":{"method":"PUT","url":"Condition/40b9c573-aa59-471b-9cf1-2a612ad0d904"}},{"fullUrl":"Organization/84f2a33a-4804-47e5-9ff8-92fbdc7ecb79","resource":{"resourceType":"Organization","id":"84f2a33a-4804-47e5-9ff8-92fbdc7ecb79","meta":{"profile":["http://hl7.org/fhir/us/qicore/StructureDefinition/qicore-organization"]},"identifier":[{"use":"temp","system":"urn:oid:2.16.840.1.113883.4.4","value":"21-3259825"}],"active":true,"type":[{"coding":[{"system":"http://terminology.hl7.org/CodeSystem/organization-type","code":"pay","display":"Payer"}]}],"name":"Blue Cross Blue Shield of Texas","telecom":[{"system":"phone","value":"(+1) 972-766-6900"}],"address":[{"use":"billing","type":"postal","line":["P.O. Box 660044"],"city":"Dallas","state":"TX","postalCode":"75266-0044","country":"USA"}]},"request":{"method":"PUT","url":"Organization/84f2a33a-4804-47e5-9ff8-92fbdc7ecb79"}},{"fullUrl":"Bundle/633c9d030968f8012250fc9d","resource":{"resourceType":"Bundle","id":"633c9d030968f8012250fc9d","type":"transaction","entry":[{"fullUrl":"https://madie.cms.gov/Patient/3b8d6a18-b4a3-4369-b33c-6a6daa6b5b4c","resource":{"resourceType":"Patient","id":"3b8d6a18-b4a3-4369-b33c-6a6daa6b5b4c","meta":{"profile":["http://hl7.org/fhir/us/qicore/StructureDefinition/qicore-patient"]},"text":{"status":"generated","div":"<div xmlns=\"http://www.w3.org/1999/xhtml\"><div class=\"hapiHeaderText\">MedDCAnticoaStartTmEQEncDischTm <b>NUMERPASS </b></div><table class=\"hapiPropertyTable\"><tbody><tr><td>Identifier</td><td>9128716b0b21eec571089f9d5d345182</td></tr><tr><td>Date of birth</td><td><span>23 May 1954</span></td></tr></tbody></table></div>"},"extension":[{"url":"http://hl7.org/fhir/us/core/StructureDefinition/us-core-race","extension":[{"url":"ombCategory","valueCoding":{"system":"urn:oid:2.16.840.1.113883.6.238","code":"1002-5","display":"American Indian or Alaska Native","userSelected":true}},{"url":"text","valueString":"American Indian or Alaska Native"}]},{"url":"http://hl7.org/fhir/us/core/StructureDefinition/us-core-ethnicity","extension":[{"url":"ombCategory","valueCoding":{"system":"urn:oid:2.16.840.1.113883.6.238","code":"2135-2","display":"Hispanic or Latino","userSelected":true}},{"url":"text","valueString":"Hispanic or Latino"}]}],"identifier":[{"type":{"coding":[{"system":"http://terminology.hl7.org/CodeSystem/v2-0203","code":"MR"}]},"system":"https://bonnie-fhir.healthit.gov/","value":"633c9d030968f8012250fc9d"}],"active":true,"name":[{"use":"usual","family":"NUMERPass","given":["MedDCAnticoaStartTmEQEncDischTm"]}],"gender":"female","birthDate":"1955-05-23"},"request":{"method":"PUT","url":"Patient/3b8d6a18-b4a3-4369-b33c-6a6daa6b5b4c"}},{"fullUrl":"https://madie.cms.gov/Encounter/388b1c20-c00d-4207-a9f9-003c098e03d7","resource":{"resourceType":"Encounter","id":"388b1c20-c00d-4207-a9f9-003c098e03d7","meta":{"profile":["http://hl7.org/fhir/us/qicore/StructureDefinition/qicore-encounter"]},"status":"finished","class":{"system":"http://terminology.hl7.org/CodeSystem/v3-ActCode","code":"IMP","display":"inpatient encounter"},"type":[{"coding":[{"system":"http://snomed.info/sct","code":"32485007"}]}],"subject":{"reference":"Patient/3b8d6a18-b4a3-4369-b33c-6a6daa6b5b4c"},"period":{"start":"2026-11-20T08:00:00Z","end":"2026-11-24T08:15:00.000+00:00"},"length":{"value":4,"unit":"days"},"diagnosis":[{"condition":{"reference":"Condition/40b9c573-aa59-471b-9cf1-2a612ad0d904"},"use":{"coding":[{"system":"http://terminology.hl7.org/CodeSystem/diagnosis-role","code":"billing","display":"Billing"}]},"rank":1}]},"request":{"method":"PUT","url":"Encounter/388b1c20-c00d-4207-a9f9-003c098e03d7"}},{"fullUrl":"https://madie.cms.gov/claim/5ca62962b8484628b8de1ec5","resource":{"resourceType":"Claim","id":"5ca62962b8484628b8de1ec5","meta":{"profile":["http://hl7.org/fhir/us/qicore/StructureDefinition/qicore-claim"]},"status":"active","type":{"coding":[{"system":"http://terminology.hl7.org/CodeSystem/claim-type","code":"institutional"}]},"use":"claim","patient":{"reference":"Patient/d170a0a8-b5ad-4303-b6df-e304dd5f92ad"},"created":"2026-12-01","provider":{"reference":"Practitioner/e7808541-ec74-48e2-8247-4b30d0a7b804"},"priority":{"coding":[{"system":"http://terminology.hl7.org/CodeSystem/processpriority","code":"normal"}]},"diagnosis":[{"sequence":1,"diagnosisCodeableConcept":{"coding":[{"system":"http://hl7.org/fhir/sid/icd-10-cm","code":"I63.00"}]},"type":[{"coding":[{"system":"http://terminology.hl7.org/CodeSystem/ex-diagnosistype","code":"principal"}]}]}],"insurance":[{"sequence":1,"focal":true,"coverage":{"reference":"Coverage/5fa041661c76ba66d9959367"}}],"item":[{"sequence":1,"diagnosisSequence":[1],"productOrService":{"coding":[{"system":"http://terminology.hl7.org/CodeSystem/ex-USCLS","code":"99555"}]},"encounter":[{"reference":"Encounter/388b1c20-c00d-4207-a9f9-003c098e03d7"}]}]},"request":{"method":"PUT","url":"Claim/5ca62962b8484628b8de1ec5"}},{"fullUrl":"https://madie.cms.gov/MedicationRequest/9a0a6693-838d-4539-8835-e404318b6faa","resource":{"resourceType":"MedicationRequest","id":"9a0a6693-838d-4539-8835-e404318b6faa","meta":{"profile":["http://hl7.org/fhir/us/qicore/StructureDefinition/qicore-medicationnotrequested"]},"status":"active","intent":"order","category":[{"coding":[{"system":"http://terminology.hl7.org/CodeSystem/medicationrequest-category","code":"community","display":"Community","userSelected":true}]}],"medicationCodeableConcept":{"coding":[{"system":"http://www.nlm.nih.gov/research/umls/rxnorm","code":"308351"}]},"subject":{"reference":"Patient/3b8d6a18-b4a3-4369-b33c-6a6daa6b5b4c"},"authoredOn":"2026-11-24T08:15:00Z","requester":{"reference":"Practitioner/example"}},"request":{"method":"PUT","url":"MedicationRequest/9a0a6693-838d-4539-8835-e404318b6faa"}},{"fullUrl":"https://madie.cms.gov/Coverage/edbc7c78-71f8-4b7d-af11-3dddf66e6214","resource":{"resourceType":"Coverage","id":"edbc7c78-71f8-4b7d-af11-3dddf66e6214","status":"active","beneficiary":{"reference":"Patient/3b8d6a18-b4a3-4369-b33c-6a6daa6b5b4c"},"period":{"start":"1955-05-23T08:00:00Z"},"payor":[{"reference":"Organization/84f2a33a-4804-47e5-9ff8-92fbdc7ecb79"}]},"request":{"method":"PUT","url":"Coverage/edbc7c78-71f8-4b7d-af11-3dddf66e6214"}},{"fullUrl":"https://madie.cms.gov/Procedure/490c86b5-4358-41d4-b9a8-bf09114ae6a5","resource":{"resourceType":"Procedure","id":"490c86b5-4358-41d4-b9a8-bf09114ae6a5","meta":{"profile":["http://hl7.org/fhir/us/qicore/StructureDefinition/qicore-procedure"]},"extension":[{"url":"http://hl7.org/fhir/us/qicore/StructureDefinition/qicore-recorded","valueDateTime":"2026-11-19T13:35:00Z"}],"status":"unknown","code":{"coding":[{"system":"http://www.cms.gov/Medicare/Coding/ICD10","code":"02560ZZ"},{"system":"http://snomed.info/sct","code":"175095005"}]},"subject":{"reference":"Patient/3b8d6a18-b4a3-4369-b33c-6a6daa6b5b4c"},"performedPeriod":{"start":"2026-11-20T06:00:00Z","end":"2026-11-20T07:15:00.000+00:00"}},"request":{"method":"PUT","url":"Procedure/490c86b5-4358-41d4-b9a8-bf09114ae6a5"}},{"fullUrl":"https://madie.cms.gov/Condition/40b9c573-aa59-471b-9cf1-2a612ad0d904","resource":{"resourceType":"Condition","id":"40b9c573-aa59-471b-9cf1-2a612ad0d904","meta":{"profile":["http://hl7.org/fhir/us/qicore/StructureDefinition/qicore-condition"]},"clinicalStatus":{"coding":[{"system":"http://terminology.hl7.org/CodeSystem/condition-clinical","code":"active"}]},"verificationStatus":{"coding":[{"system":"http://terminology.hl7.org/CodeSystem/condition-ver-status","code":"confirmed"}]},"category":[{"coding":[{"system":"http://terminology.hl7.org/CodeSystem/condition-category","code":"encounter-diagnosis","display":"Encounter Diagnosis"}]}],"code":{"coding":[{"system":"http://snomed.info/sct","version":"2021-09","code":"111297002","display":"Nonparalytic stroke (disorder)","userSelected":true}]},"subject":{"reference":"Patient/3b8d6a18-b4a3-4369-b33c-6a6daa6b5b4c"},"recordedDate":"2026-10-13T08:00:00Z"},"request":{"method":"PUT","url":"Condition/40b9c573-aa59-471b-9cf1-2a612ad0d904"}},{"fullUrl":"https://madie.cms.gov/Organization/84f2a33a-4804-47e5-9ff8-92fbdc7ecb79","resource":{"resourceType":"Organization","id":"84f2a33a-4804-47e5-9ff8-92fbdc7ecb79","meta":{"profile":["http://hl7.org/fhir/us/qicore/StructureDefinition/qicore-organization"]},"identifier":[{"use":"temp","system":"urn:oid:2.16.840.1.113883.4.4","value":"21-3259825"}],"active":true,"type":[{"coding":[{"system":"http://terminology.hl7.org/CodeSystem/organization-type","code":"pay","display":"Payer"}]}],"name":"Blue Cross Blue Shield of Texas","telecom":[{"system":"phone","value":"(+1) 972-766-6900"}],"address":[{"use":"billing","type":"postal","line":["P.O. Box 660044"],"city":"Dallas","state":"TX","postalCode":"75266-0044","country":"USA"}]},"request":{"method":"PUT","url":"Organization/84f2a33a-4804-47e5-9ff8-92fbdc7ecb79"}},{"fullUrl":"https://madie.cms.gov/Practitioner/e7808541-ec74-48e2-8247-4b30d0a7b804","resource":{"resourceType":"Practitioner","id":"e7808541-ec74-48e2-8247-4b30d0a7b804","identifier":[{"system":"http://hl7.org/fhir/sid/us-npi","value":"123456"}],"name":[{"family":"Evil","prefix":["Dr"]}]},"request":{"method":"PUT","url":"Practitioner/e7808541-ec74-48e2-8247-4b30d0a7b804"}},{"fullUrl":"https://madie.cms.gov/MeasureReport/3ef122d2-ca3d-40e5-95f4-06833f63561d","resource":{"resourceType":"MeasureReport","id":"3ef122d2-ca3d-40e5-95f4-06833f63561d","meta":{"profile":["http://hl7.org/fhir/us/cqfmeasures/StructureDefinition/test-case-cqfm"]},"contained":[{"resourceType":"Parameters","id":"520f88f4-c1d2-4ad4-a198-69a6211f8675-parameters","parameter":[{"name":"subject","valueString":"3b8d6a18-b4a3-4369-b33c-6a6daa6b5b4c"}]}],"extension":[{"url":"http://hl7.org/fhir/StructureDefinition/cqf-inputParameters","valueReference":{"reference":"#520f88f4-c1d2-4ad4-a198-69a6211f8675-parameters"}},{"url":"http://hl7.org/fhir/us/cqfmeasures/StructureDefinition/cqfm-testCaseDescription","valueMarkdown":"Coverage for AA procedure listed as unknown"}],"modifierExtension":[{"url":"http://hl7.org/fhir/us/cqfmeasures/StructureDefinition/cqfm-isTestCase","valueBoolean":true}],"status":"complete","type":"individual","measure":"https://madie.cms.gov/Measure/CMS71FHIRSTKAnticoagAFFlutter","period":{"start":"2026-01-01","end":"2026-12-31"},"group":[{"id":"Group_1","population":[{"id":"InitialPopulation_1","code":{"coding":[{"system":"http://terminology.hl7.org/CodeSystem/measure-population","code":"initial-population","display":"Initial Population"}]},"count":1},{"id":"Denominator_1","code":{"coding":[{"system":"http://terminology.hl7.org/CodeSystem/measure-population","code":"denominator","display":"Denominator"}]},"count":0},{"id":"DenominatorExclusion_1","code":{"coding":[{"system":"http://terminology.hl7.org/CodeSystem/measure-population","code":"denominator-exclusion","display":"Denominator Exclusion"}]},"count":0},{"id":"Numerator_1","code":{"coding":[{"system":"http://terminology.hl7.org/CodeSystem/measure-population","code":"numerator","display":"Numerator"}]},"count":0},{"id":"DenominatorException_1","code":{"coding":[{"system":"http://terminology.hl7.org/CodeSystem/measure-population","code":"denominator-exception","display":"Denominator Exception"}]},"count":0}],"measureScore":{"value":0.0}}],"evaluatedResource":[{"reference":"Patient/3b8d6a18-b4a3-4369-b33c-6a6daa6b5b4c"},{"reference":"Encounter/388b1c20-c00d-4207-a9f9-003c098e03d7"},{"reference":"Claim/5ca62962b8484628b8de1ec5"},{"reference":"MedicationRequest/9a0a6693-838d-4539-8835-e404318b6faa"},{"reference":"Coverage/edbc7c78-71f8-4b7d-af11-3dddf66e6214"},{"reference":"Procedure/490c86b5-4358-41d4-b9a8-bf09114ae6a5"},{"reference":"Condition/40b9c573-aa59-471b-9cf1-2a612ad0d904"},{"reference":"Organization/84f2a33a-4804-47e5-9ff8-92fbdc7ecb79"},{"reference":"Practitioner/e7808541-ec74-48e2-8247-4b30d0a7b804"}]},"request":{"method":"PUT","url":"MeasureReport/3ef122d2-ca3d-40e5-95f4-06833f63561d"}}]},"request":{"method":"PUT","url":"Bundle/633c9d030968f8012250fc9d"}},{"fullUrl":"Procedure/490c86b5-4358-41d4-b9a8-bf09114ae6a5","resource":{"resourceType":"Procedure","id":"490c86b5-4358-41d4-b9a8-bf09114ae6a5","meta":{"profile":["http://hl7.org/fhir/us/qicore/StructureDefinition/qicore-procedure"]},"extension":[{"url":"http://hl7.org/fhir/us/qicore/StructureDefinition/qicore-recorded","valueDateTime":"2026-11-19T13:35:00Z"}],"status":"unknown","code":{"coding":[{"system":"http://www.cms.gov/Medicare/Coding/ICD10","code":"02560ZZ"},{"system":"http://snomed.info/sct","code":"175095005"}]},"subject":{"reference":"Patient/3b8d6a18-b4a3-4369-b33c-6a6daa6b5b4c"},"performedPeriod":{"start":"2026-11-20T06:00:00Z","end":"2026-11-20T07:15:00.000+00:00"}},"request":{"method":"PUT","url":"Procedure/490c86b5-4358-41d4-b9a8-bf09114ae6a5"}},{"fullUrl":"Patient/3b8d6a18-b4a3-4369-b33c-6a6daa6b5b4c","resource":{"resourceType":"Patient","id":"3b8d6a18-b4a3-4369-b33c-6a6daa6b5b4c","meta":{"profile":["http://hl7.org/fhir/us/qicore/StructureDefinition/qicore-patient"]},"text":{"status":"generated","div":"<div xmlns=\"http://www.w3.org/1999/xhtml\"><div class=\"hapiHeaderText\">MedDCAnticoaStartTmEQEncDischTm <b>NUMERPASS </b></div><table class=\"hapiPropertyTable\"><tbody><tr><td>Identifier</td><td>9128716b0b21eec571089f9d5d345182</td></tr><tr><td>Date of birth</td><td><span>23 May 1954</span></td></tr></tbody></table></div>"},"extension":[{"url":"http://hl7.org/fhir/us/core/StructureDefinition/us-core-race","extension":[{"url":"ombCategory","valueCoding":{"system":"urn:oid:2.16.840.1.113883.6.238","code":"1002-5","display":"American Indian or Alaska Native","userSelected":true}},{"url":"text","valueString":"American Indian or Alaska Native"}]},{"url":"http://hl7.org/fhir/us/core/StructureDefinition/us-core-ethnicity","extension":[{"url":"ombCategory","valueCoding":{"system":"urn:oid:2.16.840.1.113883.6.238","code":"2135-2","display":"Hispanic or Latino","userSelected":true}},{"url":"text","valueString":"Hispanic or Latino"}]}],"identifier":[{"type":{"coding":[{"system":"http://terminology.hl7.org/CodeSystem/v2-0203","code":"MR"}]},"system":"https://bonnie-fhir.healthit.gov/","value":"633c9d030968f8012250fc9d"}],"active":true,"name":[{"use":"usual","family":"NUMERPass","given":["MedDCAnticoaStartTmEQEncDischTm"]}],"gender":"female","birthDate":"1955-05-23"},"request":{"method":"PUT","url":"Patient/3b8d6a18-b4a3-4369-b33c-6a6daa6b5b4c"}},{"fullUrl":"Claim/5ca62962b8484628b8de1ec5","resource":{"resourceType":"Claim","id":"5ca62962b8484628b8de1ec5","meta":{"profile":["http://hl7.org/fhir/us/qicore/StructureDefinition/qicore-claim"]},"status":"active","type":{"coding":[{"system":"http://terminology.hl7.org/CodeSystem/claim-type","code":"institutional"}]},"use":"claim","patient":{"reference":"Patient/d170a0a8-b5ad-4303-b6df-e304dd5f92ad"},"created":"2026-12-01","provider":{"reference":"Practitioner/e7808541-ec74-48e2-8247-4b30d0a7b804"},"priority":{"coding":[{"system":"http://terminology.hl7.org/CodeSystem/processpriority","code":"normal"}]},"diagnosis":[{"sequence":1,"diagnosisCodeableConcept":{"coding":[{"system":"http://hl7.org/fhir/sid/icd-10-cm","code":"I63.00"}]},"type":[{"coding":[{"system":"http://terminology.hl7.org/CodeSystem/ex-diagnosistype","code":"principal"}]}]}],"insurance":[{"sequence":1,"focal":true,"coverage":{"reference":"Coverage/5fa041661c76ba66d9959367"}}],"item":[{"sequence":1,"diagnosisSequence":[1],"productOrService":{"coding":[{"system":"http://terminology.hl7.org/CodeSystem/ex-USCLS","code":"99555"}]},"encounter":[{"reference":"Encounter/388b1c20-c00d-4207-a9f9-003c098e03d7"}]}]},"request":{"method":"PUT","url":"Claim/5ca62962b8484628b8de1ec5"}},{"fullUrl":"MeasureReport/3ef122d2-ca3d-40e5-95f4-06833f63561d","resource":{"resourceType":"MeasureReport","id":"3ef122d2-ca3d-40e5-95f4-06833f63561d","meta":{"profile":["http://hl7.org/fhir/us/cqfmeasures/StructureDefinition/test-case-cqfm"]},"contained":[{"resourceType":"Parameters","id":"520f88f4-c1d2-4ad4-a198-69a6211f8675-parameters","parameter":[{"name":"subject","valueString":"3b8d6a18-b4a3-4369-b33c-6a6daa6b5b4c"}]}],"extension":[{"url":"http://hl7.org/fhir/StructureDefinition/cqf-inputParameters","valueReference":{"reference":"#520f88f4-c1d2-4ad4-a198-69a6211f8675-parameters"}},{"url":"http://hl7.org/fhir/us/cqfmeasures/StructureDefinition/cqfm-testCaseDescription","valueMarkdown":"Coverage for AA procedure listed as unknown"}],"modifierExtension":[{"url":"http://hl7.org/fhir/us/cqfmeasures/StructureDefinition/cqfm-isTestCase","valueBoolean":true}],"status":"complete","type":"individual","measure":"https://madie.cms.gov/Measure/CMS71FHIRSTKAnticoagAFFlutter","period":{"start":"2026-01-01","end":"2026-12-31"},"group":[{"id":"Group_1","population":[{"id":"InitialPopulation_1","code":{"coding":[{"system":"http://terminology.hl7.org/CodeSystem/measure-population","code":"initial-population","display":"Initial Population"}]},"count":1},{"id":"Denominator_1","code":{"coding":[{"system":"http://terminology.hl7.org/CodeSystem/measure-population","code":"denominator","display":"Denominator"}]},"count":0},{"id":"DenominatorExclusion_1","code":{"coding":[{"system":"http://terminology.hl7.org/CodeSystem/measure-population","code":"denominator-exclusion","display":"Denominator Exclusion"}]},"count":0},{"id":"Numerator_1","code":{"coding":[{"system":"http://terminology.hl7.org/CodeSystem/measure-population","code":"numerator","display":"Numerator"}]},"count":0},{"id":"DenominatorException_1","code":{"coding":[{"system":"http://terminology.hl7.org/CodeSystem/measure-population","code":"denominator-exception","display":"Denominator Exception"}]},"count":0}],"measureScore":{"value":0.0}}],"evaluatedResource":[{"reference":"Patient/3b8d6a18-b4a3-4369-b33c-6a6daa6b5b4c"},{"reference":"Encounter/388b1c20-c00d-4207-a9f9-003c098e03d7"},{"reference":"Claim/5ca62962b8484628b8de1ec5"},{"reference":"MedicationRequest/9a0a6693-838d-4539-8835-e404318b6faa"},{"reference":"Coverage/edbc7c78-71f8-4b7d-af11-3dddf66e6214"},{"reference":"Procedure/490c86b5-4358-41d4-b9a8-bf09114ae6a5"},{"reference":"Condition/40b9c573-aa59-471b-9cf1-2a612ad0d904"},{"reference":"Organization/84f2a33a-4804-47e5-9ff8-92fbdc7ecb79"},{"reference":"Practitioner/e7808541-ec74-48e2-8247-4b30d0a7b804"}]},"request":{"method":"PUT","url":"MeasureReport/3ef122d2-ca3d-40e5-95f4-06833f63561d"}}]}