{"resourceType":"Bundle","id":"tests-ad014d1d-6043-4b40-9fd3-0abc1f308a04-bundle","type":"transaction","entry":[{"resource":{"resourceType":"MeasureReport","id":"9159fc44-1379-45d2-bf23-41996ffaa241","meta":{"profile":["http://hl7.org/fhir/us/cqfmeasures/StructureDefinition/test-case-cqfm"]},"contained":[{"resourceType":"Parameters","id":"ed60551c-4ba1-4450-90bd-40b94e6e017d-parameters","parameter":[{"name":"subject","valueString":"ad014d1d-6043-4b40-9fd3-0abc1f308a04"}]}],"extension":[{"url":"http://hl7.org/fhir/StructureDefinition/cqf-inputParameters","valueReference":{"reference":"#ed60551c-4ba1-4450-90bd-40b94e6e017d-parameters"}},{"url":"http://hl7.org/fhir/us/cqfmeasures/StructureDefinition/cqfm-testCaseDescription","valueMarkdown":"Enc Dx = ischemic stroke, age GT 18, without EncPrinipleDx\n"}],"modifierExtension":[{"url":"http://hl7.org/fhir/us/cqfmeasures/StructureDefinition/cqfm-isTestCase","valueBoolean":true}],"status":"complete","type":"individual","measure":"https://madie.cms.gov/Measure/CMS71FHIRSTKAnticoagAFFlutter","period":{"start":"2026-01-01","end":"2026-12-31"},"group":[{"id":"Group_1","population":[{"id":"InitialPopulation_1","code":{"coding":[{"system":"http://terminology.hl7.org/CodeSystem/measure-population","code":"initial-population","display":"Initial Population"}]},"count":0},{"id":"Denominator_1","code":{"coding":[{"system":"http://terminology.hl7.org/CodeSystem/measure-population","code":"denominator","display":"Denominator"}]},"count":0},{"id":"DenominatorExclusion_1","code":{"coding":[{"system":"http://terminology.hl7.org/CodeSystem/measure-population","code":"denominator-exclusion","display":"Denominator Exclusion"}]},"count":0},{"id":"Numerator_1","code":{"coding":[{"system":"http://terminology.hl7.org/CodeSystem/measure-population","code":"numerator","display":"Numerator"}]},"count":0},{"id":"DenominatorException_1","code":{"coding":[{"system":"http://terminology.hl7.org/CodeSystem/measure-population","code":"denominator-exception","display":"Denominator Exception"}]},"count":0}],"measureScore":{"value":0.0}}],"evaluatedResource":[{"reference":"Patient/ad014d1d-6043-4b40-9fd3-0abc1f308a04"},{"reference":"Encounter/e23040ea-f69c-41f1-a56f-341d8ade760b"},{"reference":"Coverage/e578ff70-b0fe-4fda-a0a4-560bfdd4f549"},{"reference":"Condition/6a56f108-4df3-441d-b5e4-8e6a334dce2c"},{"reference":"Claim/5ca62962b8484628b8de1ec5"},{"reference":"Organization/2acfbe8b-44fe-4920-8dd0-4d70b8efa7dc"},{"reference":"Practitioner/2375497a-a9a0-413f-a635-688300bc6027"}]},"request":{"method":"PUT","url":"MeasureReport/9159fc44-1379-45d2-bf23-41996ffaa241"}},{"resource":{"resourceType":"Organization","id":"2acfbe8b-44fe-4920-8dd0-4d70b8efa7dc","meta":{"profile":["http://hl7.org/fhir/us/qicore/StructureDefinition/qicore-organization"]},"identifier":[{"use":"temp","system":"urn:oid:2.16.840.1.113883.4.4","value":"21-3259825"}],"active":true,"type":[{"coding":[{"system":"http://terminology.hl7.org/CodeSystem/organization-type","code":"pay","display":"Payer"}]}],"name":"Blue Cross Blue Shield of Texas","telecom":[{"system":"phone","value":"(+1) 972-766-6900"}],"address":[{"use":"billing","type":"postal","line":["P.O. Box 660044"],"city":"Dallas","state":"TX","postalCode":"75266-0044","country":"USA"}]},"request":{"method":"PUT","url":"Organization/2acfbe8b-44fe-4920-8dd0-4d70b8efa7dc"}},{"resource":{"resourceType":"Coverage","id":"e578ff70-b0fe-4fda-a0a4-560bfdd4f549","meta":{"profile":["http://hl7.org/fhir/us/qicore/StructureDefinition/qicore-coverage"]},"status":"active","subscriberId":"523435","beneficiary":{"reference":"Patient/162a5913-9989-42f2-8d6a-ae460e245e4c"},"relationship":{"coding":[{"system":"http://terminology.hl7.org/CodeSystem/subscriber-relationship","code":"self"}]},"payor":[{"reference":"Organization/2acfbe8b-44fe-4920-8dd0-4d70b8efa7dc"}]},"request":{"method":"PUT","url":"Coverage/e578ff70-b0fe-4fda-a0a4-560bfdd4f549"}},{"resource":{"resourceType":"Encounter","id":"e23040ea-f69c-41f1-a56f-341d8ade760b","meta":{"profile":["http://hl7.org/fhir/us/qicore/StructureDefinition/qicore-encounter"]},"status":"finished","class":{"system":"http://terminology.hl7.org/CodeSystem/v3-ActCode","code":"IMP","display":"inpatient encounter"},"type":[{"coding":[{"system":"http://snomed.info/sct","code":"32485007"}]}],"subject":{"reference":"Patient/ad014d1d-6043-4b40-9fd3-0abc1f308a04"},"period":{"start":"2026-02-08T08:00:00Z","end":"2026-02-10T08:15:00.000+00:00"},"length":{"value":2,"unit":"days"},"diagnosis":[{"condition":{"reference":"Condition/6a56f108-4df3-441d-b5e4-8e6a334dce2c"}}]},"request":{"method":"PUT","url":"Encounter/e23040ea-f69c-41f1-a56f-341d8ade760b"}},{"resource":{"resourceType":"Practitioner","id":"2375497a-a9a0-413f-a635-688300bc6027","meta":{"profile":["http://hl7.org/fhir/us/qicore/StructureDefinition/qicore-practitioner"]},"identifier":[{"system":"http://hl7.org/fhir/sid/us-npi","value":"9999999896"}],"name":[{"family":"Evil","prefix":["Dr"]}]},"request":{"method":"PUT","url":"Practitioner/2375497a-a9a0-413f-a635-688300bc6027"}},{"resource":{"resourceType":"Patient","id":"ad014d1d-6043-4b40-9fd3-0abc1f308a04","meta":{"profile":["http://hl7.org/fhir/us/qicore/StructureDefinition/qicore-patient"]},"text":{"status":"generated","div":"<div xmlns=\"http://www.w3.org/1999/xhtml\"><div class=\"hapiHeaderText\">EncDx=IschemicStroke <b>IPPFAIL </b></div><table class=\"hapiPropertyTable\"><tbody><tr><td>Identifier</td><td>56529beb139611ad036d263322dc8071</td></tr><tr><td>Date of birth</td><td><span>01 December 1960</span></td></tr></tbody></table></div>"},"extension":[{"url":"http://hl7.org/fhir/us/core/StructureDefinition/us-core-race","extension":[{"url":"ombCategory","valueCoding":{"system":"urn:oid:2.16.840.1.113883.6.238","code":"1002-5","display":"American Indian or Alaska Native","userSelected":true}},{"url":"text","valueString":"American Indian or Alaska Native"}]},{"url":"http://hl7.org/fhir/us/core/StructureDefinition/us-core-ethnicity","extension":[{"url":"ombCategory","valueCoding":{"system":"urn:oid:2.16.840.1.113883.6.238","code":"2135-2","display":"Hispanic or Latino","userSelected":true}},{"url":"text","valueString":"Hispanic or Latino"}]}],"identifier":[{"type":{"coding":[{"system":"http://terminology.hl7.org/CodeSystem/v2-0203","code":"MR"}]},"system":"https://bonnie-fhir.healthit.gov/","value":"633c9d030968f8012250fc95"}],"active":true,"name":[{"use":"usual","family":"IPPFail","given":["EncDx=IschemicStroke "]}],"gender":"male","birthDate":"1961-12-01"},"request":{"method":"PUT","url":"Patient/ad014d1d-6043-4b40-9fd3-0abc1f308a04"}},{"resource":{"resourceType":"Condition","id":"6a56f108-4df3-441d-b5e4-8e6a334dce2c","meta":{"profile":["http://hl7.org/fhir/us/qicore/StructureDefinition/qicore-condition-problems-health-concerns"]},"clinicalStatus":{"coding":[{"system":"http://terminology.hl7.org/CodeSystem/condition-clinical","code":"active"}]},"verificationStatus":{"coding":[{"system":"http://terminology.hl7.org/CodeSystem/condition-ver-status","code":"confirmed"}]},"category":[{"coding":[{"system":"http://terminology.hl7.org/CodeSystem/condition-category","code":"encounter-diagnosis","display":"Encounter Diagnosis"}]}],"code":{"coding":[{"system":"http://snomed.info/sct","version":"2021-09","code":"111297002","display":"Nonparalytic stroke (disorder)","userSelected":true}]},"subject":{"reference":"Patient/ad014d1d-6043-4b40-9fd3-0abc1f308a04"},"recordedDate":"2026-10-13T08:00:00Z"},"request":{"method":"PUT","url":"Condition/6a56f108-4df3-441d-b5e4-8e6a334dce2c"}},{"resource":{"resourceType":"Bundle","id":"633c9d030968f8012250fc95","type":"transaction","entry":[{"fullUrl":"https://madie.cms.gov/Patient/ad014d1d-6043-4b40-9fd3-0abc1f308a04","resource":{"resourceType":"Patient","id":"ad014d1d-6043-4b40-9fd3-0abc1f308a04","meta":{"profile":["http://hl7.org/fhir/us/qicore/StructureDefinition/qicore-patient"]},"text":{"status":"generated","div":"<div xmlns=\"http://www.w3.org/1999/xhtml\"><div class=\"hapiHeaderText\">EncDx=IschemicStroke <b>IPPFAIL </b></div><table class=\"hapiPropertyTable\"><tbody><tr><td>Identifier</td><td>56529beb139611ad036d263322dc8071</td></tr><tr><td>Date of birth</td><td><span>01 December 1960</span></td></tr></tbody></table></div>"},"extension":[{"url":"http://hl7.org/fhir/us/core/StructureDefinition/us-core-race","extension":[{"url":"ombCategory","valueCoding":{"system":"urn:oid:2.16.840.1.113883.6.238","code":"1002-5","display":"American Indian or Alaska Native","userSelected":true}},{"url":"text","valueString":"American Indian or Alaska Native"}]},{"url":"http://hl7.org/fhir/us/core/StructureDefinition/us-core-ethnicity","extension":[{"url":"ombCategory","valueCoding":{"system":"urn:oid:2.16.840.1.113883.6.238","code":"2135-2","display":"Hispanic or Latino","userSelected":true}},{"url":"text","valueString":"Hispanic or Latino"}]}],"identifier":[{"type":{"coding":[{"system":"http://terminology.hl7.org/CodeSystem/v2-0203","code":"MR"}]},"system":"https://bonnie-fhir.healthit.gov/","value":"633c9d030968f8012250fc95"}],"active":true,"name":[{"use":"usual","family":"IPPFail","given":["EncDx=IschemicStroke "]}],"gender":"male","birthDate":"1961-12-01"},"request":{"method":"PUT","url":"Patient/ad014d1d-6043-4b40-9fd3-0abc1f308a04"}},{"fullUrl":"https://madie.cms.gov/Encounter/e23040ea-f69c-41f1-a56f-341d8ade760b","resource":{"resourceType":"Encounter","id":"e23040ea-f69c-41f1-a56f-341d8ade760b","meta":{"profile":["http://hl7.org/fhir/us/qicore/StructureDefinition/qicore-encounter"]},"status":"finished","class":{"system":"http://terminology.hl7.org/CodeSystem/v3-ActCode","code":"IMP","display":"inpatient encounter"},"type":[{"coding":[{"system":"http://snomed.info/sct","code":"32485007"}]}],"subject":{"reference":"Patient/ad014d1d-6043-4b40-9fd3-0abc1f308a04"},"period":{"start":"2026-02-08T08:00:00Z","end":"2026-02-10T08:15:00.000+00:00"},"length":{"value":2,"unit":"days"},"diagnosis":[{"condition":{"reference":"Condition/6a56f108-4df3-441d-b5e4-8e6a334dce2c"}}]},"request":{"method":"PUT","url":"Encounter/e23040ea-f69c-41f1-a56f-341d8ade760b"}},{"fullUrl":"https://madie.cms.gov/Coverage/e578ff70-b0fe-4fda-a0a4-560bfdd4f549","resource":{"resourceType":"Coverage","id":"e578ff70-b0fe-4fda-a0a4-560bfdd4f549","meta":{"profile":["http://hl7.org/fhir/us/qicore/StructureDefinition/qicore-coverage"]},"status":"active","subscriberId":"523435","beneficiary":{"reference":"Patient/162a5913-9989-42f2-8d6a-ae460e245e4c"},"relationship":{"coding":[{"system":"http://terminology.hl7.org/CodeSystem/subscriber-relationship","code":"self"}]},"payor":[{"reference":"Organization/2acfbe8b-44fe-4920-8dd0-4d70b8efa7dc"}]},"request":{"method":"PUT","url":"Coverage/e578ff70-b0fe-4fda-a0a4-560bfdd4f549"}},{"fullUrl":"https://madie.cms.gov/Condition/6a56f108-4df3-441d-b5e4-8e6a334dce2c","resource":{"resourceType":"Condition","id":"6a56f108-4df3-441d-b5e4-8e6a334dce2c","meta":{"profile":["http://hl7.org/fhir/us/qicore/StructureDefinition/qicore-condition-problems-health-concerns"]},"clinicalStatus":{"coding":[{"system":"http://terminology.hl7.org/CodeSystem/condition-clinical","code":"active"}]},"verificationStatus":{"coding":[{"system":"http://terminology.hl7.org/CodeSystem/condition-ver-status","code":"confirmed"}]},"category":[{"coding":[{"system":"http://terminology.hl7.org/CodeSystem/condition-category","code":"encounter-diagnosis","display":"Encounter Diagnosis"}]}],"code":{"coding":[{"system":"http://snomed.info/sct","version":"2021-09","code":"111297002","display":"Nonparalytic stroke (disorder)","userSelected":true}]},"subject":{"reference":"Patient/ad014d1d-6043-4b40-9fd3-0abc1f308a04"},"recordedDate":"2026-10-13T08:00:00Z"},"request":{"method":"PUT","url":"Condition/6a56f108-4df3-441d-b5e4-8e6a334dce2c"}},{"fullUrl":"https://madie.cms.gov/claim/5ca62962b8484628b8de1ec5","resource":{"resourceType":"Claim","id":"5ca62962b8484628b8de1ec5","meta":{"profile":["http://hl7.org/fhir/us/qicore/StructureDefinition/qicore-claim"]},"status":"active","type":{"coding":[{"system":"http://terminology.hl7.org/CodeSystem/claim-type","code":"institutional"}]},"use":"claim","patient":{"reference":"Patient/d170a0a8-b5ad-4303-b6df-e304dd5f92ad"},"created":"2026-12-01","provider":{"reference":"Practitioner/2375497a-a9a0-413f-a635-688300bc6027"},"priority":{"coding":[{"system":"http://terminology.hl7.org/CodeSystem/processpriority","code":"normal"}]},"diagnosis":[{"sequence":2,"diagnosisCodeableConcept":{"coding":[{"system":"http://hl7.org/fhir/sid/icd-10-cm","code":"I63.00"}]},"type":[{"coding":[{"system":"http://terminology.hl7.org/CodeSystem/ex-diagnosistype","code":"clinical"}]}]}],"insurance":[{"sequence":1,"focal":true,"coverage":{"reference":"Coverage/5fa041661c76ba66d9959367"}}],"item":[{"sequence":2,"diagnosisSequence":[2],"productOrService":{"coding":[{"system":"http://terminology.hl7.org/CodeSystem/ex-USCLS","code":"99555"}]},"encounter":[{"reference":"Encounter/e23040ea-f69c-41f1-a56f-341d8ade760b"}]}]},"request":{"method":"PUT","url":"Claim/5ca62962b8484628b8de1ec5"}},{"fullUrl":"https://madie.cms.gov/Organization/2acfbe8b-44fe-4920-8dd0-4d70b8efa7dc","resource":{"resourceType":"Organization","id":"2acfbe8b-44fe-4920-8dd0-4d70b8efa7dc","meta":{"profile":["http://hl7.org/fhir/us/qicore/StructureDefinition/qicore-organization"]},"identifier":[{"use":"temp","system":"urn:oid:2.16.840.1.113883.4.4","value":"21-3259825"}],"active":true,"type":[{"coding":[{"system":"http://terminology.hl7.org/CodeSystem/organization-type","code":"pay","display":"Payer"}]}],"name":"Blue Cross Blue Shield of Texas","telecom":[{"system":"phone","value":"(+1) 972-766-6900"}],"address":[{"use":"billing","type":"postal","line":["P.O. Box 660044"],"city":"Dallas","state":"TX","postalCode":"75266-0044","country":"USA"}]},"request":{"method":"PUT","url":"Organization/2acfbe8b-44fe-4920-8dd0-4d70b8efa7dc"}},{"fullUrl":"https://madie.cms.gov/Practitioner/2375497a-a9a0-413f-a635-688300bc6027","resource":{"resourceType":"Practitioner","id":"2375497a-a9a0-413f-a635-688300bc6027","meta":{"profile":["http://hl7.org/fhir/us/qicore/StructureDefinition/qicore-practitioner"]},"identifier":[{"system":"http://hl7.org/fhir/sid/us-npi","value":"9999999896"}],"name":[{"family":"Evil","prefix":["Dr"]}]},"request":{"method":"PUT","url":"Practitioner/2375497a-a9a0-413f-a635-688300bc6027"}},{"fullUrl":"https://madie.cms.gov/MeasureReport/9159fc44-1379-45d2-bf23-41996ffaa241","resource":{"resourceType":"MeasureReport","id":"9159fc44-1379-45d2-bf23-41996ffaa241","meta":{"profile":["http://hl7.org/fhir/us/cqfmeasures/StructureDefinition/test-case-cqfm"]},"contained":[{"resourceType":"Parameters","id":"ed60551c-4ba1-4450-90bd-40b94e6e017d-parameters","parameter":[{"name":"subject","valueString":"ad014d1d-6043-4b40-9fd3-0abc1f308a04"}]}],"extension":[{"url":"http://hl7.org/fhir/StructureDefinition/cqf-inputParameters","valueReference":{"reference":"#ed60551c-4ba1-4450-90bd-40b94e6e017d-parameters"}},{"url":"http://hl7.org/fhir/us/cqfmeasures/StructureDefinition/cqfm-testCaseDescription","valueMarkdown":"Enc Dx = ischemic stroke, age GT 18, without EncPrinipleDx\n"}],"modifierExtension":[{"url":"http://hl7.org/fhir/us/cqfmeasures/StructureDefinition/cqfm-isTestCase","valueBoolean":true}],"status":"complete","type":"individual","measure":"https://madie.cms.gov/Measure/CMS71FHIRSTKAnticoagAFFlutter","period":{"start":"2026-01-01","end":"2026-12-31"},"group":[{"id":"Group_1","population":[{"id":"InitialPopulation_1","code":{"coding":[{"system":"http://terminology.hl7.org/CodeSystem/measure-population","code":"initial-population","display":"Initial Population"}]},"count":0},{"id":"Denominator_1","code":{"coding":[{"system":"http://terminology.hl7.org/CodeSystem/measure-population","code":"denominator","display":"Denominator"}]},"count":0},{"id":"DenominatorExclusion_1","code":{"coding":[{"system":"http://terminology.hl7.org/CodeSystem/measure-population","code":"denominator-exclusion","display":"Denominator Exclusion"}]},"count":0},{"id":"Numerator_1","code":{"coding":[{"system":"http://terminology.hl7.org/CodeSystem/measure-population","code":"numerator","display":"Numerator"}]},"count":0},{"id":"DenominatorException_1","code":{"coding":[{"system":"http://terminology.hl7.org/CodeSystem/measure-population","code":"denominator-exception","display":"Denominator Exception"}]},"count":0}],"measureScore":{"value":0.0}}],"evaluatedResource":[{"reference":"Patient/ad014d1d-6043-4b40-9fd3-0abc1f308a04"},{"reference":"Encounter/e23040ea-f69c-41f1-a56f-341d8ade760b"},{"reference":"Coverage/e578ff70-b0fe-4fda-a0a4-560bfdd4f549"},{"reference":"Condition/6a56f108-4df3-441d-b5e4-8e6a334dce2c"},{"reference":"Claim/5ca62962b8484628b8de1ec5"},{"reference":"Organization/2acfbe8b-44fe-4920-8dd0-4d70b8efa7dc"},{"reference":"Practitioner/2375497a-a9a0-413f-a635-688300bc6027"}]},"request":{"method":"PUT","url":"MeasureReport/9159fc44-1379-45d2-bf23-41996ffaa241"}}]},"request":{"method":"PUT","url":"Bundle/633c9d030968f8012250fc95"}},{"resource":{"resourceType":"Claim","id":"5ca62962b8484628b8de1ec5","meta":{"profile":["http://hl7.org/fhir/us/qicore/StructureDefinition/qicore-claim"]},"status":"active","type":{"coding":[{"system":"http://terminology.hl7.org/CodeSystem/claim-type","code":"institutional"}]},"use":"claim","patient":{"reference":"Patient/d170a0a8-b5ad-4303-b6df-e304dd5f92ad"},"created":"2026-12-01","provider":{"reference":"Practitioner/2375497a-a9a0-413f-a635-688300bc6027"},"priority":{"coding":[{"system":"http://terminology.hl7.org/CodeSystem/processpriority","code":"normal"}]},"diagnosis":[{"sequence":2,"diagnosisCodeableConcept":{"coding":[{"system":"http://hl7.org/fhir/sid/icd-10-cm","code":"I63.00"}]},"type":[{"coding":[{"system":"http://terminology.hl7.org/CodeSystem/ex-diagnosistype","code":"clinical"}]}]}],"insurance":[{"sequence":1,"focal":true,"coverage":{"reference":"Coverage/5fa041661c76ba66d9959367"}}],"item":[{"sequence":2,"diagnosisSequence":[2],"productOrService":{"coding":[{"system":"http://terminology.hl7.org/CodeSystem/ex-USCLS","code":"99555"}]},"encounter":[{"reference":"Encounter/e23040ea-f69c-41f1-a56f-341d8ade760b"}]}]},"request":{"method":"PUT","url":"Claim/5ca62962b8484628b8de1ec5"}}]}