{"resourceType":"Bundle","id":"tests-96b57130-dda8-481b-b96b-c0d48068384e-bundle","type":"transaction","entry":[{"fullUrl":"Practitioner/4a8ad2d7-ff75-45f2-bd62-79b0bb257eee","resource":{"resourceType":"Practitioner","id":"4a8ad2d7-ff75-45f2-bd62-79b0bb257eee","meta":{"profile":["http://hl7.org/fhir/us/qicore/StructureDefinition/qicore-practitioner"]},"identifier":[{"system":"http://hl7.org/fhir/sid/us-npi","value":"9999999896"}],"name":[{"family":"Evil","prefix":["Dr"]}]},"request":{"method":"PUT","url":"Practitioner/4a8ad2d7-ff75-45f2-bd62-79b0bb257eee"}},{"fullUrl":"Patient/96b57130-dda8-481b-b96b-c0d48068384e","resource":{"resourceType":"Patient","id":"96b57130-dda8-481b-b96b-c0d48068384e","meta":{"profile":["http://hl7.org/fhir/us/qicore/StructureDefinition/qicore-patient"]},"text":{"status":"generated","div":"<div xmlns=\"http://www.w3.org/1999/xhtml\"><div class=\"hapiHeaderText\">CMOdurEnc_ED&lt;1hrObs&lt;1hrBFEnc <b>DENEXPASS </b></div><table class=\"hapiPropertyTable\"><tbody><tr><td>Identifier</td><td>073447d69f29a0b5f6598bee2a80898d</td></tr><tr><td>Date of birth</td><td><span>18 September 1985</span></td></tr></tbody></table></div>"},"extension":[{"url":"http://hl7.org/fhir/us/core/StructureDefinition/us-core-race","extension":[{"url":"ombCategory","valueCoding":{"system":"urn:oid:2.16.840.1.113883.6.238","code":"1002-5","display":"American Indian or Alaska Native","userSelected":true}},{"url":"text","valueString":"American Indian or Alaska Native"}]},{"url":"http://hl7.org/fhir/us/core/StructureDefinition/us-core-ethnicity","extension":[{"url":"ombCategory","valueCoding":{"system":"urn:oid:2.16.840.1.113883.6.238","code":"2135-2","display":"Hispanic or Latino","userSelected":true}},{"url":"text","valueString":"Hispanic or Latino"}]}],"identifier":[{"type":{"coding":[{"system":"http://terminology.hl7.org/CodeSystem/v2-0203","code":"MR"}]},"system":"https://bonnie-fhir.healthit.gov/","value":"633c9d030968f8012250fc87"}],"active":true,"name":[{"use":"usual","family":"DENEXPass ","given":["CMOdurEnc_ED<1hrObs<1hrBFEnc"]}],"gender":"female","birthDate":"1986-09-18"},"request":{"method":"PUT","url":"Patient/96b57130-dda8-481b-b96b-c0d48068384e"}},{"fullUrl":"Encounter/f9bac307-0255-4477-b793-9c40c3dde1f7","resource":{"resourceType":"Encounter","id":"f9bac307-0255-4477-b793-9c40c3dde1f7","meta":{"profile":["http://hl7.org/fhir/us/qicore/StructureDefinition/qicore-encounter"]},"status":"finished","class":{"system":"http://terminology.hl7.org/CodeSystem/v3-ActCode","code":"IMP","display":"inpatient encounter"},"type":[{"coding":[{"system":"http://snomed.info/sct","code":"32485007"}]}],"subject":{"reference":"Patient/96b57130-dda8-481b-b96b-c0d48068384e"},"period":{"start":"2026-10-01T09:00:00Z","end":"2026-10-12T00:15:00.000+00:00"},"length":{"value":11,"unit":"days"},"reasonReference":[{"reference":"Condition/3472a9e6-8b96-4a08-833c-12cacf406ee0"}]},"request":{"method":"PUT","url":"Encounter/f9bac307-0255-4477-b793-9c40c3dde1f7"}},{"fullUrl":"Encounter/9b2d55bb-4c53-464e-a014-ceace673ef06","resource":{"resourceType":"Encounter","id":"9b2d55bb-4c53-464e-a014-ceace673ef06","meta":{"profile":["http://hl7.org/fhir/us/qicore/StructureDefinition/qicore-encounter"]},"status":"finished","class":{"system":"http://terminology.hl7.org/CodeSystem/v3-ActCode","code":"OBSENC","display":"observation encounter"},"type":[{"coding":[{"system":"http://snomed.info/sct","code":"448851000124103"}]}],"subject":{"reference":"Patient/96b57130-dda8-481b-b96b-c0d48068384e"},"period":{"start":"2026-10-01T08:00:00Z","end":"2026-10-01T08:59:00.000+00:00"},"length":{"value":0,"unit":"days"}},"request":{"method":"PUT","url":"Encounter/9b2d55bb-4c53-464e-a014-ceace673ef06"}},{"fullUrl":"MeasureReport/e2f2cf1b-60d9-4447-954a-cd0be6c58802","resource":{"resourceType":"MeasureReport","id":"e2f2cf1b-60d9-4447-954a-cd0be6c58802","meta":{"profile":["http://hl7.org/fhir/us/cqfmeasures/StructureDefinition/test-case-cqfm"]},"contained":[{"resourceType":"Parameters","id":"f2b15af5-bb55-44df-82d1-35233bf9b4fc-parameters","parameter":[{"name":"subject","valueString":"96b57130-dda8-481b-b96b-c0d48068384e"}]}],"extension":[{"url":"http://hl7.org/fhir/StructureDefinition/cqf-inputParameters","valueReference":{"reference":"#f2b15af5-bb55-44df-82d1-35233bf9b4fc-parameters"}},{"url":"http://hl7.org/fhir/us/cqfmeasures/StructureDefinition/cqfm-testCaseDescription","valueMarkdown":"Patient receives CMO during inpatient encounter. ED ends 1 min before Observation start, Observation ends 1 min before inpatient encounter start Testing  HospitalizationWithObservation function.\n"}],"modifierExtension":[{"url":"http://hl7.org/fhir/us/cqfmeasures/StructureDefinition/cqfm-isTestCase","valueBoolean":true}],"status":"complete","type":"individual","measure":"https://madie.cms.gov/Measure/CMS71FHIRSTKAnticoagAFFlutter","period":{"start":"2026-01-01","end":"2026-12-31"},"group":[{"id":"Group_1","population":[{"id":"InitialPopulation_1","code":{"coding":[{"system":"http://terminology.hl7.org/CodeSystem/measure-population","code":"initial-population","display":"Initial Population"}]},"count":1},{"id":"Denominator_1","code":{"coding":[{"system":"http://terminology.hl7.org/CodeSystem/measure-population","code":"denominator","display":"Denominator"}]},"count":1},{"id":"DenominatorExclusion_1","code":{"coding":[{"system":"http://terminology.hl7.org/CodeSystem/measure-population","code":"denominator-exclusion","display":"Denominator Exclusion"}]},"count":1},{"id":"Numerator_1","code":{"coding":[{"system":"http://terminology.hl7.org/CodeSystem/measure-population","code":"numerator","display":"Numerator"}]},"count":0},{"id":"DenominatorException_1","code":{"coding":[{"system":"http://terminology.hl7.org/CodeSystem/measure-population","code":"denominator-exception","display":"Denominator Exception"}]},"count":0}],"measureScore":{"value":0.0}}],"evaluatedResource":[{"reference":"Patient/96b57130-dda8-481b-b96b-c0d48068384e"},{"reference":"Condition/3472a9e6-8b96-4a08-833c-12cacf406ee0"},{"reference":"Encounter/bd44158c-969f-4f85-b024-c565f6e3c7b6"},{"reference":"Encounter/9b2d55bb-4c53-464e-a014-ceace673ef06"},{"reference":"Encounter/f9bac307-0255-4477-b793-9c40c3dde1f7"},{"reference":"Claim/5ca62962b8484628b8de1ec5"},{"reference":"ServiceRequest/c3db0422-f6dc-4a6a-92b1-c3472311ada2"},{"reference":"Coverage/ca26c85c-d739-4e76-95bc-859491e556e5"},{"reference":"Condition/44ad3429-b0a8-416a-8895-8d5de5766452"},{"reference":"Organization/a2cc5ef2-9575-40b0-8ebb-2c0e87a0ebbf"},{"reference":"Practitioner/4a8ad2d7-ff75-45f2-bd62-79b0bb257eee"}]},"request":{"method":"PUT","url":"MeasureReport/e2f2cf1b-60d9-4447-954a-cd0be6c58802"}},{"fullUrl":"Encounter/bd44158c-969f-4f85-b024-c565f6e3c7b6","resource":{"resourceType":"Encounter","id":"bd44158c-969f-4f85-b024-c565f6e3c7b6","meta":{"profile":["http://hl7.org/fhir/us/qicore/StructureDefinition/qicore-encounter"]},"status":"finished","class":{"system":"http://terminology.hl7.org/CodeSystem/v3-ActCode","code":"EMER","display":"emergency"},"type":[{"coding":[{"system":"http://snomed.info/sct","code":"4525004"}]}],"subject":{"reference":"Patient/96b57130-dda8-481b-b96b-c0d48068384e"},"period":{"start":"2026-10-01T07:00:00Z","end":"2026-10-01T07:59:00.000+00:00"},"length":{"value":0,"unit":"days"}},"request":{"method":"PUT","url":"Encounter/bd44158c-969f-4f85-b024-c565f6e3c7b6"}},{"fullUrl":"Condition/44ad3429-b0a8-416a-8895-8d5de5766452","resource":{"resourceType":"Condition","id":"44ad3429-b0a8-416a-8895-8d5de5766452","meta":{"profile":["http://hl7.org/fhir/us/qicore/StructureDefinition/qicore-condition"]},"clinicalStatus":{"coding":[{"system":"http://terminology.hl7.org/CodeSystem/condition-clinical","code":"active"}]},"verificationStatus":{"coding":[{"system":"http://terminology.hl7.org/CodeSystem/condition-ver-status","code":"confirmed"}]},"category":[{"coding":[{"system":"http://terminology.hl7.org/CodeSystem/condition-category","code":"encounter-diagnosis","display":"Encounter Diagnosis"}]}],"code":{"coding":[{"system":"http://snomed.info/sct","version":"2021-09","code":"111297002","display":"Nonparalytic stroke (disorder)","userSelected":true}]},"subject":{"reference":"Patient/96b57130-dda8-481b-b96b-c0d48068384e"},"recordedDate":"2026-10-13T08:00:00Z"},"request":{"method":"PUT","url":"Condition/44ad3429-b0a8-416a-8895-8d5de5766452"}},{"fullUrl":"Organization/a2cc5ef2-9575-40b0-8ebb-2c0e87a0ebbf","resource":{"resourceType":"Organization","id":"a2cc5ef2-9575-40b0-8ebb-2c0e87a0ebbf","meta":{"profile":["http://hl7.org/fhir/us/qicore/StructureDefinition/qicore-organization"]},"identifier":[{"use":"temp","system":"urn:oid:2.16.840.1.113883.4.4","value":"21-3259825"}],"active":true,"type":[{"coding":[{"system":"http://terminology.hl7.org/CodeSystem/organization-type","code":"pay","display":"Payer"}]}],"name":"Blue Cross Blue Shield of Texas","telecom":[{"system":"phone","value":"(+1) 972-766-6900"}],"address":[{"use":"billing","type":"postal","line":["P.O. Box 660044"],"city":"Dallas","state":"TX","postalCode":"75266-0044","country":"USA"}]},"request":{"method":"PUT","url":"Organization/a2cc5ef2-9575-40b0-8ebb-2c0e87a0ebbf"}},{"fullUrl":"Condition/3472a9e6-8b96-4a08-833c-12cacf406ee0","resource":{"resourceType":"Condition","id":"3472a9e6-8b96-4a08-833c-12cacf406ee0","meta":{"profile":["http://hl7.org/fhir/us/qicore/StructureDefinition/qicore-condition-problems-health-concerns"]},"clinicalStatus":{"coding":[{"system":"http://terminology.hl7.org/CodeSystem/condition-clinical","code":"inactive"}]},"verificationStatus":{"coding":[{"system":"http://terminology.hl7.org/CodeSystem/condition-ver-status","code":"confirmed"}]},"category":[{"coding":[{"system":"http://terminology.hl7.org/CodeSystem/condition-category","code":"encounter-diagnosis","display":"Encounter Diagnosis"}]}],"code":{"coding":[{"system":"http://hl7.org/fhir/sid/icd-10-cm","code":"I48.20"},{"system":"http://hl7.org/fhir/sid/icd-10-cm","code":"I48.0"},{"system":"http://snomed.info/sct","code":"5370000"}]},"subject":{"reference":"Patient/96b57130-dda8-481b-b96b-c0d48068384e"},"onsetDateTime":"2026-10-01T09:00:00Z","abatementDateTime":"2026-10-12T00:15:00.000+00:00"},"request":{"method":"PUT","url":"Condition/3472a9e6-8b96-4a08-833c-12cacf406ee0"}},{"fullUrl":"ServiceRequest/c3db0422-f6dc-4a6a-92b1-c3472311ada2","resource":{"resourceType":"ServiceRequest","id":"c3db0422-f6dc-4a6a-92b1-c3472311ada2","meta":{"profile":["http://hl7.org/fhir/us/qicore/StructureDefinition/qicore-servicerequest"]},"status":"active","intent":"order","code":{"coding":[{"system":"http://snomed.info/sct","code":"133918004"}]},"subject":{"reference":"Patient/96b57130-dda8-481b-b96b-c0d48068384e"},"authoredOn":"2026-10-01T09:00:00Z"},"request":{"method":"PUT","url":"ServiceRequest/c3db0422-f6dc-4a6a-92b1-c3472311ada2"}},{"fullUrl":"Bundle/633c9d030968f8012250fc87","resource":{"resourceType":"Bundle","id":"633c9d030968f8012250fc87","type":"transaction","entry":[{"fullUrl":"https://madie.cms.gov/Patient/96b57130-dda8-481b-b96b-c0d48068384e","resource":{"resourceType":"Patient","id":"96b57130-dda8-481b-b96b-c0d48068384e","meta":{"profile":["http://hl7.org/fhir/us/qicore/StructureDefinition/qicore-patient"]},"text":{"status":"generated","div":"<div xmlns=\"http://www.w3.org/1999/xhtml\"><div class=\"hapiHeaderText\">CMOdurEnc_ED&lt;1hrObs&lt;1hrBFEnc <b>DENEXPASS </b></div><table class=\"hapiPropertyTable\"><tbody><tr><td>Identifier</td><td>073447d69f29a0b5f6598bee2a80898d</td></tr><tr><td>Date of birth</td><td><span>18 September 1985</span></td></tr></tbody></table></div>"},"extension":[{"url":"http://hl7.org/fhir/us/core/StructureDefinition/us-core-race","extension":[{"url":"ombCategory","valueCoding":{"system":"urn:oid:2.16.840.1.113883.6.238","code":"1002-5","display":"American Indian or Alaska Native","userSelected":true}},{"url":"text","valueString":"American Indian or Alaska Native"}]},{"url":"http://hl7.org/fhir/us/core/StructureDefinition/us-core-ethnicity","extension":[{"url":"ombCategory","valueCoding":{"system":"urn:oid:2.16.840.1.113883.6.238","code":"2135-2","display":"Hispanic or Latino","userSelected":true}},{"url":"text","valueString":"Hispanic or Latino"}]}],"identifier":[{"type":{"coding":[{"system":"http://terminology.hl7.org/CodeSystem/v2-0203","code":"MR"}]},"system":"https://bonnie-fhir.healthit.gov/","value":"633c9d030968f8012250fc87"}],"active":true,"name":[{"use":"usual","family":"DENEXPass ","given":["CMOdurEnc_ED<1hrObs<1hrBFEnc"]}],"gender":"female","birthDate":"1986-09-18"},"request":{"method":"PUT","url":"Patient/96b57130-dda8-481b-b96b-c0d48068384e"}},{"fullUrl":"https://madie.cms.gov/Condition/3472a9e6-8b96-4a08-833c-12cacf406ee0","resource":{"resourceType":"Condition","id":"3472a9e6-8b96-4a08-833c-12cacf406ee0","meta":{"profile":["http://hl7.org/fhir/us/qicore/StructureDefinition/qicore-condition-problems-health-concerns"]},"clinicalStatus":{"coding":[{"system":"http://terminology.hl7.org/CodeSystem/condition-clinical","code":"inactive"}]},"verificationStatus":{"coding":[{"system":"http://terminology.hl7.org/CodeSystem/condition-ver-status","code":"confirmed"}]},"category":[{"coding":[{"system":"http://terminology.hl7.org/CodeSystem/condition-category","code":"encounter-diagnosis","display":"Encounter Diagnosis"}]}],"code":{"coding":[{"system":"http://hl7.org/fhir/sid/icd-10-cm","code":"I48.20"},{"system":"http://hl7.org/fhir/sid/icd-10-cm","code":"I48.0"},{"system":"http://snomed.info/sct","code":"5370000"}]},"subject":{"reference":"Patient/96b57130-dda8-481b-b96b-c0d48068384e"},"onsetDateTime":"2026-10-01T09:00:00Z","abatementDateTime":"2026-10-12T00:15:00.000+00:00"},"request":{"method":"PUT","url":"Condition/3472a9e6-8b96-4a08-833c-12cacf406ee0"}},{"fullUrl":"https://madie.cms.gov/Encounter/bd44158c-969f-4f85-b024-c565f6e3c7b6","resource":{"resourceType":"Encounter","id":"bd44158c-969f-4f85-b024-c565f6e3c7b6","meta":{"profile":["http://hl7.org/fhir/us/qicore/StructureDefinition/qicore-encounter"]},"status":"finished","class":{"system":"http://terminology.hl7.org/CodeSystem/v3-ActCode","code":"EMER","display":"emergency"},"type":[{"coding":[{"system":"http://snomed.info/sct","code":"4525004"}]}],"subject":{"reference":"Patient/96b57130-dda8-481b-b96b-c0d48068384e"},"period":{"start":"2026-10-01T07:00:00Z","end":"2026-10-01T07:59:00.000+00:00"},"length":{"value":0,"unit":"days"}},"request":{"method":"PUT","url":"Encounter/bd44158c-969f-4f85-b024-c565f6e3c7b6"}},{"fullUrl":"https://madie.cms.gov/Encounter/9b2d55bb-4c53-464e-a014-ceace673ef06","resource":{"resourceType":"Encounter","id":"9b2d55bb-4c53-464e-a014-ceace673ef06","meta":{"profile":["http://hl7.org/fhir/us/qicore/StructureDefinition/qicore-encounter"]},"status":"finished","class":{"system":"http://terminology.hl7.org/CodeSystem/v3-ActCode","code":"OBSENC","display":"observation encounter"},"type":[{"coding":[{"system":"http://snomed.info/sct","code":"448851000124103"}]}],"subject":{"reference":"Patient/96b57130-dda8-481b-b96b-c0d48068384e"},"period":{"start":"2026-10-01T08:00:00Z","end":"2026-10-01T08:59:00.000+00:00"},"length":{"value":0,"unit":"days"}},"request":{"method":"PUT","url":"Encounter/9b2d55bb-4c53-464e-a014-ceace673ef06"}},{"fullUrl":"https://madie.cms.gov/Encounter/f9bac307-0255-4477-b793-9c40c3dde1f7","resource":{"resourceType":"Encounter","id":"f9bac307-0255-4477-b793-9c40c3dde1f7","meta":{"profile":["http://hl7.org/fhir/us/qicore/StructureDefinition/qicore-encounter"]},"status":"finished","class":{"system":"http://terminology.hl7.org/CodeSystem/v3-ActCode","code":"IMP","display":"inpatient encounter"},"type":[{"coding":[{"system":"http://snomed.info/sct","code":"32485007"}]}],"subject":{"reference":"Patient/96b57130-dda8-481b-b96b-c0d48068384e"},"period":{"start":"2026-10-01T09:00:00Z","end":"2026-10-12T00:15:00.000+00:00"},"length":{"value":11,"unit":"days"},"reasonReference":[{"reference":"Condition/3472a9e6-8b96-4a08-833c-12cacf406ee0"}]},"request":{"method":"PUT","url":"Encounter/f9bac307-0255-4477-b793-9c40c3dde1f7"}},{"fullUrl":"https://madie.cms.gov/claim/5ca62962b8484628b8de1ec5","resource":{"resourceType":"Claim","id":"5ca62962b8484628b8de1ec5","meta":{"profile":["http://hl7.org/fhir/us/qicore/StructureDefinition/qicore-claim"]},"status":"active","type":{"coding":[{"system":"http://terminology.hl7.org/CodeSystem/claim-type","code":"institutional"}]},"use":"claim","patient":{"reference":"Patient/d170a0a8-b5ad-4303-b6df-e304dd5f92ad"},"created":"2026-12-01","provider":{"reference":"Practitioner/4a8ad2d7-ff75-45f2-bd62-79b0bb257eee"},"priority":{"coding":[{"system":"http://terminology.hl7.org/CodeSystem/processpriority","code":"normal"}]},"diagnosis":[{"sequence":1,"diagnosisCodeableConcept":{"coding":[{"system":"http://hl7.org/fhir/sid/icd-10-cm","code":"I63.00"}]},"type":[{"coding":[{"system":"http://terminology.hl7.org/CodeSystem/ex-diagnosistype","code":"principal"}]}]}],"insurance":[{"sequence":1,"focal":true,"coverage":{"reference":"Coverage/5fa041661c76ba66d9959367"}}],"item":[{"sequence":1,"diagnosisSequence":[1],"productOrService":{"coding":[{"system":"http://terminology.hl7.org/CodeSystem/ex-USCLS","code":"99555"}]},"encounter":[{"reference":"Encounter/f9bac307-0255-4477-b793-9c40c3dde1f7"}]}]},"request":{"method":"PUT","url":"Claim/5ca62962b8484628b8de1ec5"}},{"fullUrl":"https://madie.cms.gov/ServiceRequest/c3db0422-f6dc-4a6a-92b1-c3472311ada2","resource":{"resourceType":"ServiceRequest","id":"c3db0422-f6dc-4a6a-92b1-c3472311ada2","meta":{"profile":["http://hl7.org/fhir/us/qicore/StructureDefinition/qicore-servicerequest"]},"status":"active","intent":"order","code":{"coding":[{"system":"http://snomed.info/sct","code":"133918004"}]},"subject":{"reference":"Patient/96b57130-dda8-481b-b96b-c0d48068384e"},"authoredOn":"2026-10-01T09:00:00Z"},"request":{"method":"PUT","url":"ServiceRequest/c3db0422-f6dc-4a6a-92b1-c3472311ada2"}},{"fullUrl":"https://madie.cms.gov/Coverage/ca26c85c-d739-4e76-95bc-859491e556e5","resource":{"resourceType":"Coverage","id":"ca26c85c-d739-4e76-95bc-859491e556e5","status":"active","subscriberId":"523435","beneficiary":{"reference":"Patient/96b57130-dda8-481b-b96b-c0d48068384e"},"relationship":{"coding":[{"system":"http://terminology.hl7.org/CodeSystem/subscriber-relationship","code":"self"}]},"period":{"start":"1986-09-18T08:00:00Z"},"payor":[{"reference":"Organization/a2cc5ef2-9575-40b0-8ebb-2c0e87a0ebbf"}]},"request":{"method":"PUT","url":"Coverage/ca26c85c-d739-4e76-95bc-859491e556e5"}},{"fullUrl":"https://madie.cms.gov/Condition/44ad3429-b0a8-416a-8895-8d5de5766452","resource":{"resourceType":"Condition","id":"44ad3429-b0a8-416a-8895-8d5de5766452","meta":{"profile":["http://hl7.org/fhir/us/qicore/StructureDefinition/qicore-condition"]},"clinicalStatus":{"coding":[{"system":"http://terminology.hl7.org/CodeSystem/condition-clinical","code":"active"}]},"verificationStatus":{"coding":[{"system":"http://terminology.hl7.org/CodeSystem/condition-ver-status","code":"confirmed"}]},"category":[{"coding":[{"system":"http://terminology.hl7.org/CodeSystem/condition-category","code":"encounter-diagnosis","display":"Encounter Diagnosis"}]}],"code":{"coding":[{"system":"http://snomed.info/sct","version":"2021-09","code":"111297002","display":"Nonparalytic stroke (disorder)","userSelected":true}]},"subject":{"reference":"Patient/96b57130-dda8-481b-b96b-c0d48068384e"},"recordedDate":"2026-10-13T08:00:00Z"},"request":{"method":"PUT","url":"Condition/44ad3429-b0a8-416a-8895-8d5de5766452"}},{"fullUrl":"https://madie.cms.gov/Organization/a2cc5ef2-9575-40b0-8ebb-2c0e87a0ebbf","resource":{"resourceType":"Organization","id":"a2cc5ef2-9575-40b0-8ebb-2c0e87a0ebbf","meta":{"profile":["http://hl7.org/fhir/us/qicore/StructureDefinition/qicore-organization"]},"identifier":[{"use":"temp","system":"urn:oid:2.16.840.1.113883.4.4","value":"21-3259825"}],"active":true,"type":[{"coding":[{"system":"http://terminology.hl7.org/CodeSystem/organization-type","code":"pay","display":"Payer"}]}],"name":"Blue Cross Blue Shield of Texas","telecom":[{"system":"phone","value":"(+1) 972-766-6900"}],"address":[{"use":"billing","type":"postal","line":["P.O. Box 660044"],"city":"Dallas","state":"TX","postalCode":"75266-0044","country":"USA"}]},"request":{"method":"PUT","url":"Organization/a2cc5ef2-9575-40b0-8ebb-2c0e87a0ebbf"}},{"fullUrl":"https://madie.cms.gov/Practitioner/4a8ad2d7-ff75-45f2-bd62-79b0bb257eee","resource":{"resourceType":"Practitioner","id":"4a8ad2d7-ff75-45f2-bd62-79b0bb257eee","meta":{"profile":["http://hl7.org/fhir/us/qicore/StructureDefinition/qicore-practitioner"]},"identifier":[{"system":"http://hl7.org/fhir/sid/us-npi","value":"9999999896"}],"name":[{"family":"Evil","prefix":["Dr"]}]},"request":{"method":"PUT","url":"Practitioner/4a8ad2d7-ff75-45f2-bd62-79b0bb257eee"}},{"fullUrl":"https://madie.cms.gov/MeasureReport/e2f2cf1b-60d9-4447-954a-cd0be6c58802","resource":{"resourceType":"MeasureReport","id":"e2f2cf1b-60d9-4447-954a-cd0be6c58802","meta":{"profile":["http://hl7.org/fhir/us/cqfmeasures/StructureDefinition/test-case-cqfm"]},"contained":[{"resourceType":"Parameters","id":"f2b15af5-bb55-44df-82d1-35233bf9b4fc-parameters","parameter":[{"name":"subject","valueString":"96b57130-dda8-481b-b96b-c0d48068384e"}]}],"extension":[{"url":"http://hl7.org/fhir/StructureDefinition/cqf-inputParameters","valueReference":{"reference":"#f2b15af5-bb55-44df-82d1-35233bf9b4fc-parameters"}},{"url":"http://hl7.org/fhir/us/cqfmeasures/StructureDefinition/cqfm-testCaseDescription","valueMarkdown":"Patient receives CMO during inpatient encounter. ED ends 1 min before Observation start, Observation ends 1 min before inpatient encounter start Testing  HospitalizationWithObservation function.\n"}],"modifierExtension":[{"url":"http://hl7.org/fhir/us/cqfmeasures/StructureDefinition/cqfm-isTestCase","valueBoolean":true}],"status":"complete","type":"individual","measure":"https://madie.cms.gov/Measure/CMS71FHIRSTKAnticoagAFFlutter","period":{"start":"2026-01-01","end":"2026-12-31"},"group":[{"id":"Group_1","population":[{"id":"InitialPopulation_1","code":{"coding":[{"system":"http://terminology.hl7.org/CodeSystem/measure-population","code":"initial-population","display":"Initial Population"}]},"count":1},{"id":"Denominator_1","code":{"coding":[{"system":"http://terminology.hl7.org/CodeSystem/measure-population","code":"denominator","display":"Denominator"}]},"count":1},{"id":"DenominatorExclusion_1","code":{"coding":[{"system":"http://terminology.hl7.org/CodeSystem/measure-population","code":"denominator-exclusion","display":"Denominator Exclusion"}]},"count":1},{"id":"Numerator_1","code":{"coding":[{"system":"http://terminology.hl7.org/CodeSystem/measure-population","code":"numerator","display":"Numerator"}]},"count":0},{"id":"DenominatorException_1","code":{"coding":[{"system":"http://terminology.hl7.org/CodeSystem/measure-population","code":"denominator-exception","display":"Denominator Exception"}]},"count":0}],"measureScore":{"value":0.0}}],"evaluatedResource":[{"reference":"Patient/96b57130-dda8-481b-b96b-c0d48068384e"},{"reference":"Condition/3472a9e6-8b96-4a08-833c-12cacf406ee0"},{"reference":"Encounter/bd44158c-969f-4f85-b024-c565f6e3c7b6"},{"reference":"Encounter/9b2d55bb-4c53-464e-a014-ceace673ef06"},{"reference":"Encounter/f9bac307-0255-4477-b793-9c40c3dde1f7"},{"reference":"Claim/5ca62962b8484628b8de1ec5"},{"reference":"ServiceRequest/c3db0422-f6dc-4a6a-92b1-c3472311ada2"},{"reference":"Coverage/ca26c85c-d739-4e76-95bc-859491e556e5"},{"reference":"Condition/44ad3429-b0a8-416a-8895-8d5de5766452"},{"reference":"Organization/a2cc5ef2-9575-40b0-8ebb-2c0e87a0ebbf"},{"reference":"Practitioner/4a8ad2d7-ff75-45f2-bd62-79b0bb257eee"}]},"request":{"method":"PUT","url":"MeasureReport/e2f2cf1b-60d9-4447-954a-cd0be6c58802"}}]},"request":{"method":"PUT","url":"Bundle/633c9d030968f8012250fc87"}},{"fullUrl":"Coverage/ca26c85c-d739-4e76-95bc-859491e556e5","resource":{"resourceType":"Coverage","id":"ca26c85c-d739-4e76-95bc-859491e556e5","status":"active","subscriberId":"523435","beneficiary":{"reference":"Patient/96b57130-dda8-481b-b96b-c0d48068384e"},"relationship":{"coding":[{"system":"http://terminology.hl7.org/CodeSystem/subscriber-relationship","code":"self"}]},"period":{"start":"1986-09-18T08:00:00Z"},"payor":[{"reference":"Organization/a2cc5ef2-9575-40b0-8ebb-2c0e87a0ebbf"}]},"request":{"method":"PUT","url":"Coverage/ca26c85c-d739-4e76-95bc-859491e556e5"}},{"fullUrl":"Claim/5ca62962b8484628b8de1ec5","resource":{"resourceType":"Claim","id":"5ca62962b8484628b8de1ec5","meta":{"profile":["http://hl7.org/fhir/us/qicore/StructureDefinition/qicore-claim"]},"status":"active","type":{"coding":[{"system":"http://terminology.hl7.org/CodeSystem/claim-type","code":"institutional"}]},"use":"claim","patient":{"reference":"Patient/d170a0a8-b5ad-4303-b6df-e304dd5f92ad"},"created":"2026-12-01","provider":{"reference":"Practitioner/4a8ad2d7-ff75-45f2-bd62-79b0bb257eee"},"priority":{"coding":[{"system":"http://terminology.hl7.org/CodeSystem/processpriority","code":"normal"}]},"diagnosis":[{"sequence":1,"diagnosisCodeableConcept":{"coding":[{"system":"http://hl7.org/fhir/sid/icd-10-cm","code":"I63.00"}]},"type":[{"coding":[{"system":"http://terminology.hl7.org/CodeSystem/ex-diagnosistype","code":"principal"}]}]}],"insurance":[{"sequence":1,"focal":true,"coverage":{"reference":"Coverage/5fa041661c76ba66d9959367"}}],"item":[{"sequence":1,"diagnosisSequence":[1],"productOrService":{"coding":[{"system":"http://terminology.hl7.org/CodeSystem/ex-USCLS","code":"99555"}]},"encounter":[{"reference":"Encounter/f9bac307-0255-4477-b793-9c40c3dde1f7"}]}]},"request":{"method":"PUT","url":"Claim/5ca62962b8484628b8de1ec5"}}]}