{"resourceType":"Bundle","id":"tests-f07b7d1a-b0da-4d44-acc6-eb2a6dfa0da3-bundle","type":"transaction","entry":[{"fullUrl":"MeasureReport/fe1d28f9-7ad1-4ca6-a5cf-67cb0e14abec","resource":{"resourceType":"MeasureReport","id":"fe1d28f9-7ad1-4ca6-a5cf-67cb0e14abec","meta":{"profile":["http://hl7.org/fhir/us/cqfmeasures/StructureDefinition/test-case-cqfm"]},"contained":[{"resourceType":"Parameters","id":"5be23b8d-f3c2-4ae2-b1b1-11106a418d61-parameters","parameter":[{"name":"subject","valueString":"f07b7d1a-b0da-4d44-acc6-eb2a6dfa0da3"}]}],"extension":[{"url":"http://hl7.org/fhir/StructureDefinition/cqf-inputParameters","valueReference":{"reference":"#5be23b8d-f3c2-4ae2-b1b1-11106a418d61-parameters"}},{"url":"http://hl7.org/fhir/us/cqfmeasures/StructureDefinition/cqfm-testCaseDescription","valueMarkdown":"Pt. discharged on anticoagulant, starts during OccurA\n"}],"modifierExtension":[{"url":"http://hl7.org/fhir/us/cqfmeasures/StructureDefinition/cqfm-isTestCase","valueBoolean":true}],"status":"complete","type":"individual","measure":"https://madie.cms.gov/Measure/CMS71FHIRSTKAnticoagAFFlutter","period":{"start":"2026-01-01","end":"2026-12-31"},"group":[{"id":"Group_1","population":[{"id":"InitialPopulation_1","code":{"coding":[{"system":"http://terminology.hl7.org/CodeSystem/measure-population","code":"initial-population","display":"Initial Population"}]},"count":1},{"id":"Denominator_1","code":{"coding":[{"system":"http://terminology.hl7.org/CodeSystem/measure-population","code":"denominator","display":"Denominator"}]},"count":1},{"id":"DenominatorExclusion_1","code":{"coding":[{"system":"http://terminology.hl7.org/CodeSystem/measure-population","code":"denominator-exclusion","display":"Denominator Exclusion"}]},"count":0},{"id":"Numerator_1","code":{"coding":[{"system":"http://terminology.hl7.org/CodeSystem/measure-population","code":"numerator","display":"Numerator"}]},"count":1},{"id":"DenominatorException_1","code":{"coding":[{"system":"http://terminology.hl7.org/CodeSystem/measure-population","code":"denominator-exception","display":"Denominator Exception"}]},"count":0}],"measureScore":{"value":0.0}}],"evaluatedResource":[{"reference":"Patient/f07b7d1a-b0da-4d44-acc6-eb2a6dfa0da3"},{"reference":"Encounter/66d2362e-246e-4191-ae5c-89b6c95c4727"},{"reference":"Claim/5ca62962b8484628b8de1ec5"},{"reference":"MedicationRequest/4bf2c3dd-0a85-4442-bcda-9739841200b8"},{"reference":"Coverage/96934e95-2bf8-435b-a79b-b60c797685f0"},{"reference":"Procedure/fd195f08-4547-4fff-b4e8-1f0a82ed6912"},{"reference":"Condition/f1e28fcd-14ad-41b6-a394-6bfe8acc96b1"},{"reference":"Organization/0e4a9ccc-5112-463f-9898-90218bf1154f"},{"reference":"Practitioner/e00489c5-d410-4b83-b513-0effeded3fa0"}]},"request":{"method":"PUT","url":"MeasureReport/fe1d28f9-7ad1-4ca6-a5cf-67cb0e14abec"}},{"fullUrl":"MedicationRequest/4bf2c3dd-0a85-4442-bcda-9739841200b8","resource":{"resourceType":"MedicationRequest","id":"4bf2c3dd-0a85-4442-bcda-9739841200b8","meta":{"profile":["http://hl7.org/fhir/us/qicore/StructureDefinition/qicore-medicationrequest"]},"status":"completed","intent":"order","category":[{"coding":[{"system":"http://terminology.hl7.org/CodeSystem/medicationrequest-category","code":"community","display":"Community","userSelected":true}]}],"medicationCodeableConcept":{"coding":[{"system":"http://www.nlm.nih.gov/research/umls/rxnorm","version":"2022-01","code":"308351","display":"2.5 ML argatroban 100 MG/ML Injection","userSelected":true}]},"subject":{"reference":"Patient/f07b7d1a-b0da-4d44-acc6-eb2a6dfa0da3"},"authoredOn":"2026-11-24T08:00:00Z","requester":{"reference":"Practitioner/example"}},"request":{"method":"PUT","url":"MedicationRequest/4bf2c3dd-0a85-4442-bcda-9739841200b8"}},{"fullUrl":"Patient/f07b7d1a-b0da-4d44-acc6-eb2a6dfa0da3","resource":{"resourceType":"Patient","id":"f07b7d1a-b0da-4d44-acc6-eb2a6dfa0da3","meta":{"profile":["http://hl7.org/fhir/us/qicore/StructureDefinition/qicore-patient"]},"text":{"status":"generated","div":"<div xmlns=\"http://www.w3.org/1999/xhtml\"><div class=\"hapiHeaderText\">Anticoag@DC <b>NUMERPASS </b></div><table class=\"hapiPropertyTable\"><tbody><tr><td>Identifier</td><td>52c14de634122f39abfbd9ffaa41bc27</td></tr><tr><td>Date of birth</td><td><span>23 May 1954</span></td></tr></tbody></table></div>"},"extension":[{"url":"http://hl7.org/fhir/us/core/StructureDefinition/us-core-race","extension":[{"url":"ombCategory","valueCoding":{"system":"urn:oid:2.16.840.1.113883.6.238","code":"1002-5","display":"American Indian or Alaska Native","userSelected":true}},{"url":"text","valueString":"American Indian or Alaska Native"}]},{"url":"http://hl7.org/fhir/us/core/StructureDefinition/us-core-ethnicity","extension":[{"url":"ombCategory","valueCoding":{"system":"urn:oid:2.16.840.1.113883.6.238","code":"2135-2","display":"Hispanic or Latino","userSelected":true}},{"url":"text","valueString":"Hispanic or Latino"}]}],"identifier":[{"type":{"coding":[{"system":"http://terminology.hl7.org/CodeSystem/v2-0203","code":"MR"}]},"system":"https://bonnie-fhir.healthit.gov/","value":"633c9d020968f8012250fc66"}],"active":true,"name":[{"use":"usual","family":"NUMERPass","given":["Anticoag@DC"]}],"gender":"female","birthDate":"1955-05-23"},"request":{"method":"PUT","url":"Patient/f07b7d1a-b0da-4d44-acc6-eb2a6dfa0da3"}},{"fullUrl":"Bundle/633c9d020968f8012250fc66","resource":{"resourceType":"Bundle","id":"633c9d020968f8012250fc66","type":"transaction","entry":[{"fullUrl":"https://madie.cms.gov/Patient/f07b7d1a-b0da-4d44-acc6-eb2a6dfa0da3","resource":{"resourceType":"Patient","id":"f07b7d1a-b0da-4d44-acc6-eb2a6dfa0da3","meta":{"profile":["http://hl7.org/fhir/us/qicore/StructureDefinition/qicore-patient"]},"text":{"status":"generated","div":"<div xmlns=\"http://www.w3.org/1999/xhtml\"><div class=\"hapiHeaderText\">Anticoag@DC <b>NUMERPASS </b></div><table class=\"hapiPropertyTable\"><tbody><tr><td>Identifier</td><td>52c14de634122f39abfbd9ffaa41bc27</td></tr><tr><td>Date of birth</td><td><span>23 May 1954</span></td></tr></tbody></table></div>"},"extension":[{"url":"http://hl7.org/fhir/us/core/StructureDefinition/us-core-race","extension":[{"url":"ombCategory","valueCoding":{"system":"urn:oid:2.16.840.1.113883.6.238","code":"1002-5","display":"American Indian or Alaska Native","userSelected":true}},{"url":"text","valueString":"American Indian or Alaska Native"}]},{"url":"http://hl7.org/fhir/us/core/StructureDefinition/us-core-ethnicity","extension":[{"url":"ombCategory","valueCoding":{"system":"urn:oid:2.16.840.1.113883.6.238","code":"2135-2","display":"Hispanic or Latino","userSelected":true}},{"url":"text","valueString":"Hispanic or Latino"}]}],"identifier":[{"type":{"coding":[{"system":"http://terminology.hl7.org/CodeSystem/v2-0203","code":"MR"}]},"system":"https://bonnie-fhir.healthit.gov/","value":"633c9d020968f8012250fc66"}],"active":true,"name":[{"use":"usual","family":"NUMERPass","given":["Anticoag@DC"]}],"gender":"female","birthDate":"1955-05-23"},"request":{"method":"PUT","url":"Patient/f07b7d1a-b0da-4d44-acc6-eb2a6dfa0da3"}},{"fullUrl":"https://madie.cms.gov/Encounter/66d2362e-246e-4191-ae5c-89b6c95c4727","resource":{"resourceType":"Encounter","id":"66d2362e-246e-4191-ae5c-89b6c95c4727","meta":{"profile":["http://hl7.org/fhir/us/qicore/StructureDefinition/qicore-encounter"]},"status":"finished","class":{"system":"http://terminology.hl7.org/CodeSystem/v3-ActCode","code":"IMP","display":"inpatient encounter"},"type":[{"coding":[{"system":"http://snomed.info/sct","code":"32485007"}]}],"subject":{"reference":"Patient/f07b7d1a-b0da-4d44-acc6-eb2a6dfa0da3"},"period":{"start":"2026-11-20T08:00:00Z","end":"2026-11-24T08:15:00.000+00:00"},"length":{"value":4,"unit":"days"},"reasonReference":[{"reference":"Condition/f1e28fcd-14ad-41b6-a394-6bfe8acc96b1"}]},"request":{"method":"PUT","url":"Encounter/66d2362e-246e-4191-ae5c-89b6c95c4727"}},{"fullUrl":"https://madie.cms.gov/claim/5ca62962b8484628b8de1ec5","resource":{"resourceType":"Claim","id":"5ca62962b8484628b8de1ec5","meta":{"profile":["http://hl7.org/fhir/us/qicore/StructureDefinition/qicore-claim"]},"status":"active","type":{"coding":[{"system":"http://terminology.hl7.org/CodeSystem/claim-type","code":"institutional"}]},"use":"claim","patient":{"reference":"Patient/d170a0a8-b5ad-4303-b6df-e304dd5f92ad"},"created":"2026-12-01","provider":{"reference":"Practitioner/e00489c5-d410-4b83-b513-0effeded3fa0"},"priority":{"coding":[{"system":"http://terminology.hl7.org/CodeSystem/processpriority","code":"normal"}]},"diagnosis":[{"sequence":1,"diagnosisCodeableConcept":{"coding":[{"system":"http://hl7.org/fhir/sid/icd-10-cm","code":"I63.00"}]},"type":[{"coding":[{"system":"http://terminology.hl7.org/CodeSystem/ex-diagnosistype","code":"principal"}]}]}],"insurance":[{"sequence":1,"focal":true,"coverage":{"reference":"Coverage/5fa041661c76ba66d9959367"}}],"item":[{"sequence":1,"diagnosisSequence":[1],"productOrService":{"coding":[{"system":"http://terminology.hl7.org/CodeSystem/ex-USCLS","code":"99555"}]},"encounter":[{"reference":"Encounter/66d2362e-246e-4191-ae5c-89b6c95c4727"}]}]},"request":{"method":"PUT","url":"Claim/5ca62962b8484628b8de1ec5"}},{"fullUrl":"https://madie.cms.gov/MedicationRequest/4bf2c3dd-0a85-4442-bcda-9739841200b8","resource":{"resourceType":"MedicationRequest","id":"4bf2c3dd-0a85-4442-bcda-9739841200b8","meta":{"profile":["http://hl7.org/fhir/us/qicore/StructureDefinition/qicore-medicationrequest"]},"status":"completed","intent":"order","category":[{"coding":[{"system":"http://terminology.hl7.org/CodeSystem/medicationrequest-category","code":"community","display":"Community","userSelected":true}]}],"medicationCodeableConcept":{"coding":[{"system":"http://www.nlm.nih.gov/research/umls/rxnorm","version":"2022-01","code":"308351","display":"2.5 ML argatroban 100 MG/ML Injection","userSelected":true}]},"subject":{"reference":"Patient/f07b7d1a-b0da-4d44-acc6-eb2a6dfa0da3"},"authoredOn":"2026-11-24T08:00:00Z","requester":{"reference":"Practitioner/example"}},"request":{"method":"PUT","url":"MedicationRequest/4bf2c3dd-0a85-4442-bcda-9739841200b8"}},{"fullUrl":"https://madie.cms.gov/Coverage/96934e95-2bf8-435b-a79b-b60c797685f0","resource":{"resourceType":"Coverage","id":"96934e95-2bf8-435b-a79b-b60c797685f0","meta":{"profile":["http://hl7.org/fhir/us/qicore/StructureDefinition/qicore-coverage"]},"status":"active","subscriberId":"523435","beneficiary":{"reference":"Patient/162a5913-9989-42f2-8d6a-ae460e245e4c"},"relationship":{"coding":[{"system":"http://terminology.hl7.org/CodeSystem/subscriber-relationship","code":"self"}]},"payor":[{"reference":"Organization/0e4a9ccc-5112-463f-9898-90218bf1154f"}]},"request":{"method":"PUT","url":"Coverage/96934e95-2bf8-435b-a79b-b60c797685f0"}},{"fullUrl":"https://madie.cms.gov/Procedure/fd195f08-4547-4fff-b4e8-1f0a82ed6912","resource":{"resourceType":"Procedure","id":"fd195f08-4547-4fff-b4e8-1f0a82ed6912","meta":{"profile":["http://hl7.org/fhir/us/qicore/StructureDefinition/qicore-procedure"]},"extension":[{"url":"http://hl7.org/fhir/us/qicore/StructureDefinition/qicore-recorded","valueDateTime":"2026-11-19T13:35:00Z"}],"status":"completed","code":{"coding":[{"system":"http://www.cms.gov/Medicare/Coding/ICD10","code":"02560ZZ"},{"system":"http://snomed.info/sct","code":"175095005"}]},"subject":{"reference":"Patient/f07b7d1a-b0da-4d44-acc6-eb2a6dfa0da3"},"performedPeriod":{"start":"2026-11-20T06:00:00Z","end":"2026-11-20T07:15:00.000+00:00"}},"request":{"method":"PUT","url":"Procedure/fd195f08-4547-4fff-b4e8-1f0a82ed6912"}},{"fullUrl":"https://madie.cms.gov/Condition/f1e28fcd-14ad-41b6-a394-6bfe8acc96b1","resource":{"resourceType":"Condition","id":"f1e28fcd-14ad-41b6-a394-6bfe8acc96b1","meta":{"profile":["http://hl7.org/fhir/us/qicore/StructureDefinition/qicore-condition-problems-health-concerns"]},"clinicalStatus":{"coding":[{"system":"http://terminology.hl7.org/CodeSystem/condition-clinical","code":"active"}]},"verificationStatus":{"coding":[{"system":"http://terminology.hl7.org/CodeSystem/condition-ver-status","code":"confirmed"}]},"category":[{"coding":[{"system":"http://terminology.hl7.org/CodeSystem/condition-category","code":"encounter-diagnosis","display":"Encounter Diagnosis"}]}],"code":{"coding":[{"system":"http://snomed.info/sct","version":"2021-09","code":"111297002","display":"Nonparalytic stroke (disorder)","userSelected":true}]},"subject":{"reference":"Patient/f07b7d1a-b0da-4d44-acc6-eb2a6dfa0da3"},"recordedDate":"2026-10-13T08:00:00Z"},"request":{"method":"PUT","url":"Condition/f1e28fcd-14ad-41b6-a394-6bfe8acc96b1"}},{"fullUrl":"https://madie.cms.gov/Organization/0e4a9ccc-5112-463f-9898-90218bf1154f","resource":{"resourceType":"Organization","id":"0e4a9ccc-5112-463f-9898-90218bf1154f","meta":{"profile":["http://hl7.org/fhir/us/qicore/StructureDefinition/qicore-organization"]},"identifier":[{"use":"temp","system":"urn:oid:2.16.840.1.113883.4.4","value":"21-3259825"}],"active":true,"type":[{"coding":[{"system":"http://terminology.hl7.org/CodeSystem/organization-type","code":"pay","display":"Payer"}]}],"name":"Blue Cross Blue Shield of Texas","telecom":[{"system":"phone","value":"(+1) 972-766-6900"}],"address":[{"use":"billing","type":"postal","line":["P.O. Box 660044"],"city":"Dallas","state":"TX","postalCode":"75266-0044","country":"USA"}]},"request":{"method":"PUT","url":"Organization/0e4a9ccc-5112-463f-9898-90218bf1154f"}},{"fullUrl":"https://madie.cms.gov/Practitioner/e00489c5-d410-4b83-b513-0effeded3fa0","resource":{"resourceType":"Practitioner","id":"e00489c5-d410-4b83-b513-0effeded3fa0","meta":{"profile":["http://hl7.org/fhir/us/qicore/StructureDefinition/qicore-practitioner"]},"identifier":[{"system":"http://hl7.org/fhir/sid/us-npi","value":"9999999896"}],"name":[{"family":"Evil","prefix":["Dr"]}]},"request":{"method":"PUT","url":"Practitioner/e00489c5-d410-4b83-b513-0effeded3fa0"}},{"fullUrl":"https://madie.cms.gov/MeasureReport/fe1d28f9-7ad1-4ca6-a5cf-67cb0e14abec","resource":{"resourceType":"MeasureReport","id":"fe1d28f9-7ad1-4ca6-a5cf-67cb0e14abec","meta":{"profile":["http://hl7.org/fhir/us/cqfmeasures/StructureDefinition/test-case-cqfm"]},"contained":[{"resourceType":"Parameters","id":"5be23b8d-f3c2-4ae2-b1b1-11106a418d61-parameters","parameter":[{"name":"subject","valueString":"f07b7d1a-b0da-4d44-acc6-eb2a6dfa0da3"}]}],"extension":[{"url":"http://hl7.org/fhir/StructureDefinition/cqf-inputParameters","valueReference":{"reference":"#5be23b8d-f3c2-4ae2-b1b1-11106a418d61-parameters"}},{"url":"http://hl7.org/fhir/us/cqfmeasures/StructureDefinition/cqfm-testCaseDescription","valueMarkdown":"Pt. discharged on anticoagulant, starts during OccurA\n"}],"modifierExtension":[{"url":"http://hl7.org/fhir/us/cqfmeasures/StructureDefinition/cqfm-isTestCase","valueBoolean":true}],"status":"complete","type":"individual","measure":"https://madie.cms.gov/Measure/CMS71FHIRSTKAnticoagAFFlutter","period":{"start":"2026-01-01","end":"2026-12-31"},"group":[{"id":"Group_1","population":[{"id":"InitialPopulation_1","code":{"coding":[{"system":"http://terminology.hl7.org/CodeSystem/measure-population","code":"initial-population","display":"Initial Population"}]},"count":1},{"id":"Denominator_1","code":{"coding":[{"system":"http://terminology.hl7.org/CodeSystem/measure-population","code":"denominator","display":"Denominator"}]},"count":1},{"id":"DenominatorExclusion_1","code":{"coding":[{"system":"http://terminology.hl7.org/CodeSystem/measure-population","code":"denominator-exclusion","display":"Denominator Exclusion"}]},"count":0},{"id":"Numerator_1","code":{"coding":[{"system":"http://terminology.hl7.org/CodeSystem/measure-population","code":"numerator","display":"Numerator"}]},"count":1},{"id":"DenominatorException_1","code":{"coding":[{"system":"http://terminology.hl7.org/CodeSystem/measure-population","code":"denominator-exception","display":"Denominator Exception"}]},"count":0}],"measureScore":{"value":0.0}}],"evaluatedResource":[{"reference":"Patient/f07b7d1a-b0da-4d44-acc6-eb2a6dfa0da3"},{"reference":"Encounter/66d2362e-246e-4191-ae5c-89b6c95c4727"},{"reference":"Claim/5ca62962b8484628b8de1ec5"},{"reference":"MedicationRequest/4bf2c3dd-0a85-4442-bcda-9739841200b8"},{"reference":"Coverage/96934e95-2bf8-435b-a79b-b60c797685f0"},{"reference":"Procedure/fd195f08-4547-4fff-b4e8-1f0a82ed6912"},{"reference":"Condition/f1e28fcd-14ad-41b6-a394-6bfe8acc96b1"},{"reference":"Organization/0e4a9ccc-5112-463f-9898-90218bf1154f"},{"reference":"Practitioner/e00489c5-d410-4b83-b513-0effeded3fa0"}]},"request":{"method":"PUT","url":"MeasureReport/fe1d28f9-7ad1-4ca6-a5cf-67cb0e14abec"}}]},"request":{"method":"PUT","url":"Bundle/633c9d020968f8012250fc66"}},{"fullUrl":"Procedure/fd195f08-4547-4fff-b4e8-1f0a82ed6912","resource":{"resourceType":"Procedure","id":"fd195f08-4547-4fff-b4e8-1f0a82ed6912","meta":{"profile":["http://hl7.org/fhir/us/qicore/StructureDefinition/qicore-procedure"]},"extension":[{"url":"http://hl7.org/fhir/us/qicore/StructureDefinition/qicore-recorded","valueDateTime":"2026-11-19T13:35:00Z"}],"status":"completed","code":{"coding":[{"system":"http://www.cms.gov/Medicare/Coding/ICD10","code":"02560ZZ"},{"system":"http://snomed.info/sct","code":"175095005"}]},"subject":{"reference":"Patient/f07b7d1a-b0da-4d44-acc6-eb2a6dfa0da3"},"performedPeriod":{"start":"2026-11-20T06:00:00Z","end":"2026-11-20T07:15:00.000+00:00"}},"request":{"method":"PUT","url":"Procedure/fd195f08-4547-4fff-b4e8-1f0a82ed6912"}},{"fullUrl":"Encounter/66d2362e-246e-4191-ae5c-89b6c95c4727","resource":{"resourceType":"Encounter","id":"66d2362e-246e-4191-ae5c-89b6c95c4727","meta":{"profile":["http://hl7.org/fhir/us/qicore/StructureDefinition/qicore-encounter"]},"status":"finished","class":{"system":"http://terminology.hl7.org/CodeSystem/v3-ActCode","code":"IMP","display":"inpatient encounter"},"type":[{"coding":[{"system":"http://snomed.info/sct","code":"32485007"}]}],"subject":{"reference":"Patient/f07b7d1a-b0da-4d44-acc6-eb2a6dfa0da3"},"period":{"start":"2026-11-20T08:00:00Z","end":"2026-11-24T08:15:00.000+00:00"},"length":{"value":4,"unit":"days"},"reasonReference":[{"reference":"Condition/f1e28fcd-14ad-41b6-a394-6bfe8acc96b1"}]},"request":{"method":"PUT","url":"Encounter/66d2362e-246e-4191-ae5c-89b6c95c4727"}},{"fullUrl":"Organization/0e4a9ccc-5112-463f-9898-90218bf1154f","resource":{"resourceType":"Organization","id":"0e4a9ccc-5112-463f-9898-90218bf1154f","meta":{"profile":["http://hl7.org/fhir/us/qicore/StructureDefinition/qicore-organization"]},"identifier":[{"use":"temp","system":"urn:oid:2.16.840.1.113883.4.4","value":"21-3259825"}],"active":true,"type":[{"coding":[{"system":"http://terminology.hl7.org/CodeSystem/organization-type","code":"pay","display":"Payer"}]}],"name":"Blue Cross Blue Shield of Texas","telecom":[{"system":"phone","value":"(+1) 972-766-6900"}],"address":[{"use":"billing","type":"postal","line":["P.O. Box 660044"],"city":"Dallas","state":"TX","postalCode":"75266-0044","country":"USA"}]},"request":{"method":"PUT","url":"Organization/0e4a9ccc-5112-463f-9898-90218bf1154f"}},{"fullUrl":"Condition/f1e28fcd-14ad-41b6-a394-6bfe8acc96b1","resource":{"resourceType":"Condition","id":"f1e28fcd-14ad-41b6-a394-6bfe8acc96b1","meta":{"profile":["http://hl7.org/fhir/us/qicore/StructureDefinition/qicore-condition-problems-health-concerns"]},"clinicalStatus":{"coding":[{"system":"http://terminology.hl7.org/CodeSystem/condition-clinical","code":"active"}]},"verificationStatus":{"coding":[{"system":"http://terminology.hl7.org/CodeSystem/condition-ver-status","code":"confirmed"}]},"category":[{"coding":[{"system":"http://terminology.hl7.org/CodeSystem/condition-category","code":"encounter-diagnosis","display":"Encounter Diagnosis"}]}],"code":{"coding":[{"system":"http://snomed.info/sct","version":"2021-09","code":"111297002","display":"Nonparalytic stroke (disorder)","userSelected":true}]},"subject":{"reference":"Patient/f07b7d1a-b0da-4d44-acc6-eb2a6dfa0da3"},"recordedDate":"2026-10-13T08:00:00Z"},"request":{"method":"PUT","url":"Condition/f1e28fcd-14ad-41b6-a394-6bfe8acc96b1"}},{"fullUrl":"Coverage/96934e95-2bf8-435b-a79b-b60c797685f0","resource":{"resourceType":"Coverage","id":"96934e95-2bf8-435b-a79b-b60c797685f0","meta":{"profile":["http://hl7.org/fhir/us/qicore/StructureDefinition/qicore-coverage"]},"status":"active","subscriberId":"523435","beneficiary":{"reference":"Patient/162a5913-9989-42f2-8d6a-ae460e245e4c"},"relationship":{"coding":[{"system":"http://terminology.hl7.org/CodeSystem/subscriber-relationship","code":"self"}]},"payor":[{"reference":"Organization/0e4a9ccc-5112-463f-9898-90218bf1154f"}]},"request":{"method":"PUT","url":"Coverage/96934e95-2bf8-435b-a79b-b60c797685f0"}},{"fullUrl":"Practitioner/e00489c5-d410-4b83-b513-0effeded3fa0","resource":{"resourceType":"Practitioner","id":"e00489c5-d410-4b83-b513-0effeded3fa0","meta":{"profile":["http://hl7.org/fhir/us/qicore/StructureDefinition/qicore-practitioner"]},"identifier":[{"system":"http://hl7.org/fhir/sid/us-npi","value":"9999999896"}],"name":[{"family":"Evil","prefix":["Dr"]}]},"request":{"method":"PUT","url":"Practitioner/e00489c5-d410-4b83-b513-0effeded3fa0"}},{"fullUrl":"Claim/5ca62962b8484628b8de1ec5","resource":{"resourceType":"Claim","id":"5ca62962b8484628b8de1ec5","meta":{"profile":["http://hl7.org/fhir/us/qicore/StructureDefinition/qicore-claim"]},"status":"active","type":{"coding":[{"system":"http://terminology.hl7.org/CodeSystem/claim-type","code":"institutional"}]},"use":"claim","patient":{"reference":"Patient/d170a0a8-b5ad-4303-b6df-e304dd5f92ad"},"created":"2026-12-01","provider":{"reference":"Practitioner/e00489c5-d410-4b83-b513-0effeded3fa0"},"priority":{"coding":[{"system":"http://terminology.hl7.org/CodeSystem/processpriority","code":"normal"}]},"diagnosis":[{"sequence":1,"diagnosisCodeableConcept":{"coding":[{"system":"http://hl7.org/fhir/sid/icd-10-cm","code":"I63.00"}]},"type":[{"coding":[{"system":"http://terminology.hl7.org/CodeSystem/ex-diagnosistype","code":"principal"}]}]}],"insurance":[{"sequence":1,"focal":true,"coverage":{"reference":"Coverage/5fa041661c76ba66d9959367"}}],"item":[{"sequence":1,"diagnosisSequence":[1],"productOrService":{"coding":[{"system":"http://terminology.hl7.org/CodeSystem/ex-USCLS","code":"99555"}]},"encounter":[{"reference":"Encounter/66d2362e-246e-4191-ae5c-89b6c95c4727"}]}]},"request":{"method":"PUT","url":"Claim/5ca62962b8484628b8de1ec5"}}]}