{"resourceType":"Bundle","id":"tests-3ed947b5-9aba-4bed-aa72-f96b6f3f5082-bundle","type":"transaction","entry":[{"fullUrl":"Encounter/987ef993-1348-469c-b816-295c6d4b71df","resource":{"resourceType":"Encounter","id":"987ef993-1348-469c-b816-295c6d4b71df","meta":{"profile":["http://hl7.org/fhir/us/qicore/StructureDefinition/qicore-encounter"]},"status":"finished","class":{"system":"http://terminology.hl7.org/CodeSystem/v3-ActCode","code":"OBSENC","display":"observation encounter"},"type":[{"coding":[{"system":"http://snomed.info/sct","code":"448851000124103"}]}],"subject":{"reference":"Patient/3ed947b5-9aba-4bed-aa72-f96b6f3f5082"},"period":{"start":"2026-10-01T09:00:00Z","end":"2026-10-01T10:00:00.000+00:00"},"length":{"value":0,"unit":"days"}},"request":{"method":"PUT","url":"Encounter/987ef993-1348-469c-b816-295c6d4b71df"}},{"fullUrl":"Encounter/02214b31-cb62-4007-a221-43cb7401be5c","resource":{"resourceType":"Encounter","id":"02214b31-cb62-4007-a221-43cb7401be5c","meta":{"profile":["http://hl7.org/fhir/us/qicore/StructureDefinition/qicore-encounter"]},"status":"finished","class":{"system":"http://terminology.hl7.org/CodeSystem/v3-ActCode","code":"IMP","display":"inpatient encounter"},"type":[{"coding":[{"system":"http://snomed.info/sct","code":"32485007"}]}],"subject":{"reference":"Patient/3ed947b5-9aba-4bed-aa72-f96b6f3f5082"},"period":{"start":"2026-10-01T10:00:00Z","end":"2026-10-12T00:15:00.000+00:00"},"length":{"value":11,"unit":"days"},"reasonReference":[{"reference":"Condition/1ba456a4-b6c4-4407-bb00-ee449acd29c1"}]},"request":{"method":"PUT","url":"Encounter/02214b31-cb62-4007-a221-43cb7401be5c"}},{"fullUrl":"ServiceRequest/6693152a-4587-45e2-a620-ff7de46abb69","resource":{"resourceType":"ServiceRequest","id":"6693152a-4587-45e2-a620-ff7de46abb69","meta":{"profile":["http://hl7.org/fhir/us/qicore/StructureDefinition/qicore-servicerequest"]},"status":"active","intent":"order","code":{"coding":[{"system":"http://snomed.info/sct","code":"133918004"}]},"subject":{"reference":"Patient/3ed947b5-9aba-4bed-aa72-f96b6f3f5082"},"authoredOn":"2026-10-01T10:00:00Z"},"request":{"method":"PUT","url":"ServiceRequest/6693152a-4587-45e2-a620-ff7de46abb69"}},{"fullUrl":"Coverage/c6a3c26a-322c-462d-a276-960fe96d86c8","resource":{"resourceType":"Coverage","id":"c6a3c26a-322c-462d-a276-960fe96d86c8","status":"active","subscriberId":"523435","beneficiary":{"reference":"Patient/3ed947b5-9aba-4bed-aa72-f96b6f3f5082"},"relationship":{"coding":[{"system":"http://terminology.hl7.org/CodeSystem/subscriber-relationship","code":"self"}]},"period":{"start":"1986-09-18T08:00:00Z"},"payor":[{"reference":"Organization/5297834e-9c0c-401b-9173-d1f687f73f72"}]},"request":{"method":"PUT","url":"Coverage/c6a3c26a-322c-462d-a276-960fe96d86c8"}},{"fullUrl":"Patient/3ed947b5-9aba-4bed-aa72-f96b6f3f5082","resource":{"resourceType":"Patient","id":"3ed947b5-9aba-4bed-aa72-f96b6f3f5082","meta":{"profile":["http://hl7.org/fhir/us/qicore/StructureDefinition/qicore-patient"]},"text":{"status":"generated","div":"<div xmlns=\"http://www.w3.org/1999/xhtml\"><div class=\"hapiHeaderText\">CMOdurEncTM_EDEndTM=ObsTM_ObsEndTM=EncTM <b>DENEXPASS </b></div><table class=\"hapiPropertyTable\"><tbody><tr><td>Identifier</td><td>a33eaee35b35d61ecea21326efe74641</td></tr><tr><td>Date of birth</td><td><span>18 September 1985</span></td></tr></tbody></table></div>"},"extension":[{"url":"http://hl7.org/fhir/us/core/StructureDefinition/us-core-race","extension":[{"url":"ombCategory","valueCoding":{"system":"urn:oid:2.16.840.1.113883.6.238","code":"1002-5","display":"American Indian or Alaska Native","userSelected":true}},{"url":"text","valueString":"American Indian or Alaska Native"}]},{"url":"http://hl7.org/fhir/us/core/StructureDefinition/us-core-ethnicity","extension":[{"url":"ombCategory","valueCoding":{"system":"urn:oid:2.16.840.1.113883.6.238","code":"2135-2","display":"Hispanic or Latino","userSelected":true}},{"url":"text","valueString":"Hispanic or Latino"}]}],"identifier":[{"type":{"coding":[{"system":"http://terminology.hl7.org/CodeSystem/v2-0203","code":"MR"}]},"system":"https://bonnie-fhir.healthit.gov/","value":"633c9d030968f8012250fc9c"}],"active":true,"name":[{"use":"usual","family":"DENEXPass","given":["CMOdurEncTMEDEndTMObsTMObsEndTM=EncTM"]}],"gender":"female","birthDate":"1986-09-18"},"request":{"method":"PUT","url":"Patient/3ed947b5-9aba-4bed-aa72-f96b6f3f5082"}},{"fullUrl":"MeasureReport/a23c1dc2-3769-4c4e-a974-931d196cd483","resource":{"resourceType":"MeasureReport","id":"a23c1dc2-3769-4c4e-a974-931d196cd483","meta":{"profile":["http://hl7.org/fhir/us/cqfmeasures/StructureDefinition/test-case-cqfm"]},"contained":[{"resourceType":"Parameters","id":"c5f5d2d0-6b44-4f69-8c76-70c1dfadd4ed-parameters","parameter":[{"name":"subject","valueString":"3ed947b5-9aba-4bed-aa72-f96b6f3f5082"}]}],"extension":[{"url":"http://hl7.org/fhir/StructureDefinition/cqf-inputParameters","valueReference":{"reference":"#c5f5d2d0-6b44-4f69-8c76-70c1dfadd4ed-parameters"}},{"url":"http://hl7.org/fhir/us/cqfmeasures/StructureDefinition/cqfm-testCaseDescription","valueMarkdown":"Patient receives CMO during inpatient encounter. ED ends on Observation start and Obs ends on inpatient encounter start. Testing HospitalizationWithObservation function.\n"}],"modifierExtension":[{"url":"http://hl7.org/fhir/us/cqfmeasures/StructureDefinition/cqfm-isTestCase","valueBoolean":true}],"status":"complete","type":"individual","measure":"https://madie.cms.gov/Measure/CMS71FHIRSTKAnticoagAFFlutter","period":{"start":"2026-01-01","end":"2026-12-31"},"group":[{"id":"Group_1","population":[{"id":"InitialPopulation_1","code":{"coding":[{"system":"http://terminology.hl7.org/CodeSystem/measure-population","code":"initial-population","display":"Initial Population"}]},"count":1},{"id":"Denominator_1","code":{"coding":[{"system":"http://terminology.hl7.org/CodeSystem/measure-population","code":"denominator","display":"Denominator"}]},"count":1},{"id":"DenominatorExclusion_1","code":{"coding":[{"system":"http://terminology.hl7.org/CodeSystem/measure-population","code":"denominator-exclusion","display":"Denominator Exclusion"}]},"count":1},{"id":"Numerator_1","code":{"coding":[{"system":"http://terminology.hl7.org/CodeSystem/measure-population","code":"numerator","display":"Numerator"}]},"count":0},{"id":"DenominatorException_1","code":{"coding":[{"system":"http://terminology.hl7.org/CodeSystem/measure-population","code":"denominator-exception","display":"Denominator Exception"}]},"count":0}],"measureScore":{"value":0.0}}],"evaluatedResource":[{"reference":"Patient/3ed947b5-9aba-4bed-aa72-f96b6f3f5082"},{"reference":"Claim/5ca62962b8484628b8de1ec5"},{"reference":"Condition/1ba456a4-b6c4-4407-bb00-ee449acd29c1"},{"reference":"Encounter/e6b06ec8-e41c-4765-b018-208c7486030b"},{"reference":"Encounter/987ef993-1348-469c-b816-295c6d4b71df"},{"reference":"Encounter/02214b31-cb62-4007-a221-43cb7401be5c"},{"reference":"ServiceRequest/6693152a-4587-45e2-a620-ff7de46abb69"},{"reference":"Coverage/c6a3c26a-322c-462d-a276-960fe96d86c8"},{"reference":"Condition/0cf9721f-2896-4ab2-8edc-1e3cbda85543"},{"reference":"Organization/5297834e-9c0c-401b-9173-d1f687f73f72"},{"reference":"Practitioner/d1c573d4-ebee-4a0b-8043-3f30fb9440df"}]},"request":{"method":"PUT","url":"MeasureReport/a23c1dc2-3769-4c4e-a974-931d196cd483"}},{"fullUrl":"Encounter/e6b06ec8-e41c-4765-b018-208c7486030b","resource":{"resourceType":"Encounter","id":"e6b06ec8-e41c-4765-b018-208c7486030b","meta":{"profile":["http://hl7.org/fhir/us/qicore/StructureDefinition/qicore-encounter"]},"status":"finished","class":{"system":"http://terminology.hl7.org/CodeSystem/v3-ActCode","code":"EMER","display":"emergency"},"type":[{"coding":[{"system":"http://snomed.info/sct","code":"4525004"}]}],"subject":{"reference":"Patient/3ed947b5-9aba-4bed-aa72-f96b6f3f5082"},"period":{"start":"2026-10-01T07:59:00Z","end":"2026-10-01T09:00:00.000+00:00"},"length":{"value":0,"unit":"days"}},"request":{"method":"PUT","url":"Encounter/e6b06ec8-e41c-4765-b018-208c7486030b"}},{"fullUrl":"Condition/0cf9721f-2896-4ab2-8edc-1e3cbda85543","resource":{"resourceType":"Condition","id":"0cf9721f-2896-4ab2-8edc-1e3cbda85543","meta":{"profile":["http://hl7.org/fhir/us/qicore/StructureDefinition/qicore-condition-problems-health-concerns"]},"clinicalStatus":{"coding":[{"system":"http://terminology.hl7.org/CodeSystem/condition-clinical","code":"active"}]},"verificationStatus":{"coding":[{"system":"http://terminology.hl7.org/CodeSystem/condition-ver-status","code":"confirmed"}]},"category":[{"coding":[{"system":"http://terminology.hl7.org/CodeSystem/condition-category","code":"encounter-diagnosis","display":"Encounter Diagnosis"}]}],"code":{"coding":[{"system":"http://snomed.info/sct","version":"2021-09","code":"111297002","display":"Nonparalytic stroke (disorder)","userSelected":true}]},"subject":{"reference":"Patient/3ed947b5-9aba-4bed-aa72-f96b6f3f5082"},"recordedDate":"2026-10-13T08:00:00Z"},"request":{"method":"PUT","url":"Condition/0cf9721f-2896-4ab2-8edc-1e3cbda85543"}},{"fullUrl":"Condition/1ba456a4-b6c4-4407-bb00-ee449acd29c1","resource":{"resourceType":"Condition","id":"1ba456a4-b6c4-4407-bb00-ee449acd29c1","meta":{"profile":["http://hl7.org/fhir/us/qicore/StructureDefinition/qicore-condition-problems-health-concerns"]},"clinicalStatus":{"coding":[{"system":"http://terminology.hl7.org/CodeSystem/condition-clinical","code":"inactive"}]},"verificationStatus":{"coding":[{"system":"http://terminology.hl7.org/CodeSystem/condition-ver-status","code":"confirmed"}]},"category":[{"coding":[{"system":"http://terminology.hl7.org/CodeSystem/condition-category","code":"encounter-diagnosis","display":"Encounter Diagnosis"}]}],"code":{"coding":[{"system":"http://hl7.org/fhir/sid/icd-10-cm","code":"I48.20"},{"system":"http://hl7.org/fhir/sid/icd-10-cm","code":"I48.0"},{"system":"http://snomed.info/sct","code":"5370000"}]},"subject":{"reference":"Patient/3ed947b5-9aba-4bed-aa72-f96b6f3f5082"},"onsetDateTime":"2026-10-01T09:00:00Z","abatementDateTime":"2026-10-12T00:15:00.000+00:00"},"request":{"method":"PUT","url":"Condition/1ba456a4-b6c4-4407-bb00-ee449acd29c1"}},{"fullUrl":"Organization/5297834e-9c0c-401b-9173-d1f687f73f72","resource":{"resourceType":"Organization","id":"5297834e-9c0c-401b-9173-d1f687f73f72","meta":{"profile":["http://hl7.org/fhir/us/qicore/StructureDefinition/qicore-organization"]},"identifier":[{"use":"temp","system":"urn:oid:2.16.840.1.113883.4.4","value":"21-3259825"}],"active":true,"type":[{"coding":[{"system":"http://terminology.hl7.org/CodeSystem/organization-type","code":"pay","display":"Payer"}]}],"name":"Blue Cross Blue Shield of Texas","telecom":[{"system":"phone","value":"(+1) 972-766-6900"}],"address":[{"use":"billing","type":"postal","line":["P.O. Box 660044"],"city":"Dallas","state":"TX","postalCode":"75266-0044","country":"USA"}]},"request":{"method":"PUT","url":"Organization/5297834e-9c0c-401b-9173-d1f687f73f72"}},{"fullUrl":"Practitioner/d1c573d4-ebee-4a0b-8043-3f30fb9440df","resource":{"resourceType":"Practitioner","id":"d1c573d4-ebee-4a0b-8043-3f30fb9440df","meta":{"profile":["http://hl7.org/fhir/us/qicore/StructureDefinition/qicore-practitioner"]},"identifier":[{"system":"http://hl7.org/fhir/sid/us-npi","value":"9999999896"}],"name":[{"family":"Evil","prefix":["Dr"]}]},"request":{"method":"PUT","url":"Practitioner/d1c573d4-ebee-4a0b-8043-3f30fb9440df"}},{"fullUrl":"Bundle/633c9d030968f8012250fc9c","resource":{"resourceType":"Bundle","id":"633c9d030968f8012250fc9c","type":"transaction","entry":[{"fullUrl":"https://madie.cms.gov/Patient/3ed947b5-9aba-4bed-aa72-f96b6f3f5082","resource":{"resourceType":"Patient","id":"3ed947b5-9aba-4bed-aa72-f96b6f3f5082","meta":{"profile":["http://hl7.org/fhir/us/qicore/StructureDefinition/qicore-patient"]},"text":{"status":"generated","div":"<div xmlns=\"http://www.w3.org/1999/xhtml\"><div class=\"hapiHeaderText\">CMOdurEncTM_EDEndTM=ObsTM_ObsEndTM=EncTM <b>DENEXPASS </b></div><table class=\"hapiPropertyTable\"><tbody><tr><td>Identifier</td><td>a33eaee35b35d61ecea21326efe74641</td></tr><tr><td>Date of birth</td><td><span>18 September 1985</span></td></tr></tbody></table></div>"},"extension":[{"url":"http://hl7.org/fhir/us/core/StructureDefinition/us-core-race","extension":[{"url":"ombCategory","valueCoding":{"system":"urn:oid:2.16.840.1.113883.6.238","code":"1002-5","display":"American Indian or Alaska Native","userSelected":true}},{"url":"text","valueString":"American Indian or Alaska Native"}]},{"url":"http://hl7.org/fhir/us/core/StructureDefinition/us-core-ethnicity","extension":[{"url":"ombCategory","valueCoding":{"system":"urn:oid:2.16.840.1.113883.6.238","code":"2135-2","display":"Hispanic or Latino","userSelected":true}},{"url":"text","valueString":"Hispanic or Latino"}]}],"identifier":[{"type":{"coding":[{"system":"http://terminology.hl7.org/CodeSystem/v2-0203","code":"MR"}]},"system":"https://bonnie-fhir.healthit.gov/","value":"633c9d030968f8012250fc9c"}],"active":true,"name":[{"use":"usual","family":"DENEXPass","given":["CMOdurEncTMEDEndTMObsTMObsEndTM=EncTM"]}],"gender":"female","birthDate":"1986-09-18"},"request":{"method":"PUT","url":"Patient/3ed947b5-9aba-4bed-aa72-f96b6f3f5082"}},{"fullUrl":"https://madie.cms.gov/claim/5ca62962b8484628b8de1ec5","resource":{"resourceType":"Claim","id":"5ca62962b8484628b8de1ec5","meta":{"profile":["http://hl7.org/fhir/us/qicore/StructureDefinition/qicore-claim"]},"status":"active","type":{"coding":[{"system":"http://terminology.hl7.org/CodeSystem/claim-type","code":"institutional"}]},"use":"claim","patient":{"reference":"Patient/d170a0a8-b5ad-4303-b6df-e304dd5f92ad"},"created":"2026-12-01","provider":{"reference":"Practitioner/d1c573d4-ebee-4a0b-8043-3f30fb9440df"},"priority":{"coding":[{"system":"http://terminology.hl7.org/CodeSystem/processpriority","code":"normal"}]},"diagnosis":[{"sequence":1,"diagnosisCodeableConcept":{"coding":[{"system":"http://hl7.org/fhir/sid/icd-10-cm","code":"I63.00"}]},"type":[{"coding":[{"system":"http://terminology.hl7.org/CodeSystem/ex-diagnosistype","code":"principal"}]}]}],"insurance":[{"sequence":1,"focal":true,"coverage":{"reference":"Coverage/5fa041661c76ba66d9959367"}}],"item":[{"sequence":1,"diagnosisSequence":[1],"productOrService":{"coding":[{"system":"http://terminology.hl7.org/CodeSystem/ex-USCLS","code":"99555"}]},"encounter":[{"reference":"Encounter/02214b31-cb62-4007-a221-43cb7401be5c"}]}]},"request":{"method":"PUT","url":"Claim/5ca62962b8484628b8de1ec5"}},{"fullUrl":"https://madie.cms.gov/Condition/1ba456a4-b6c4-4407-bb00-ee449acd29c1","resource":{"resourceType":"Condition","id":"1ba456a4-b6c4-4407-bb00-ee449acd29c1","meta":{"profile":["http://hl7.org/fhir/us/qicore/StructureDefinition/qicore-condition-problems-health-concerns"]},"clinicalStatus":{"coding":[{"system":"http://terminology.hl7.org/CodeSystem/condition-clinical","code":"inactive"}]},"verificationStatus":{"coding":[{"system":"http://terminology.hl7.org/CodeSystem/condition-ver-status","code":"confirmed"}]},"category":[{"coding":[{"system":"http://terminology.hl7.org/CodeSystem/condition-category","code":"encounter-diagnosis","display":"Encounter Diagnosis"}]}],"code":{"coding":[{"system":"http://hl7.org/fhir/sid/icd-10-cm","code":"I48.20"},{"system":"http://hl7.org/fhir/sid/icd-10-cm","code":"I48.0"},{"system":"http://snomed.info/sct","code":"5370000"}]},"subject":{"reference":"Patient/3ed947b5-9aba-4bed-aa72-f96b6f3f5082"},"onsetDateTime":"2026-10-01T09:00:00Z","abatementDateTime":"2026-10-12T00:15:00.000+00:00"},"request":{"method":"PUT","url":"Condition/1ba456a4-b6c4-4407-bb00-ee449acd29c1"}},{"fullUrl":"https://madie.cms.gov/Encounter/e6b06ec8-e41c-4765-b018-208c7486030b","resource":{"resourceType":"Encounter","id":"e6b06ec8-e41c-4765-b018-208c7486030b","meta":{"profile":["http://hl7.org/fhir/us/qicore/StructureDefinition/qicore-encounter"]},"status":"finished","class":{"system":"http://terminology.hl7.org/CodeSystem/v3-ActCode","code":"EMER","display":"emergency"},"type":[{"coding":[{"system":"http://snomed.info/sct","code":"4525004"}]}],"subject":{"reference":"Patient/3ed947b5-9aba-4bed-aa72-f96b6f3f5082"},"period":{"start":"2026-10-01T07:59:00Z","end":"2026-10-01T09:00:00.000+00:00"},"length":{"value":0,"unit":"days"}},"request":{"method":"PUT","url":"Encounter/e6b06ec8-e41c-4765-b018-208c7486030b"}},{"fullUrl":"https://madie.cms.gov/Encounter/987ef993-1348-469c-b816-295c6d4b71df","resource":{"resourceType":"Encounter","id":"987ef993-1348-469c-b816-295c6d4b71df","meta":{"profile":["http://hl7.org/fhir/us/qicore/StructureDefinition/qicore-encounter"]},"status":"finished","class":{"system":"http://terminology.hl7.org/CodeSystem/v3-ActCode","code":"OBSENC","display":"observation encounter"},"type":[{"coding":[{"system":"http://snomed.info/sct","code":"448851000124103"}]}],"subject":{"reference":"Patient/3ed947b5-9aba-4bed-aa72-f96b6f3f5082"},"period":{"start":"2026-10-01T09:00:00Z","end":"2026-10-01T10:00:00.000+00:00"},"length":{"value":0,"unit":"days"}},"request":{"method":"PUT","url":"Encounter/987ef993-1348-469c-b816-295c6d4b71df"}},{"fullUrl":"https://madie.cms.gov/Encounter/02214b31-cb62-4007-a221-43cb7401be5c","resource":{"resourceType":"Encounter","id":"02214b31-cb62-4007-a221-43cb7401be5c","meta":{"profile":["http://hl7.org/fhir/us/qicore/StructureDefinition/qicore-encounter"]},"status":"finished","class":{"system":"http://terminology.hl7.org/CodeSystem/v3-ActCode","code":"IMP","display":"inpatient encounter"},"type":[{"coding":[{"system":"http://snomed.info/sct","code":"32485007"}]}],"subject":{"reference":"Patient/3ed947b5-9aba-4bed-aa72-f96b6f3f5082"},"period":{"start":"2026-10-01T10:00:00Z","end":"2026-10-12T00:15:00.000+00:00"},"length":{"value":11,"unit":"days"},"reasonReference":[{"reference":"Condition/1ba456a4-b6c4-4407-bb00-ee449acd29c1"}]},"request":{"method":"PUT","url":"Encounter/02214b31-cb62-4007-a221-43cb7401be5c"}},{"fullUrl":"https://madie.cms.gov/ServiceRequest/6693152a-4587-45e2-a620-ff7de46abb69","resource":{"resourceType":"ServiceRequest","id":"6693152a-4587-45e2-a620-ff7de46abb69","meta":{"profile":["http://hl7.org/fhir/us/qicore/StructureDefinition/qicore-servicerequest"]},"status":"active","intent":"order","code":{"coding":[{"system":"http://snomed.info/sct","code":"133918004"}]},"subject":{"reference":"Patient/3ed947b5-9aba-4bed-aa72-f96b6f3f5082"},"authoredOn":"2026-10-01T10:00:00Z"},"request":{"method":"PUT","url":"ServiceRequest/6693152a-4587-45e2-a620-ff7de46abb69"}},{"fullUrl":"https://madie.cms.gov/Coverage/c6a3c26a-322c-462d-a276-960fe96d86c8","resource":{"resourceType":"Coverage","id":"c6a3c26a-322c-462d-a276-960fe96d86c8","status":"active","subscriberId":"523435","beneficiary":{"reference":"Patient/3ed947b5-9aba-4bed-aa72-f96b6f3f5082"},"relationship":{"coding":[{"system":"http://terminology.hl7.org/CodeSystem/subscriber-relationship","code":"self"}]},"period":{"start":"1986-09-18T08:00:00Z"},"payor":[{"reference":"Organization/5297834e-9c0c-401b-9173-d1f687f73f72"}]},"request":{"method":"PUT","url":"Coverage/c6a3c26a-322c-462d-a276-960fe96d86c8"}},{"fullUrl":"https://madie.cms.gov/Condition/0cf9721f-2896-4ab2-8edc-1e3cbda85543","resource":{"resourceType":"Condition","id":"0cf9721f-2896-4ab2-8edc-1e3cbda85543","meta":{"profile":["http://hl7.org/fhir/us/qicore/StructureDefinition/qicore-condition-problems-health-concerns"]},"clinicalStatus":{"coding":[{"system":"http://terminology.hl7.org/CodeSystem/condition-clinical","code":"active"}]},"verificationStatus":{"coding":[{"system":"http://terminology.hl7.org/CodeSystem/condition-ver-status","code":"confirmed"}]},"category":[{"coding":[{"system":"http://terminology.hl7.org/CodeSystem/condition-category","code":"encounter-diagnosis","display":"Encounter Diagnosis"}]}],"code":{"coding":[{"system":"http://snomed.info/sct","version":"2021-09","code":"111297002","display":"Nonparalytic stroke (disorder)","userSelected":true}]},"subject":{"reference":"Patient/3ed947b5-9aba-4bed-aa72-f96b6f3f5082"},"recordedDate":"2026-10-13T08:00:00Z"},"request":{"method":"PUT","url":"Condition/0cf9721f-2896-4ab2-8edc-1e3cbda85543"}},{"fullUrl":"https://madie.cms.gov/Organization/5297834e-9c0c-401b-9173-d1f687f73f72","resource":{"resourceType":"Organization","id":"5297834e-9c0c-401b-9173-d1f687f73f72","meta":{"profile":["http://hl7.org/fhir/us/qicore/StructureDefinition/qicore-organization"]},"identifier":[{"use":"temp","system":"urn:oid:2.16.840.1.113883.4.4","value":"21-3259825"}],"active":true,"type":[{"coding":[{"system":"http://terminology.hl7.org/CodeSystem/organization-type","code":"pay","display":"Payer"}]}],"name":"Blue Cross Blue Shield of Texas","telecom":[{"system":"phone","value":"(+1) 972-766-6900"}],"address":[{"use":"billing","type":"postal","line":["P.O. Box 660044"],"city":"Dallas","state":"TX","postalCode":"75266-0044","country":"USA"}]},"request":{"method":"PUT","url":"Organization/5297834e-9c0c-401b-9173-d1f687f73f72"}},{"fullUrl":"https://madie.cms.gov/Practitioner/d1c573d4-ebee-4a0b-8043-3f30fb9440df","resource":{"resourceType":"Practitioner","id":"d1c573d4-ebee-4a0b-8043-3f30fb9440df","meta":{"profile":["http://hl7.org/fhir/us/qicore/StructureDefinition/qicore-practitioner"]},"identifier":[{"system":"http://hl7.org/fhir/sid/us-npi","value":"9999999896"}],"name":[{"family":"Evil","prefix":["Dr"]}]},"request":{"method":"PUT","url":"Practitioner/d1c573d4-ebee-4a0b-8043-3f30fb9440df"}},{"fullUrl":"https://madie.cms.gov/MeasureReport/a23c1dc2-3769-4c4e-a974-931d196cd483","resource":{"resourceType":"MeasureReport","id":"a23c1dc2-3769-4c4e-a974-931d196cd483","meta":{"profile":["http://hl7.org/fhir/us/cqfmeasures/StructureDefinition/test-case-cqfm"]},"contained":[{"resourceType":"Parameters","id":"c5f5d2d0-6b44-4f69-8c76-70c1dfadd4ed-parameters","parameter":[{"name":"subject","valueString":"3ed947b5-9aba-4bed-aa72-f96b6f3f5082"}]}],"extension":[{"url":"http://hl7.org/fhir/StructureDefinition/cqf-inputParameters","valueReference":{"reference":"#c5f5d2d0-6b44-4f69-8c76-70c1dfadd4ed-parameters"}},{"url":"http://hl7.org/fhir/us/cqfmeasures/StructureDefinition/cqfm-testCaseDescription","valueMarkdown":"Patient receives CMO during inpatient encounter. ED ends on Observation start and Obs ends on inpatient encounter start. Testing HospitalizationWithObservation function.\n"}],"modifierExtension":[{"url":"http://hl7.org/fhir/us/cqfmeasures/StructureDefinition/cqfm-isTestCase","valueBoolean":true}],"status":"complete","type":"individual","measure":"https://madie.cms.gov/Measure/CMS71FHIRSTKAnticoagAFFlutter","period":{"start":"2026-01-01","end":"2026-12-31"},"group":[{"id":"Group_1","population":[{"id":"InitialPopulation_1","code":{"coding":[{"system":"http://terminology.hl7.org/CodeSystem/measure-population","code":"initial-population","display":"Initial Population"}]},"count":1},{"id":"Denominator_1","code":{"coding":[{"system":"http://terminology.hl7.org/CodeSystem/measure-population","code":"denominator","display":"Denominator"}]},"count":1},{"id":"DenominatorExclusion_1","code":{"coding":[{"system":"http://terminology.hl7.org/CodeSystem/measure-population","code":"denominator-exclusion","display":"Denominator Exclusion"}]},"count":1},{"id":"Numerator_1","code":{"coding":[{"system":"http://terminology.hl7.org/CodeSystem/measure-population","code":"numerator","display":"Numerator"}]},"count":0},{"id":"DenominatorException_1","code":{"coding":[{"system":"http://terminology.hl7.org/CodeSystem/measure-population","code":"denominator-exception","display":"Denominator Exception"}]},"count":0}],"measureScore":{"value":0.0}}],"evaluatedResource":[{"reference":"Patient/3ed947b5-9aba-4bed-aa72-f96b6f3f5082"},{"reference":"Claim/5ca62962b8484628b8de1ec5"},{"reference":"Condition/1ba456a4-b6c4-4407-bb00-ee449acd29c1"},{"reference":"Encounter/e6b06ec8-e41c-4765-b018-208c7486030b"},{"reference":"Encounter/987ef993-1348-469c-b816-295c6d4b71df"},{"reference":"Encounter/02214b31-cb62-4007-a221-43cb7401be5c"},{"reference":"ServiceRequest/6693152a-4587-45e2-a620-ff7de46abb69"},{"reference":"Coverage/c6a3c26a-322c-462d-a276-960fe96d86c8"},{"reference":"Condition/0cf9721f-2896-4ab2-8edc-1e3cbda85543"},{"reference":"Organization/5297834e-9c0c-401b-9173-d1f687f73f72"},{"reference":"Practitioner/d1c573d4-ebee-4a0b-8043-3f30fb9440df"}]},"request":{"method":"PUT","url":"MeasureReport/a23c1dc2-3769-4c4e-a974-931d196cd483"}}]},"request":{"method":"PUT","url":"Bundle/633c9d030968f8012250fc9c"}},{"fullUrl":"Claim/5ca62962b8484628b8de1ec5","resource":{"resourceType":"Claim","id":"5ca62962b8484628b8de1ec5","meta":{"profile":["http://hl7.org/fhir/us/qicore/StructureDefinition/qicore-claim"]},"status":"active","type":{"coding":[{"system":"http://terminology.hl7.org/CodeSystem/claim-type","code":"institutional"}]},"use":"claim","patient":{"reference":"Patient/d170a0a8-b5ad-4303-b6df-e304dd5f92ad"},"created":"2026-12-01","provider":{"reference":"Practitioner/d1c573d4-ebee-4a0b-8043-3f30fb9440df"},"priority":{"coding":[{"system":"http://terminology.hl7.org/CodeSystem/processpriority","code":"normal"}]},"diagnosis":[{"sequence":1,"diagnosisCodeableConcept":{"coding":[{"system":"http://hl7.org/fhir/sid/icd-10-cm","code":"I63.00"}]},"type":[{"coding":[{"system":"http://terminology.hl7.org/CodeSystem/ex-diagnosistype","code":"principal"}]}]}],"insurance":[{"sequence":1,"focal":true,"coverage":{"reference":"Coverage/5fa041661c76ba66d9959367"}}],"item":[{"sequence":1,"diagnosisSequence":[1],"productOrService":{"coding":[{"system":"http://terminology.hl7.org/CodeSystem/ex-USCLS","code":"99555"}]},"encounter":[{"reference":"Encounter/02214b31-cb62-4007-a221-43cb7401be5c"}]}]},"request":{"method":"PUT","url":"Claim/5ca62962b8484628b8de1ec5"}}]}