{"resourceType":"Bundle","id":"tests-0035424c-e3be-4dc2-919a-fd1c665893f6-bundle","type":"transaction","entry":[{"resource":{"resourceType":"Coverage","id":"01948abc-34bb-4949-91e2-506c2941b395","meta":{"profile":["http://hl7.org/fhir/us/qicore/StructureDefinition/qicore-coverage"]},"status":"active","subscriberId":"523435","beneficiary":{"reference":"Patient/162a5913-9989-42f2-8d6a-ae460e245e4c"},"relationship":{"coding":[{"system":"http://terminology.hl7.org/CodeSystem/subscriber-relationship","code":"self"}]},"payor":[{"reference":"Organization/b9576456-a3c8-4dd5-a816-abffe385cd86"}]},"request":{"method":"PUT","url":"Coverage/01948abc-34bb-4949-91e2-506c2941b395"}},{"resource":{"resourceType":"Bundle","id":"633c9d030968f8012250fc99","type":"transaction","entry":[{"fullUrl":"https://madie.cms.gov/Patient/0035424c-e3be-4dc2-919a-fd1c665893f6","resource":{"resourceType":"Patient","id":"0035424c-e3be-4dc2-919a-fd1c665893f6","meta":{"profile":["http://hl7.org/fhir/us/qicore/StructureDefinition/qicore-patient"]},"text":{"status":"generated","div":"<div xmlns=\"http://www.w3.org/1999/xhtml\"><div class=\"hapiHeaderText\">Dx=Afib/flutterStart=EncEnd <b>DENOMPASS </b></div><table class=\"hapiPropertyTable\"><tbody><tr><td>Identifier</td><td>eea63111353acebe4dc924bd86a7bec7</td></tr><tr><td>Date of birth</td><td><span>01 December 1960</span></td></tr></tbody></table></div>"},"extension":[{"url":"http://hl7.org/fhir/us/core/StructureDefinition/us-core-race","extension":[{"url":"ombCategory","valueCoding":{"system":"urn:oid:2.16.840.1.113883.6.238","code":"1002-5","display":"American Indian or Alaska Native","userSelected":true}},{"url":"text","valueString":"American Indian or Alaska Native"}]},{"url":"http://hl7.org/fhir/us/core/StructureDefinition/us-core-ethnicity","extension":[{"url":"ombCategory","valueCoding":{"system":"urn:oid:2.16.840.1.113883.6.238","code":"2135-2","display":"Hispanic or Latino","userSelected":true}},{"url":"text","valueString":"Hispanic or Latino"}]}],"identifier":[{"type":{"coding":[{"system":"http://terminology.hl7.org/CodeSystem/v2-0203","code":"MR"}]},"system":"https://bonnie-fhir.healthit.gov/","value":"633c9d030968f8012250fc99"}],"active":true,"name":[{"use":"usual","family":"DENOMPass","given":["Dx=Afib/flutterStart=EncEnd "]}],"gender":"male","birthDate":"1961-12-01"},"request":{"method":"PUT","url":"Patient/0035424c-e3be-4dc2-919a-fd1c665893f6"}},{"fullUrl":"https://madie.cms.gov/Condition/9307705a-6ddf-4533-89df-a8b94c33660f","resource":{"resourceType":"Condition","id":"9307705a-6ddf-4533-89df-a8b94c33660f","meta":{"profile":["http://hl7.org/fhir/us/qicore/StructureDefinition/qicore-condition-problems-health-concerns"]},"clinicalStatus":{"coding":[{"system":"http://terminology.hl7.org/CodeSystem/condition-clinical","code":"inactive"}]},"verificationStatus":{"coding":[{"system":"http://terminology.hl7.org/CodeSystem/condition-ver-status","code":"confirmed"}]},"category":[{"coding":[{"system":"http://terminology.hl7.org/CodeSystem/condition-category","code":"encounter-diagnosis","display":"Encounter Diagnosis"}]}],"code":{"coding":[{"system":"http://snomed.info/sct","code":"195080001"},{"system":"http://hl7.org/fhir/sid/icd-9-cm","code":"427.31"},{"system":"http://hl7.org/fhir/sid/icd-10-cm","code":"I48.0"}]},"subject":{"reference":"Patient/0035424c-e3be-4dc2-919a-fd1c665893f6"},"onsetDateTime":"2026-02-10T08:15:00Z","abatementDateTime":"2026-02-10T08:15:00.000+00:00"},"request":{"method":"PUT","url":"Condition/9307705a-6ddf-4533-89df-a8b94c33660f"}},{"fullUrl":"https://madie.cms.gov/Encounter/0416cbb2-db2d-4a97-9545-d7ca0e2e6884","resource":{"resourceType":"Encounter","id":"0416cbb2-db2d-4a97-9545-d7ca0e2e6884","meta":{"profile":["http://hl7.org/fhir/us/qicore/StructureDefinition/qicore-encounter"]},"status":"finished","class":{"system":"http://terminology.hl7.org/CodeSystem/v3-ActCode","code":"IMP","display":"inpatient encounter"},"type":[{"coding":[{"system":"http://snomed.info/sct","code":"183452005"}]}],"subject":{"reference":"Patient/0035424c-e3be-4dc2-919a-fd1c665893f6"},"period":{"start":"2026-02-08T08:00:00Z","end":"2026-02-10T08:15:00.000+00:00"},"length":{"value":2,"unit":"days"},"reasonReference":[{"reference":"Condition/9307705a-6ddf-4533-89df-a8b94c33660f"}]},"request":{"method":"PUT","url":"Encounter/0416cbb2-db2d-4a97-9545-d7ca0e2e6884"}},{"fullUrl":"https://madie.cms.gov/claim/5ca62962b8484628b8de1ec5","resource":{"resourceType":"Claim","id":"5ca62962b8484628b8de1ec5","meta":{"profile":["http://hl7.org/fhir/us/qicore/StructureDefinition/qicore-claim"]},"status":"active","type":{"coding":[{"system":"http://terminology.hl7.org/CodeSystem/claim-type","code":"institutional"}]},"use":"claim","patient":{"reference":"Patient/d170a0a8-b5ad-4303-b6df-e304dd5f92ad"},"created":"2026-12-01","provider":{"reference":"Practitioner/8bd66a57-6265-4708-8f9d-be55bef8630d"},"priority":{"coding":[{"system":"http://terminology.hl7.org/CodeSystem/processpriority","code":"normal"}]},"diagnosis":[{"sequence":1,"diagnosisCodeableConcept":{"coding":[{"system":"http://hl7.org/fhir/sid/icd-10-cm","code":"I63.00"}]},"type":[{"coding":[{"system":"http://terminology.hl7.org/CodeSystem/ex-diagnosistype","code":"principal"}]}]}],"insurance":[{"sequence":1,"focal":true,"coverage":{"reference":"Coverage/5fa041661c76ba66d9959367"}}],"item":[{"sequence":1,"diagnosisSequence":[1],"productOrService":{"coding":[{"system":"http://terminology.hl7.org/CodeSystem/ex-USCLS","code":"99555"}]},"encounter":[{"reference":"Encounter/0416cbb2-db2d-4a97-9545-d7ca0e2e6884"}]}]},"request":{"method":"PUT","url":"Claim/5ca62962b8484628b8de1ec5"}},{"fullUrl":"https://madie.cms.gov/Coverage/01948abc-34bb-4949-91e2-506c2941b395","resource":{"resourceType":"Coverage","id":"01948abc-34bb-4949-91e2-506c2941b395","meta":{"profile":["http://hl7.org/fhir/us/qicore/StructureDefinition/qicore-coverage"]},"status":"active","subscriberId":"523435","beneficiary":{"reference":"Patient/162a5913-9989-42f2-8d6a-ae460e245e4c"},"relationship":{"coding":[{"system":"http://terminology.hl7.org/CodeSystem/subscriber-relationship","code":"self"}]},"payor":[{"reference":"Organization/b9576456-a3c8-4dd5-a816-abffe385cd86"}]},"request":{"method":"PUT","url":"Coverage/01948abc-34bb-4949-91e2-506c2941b395"}},{"fullUrl":"https://madie.cms.gov/Condition/51e9a61b-ba32-40a3-9144-ecca1bf5b4c9","resource":{"resourceType":"Condition","id":"51e9a61b-ba32-40a3-9144-ecca1bf5b4c9","meta":{"profile":["http://hl7.org/fhir/us/qicore/StructureDefinition/qicore-condition-problems-health-concerns"]},"clinicalStatus":{"coding":[{"system":"http://terminology.hl7.org/CodeSystem/condition-clinical","code":"active"}]},"verificationStatus":{"coding":[{"system":"http://terminology.hl7.org/CodeSystem/condition-ver-status","code":"confirmed"}]},"category":[{"coding":[{"system":"http://terminology.hl7.org/CodeSystem/condition-category","code":"encounter-diagnosis","display":"Encounter Diagnosis"}]}],"code":{"coding":[{"system":"http://snomed.info/sct","version":"2021-09","code":"111297002","display":"Nonparalytic stroke (disorder)","userSelected":true}]},"subject":{"reference":"Patient/0035424c-e3be-4dc2-919a-fd1c665893f6"},"recordedDate":"2026-10-13T08:00:00Z"},"request":{"method":"PUT","url":"Condition/51e9a61b-ba32-40a3-9144-ecca1bf5b4c9"}},{"fullUrl":"https://madie.cms.gov/Organization/b9576456-a3c8-4dd5-a816-abffe385cd86","resource":{"resourceType":"Organization","id":"b9576456-a3c8-4dd5-a816-abffe385cd86","meta":{"profile":["http://hl7.org/fhir/us/qicore/StructureDefinition/qicore-organization"]},"identifier":[{"use":"temp","system":"urn:oid:2.16.840.1.113883.4.4","value":"21-3259825"}],"active":true,"type":[{"coding":[{"system":"http://terminology.hl7.org/CodeSystem/organization-type","code":"pay","display":"Payer"}]}],"name":"Blue Cross Blue Shield of Texas","telecom":[{"system":"phone","value":"(+1) 972-766-6900"}],"address":[{"use":"billing","type":"postal","line":["P.O. Box 660044"],"city":"Dallas","state":"TX","postalCode":"75266-0044","country":"USA"}]},"request":{"method":"PUT","url":"Organization/b9576456-a3c8-4dd5-a816-abffe385cd86"}},{"fullUrl":"https://madie.cms.gov/Practitioner/8bd66a57-6265-4708-8f9d-be55bef8630d","resource":{"resourceType":"Practitioner","id":"8bd66a57-6265-4708-8f9d-be55bef8630d","meta":{"profile":["http://hl7.org/fhir/us/qicore/StructureDefinition/qicore-practitioner"]},"identifier":[{"system":"http://hl7.org/fhir/sid/us-npi","value":"9999999896"}],"name":[{"family":"Evil","prefix":["Dr"]}]},"request":{"method":"PUT","url":"Practitioner/8bd66a57-6265-4708-8f9d-be55bef8630d"}},{"fullUrl":"https://madie.cms.gov/MeasureReport/e864b670-8d17-45a5-8e0e-4350b306a65c","resource":{"resourceType":"MeasureReport","id":"e864b670-8d17-45a5-8e0e-4350b306a65c","meta":{"profile":["http://hl7.org/fhir/us/cqfmeasures/StructureDefinition/test-case-cqfm"]},"contained":[{"resourceType":"Parameters","id":"b3932f5d-98e8-440b-bf7b-3c66c35d0e7c-parameters","parameter":[{"name":"subject","valueString":"0035424c-e3be-4dc2-919a-fd1c665893f6"}]}],"extension":[{"url":"http://hl7.org/fhir/StructureDefinition/cqf-inputParameters","valueReference":{"reference":"#b3932f5d-98e8-440b-bf7b-3c66c35d0e7c-parameters"}},{"url":"http://hl7.org/fhir/us/cqfmeasures/StructureDefinition/cqfm-testCaseDescription","valueMarkdown":"\"Diagnosis = Afib/flutter start time=encounter end time\nThis case tests the denominator diagnosis criteria (meets criteria). \"\n"}],"modifierExtension":[{"url":"http://hl7.org/fhir/us/cqfmeasures/StructureDefinition/cqfm-isTestCase","valueBoolean":true}],"status":"complete","type":"individual","measure":"https://madie.cms.gov/Measure/CMS71FHIRSTKAnticoagAFFlutter","period":{"start":"2026-01-01","end":"2026-12-31"},"group":[{"id":"Group_1","population":[{"id":"InitialPopulation_1","code":{"coding":[{"system":"http://terminology.hl7.org/CodeSystem/measure-population","code":"initial-population","display":"Initial Population"}]},"count":1},{"id":"Denominator_1","code":{"coding":[{"system":"http://terminology.hl7.org/CodeSystem/measure-population","code":"denominator","display":"Denominator"}]},"count":1},{"id":"DenominatorExclusion_1","code":{"coding":[{"system":"http://terminology.hl7.org/CodeSystem/measure-population","code":"denominator-exclusion","display":"Denominator Exclusion"}]},"count":0},{"id":"Numerator_1","code":{"coding":[{"system":"http://terminology.hl7.org/CodeSystem/measure-population","code":"numerator","display":"Numerator"}]},"count":0},{"id":"DenominatorException_1","code":{"coding":[{"system":"http://terminology.hl7.org/CodeSystem/measure-population","code":"denominator-exception","display":"Denominator Exception"}]},"count":0}],"measureScore":{"value":0.0}}],"evaluatedResource":[{"reference":"Patient/0035424c-e3be-4dc2-919a-fd1c665893f6"},{"reference":"Condition/9307705a-6ddf-4533-89df-a8b94c33660f"},{"reference":"Encounter/0416cbb2-db2d-4a97-9545-d7ca0e2e6884"},{"reference":"Claim/5ca62962b8484628b8de1ec5"},{"reference":"Coverage/01948abc-34bb-4949-91e2-506c2941b395"},{"reference":"Condition/51e9a61b-ba32-40a3-9144-ecca1bf5b4c9"},{"reference":"Organization/b9576456-a3c8-4dd5-a816-abffe385cd86"},{"reference":"Practitioner/8bd66a57-6265-4708-8f9d-be55bef8630d"}]},"request":{"method":"PUT","url":"MeasureReport/e864b670-8d17-45a5-8e0e-4350b306a65c"}}]},"request":{"method":"PUT","url":"Bundle/633c9d030968f8012250fc99"}},{"resource":{"resourceType":"Condition","id":"9307705a-6ddf-4533-89df-a8b94c33660f","meta":{"profile":["http://hl7.org/fhir/us/qicore/StructureDefinition/qicore-condition-problems-health-concerns"]},"clinicalStatus":{"coding":[{"system":"http://terminology.hl7.org/CodeSystem/condition-clinical","code":"inactive"}]},"verificationStatus":{"coding":[{"system":"http://terminology.hl7.org/CodeSystem/condition-ver-status","code":"confirmed"}]},"category":[{"coding":[{"system":"http://terminology.hl7.org/CodeSystem/condition-category","code":"encounter-diagnosis","display":"Encounter Diagnosis"}]}],"code":{"coding":[{"system":"http://snomed.info/sct","code":"195080001"},{"system":"http://hl7.org/fhir/sid/icd-9-cm","code":"427.31"},{"system":"http://hl7.org/fhir/sid/icd-10-cm","code":"I48.0"}]},"subject":{"reference":"Patient/0035424c-e3be-4dc2-919a-fd1c665893f6"},"onsetDateTime":"2026-02-10T08:15:00Z","abatementDateTime":"2026-02-10T08:15:00.000+00:00"},"request":{"method":"PUT","url":"Condition/9307705a-6ddf-4533-89df-a8b94c33660f"}},{"resource":{"resourceType":"Condition","id":"51e9a61b-ba32-40a3-9144-ecca1bf5b4c9","meta":{"profile":["http://hl7.org/fhir/us/qicore/StructureDefinition/qicore-condition-problems-health-concerns"]},"clinicalStatus":{"coding":[{"system":"http://terminology.hl7.org/CodeSystem/condition-clinical","code":"active"}]},"verificationStatus":{"coding":[{"system":"http://terminology.hl7.org/CodeSystem/condition-ver-status","code":"confirmed"}]},"category":[{"coding":[{"system":"http://terminology.hl7.org/CodeSystem/condition-category","code":"encounter-diagnosis","display":"Encounter Diagnosis"}]}],"code":{"coding":[{"system":"http://snomed.info/sct","version":"2021-09","code":"111297002","display":"Nonparalytic stroke (disorder)","userSelected":true}]},"subject":{"reference":"Patient/0035424c-e3be-4dc2-919a-fd1c665893f6"},"recordedDate":"2026-10-13T08:00:00Z"},"request":{"method":"PUT","url":"Condition/51e9a61b-ba32-40a3-9144-ecca1bf5b4c9"}},{"resource":{"resourceType":"MeasureReport","id":"e864b670-8d17-45a5-8e0e-4350b306a65c","meta":{"profile":["http://hl7.org/fhir/us/cqfmeasures/StructureDefinition/test-case-cqfm"]},"contained":[{"resourceType":"Parameters","id":"b3932f5d-98e8-440b-bf7b-3c66c35d0e7c-parameters","parameter":[{"name":"subject","valueString":"0035424c-e3be-4dc2-919a-fd1c665893f6"}]}],"extension":[{"url":"http://hl7.org/fhir/StructureDefinition/cqf-inputParameters","valueReference":{"reference":"#b3932f5d-98e8-440b-bf7b-3c66c35d0e7c-parameters"}},{"url":"http://hl7.org/fhir/us/cqfmeasures/StructureDefinition/cqfm-testCaseDescription","valueMarkdown":"\"Diagnosis = Afib/flutter start time=encounter end time\nThis case tests the denominator diagnosis criteria (meets criteria). \"\n"}],"modifierExtension":[{"url":"http://hl7.org/fhir/us/cqfmeasures/StructureDefinition/cqfm-isTestCase","valueBoolean":true}],"status":"complete","type":"individual","measure":"https://madie.cms.gov/Measure/CMS71FHIRSTKAnticoagAFFlutter","period":{"start":"2026-01-01","end":"2026-12-31"},"group":[{"id":"Group_1","population":[{"id":"InitialPopulation_1","code":{"coding":[{"system":"http://terminology.hl7.org/CodeSystem/measure-population","code":"initial-population","display":"Initial Population"}]},"count":1},{"id":"Denominator_1","code":{"coding":[{"system":"http://terminology.hl7.org/CodeSystem/measure-population","code":"denominator","display":"Denominator"}]},"count":1},{"id":"DenominatorExclusion_1","code":{"coding":[{"system":"http://terminology.hl7.org/CodeSystem/measure-population","code":"denominator-exclusion","display":"Denominator Exclusion"}]},"count":0},{"id":"Numerator_1","code":{"coding":[{"system":"http://terminology.hl7.org/CodeSystem/measure-population","code":"numerator","display":"Numerator"}]},"count":0},{"id":"DenominatorException_1","code":{"coding":[{"system":"http://terminology.hl7.org/CodeSystem/measure-population","code":"denominator-exception","display":"Denominator Exception"}]},"count":0}],"measureScore":{"value":0.0}}],"evaluatedResource":[{"reference":"Patient/0035424c-e3be-4dc2-919a-fd1c665893f6"},{"reference":"Condition/9307705a-6ddf-4533-89df-a8b94c33660f"},{"reference":"Encounter/0416cbb2-db2d-4a97-9545-d7ca0e2e6884"},{"reference":"Claim/5ca62962b8484628b8de1ec5"},{"reference":"Coverage/01948abc-34bb-4949-91e2-506c2941b395"},{"reference":"Condition/51e9a61b-ba32-40a3-9144-ecca1bf5b4c9"},{"reference":"Organization/b9576456-a3c8-4dd5-a816-abffe385cd86"},{"reference":"Practitioner/8bd66a57-6265-4708-8f9d-be55bef8630d"}]},"request":{"method":"PUT","url":"MeasureReport/e864b670-8d17-45a5-8e0e-4350b306a65c"}},{"resource":{"resourceType":"Encounter","id":"0416cbb2-db2d-4a97-9545-d7ca0e2e6884","meta":{"profile":["http://hl7.org/fhir/us/qicore/StructureDefinition/qicore-encounter"]},"status":"finished","class":{"system":"http://terminology.hl7.org/CodeSystem/v3-ActCode","code":"IMP","display":"inpatient encounter"},"type":[{"coding":[{"system":"http://snomed.info/sct","code":"183452005"}]}],"subject":{"reference":"Patient/0035424c-e3be-4dc2-919a-fd1c665893f6"},"period":{"start":"2026-02-08T08:00:00Z","end":"2026-02-10T08:15:00.000+00:00"},"length":{"value":2,"unit":"days"},"reasonReference":[{"reference":"Condition/9307705a-6ddf-4533-89df-a8b94c33660f"}]},"request":{"method":"PUT","url":"Encounter/0416cbb2-db2d-4a97-9545-d7ca0e2e6884"}},{"resource":{"resourceType":"Patient","id":"0035424c-e3be-4dc2-919a-fd1c665893f6","meta":{"profile":["http://hl7.org/fhir/us/qicore/StructureDefinition/qicore-patient"]},"text":{"status":"generated","div":"<div xmlns=\"http://www.w3.org/1999/xhtml\"><div class=\"hapiHeaderText\">Dx=Afib/flutterStart=EncEnd <b>DENOMPASS </b></div><table class=\"hapiPropertyTable\"><tbody><tr><td>Identifier</td><td>eea63111353acebe4dc924bd86a7bec7</td></tr><tr><td>Date of birth</td><td><span>01 December 1960</span></td></tr></tbody></table></div>"},"extension":[{"url":"http://hl7.org/fhir/us/core/StructureDefinition/us-core-race","extension":[{"url":"ombCategory","valueCoding":{"system":"urn:oid:2.16.840.1.113883.6.238","code":"1002-5","display":"American Indian or Alaska Native","userSelected":true}},{"url":"text","valueString":"American Indian or Alaska Native"}]},{"url":"http://hl7.org/fhir/us/core/StructureDefinition/us-core-ethnicity","extension":[{"url":"ombCategory","valueCoding":{"system":"urn:oid:2.16.840.1.113883.6.238","code":"2135-2","display":"Hispanic or Latino","userSelected":true}},{"url":"text","valueString":"Hispanic or Latino"}]}],"identifier":[{"type":{"coding":[{"system":"http://terminology.hl7.org/CodeSystem/v2-0203","code":"MR"}]},"system":"https://bonnie-fhir.healthit.gov/","value":"633c9d030968f8012250fc99"}],"active":true,"name":[{"use":"usual","family":"DENOMPass","given":["Dx=Afib/flutterStart=EncEnd "]}],"gender":"male","birthDate":"1961-12-01"},"request":{"method":"PUT","url":"Patient/0035424c-e3be-4dc2-919a-fd1c665893f6"}},{"resource":{"resourceType":"Practitioner","id":"8bd66a57-6265-4708-8f9d-be55bef8630d","meta":{"profile":["http://hl7.org/fhir/us/qicore/StructureDefinition/qicore-practitioner"]},"identifier":[{"system":"http://hl7.org/fhir/sid/us-npi","value":"9999999896"}],"name":[{"family":"Evil","prefix":["Dr"]}]},"request":{"method":"PUT","url":"Practitioner/8bd66a57-6265-4708-8f9d-be55bef8630d"}},{"resource":{"resourceType":"Organization","id":"b9576456-a3c8-4dd5-a816-abffe385cd86","meta":{"profile":["http://hl7.org/fhir/us/qicore/StructureDefinition/qicore-organization"]},"identifier":[{"use":"temp","system":"urn:oid:2.16.840.1.113883.4.4","value":"21-3259825"}],"active":true,"type":[{"coding":[{"system":"http://terminology.hl7.org/CodeSystem/organization-type","code":"pay","display":"Payer"}]}],"name":"Blue Cross Blue Shield of Texas","telecom":[{"system":"phone","value":"(+1) 972-766-6900"}],"address":[{"use":"billing","type":"postal","line":["P.O. Box 660044"],"city":"Dallas","state":"TX","postalCode":"75266-0044","country":"USA"}]},"request":{"method":"PUT","url":"Organization/b9576456-a3c8-4dd5-a816-abffe385cd86"}},{"resource":{"resourceType":"Claim","id":"5ca62962b8484628b8de1ec5","meta":{"profile":["http://hl7.org/fhir/us/qicore/StructureDefinition/qicore-claim"]},"status":"active","type":{"coding":[{"system":"http://terminology.hl7.org/CodeSystem/claim-type","code":"institutional"}]},"use":"claim","patient":{"reference":"Patient/d170a0a8-b5ad-4303-b6df-e304dd5f92ad"},"created":"2026-12-01","provider":{"reference":"Practitioner/8bd66a57-6265-4708-8f9d-be55bef8630d"},"priority":{"coding":[{"system":"http://terminology.hl7.org/CodeSystem/processpriority","code":"normal"}]},"diagnosis":[{"sequence":1,"diagnosisCodeableConcept":{"coding":[{"system":"http://hl7.org/fhir/sid/icd-10-cm","code":"I63.00"}]},"type":[{"coding":[{"system":"http://terminology.hl7.org/CodeSystem/ex-diagnosistype","code":"principal"}]}]}],"insurance":[{"sequence":1,"focal":true,"coverage":{"reference":"Coverage/5fa041661c76ba66d9959367"}}],"item":[{"sequence":1,"diagnosisSequence":[1],"productOrService":{"coding":[{"system":"http://terminology.hl7.org/CodeSystem/ex-USCLS","code":"99555"}]},"encounter":[{"reference":"Encounter/0416cbb2-db2d-4a97-9545-d7ca0e2e6884"}]}]},"request":{"method":"PUT","url":"Claim/5ca62962b8484628b8de1ec5"}}]}