{"resourceType":"Bundle","id":"tests-856d71be-a360-47b3-a038-5cb3037bf1f2-bundle","type":"transaction","entry":[{"fullUrl":"Encounter/67ca2b98-2ae3-4261-9bf5-8922d3dd7b42","resource":{"resourceType":"Encounter","id":"67ca2b98-2ae3-4261-9bf5-8922d3dd7b42","meta":{"profile":["http://hl7.org/fhir/us/qicore/StructureDefinition/qicore-encounter"]},"status":"finished","class":{"system":"http://terminology.hl7.org/CodeSystem/v3-ActCode","code":"IMP","display":"inpatient encounter"},"type":[{"coding":[{"system":"http://snomed.info/sct","code":"32485007"}]}],"subject":{"reference":"Patient/856d71be-a360-47b3-a038-5cb3037bf1f2"},"period":{"start":"2026-11-20T08:00:00Z","end":"2026-11-24T08:15:00.000+00:00"},"length":{"value":4,"unit":"days"}},"request":{"method":"PUT","url":"Encounter/67ca2b98-2ae3-4261-9bf5-8922d3dd7b42"}},{"fullUrl":"Practitioner/7451b424-7f39-4703-9e4d-bfd24eda9b05","resource":{"resourceType":"Practitioner","id":"7451b424-7f39-4703-9e4d-bfd24eda9b05","meta":{"profile":["http://hl7.org/fhir/us/qicore/StructureDefinition/qicore-practitioner"]},"identifier":[{"system":"http://hl7.org/fhir/sid/us-npi","value":"9999999896"}],"name":[{"family":"Evil","prefix":["Dr"]}]},"request":{"method":"PUT","url":"Practitioner/7451b424-7f39-4703-9e4d-bfd24eda9b05"}},{"fullUrl":"Patient/856d71be-a360-47b3-a038-5cb3037bf1f2","resource":{"resourceType":"Patient","id":"856d71be-a360-47b3-a038-5cb3037bf1f2","meta":{"profile":["http://hl7.org/fhir/us/qicore/StructureDefinition/qicore-patient"]},"text":{"status":"generated","div":"<div xmlns=\"http://www.w3.org/1999/xhtml\"><div class=\"hapiHeaderText\">NoStrokeDx <b>IPPFAIL </b></div><table class=\"hapiPropertyTable\"><tbody><tr><td>Identifier</td><td>07be0fe69d991ce770398b84f357fefa</td></tr><tr><td>Date of birth</td><td><span>16 January 1956</span></td></tr></tbody></table></div>"},"extension":[{"url":"http://hl7.org/fhir/us/core/StructureDefinition/us-core-race","extension":[{"url":"ombCategory","valueCoding":{"system":"urn:oid:2.16.840.1.113883.6.238","code":"1002-5","display":"American Indian or Alaska Native","userSelected":true}},{"url":"text","valueString":"American Indian or Alaska Native"}]},{"url":"http://hl7.org/fhir/us/core/StructureDefinition/us-core-ethnicity","extension":[{"url":"ombCategory","valueCoding":{"system":"urn:oid:2.16.840.1.113883.6.238","code":"2135-2","display":"Hispanic or Latino","userSelected":true}},{"url":"text","valueString":"Hispanic or Latino"}]}],"identifier":[{"type":{"coding":[{"system":"http://terminology.hl7.org/CodeSystem/v2-0203","code":"MR"}]},"system":"https://bonnie-fhir.healthit.gov/","value":"633c9d020968f8012250fc65"}],"active":true,"name":[{"use":"usual","family":"IPPFAIL","given":["NoStrokeDx"]}],"gender":"male","birthDate":"1957-01-16"},"request":{"method":"PUT","url":"Patient/856d71be-a360-47b3-a038-5cb3037bf1f2"}},{"fullUrl":"MeasureReport/eddd52c1-8503-4798-8012-a39393b5273e","resource":{"resourceType":"MeasureReport","id":"eddd52c1-8503-4798-8012-a39393b5273e","meta":{"profile":["http://hl7.org/fhir/us/cqfmeasures/StructureDefinition/test-case-cqfm"]},"contained":[{"resourceType":"Parameters","id":"c3f4acbe-591b-4a9f-91c5-124c172139b2-parameters","parameter":[{"name":"subject","valueString":"856d71be-a360-47b3-a038-5cb3037bf1f2"}]}],"extension":[{"url":"http://hl7.org/fhir/StructureDefinition/cqf-inputParameters","valueReference":{"reference":"#c3f4acbe-591b-4a9f-91c5-124c172139b2-parameters"}},{"url":"http://hl7.org/fhir/us/cqfmeasures/StructureDefinition/cqfm-testCaseDescription","valueMarkdown":"No Princ diagnois of stroke.\n"}],"modifierExtension":[{"url":"http://hl7.org/fhir/us/cqfmeasures/StructureDefinition/cqfm-isTestCase","valueBoolean":true}],"status":"complete","type":"individual","measure":"https://madie.cms.gov/Measure/CMS71FHIRSTKAnticoagAFFlutter","period":{"start":"2026-01-01","end":"2026-12-31"},"group":[{"id":"Group_1","population":[{"id":"InitialPopulation_1","code":{"coding":[{"system":"http://terminology.hl7.org/CodeSystem/measure-population","code":"initial-population","display":"Initial Population"}]},"count":0},{"id":"Denominator_1","code":{"coding":[{"system":"http://terminology.hl7.org/CodeSystem/measure-population","code":"denominator","display":"Denominator"}]},"count":0},{"id":"DenominatorExclusion_1","code":{"coding":[{"system":"http://terminology.hl7.org/CodeSystem/measure-population","code":"denominator-exclusion","display":"Denominator Exclusion"}]},"count":0},{"id":"Numerator_1","code":{"coding":[{"system":"http://terminology.hl7.org/CodeSystem/measure-population","code":"numerator","display":"Numerator"}]},"count":0},{"id":"DenominatorException_1","code":{"coding":[{"system":"http://terminology.hl7.org/CodeSystem/measure-population","code":"denominator-exception","display":"Denominator Exception"}]},"count":0}],"measureScore":{"value":0.0}}],"evaluatedResource":[{"reference":"Patient/856d71be-a360-47b3-a038-5cb3037bf1f2"},{"reference":"Encounter/67ca2b98-2ae3-4261-9bf5-8922d3dd7b42"},{"reference":"Claim/5ca62962b8484628b8de1ec5"},{"reference":"Coverage/3f245105-1eae-4c42-8e2f-06195ee46280"},{"reference":"Organization/ceb78d0f-c3c2-4a7d-92b1-ce58fe1f7f4c"},{"reference":"Practitioner/7451b424-7f39-4703-9e4d-bfd24eda9b05"}]},"request":{"method":"PUT","url":"MeasureReport/eddd52c1-8503-4798-8012-a39393b5273e"}},{"fullUrl":"Organization/ceb78d0f-c3c2-4a7d-92b1-ce58fe1f7f4c","resource":{"resourceType":"Organization","id":"ceb78d0f-c3c2-4a7d-92b1-ce58fe1f7f4c","meta":{"profile":["http://hl7.org/fhir/us/qicore/StructureDefinition/qicore-organization"]},"identifier":[{"use":"temp","system":"urn:oid:2.16.840.1.113883.4.4","value":"21-3259825"}],"active":true,"type":[{"coding":[{"system":"http://terminology.hl7.org/CodeSystem/organization-type","code":"pay","display":"Payer"}]}],"name":"Blue Cross Blue Shield of Texas","telecom":[{"system":"phone","value":"(+1) 972-766-6900"}],"address":[{"use":"billing","type":"postal","line":["P.O. Box 660044"],"city":"Dallas","state":"TX","postalCode":"75266-0044","country":"USA"}]},"request":{"method":"PUT","url":"Organization/ceb78d0f-c3c2-4a7d-92b1-ce58fe1f7f4c"}},{"fullUrl":"Bundle/633c9d020968f8012250fc65","resource":{"resourceType":"Bundle","id":"633c9d020968f8012250fc65","type":"transaction","entry":[{"fullUrl":"https://madie.cms.gov/Patient/856d71be-a360-47b3-a038-5cb3037bf1f2","resource":{"resourceType":"Patient","id":"856d71be-a360-47b3-a038-5cb3037bf1f2","meta":{"profile":["http://hl7.org/fhir/us/qicore/StructureDefinition/qicore-patient"]},"text":{"status":"generated","div":"<div xmlns=\"http://www.w3.org/1999/xhtml\"><div class=\"hapiHeaderText\">NoStrokeDx <b>IPPFAIL </b></div><table class=\"hapiPropertyTable\"><tbody><tr><td>Identifier</td><td>07be0fe69d991ce770398b84f357fefa</td></tr><tr><td>Date of birth</td><td><span>16 January 1956</span></td></tr></tbody></table></div>"},"extension":[{"url":"http://hl7.org/fhir/us/core/StructureDefinition/us-core-race","extension":[{"url":"ombCategory","valueCoding":{"system":"urn:oid:2.16.840.1.113883.6.238","code":"1002-5","display":"American Indian or Alaska Native","userSelected":true}},{"url":"text","valueString":"American Indian or Alaska Native"}]},{"url":"http://hl7.org/fhir/us/core/StructureDefinition/us-core-ethnicity","extension":[{"url":"ombCategory","valueCoding":{"system":"urn:oid:2.16.840.1.113883.6.238","code":"2135-2","display":"Hispanic or Latino","userSelected":true}},{"url":"text","valueString":"Hispanic or Latino"}]}],"identifier":[{"type":{"coding":[{"system":"http://terminology.hl7.org/CodeSystem/v2-0203","code":"MR"}]},"system":"https://bonnie-fhir.healthit.gov/","value":"633c9d020968f8012250fc65"}],"active":true,"name":[{"use":"usual","family":"IPPFAIL","given":["NoStrokeDx"]}],"gender":"male","birthDate":"1957-01-16"},"request":{"method":"PUT","url":"Patient/856d71be-a360-47b3-a038-5cb3037bf1f2"}},{"fullUrl":"https://madie.cms.gov/Encounter/67ca2b98-2ae3-4261-9bf5-8922d3dd7b42","resource":{"resourceType":"Encounter","id":"67ca2b98-2ae3-4261-9bf5-8922d3dd7b42","meta":{"profile":["http://hl7.org/fhir/us/qicore/StructureDefinition/qicore-encounter"]},"status":"finished","class":{"system":"http://terminology.hl7.org/CodeSystem/v3-ActCode","code":"IMP","display":"inpatient encounter"},"type":[{"coding":[{"system":"http://snomed.info/sct","code":"32485007"}]}],"subject":{"reference":"Patient/856d71be-a360-47b3-a038-5cb3037bf1f2"},"period":{"start":"2026-11-20T08:00:00Z","end":"2026-11-24T08:15:00.000+00:00"},"length":{"value":4,"unit":"days"}},"request":{"method":"PUT","url":"Encounter/67ca2b98-2ae3-4261-9bf5-8922d3dd7b42"}},{"fullUrl":"https://madie.cms.gov/claim/5ca62962b8484628b8de1ec5","resource":{"resourceType":"Claim","id":"5ca62962b8484628b8de1ec5","meta":{"profile":["http://hl7.org/fhir/us/qicore/StructureDefinition/qicore-claim"]},"status":"active","type":{"coding":[{"system":"http://terminology.hl7.org/CodeSystem/claim-type","code":"institutional"}]},"use":"claim","patient":{"reference":"Patient/d170a0a8-b5ad-4303-b6df-e304dd5f92ad"},"created":"2026-12-01","provider":{"reference":"Practitioner/7451b424-7f39-4703-9e4d-bfd24eda9b05"},"priority":{"coding":[{"system":"http://terminology.hl7.org/CodeSystem/processpriority","code":"normal"}]},"diagnosis":[{"sequence":1,"diagnosisCodeableConcept":{"coding":[{"system":"http://hl7.org/fhir/sid/icd-10-cm","code":"I62.00"}]},"type":[{"coding":[{"system":"http://terminology.hl7.org/CodeSystem/ex-diagnosistype","code":"principal"}]}]}],"insurance":[{"sequence":1,"focal":true,"coverage":{"reference":"Coverage/5fa041661c76ba66d9959367"}}],"item":[{"sequence":1,"diagnosisSequence":[1],"productOrService":{"coding":[{"system":"http://terminology.hl7.org/CodeSystem/ex-USCLS","code":"99555"}]},"encounter":[{"reference":"Encounter/5ca4cde2b8484613a5552a68"}]}]},"request":{"method":"PUT","url":"Claim/5ca62962b8484628b8de1ec5"}},{"fullUrl":"https://madie.cms.gov/Coverage/3f245105-1eae-4c42-8e2f-06195ee46280","resource":{"resourceType":"Coverage","id":"3f245105-1eae-4c42-8e2f-06195ee46280","meta":{"profile":["http://hl7.org/fhir/us/qicore/StructureDefinition/qicore-coverage"]},"status":"active","subscriberId":"523435","beneficiary":{"reference":"Patient/162a5913-9989-42f2-8d6a-ae460e245e4c"},"relationship":{"coding":[{"system":"http://terminology.hl7.org/CodeSystem/subscriber-relationship","code":"self"}]},"payor":[{"reference":"Organization/ceb78d0f-c3c2-4a7d-92b1-ce58fe1f7f4c"}]},"request":{"method":"PUT","url":"Coverage/3f245105-1eae-4c42-8e2f-06195ee46280"}},{"fullUrl":"https://madie.cms.gov/Organization/ceb78d0f-c3c2-4a7d-92b1-ce58fe1f7f4c","resource":{"resourceType":"Organization","id":"ceb78d0f-c3c2-4a7d-92b1-ce58fe1f7f4c","meta":{"profile":["http://hl7.org/fhir/us/qicore/StructureDefinition/qicore-organization"]},"identifier":[{"use":"temp","system":"urn:oid:2.16.840.1.113883.4.4","value":"21-3259825"}],"active":true,"type":[{"coding":[{"system":"http://terminology.hl7.org/CodeSystem/organization-type","code":"pay","display":"Payer"}]}],"name":"Blue Cross Blue Shield of Texas","telecom":[{"system":"phone","value":"(+1) 972-766-6900"}],"address":[{"use":"billing","type":"postal","line":["P.O. Box 660044"],"city":"Dallas","state":"TX","postalCode":"75266-0044","country":"USA"}]},"request":{"method":"PUT","url":"Organization/ceb78d0f-c3c2-4a7d-92b1-ce58fe1f7f4c"}},{"fullUrl":"https://madie.cms.gov/Practitioner/7451b424-7f39-4703-9e4d-bfd24eda9b05","resource":{"resourceType":"Practitioner","id":"7451b424-7f39-4703-9e4d-bfd24eda9b05","meta":{"profile":["http://hl7.org/fhir/us/qicore/StructureDefinition/qicore-practitioner"]},"identifier":[{"system":"http://hl7.org/fhir/sid/us-npi","value":"9999999896"}],"name":[{"family":"Evil","prefix":["Dr"]}]},"request":{"method":"PUT","url":"Practitioner/7451b424-7f39-4703-9e4d-bfd24eda9b05"}},{"fullUrl":"https://madie.cms.gov/MeasureReport/eddd52c1-8503-4798-8012-a39393b5273e","resource":{"resourceType":"MeasureReport","id":"eddd52c1-8503-4798-8012-a39393b5273e","meta":{"profile":["http://hl7.org/fhir/us/cqfmeasures/StructureDefinition/test-case-cqfm"]},"contained":[{"resourceType":"Parameters","id":"c3f4acbe-591b-4a9f-91c5-124c172139b2-parameters","parameter":[{"name":"subject","valueString":"856d71be-a360-47b3-a038-5cb3037bf1f2"}]}],"extension":[{"url":"http://hl7.org/fhir/StructureDefinition/cqf-inputParameters","valueReference":{"reference":"#c3f4acbe-591b-4a9f-91c5-124c172139b2-parameters"}},{"url":"http://hl7.org/fhir/us/cqfmeasures/StructureDefinition/cqfm-testCaseDescription","valueMarkdown":"No Princ diagnois of stroke.\n"}],"modifierExtension":[{"url":"http://hl7.org/fhir/us/cqfmeasures/StructureDefinition/cqfm-isTestCase","valueBoolean":true}],"status":"complete","type":"individual","measure":"https://madie.cms.gov/Measure/CMS71FHIRSTKAnticoagAFFlutter","period":{"start":"2026-01-01","end":"2026-12-31"},"group":[{"id":"Group_1","population":[{"id":"InitialPopulation_1","code":{"coding":[{"system":"http://terminology.hl7.org/CodeSystem/measure-population","code":"initial-population","display":"Initial Population"}]},"count":0},{"id":"Denominator_1","code":{"coding":[{"system":"http://terminology.hl7.org/CodeSystem/measure-population","code":"denominator","display":"Denominator"}]},"count":0},{"id":"DenominatorExclusion_1","code":{"coding":[{"system":"http://terminology.hl7.org/CodeSystem/measure-population","code":"denominator-exclusion","display":"Denominator Exclusion"}]},"count":0},{"id":"Numerator_1","code":{"coding":[{"system":"http://terminology.hl7.org/CodeSystem/measure-population","code":"numerator","display":"Numerator"}]},"count":0},{"id":"DenominatorException_1","code":{"coding":[{"system":"http://terminology.hl7.org/CodeSystem/measure-population","code":"denominator-exception","display":"Denominator Exception"}]},"count":0}],"measureScore":{"value":0.0}}],"evaluatedResource":[{"reference":"Patient/856d71be-a360-47b3-a038-5cb3037bf1f2"},{"reference":"Encounter/67ca2b98-2ae3-4261-9bf5-8922d3dd7b42"},{"reference":"Claim/5ca62962b8484628b8de1ec5"},{"reference":"Coverage/3f245105-1eae-4c42-8e2f-06195ee46280"},{"reference":"Organization/ceb78d0f-c3c2-4a7d-92b1-ce58fe1f7f4c"},{"reference":"Practitioner/7451b424-7f39-4703-9e4d-bfd24eda9b05"}]},"request":{"method":"PUT","url":"MeasureReport/eddd52c1-8503-4798-8012-a39393b5273e"}}]},"request":{"method":"PUT","url":"Bundle/633c9d020968f8012250fc65"}},{"fullUrl":"Coverage/3f245105-1eae-4c42-8e2f-06195ee46280","resource":{"resourceType":"Coverage","id":"3f245105-1eae-4c42-8e2f-06195ee46280","meta":{"profile":["http://hl7.org/fhir/us/qicore/StructureDefinition/qicore-coverage"]},"status":"active","subscriberId":"523435","beneficiary":{"reference":"Patient/162a5913-9989-42f2-8d6a-ae460e245e4c"},"relationship":{"coding":[{"system":"http://terminology.hl7.org/CodeSystem/subscriber-relationship","code":"self"}]},"payor":[{"reference":"Organization/ceb78d0f-c3c2-4a7d-92b1-ce58fe1f7f4c"}]},"request":{"method":"PUT","url":"Coverage/3f245105-1eae-4c42-8e2f-06195ee46280"}},{"fullUrl":"Claim/5ca62962b8484628b8de1ec5","resource":{"resourceType":"Claim","id":"5ca62962b8484628b8de1ec5","meta":{"profile":["http://hl7.org/fhir/us/qicore/StructureDefinition/qicore-claim"]},"status":"active","type":{"coding":[{"system":"http://terminology.hl7.org/CodeSystem/claim-type","code":"institutional"}]},"use":"claim","patient":{"reference":"Patient/d170a0a8-b5ad-4303-b6df-e304dd5f92ad"},"created":"2026-12-01","provider":{"reference":"Practitioner/7451b424-7f39-4703-9e4d-bfd24eda9b05"},"priority":{"coding":[{"system":"http://terminology.hl7.org/CodeSystem/processpriority","code":"normal"}]},"diagnosis":[{"sequence":1,"diagnosisCodeableConcept":{"coding":[{"system":"http://hl7.org/fhir/sid/icd-10-cm","code":"I62.00"}]},"type":[{"coding":[{"system":"http://terminology.hl7.org/CodeSystem/ex-diagnosistype","code":"principal"}]}]}],"insurance":[{"sequence":1,"focal":true,"coverage":{"reference":"Coverage/5fa041661c76ba66d9959367"}}],"item":[{"sequence":1,"diagnosisSequence":[1],"productOrService":{"coding":[{"system":"http://terminology.hl7.org/CodeSystem/ex-USCLS","code":"99555"}]},"encounter":[{"reference":"Encounter/5ca4cde2b8484613a5552a68"}]}]},"request":{"method":"PUT","url":"Claim/5ca62962b8484628b8de1ec5"}}]}