{"resourceType":"Bundle","id":"tests-bfa4b097-4c27-4046-a036-d97267e94113-bundle","type":"transaction","entry":[{"resource":{"resourceType":"Encounter","id":"7b75d356-c04b-4bee-9da9-4ea87648bd29","meta":{"profile":["http://hl7.org/fhir/us/qicore/StructureDefinition/qicore-encounter"]},"status":"finished","class":{"system":"http://terminology.hl7.org/CodeSystem/v3-ActCode","code":"EMER","display":"emergency"},"type":[{"coding":[{"system":"http://snomed.info/sct","code":"4525004"}]}],"subject":{"reference":"Patient/bfa4b097-4c27-4046-a036-d97267e94113"},"period":{"start":"2026-10-01T09:01:00Z","end":"2026-10-01T12:15:00.000+00:00"},"length":{"value":0,"unit":"days"},"reasonReference":[{"reference":"Condition/88903ecc-5e61-4582-9a4a-b43d9d4d3799"}]},"request":{"method":"PUT","url":"Encounter/7b75d356-c04b-4bee-9da9-4ea87648bd29"}},{"resource":{"resourceType":"MeasureReport","id":"19177dc7-9d90-4812-8c83-60de53f81a55","meta":{"profile":["http://hl7.org/fhir/us/cqfmeasures/StructureDefinition/test-case-cqfm"]},"contained":[{"resourceType":"Parameters","id":"c9f5bf65-9863-4b74-a064-4b21358baf82-parameters","parameter":[{"name":"subject","valueString":"bfa4b097-4c27-4046-a036-d97267e94113"}]}],"extension":[{"url":"http://hl7.org/fhir/StructureDefinition/cqf-inputParameters","valueReference":{"reference":"#c9f5bf65-9863-4b74-a064-4b21358baf82-parameters"}},{"url":"http://hl7.org/fhir/us/cqfmeasures/StructureDefinition/cqfm-testCaseDescription","valueMarkdown":"Patient receives CMO during ED. ED ends 1 min before Obs start and Obs ends 1 min before inpatient start.  Testing HospitalizationWithObservation function"}],"modifierExtension":[{"url":"http://hl7.org/fhir/us/cqfmeasures/StructureDefinition/cqfm-isTestCase","valueBoolean":true}],"status":"complete","type":"individual","measure":"https://madie.cms.gov/Measure/CMS71FHIRSTKAnticoagAFFlutter","period":{"start":"2026-01-01","end":"2026-12-31"},"group":[{"id":"Group_1","population":[{"id":"InitialPopulation_1","code":{"coding":[{"system":"http://terminology.hl7.org/CodeSystem/measure-population","code":"initial-population","display":"Initial Population"}]},"count":1},{"id":"Denominator_1","code":{"coding":[{"system":"http://terminology.hl7.org/CodeSystem/measure-population","code":"denominator","display":"Denominator"}]},"count":1},{"id":"DenominatorExclusion_1","code":{"coding":[{"system":"http://terminology.hl7.org/CodeSystem/measure-population","code":"denominator-exclusion","display":"Denominator Exclusion"}]},"count":1},{"id":"Numerator_1","code":{"coding":[{"system":"http://terminology.hl7.org/CodeSystem/measure-population","code":"numerator","display":"Numerator"}]},"count":0},{"id":"DenominatorException_1","code":{"coding":[{"system":"http://terminology.hl7.org/CodeSystem/measure-population","code":"denominator-exception","display":"Denominator Exception"}]},"count":0}],"measureScore":{"value":0.0}}],"evaluatedResource":[{"reference":"Patient/bfa4b097-4c27-4046-a036-d97267e94113"},{"reference":"Condition/88903ecc-5e61-4582-9a4a-b43d9d4d3799"},{"reference":"Encounter/7b75d356-c04b-4bee-9da9-4ea87648bd29"},{"reference":"Claim/5ca62962b8484628b8de1ec5"},{"reference":"Encounter/b8663e32-cf5f-4063-a04f-1be99e78989b"},{"reference":"ServiceRequest/03ab0250-1238-44c3-8b83-701e6c9f0037"},{"reference":"Coverage/cc82befd-fddb-4ea5-923d-50d40efae13f"},{"reference":"Condition/f0c9d798-f0db-4df4-a6b8-25bd8a27021e"},{"reference":"Organization/45a7c35e-24b4-4661-8a10-1983b07d201f"},{"reference":"Practitioner/ae92f030-814e-4327-8bb1-a7f0bf1cbaa1"}]},"request":{"method":"PUT","url":"MeasureReport/19177dc7-9d90-4812-8c83-60de53f81a55"}},{"resource":{"resourceType":"Coverage","id":"cc82befd-fddb-4ea5-923d-50d40efae13f","meta":{"profile":["http://hl7.org/fhir/us/qicore/StructureDefinition/qicore-coverage"]},"status":"active","subscriberId":"523435","beneficiary":{"reference":"Patient/162a5913-9989-42f2-8d6a-ae460e245e4c"},"relationship":{"coding":[{"system":"http://terminology.hl7.org/CodeSystem/subscriber-relationship","code":"self"}]},"payor":[{"reference":"Organization/45a7c35e-24b4-4661-8a10-1983b07d201f"}]},"request":{"method":"PUT","url":"Coverage/cc82befd-fddb-4ea5-923d-50d40efae13f"}},{"resource":{"resourceType":"Bundle","id":"633c9d030968f8012250fc88","type":"transaction","entry":[{"fullUrl":"https://madie.cms.gov/Patient/bfa4b097-4c27-4046-a036-d97267e94113","resource":{"resourceType":"Patient","id":"bfa4b097-4c27-4046-a036-d97267e94113","meta":{"profile":["http://hl7.org/fhir/us/qicore/StructureDefinition/qicore-patient"]},"text":{"status":"generated","div":"<div xmlns=\"http://www.w3.org/1999/xhtml\"><div class=\"hapiHeaderText\">CMOdurED_ED&lt;1hrNoObsBFEnc <b>DENEXPASS </b></div><table class=\"hapiPropertyTable\"><tbody><tr><td>Identifier</td><td>cd0066a23b25d0eb7377a3fb55c6a2f4</td></tr><tr><td>Date of birth</td><td><span>18 September 1985</span></td></tr></tbody></table></div>"},"extension":[{"url":"http://hl7.org/fhir/us/core/StructureDefinition/us-core-race","extension":[{"url":"ombCategory","valueCoding":{"system":"urn:oid:2.16.840.1.113883.6.238","code":"1002-5","display":"American Indian or Alaska Native","userSelected":true}},{"url":"text","valueString":"American Indian or Alaska Native"}]},{"url":"http://hl7.org/fhir/us/core/StructureDefinition/us-core-ethnicity","extension":[{"url":"ombCategory","valueCoding":{"system":"urn:oid:2.16.840.1.113883.6.238","code":"2135-2","display":"Hispanic or Latino","userSelected":true}},{"url":"text","valueString":"Hispanic or Latino"}]}],"identifier":[{"type":{"coding":[{"system":"http://terminology.hl7.org/CodeSystem/v2-0203","code":"MR"}]},"system":"https://bonnie-fhir.healthit.gov/","value":"633c9d030968f8012250fc88"}],"active":true,"name":[{"use":"usual","family":"DENEXPass","given":["CMOdurED_ED<1hrNoObsBFEnc"]}],"gender":"female","birthDate":"1986-09-18"},"request":{"method":"PUT","url":"Patient/bfa4b097-4c27-4046-a036-d97267e94113"}},{"fullUrl":"https://madie.cms.gov/Condition/88903ecc-5e61-4582-9a4a-b43d9d4d3799","resource":{"resourceType":"Condition","id":"88903ecc-5e61-4582-9a4a-b43d9d4d3799","meta":{"profile":["http://hl7.org/fhir/us/qicore/StructureDefinition/qicore-condition-problems-health-concerns"]},"clinicalStatus":{"coding":[{"system":"http://terminology.hl7.org/CodeSystem/condition-clinical","code":"inactive"}]},"verificationStatus":{"coding":[{"system":"http://terminology.hl7.org/CodeSystem/condition-ver-status","code":"confirmed"}]},"category":[{"coding":[{"system":"http://terminology.hl7.org/CodeSystem/condition-category","code":"encounter-diagnosis","display":"Encounter Diagnosis"}]}],"code":{"coding":[{"system":"http://hl7.org/fhir/sid/icd-10-cm","code":"I48.20"},{"system":"http://hl7.org/fhir/sid/icd-10-cm","code":"I48.0"},{"system":"http://snomed.info/sct","code":"5370000"}]},"subject":{"reference":"Patient/bfa4b097-4c27-4046-a036-d97267e94113"},"onsetDateTime":"2026-10-01T09:01:00Z","abatementDateTime":"2026-10-12T00:15:00.000+00:00"},"request":{"method":"PUT","url":"Condition/88903ecc-5e61-4582-9a4a-b43d9d4d3799"}},{"fullUrl":"https://madie.cms.gov/Encounter/7b75d356-c04b-4bee-9da9-4ea87648bd29","resource":{"resourceType":"Encounter","id":"7b75d356-c04b-4bee-9da9-4ea87648bd29","meta":{"profile":["http://hl7.org/fhir/us/qicore/StructureDefinition/qicore-encounter"]},"status":"finished","class":{"system":"http://terminology.hl7.org/CodeSystem/v3-ActCode","code":"EMER","display":"emergency"},"type":[{"coding":[{"system":"http://snomed.info/sct","code":"4525004"}]}],"subject":{"reference":"Patient/bfa4b097-4c27-4046-a036-d97267e94113"},"period":{"start":"2026-10-01T09:01:00Z","end":"2026-10-01T12:15:00.000+00:00"},"length":{"value":0,"unit":"days"},"reasonReference":[{"reference":"Condition/88903ecc-5e61-4582-9a4a-b43d9d4d3799"}]},"request":{"method":"PUT","url":"Encounter/7b75d356-c04b-4bee-9da9-4ea87648bd29"}},{"fullUrl":"https://madie.cms.gov/claim/5ca62962b8484628b8de1ec5","resource":{"resourceType":"Claim","id":"5ca62962b8484628b8de1ec5","meta":{"profile":["http://hl7.org/fhir/us/qicore/StructureDefinition/qicore-claim"]},"status":"active","type":{"coding":[{"system":"http://terminology.hl7.org/CodeSystem/claim-type","code":"institutional"}]},"use":"claim","patient":{"reference":"Patient/d170a0a8-b5ad-4303-b6df-e304dd5f92ad"},"created":"2026-12-01","provider":{"reference":"Practitioner/ae92f030-814e-4327-8bb1-a7f0bf1cbaa1"},"priority":{"coding":[{"system":"http://terminology.hl7.org/CodeSystem/processpriority","code":"normal"}]},"diagnosis":[{"sequence":1,"diagnosisCodeableConcept":{"coding":[{"system":"http://hl7.org/fhir/sid/icd-10-cm","code":"I63.00"}]},"type":[{"coding":[{"system":"http://terminology.hl7.org/CodeSystem/ex-diagnosistype","code":"principal"}]}]}],"insurance":[{"sequence":1,"focal":true,"coverage":{"reference":"Coverage/5fa041661c76ba66d9959367"}}],"item":[{"sequence":1,"diagnosisSequence":[1],"productOrService":{"coding":[{"system":"http://terminology.hl7.org/CodeSystem/ex-USCLS","code":"99555"}]},"encounter":[{"reference":"Encounter/b8663e32-cf5f-4063-a04f-1be99e78989b"}]}]},"request":{"method":"PUT","url":"Claim/5ca62962b8484628b8de1ec5"}},{"fullUrl":"https://madie.cms.gov/Encounter/b8663e32-cf5f-4063-a04f-1be99e78989b","resource":{"resourceType":"Encounter","id":"b8663e32-cf5f-4063-a04f-1be99e78989b","meta":{"profile":["http://hl7.org/fhir/us/qicore/StructureDefinition/qicore-encounter"]},"status":"finished","class":{"system":"http://terminology.hl7.org/CodeSystem/v3-ActCode","code":"IMP","display":"inpatient encounter"},"type":[{"coding":[{"system":"http://snomed.info/sct","code":"32485007"}]}],"subject":{"reference":"Patient/bfa4b097-4c27-4046-a036-d97267e94113"},"period":{"start":"2026-10-01T12:16:00Z","end":"2026-10-12T00:15:00.000+00:00"},"length":{"value":11,"unit":"days"},"reasonReference":[{"reference":"Condition/88903ecc-5e61-4582-9a4a-b43d9d4d3799"}]},"request":{"method":"PUT","url":"Encounter/b8663e32-cf5f-4063-a04f-1be99e78989b"}},{"fullUrl":"https://madie.cms.gov/ServiceRequest/03ab0250-1238-44c3-8b83-701e6c9f0037","resource":{"resourceType":"ServiceRequest","id":"03ab0250-1238-44c3-8b83-701e6c9f0037","meta":{"profile":["http://hl7.org/fhir/us/qicore/StructureDefinition/qicore-servicerequest"]},"status":"active","intent":"order","code":{"coding":[{"system":"http://snomed.info/sct","code":"133918004"}]},"subject":{"reference":"Patient/bfa4b097-4c27-4046-a036-d97267e94113"},"authoredOn":"2026-10-01T09:15:00Z"},"request":{"method":"PUT","url":"ServiceRequest/03ab0250-1238-44c3-8b83-701e6c9f0037"}},{"fullUrl":"https://madie.cms.gov/Coverage/cc82befd-fddb-4ea5-923d-50d40efae13f","resource":{"resourceType":"Coverage","id":"cc82befd-fddb-4ea5-923d-50d40efae13f","meta":{"profile":["http://hl7.org/fhir/us/qicore/StructureDefinition/qicore-coverage"]},"status":"active","subscriberId":"523435","beneficiary":{"reference":"Patient/162a5913-9989-42f2-8d6a-ae460e245e4c"},"relationship":{"coding":[{"system":"http://terminology.hl7.org/CodeSystem/subscriber-relationship","code":"self"}]},"payor":[{"reference":"Organization/45a7c35e-24b4-4661-8a10-1983b07d201f"}]},"request":{"method":"PUT","url":"Coverage/cc82befd-fddb-4ea5-923d-50d40efae13f"}},{"fullUrl":"https://madie.cms.gov/Condition/f0c9d798-f0db-4df4-a6b8-25bd8a27021e","resource":{"resourceType":"Condition","id":"f0c9d798-f0db-4df4-a6b8-25bd8a27021e","meta":{"profile":["http://hl7.org/fhir/us/qicore/StructureDefinition/qicore-condition-problems-health-concerns"]},"clinicalStatus":{"coding":[{"system":"http://terminology.hl7.org/CodeSystem/condition-clinical","code":"active"}]},"verificationStatus":{"coding":[{"system":"http://terminology.hl7.org/CodeSystem/condition-ver-status","code":"confirmed"}]},"category":[{"coding":[{"system":"http://terminology.hl7.org/CodeSystem/condition-category","code":"encounter-diagnosis","display":"Encounter Diagnosis"}]}],"code":{"coding":[{"system":"http://snomed.info/sct","version":"2021-09","code":"111297002","display":"Nonparalytic stroke (disorder)","userSelected":true}]},"subject":{"reference":"Patient/bfa4b097-4c27-4046-a036-d97267e94113"},"recordedDate":"2026-10-13T08:00:00Z"},"request":{"method":"PUT","url":"Condition/f0c9d798-f0db-4df4-a6b8-25bd8a27021e"}},{"fullUrl":"https://madie.cms.gov/Organization/45a7c35e-24b4-4661-8a10-1983b07d201f","resource":{"resourceType":"Organization","id":"45a7c35e-24b4-4661-8a10-1983b07d201f","meta":{"profile":["http://hl7.org/fhir/us/qicore/StructureDefinition/qicore-organization"]},"identifier":[{"use":"temp","system":"urn:oid:2.16.840.1.113883.4.4","value":"21-3259825"}],"active":true,"type":[{"coding":[{"system":"http://terminology.hl7.org/CodeSystem/organization-type","code":"pay","display":"Payer"}]}],"name":"Blue Cross Blue Shield of Texas","telecom":[{"system":"phone","value":"(+1) 972-766-6900"}],"address":[{"use":"billing","type":"postal","line":["P.O. Box 660044"],"city":"Dallas","state":"TX","postalCode":"75266-0044","country":"USA"}]},"request":{"method":"PUT","url":"Organization/45a7c35e-24b4-4661-8a10-1983b07d201f"}},{"fullUrl":"https://madie.cms.gov/Practitioner/ae92f030-814e-4327-8bb1-a7f0bf1cbaa1","resource":{"resourceType":"Practitioner","id":"ae92f030-814e-4327-8bb1-a7f0bf1cbaa1","meta":{"profile":["http://hl7.org/fhir/us/qicore/StructureDefinition/qicore-practitioner"]},"identifier":[{"system":"http://hl7.org/fhir/sid/us-npi","value":"9999999896"}],"name":[{"family":"Evil","prefix":["Dr"]}]},"request":{"method":"PUT","url":"Practitioner/ae92f030-814e-4327-8bb1-a7f0bf1cbaa1"}},{"fullUrl":"https://madie.cms.gov/MeasureReport/19177dc7-9d90-4812-8c83-60de53f81a55","resource":{"resourceType":"MeasureReport","id":"19177dc7-9d90-4812-8c83-60de53f81a55","meta":{"profile":["http://hl7.org/fhir/us/cqfmeasures/StructureDefinition/test-case-cqfm"]},"contained":[{"resourceType":"Parameters","id":"c9f5bf65-9863-4b74-a064-4b21358baf82-parameters","parameter":[{"name":"subject","valueString":"bfa4b097-4c27-4046-a036-d97267e94113"}]}],"extension":[{"url":"http://hl7.org/fhir/StructureDefinition/cqf-inputParameters","valueReference":{"reference":"#c9f5bf65-9863-4b74-a064-4b21358baf82-parameters"}},{"url":"http://hl7.org/fhir/us/cqfmeasures/StructureDefinition/cqfm-testCaseDescription","valueMarkdown":"Patient receives CMO during ED. ED ends 1 min before Obs start and Obs ends 1 min before inpatient start.  Testing HospitalizationWithObservation function"}],"modifierExtension":[{"url":"http://hl7.org/fhir/us/cqfmeasures/StructureDefinition/cqfm-isTestCase","valueBoolean":true}],"status":"complete","type":"individual","measure":"https://madie.cms.gov/Measure/CMS71FHIRSTKAnticoagAFFlutter","period":{"start":"2026-01-01","end":"2026-12-31"},"group":[{"id":"Group_1","population":[{"id":"InitialPopulation_1","code":{"coding":[{"system":"http://terminology.hl7.org/CodeSystem/measure-population","code":"initial-population","display":"Initial Population"}]},"count":1},{"id":"Denominator_1","code":{"coding":[{"system":"http://terminology.hl7.org/CodeSystem/measure-population","code":"denominator","display":"Denominator"}]},"count":1},{"id":"DenominatorExclusion_1","code":{"coding":[{"system":"http://terminology.hl7.org/CodeSystem/measure-population","code":"denominator-exclusion","display":"Denominator Exclusion"}]},"count":1},{"id":"Numerator_1","code":{"coding":[{"system":"http://terminology.hl7.org/CodeSystem/measure-population","code":"numerator","display":"Numerator"}]},"count":0},{"id":"DenominatorException_1","code":{"coding":[{"system":"http://terminology.hl7.org/CodeSystem/measure-population","code":"denominator-exception","display":"Denominator Exception"}]},"count":0}],"measureScore":{"value":0.0}}],"evaluatedResource":[{"reference":"Patient/bfa4b097-4c27-4046-a036-d97267e94113"},{"reference":"Condition/88903ecc-5e61-4582-9a4a-b43d9d4d3799"},{"reference":"Encounter/7b75d356-c04b-4bee-9da9-4ea87648bd29"},{"reference":"Claim/5ca62962b8484628b8de1ec5"},{"reference":"Encounter/b8663e32-cf5f-4063-a04f-1be99e78989b"},{"reference":"ServiceRequest/03ab0250-1238-44c3-8b83-701e6c9f0037"},{"reference":"Coverage/cc82befd-fddb-4ea5-923d-50d40efae13f"},{"reference":"Condition/f0c9d798-f0db-4df4-a6b8-25bd8a27021e"},{"reference":"Organization/45a7c35e-24b4-4661-8a10-1983b07d201f"},{"reference":"Practitioner/ae92f030-814e-4327-8bb1-a7f0bf1cbaa1"}]},"request":{"method":"PUT","url":"MeasureReport/19177dc7-9d90-4812-8c83-60de53f81a55"}}]},"request":{"method":"PUT","url":"Bundle/633c9d030968f8012250fc88"}},{"resource":{"resourceType":"Patient","id":"bfa4b097-4c27-4046-a036-d97267e94113","meta":{"profile":["http://hl7.org/fhir/us/qicore/StructureDefinition/qicore-patient"]},"text":{"status":"generated","div":"<div xmlns=\"http://www.w3.org/1999/xhtml\"><div class=\"hapiHeaderText\">CMOdurED_ED&lt;1hrNoObsBFEnc <b>DENEXPASS </b></div><table class=\"hapiPropertyTable\"><tbody><tr><td>Identifier</td><td>cd0066a23b25d0eb7377a3fb55c6a2f4</td></tr><tr><td>Date of birth</td><td><span>18 September 1985</span></td></tr></tbody></table></div>"},"extension":[{"url":"http://hl7.org/fhir/us/core/StructureDefinition/us-core-race","extension":[{"url":"ombCategory","valueCoding":{"system":"urn:oid:2.16.840.1.113883.6.238","code":"1002-5","display":"American Indian or Alaska Native","userSelected":true}},{"url":"text","valueString":"American Indian or Alaska Native"}]},{"url":"http://hl7.org/fhir/us/core/StructureDefinition/us-core-ethnicity","extension":[{"url":"ombCategory","valueCoding":{"system":"urn:oid:2.16.840.1.113883.6.238","code":"2135-2","display":"Hispanic or Latino","userSelected":true}},{"url":"text","valueString":"Hispanic or Latino"}]}],"identifier":[{"type":{"coding":[{"system":"http://terminology.hl7.org/CodeSystem/v2-0203","code":"MR"}]},"system":"https://bonnie-fhir.healthit.gov/","value":"633c9d030968f8012250fc88"}],"active":true,"name":[{"use":"usual","family":"DENEXPass","given":["CMOdurED_ED<1hrNoObsBFEnc"]}],"gender":"female","birthDate":"1986-09-18"},"request":{"method":"PUT","url":"Patient/bfa4b097-4c27-4046-a036-d97267e94113"}},{"resource":{"resourceType":"Organization","id":"45a7c35e-24b4-4661-8a10-1983b07d201f","meta":{"profile":["http://hl7.org/fhir/us/qicore/StructureDefinition/qicore-organization"]},"identifier":[{"use":"temp","system":"urn:oid:2.16.840.1.113883.4.4","value":"21-3259825"}],"active":true,"type":[{"coding":[{"system":"http://terminology.hl7.org/CodeSystem/organization-type","code":"pay","display":"Payer"}]}],"name":"Blue Cross Blue Shield of Texas","telecom":[{"system":"phone","value":"(+1) 972-766-6900"}],"address":[{"use":"billing","type":"postal","line":["P.O. Box 660044"],"city":"Dallas","state":"TX","postalCode":"75266-0044","country":"USA"}]},"request":{"method":"PUT","url":"Organization/45a7c35e-24b4-4661-8a10-1983b07d201f"}},{"resource":{"resourceType":"Condition","id":"f0c9d798-f0db-4df4-a6b8-25bd8a27021e","meta":{"profile":["http://hl7.org/fhir/us/qicore/StructureDefinition/qicore-condition-problems-health-concerns"]},"clinicalStatus":{"coding":[{"system":"http://terminology.hl7.org/CodeSystem/condition-clinical","code":"active"}]},"verificationStatus":{"coding":[{"system":"http://terminology.hl7.org/CodeSystem/condition-ver-status","code":"confirmed"}]},"category":[{"coding":[{"system":"http://terminology.hl7.org/CodeSystem/condition-category","code":"encounter-diagnosis","display":"Encounter Diagnosis"}]}],"code":{"coding":[{"system":"http://snomed.info/sct","version":"2021-09","code":"111297002","display":"Nonparalytic stroke (disorder)","userSelected":true}]},"subject":{"reference":"Patient/bfa4b097-4c27-4046-a036-d97267e94113"},"recordedDate":"2026-10-13T08:00:00Z"},"request":{"method":"PUT","url":"Condition/f0c9d798-f0db-4df4-a6b8-25bd8a27021e"}},{"resource":{"resourceType":"Practitioner","id":"ae92f030-814e-4327-8bb1-a7f0bf1cbaa1","meta":{"profile":["http://hl7.org/fhir/us/qicore/StructureDefinition/qicore-practitioner"]},"identifier":[{"system":"http://hl7.org/fhir/sid/us-npi","value":"9999999896"}],"name":[{"family":"Evil","prefix":["Dr"]}]},"request":{"method":"PUT","url":"Practitioner/ae92f030-814e-4327-8bb1-a7f0bf1cbaa1"}},{"resource":{"resourceType":"Condition","id":"88903ecc-5e61-4582-9a4a-b43d9d4d3799","meta":{"profile":["http://hl7.org/fhir/us/qicore/StructureDefinition/qicore-condition-problems-health-concerns"]},"clinicalStatus":{"coding":[{"system":"http://terminology.hl7.org/CodeSystem/condition-clinical","code":"inactive"}]},"verificationStatus":{"coding":[{"system":"http://terminology.hl7.org/CodeSystem/condition-ver-status","code":"confirmed"}]},"category":[{"coding":[{"system":"http://terminology.hl7.org/CodeSystem/condition-category","code":"encounter-diagnosis","display":"Encounter Diagnosis"}]}],"code":{"coding":[{"system":"http://hl7.org/fhir/sid/icd-10-cm","code":"I48.20"},{"system":"http://hl7.org/fhir/sid/icd-10-cm","code":"I48.0"},{"system":"http://snomed.info/sct","code":"5370000"}]},"subject":{"reference":"Patient/bfa4b097-4c27-4046-a036-d97267e94113"},"onsetDateTime":"2026-10-01T09:01:00Z","abatementDateTime":"2026-10-12T00:15:00.000+00:00"},"request":{"method":"PUT","url":"Condition/88903ecc-5e61-4582-9a4a-b43d9d4d3799"}},{"resource":{"resourceType":"ServiceRequest","id":"03ab0250-1238-44c3-8b83-701e6c9f0037","meta":{"profile":["http://hl7.org/fhir/us/qicore/StructureDefinition/qicore-servicerequest"]},"status":"active","intent":"order","code":{"coding":[{"system":"http://snomed.info/sct","code":"133918004"}]},"subject":{"reference":"Patient/bfa4b097-4c27-4046-a036-d97267e94113"},"authoredOn":"2026-10-01T09:15:00Z"},"request":{"method":"PUT","url":"ServiceRequest/03ab0250-1238-44c3-8b83-701e6c9f0037"}},{"resource":{"resourceType":"Encounter","id":"b8663e32-cf5f-4063-a04f-1be99e78989b","meta":{"profile":["http://hl7.org/fhir/us/qicore/StructureDefinition/qicore-encounter"]},"status":"finished","class":{"system":"http://terminology.hl7.org/CodeSystem/v3-ActCode","code":"IMP","display":"inpatient encounter"},"type":[{"coding":[{"system":"http://snomed.info/sct","code":"32485007"}]}],"subject":{"reference":"Patient/bfa4b097-4c27-4046-a036-d97267e94113"},"period":{"start":"2026-10-01T12:16:00Z","end":"2026-10-12T00:15:00.000+00:00"},"length":{"value":11,"unit":"days"},"reasonReference":[{"reference":"Condition/88903ecc-5e61-4582-9a4a-b43d9d4d3799"}]},"request":{"method":"PUT","url":"Encounter/b8663e32-cf5f-4063-a04f-1be99e78989b"}},{"resource":{"resourceType":"Claim","id":"5ca62962b8484628b8de1ec5","meta":{"profile":["http://hl7.org/fhir/us/qicore/StructureDefinition/qicore-claim"]},"status":"active","type":{"coding":[{"system":"http://terminology.hl7.org/CodeSystem/claim-type","code":"institutional"}]},"use":"claim","patient":{"reference":"Patient/d170a0a8-b5ad-4303-b6df-e304dd5f92ad"},"created":"2026-12-01","provider":{"reference":"Practitioner/ae92f030-814e-4327-8bb1-a7f0bf1cbaa1"},"priority":{"coding":[{"system":"http://terminology.hl7.org/CodeSystem/processpriority","code":"normal"}]},"diagnosis":[{"sequence":1,"diagnosisCodeableConcept":{"coding":[{"system":"http://hl7.org/fhir/sid/icd-10-cm","code":"I63.00"}]},"type":[{"coding":[{"system":"http://terminology.hl7.org/CodeSystem/ex-diagnosistype","code":"principal"}]}]}],"insurance":[{"sequence":1,"focal":true,"coverage":{"reference":"Coverage/5fa041661c76ba66d9959367"}}],"item":[{"sequence":1,"diagnosisSequence":[1],"productOrService":{"coding":[{"system":"http://terminology.hl7.org/CodeSystem/ex-USCLS","code":"99555"}]},"encounter":[{"reference":"Encounter/b8663e32-cf5f-4063-a04f-1be99e78989b"}]}]},"request":{"method":"PUT","url":"Claim/5ca62962b8484628b8de1ec5"}}]}