{"resourceType":"Bundle","id":"tests-4580e833-7432-4f02-8742-8beceaac18e8-bundle","type":"transaction","entry":[{"fullUrl":"Bundle/633c9d020968f8012250fc66","resource":{"resourceType":"Bundle","id":"633c9d020968f8012250fc66","type":"transaction","entry":[{"fullUrl":"https://madie.cms.gov/Patient/4580e833-7432-4f02-8742-8beceaac18e8","resource":{"resourceType":"Patient","id":"4580e833-7432-4f02-8742-8beceaac18e8","meta":{"profile":["http://hl7.org/fhir/us/qicore/StructureDefinition/qicore-patient"]},"text":{"status":"generated","div":"<div xmlns=\"http://www.w3.org/1999/xhtml\"><div class=\"hapiHeaderText\">Anticoag@DC <b>NUMERPASS </b></div><table class=\"hapiPropertyTable\"><tbody><tr><td>Identifier</td><td>52c14de634122f39abfbd9ffaa41bc27</td></tr><tr><td>Date of birth</td><td><span>23 May 1954</span></td></tr></tbody></table></div>"},"extension":[{"url":"http://hl7.org/fhir/us/core/StructureDefinition/us-core-race","extension":[{"url":"ombCategory","valueCoding":{"system":"urn:oid:2.16.840.1.113883.6.238","code":"1002-5","display":"American Indian or Alaska Native","userSelected":true}},{"url":"text","valueString":"American Indian or Alaska Native"}]},{"url":"http://hl7.org/fhir/us/core/StructureDefinition/us-core-ethnicity","extension":[{"url":"ombCategory","valueCoding":{"system":"urn:oid:2.16.840.1.113883.6.238","code":"2135-2","display":"Hispanic or Latino","userSelected":true}},{"url":"text","valueString":"Hispanic or Latino"}]}],"identifier":[{"type":{"coding":[{"system":"http://terminology.hl7.org/CodeSystem/v2-0203","code":"MR"}]},"system":"https://bonnie-fhir.healthit.gov/","value":"633c9d020968f8012250fc66"}],"active":true,"name":[{"use":"usual","family":"NUMERPass","given":["AnticoagatDischDONOTPERForm"]}],"gender":"female","birthDate":"1955-05-23"},"request":{"method":"PUT","url":"Patient/4580e833-7432-4f02-8742-8beceaac18e8"}},{"fullUrl":"https://madie.cms.gov/Encounter/79c29ec6-f8a1-4fa5-905b-c58f17da78d6","resource":{"resourceType":"Encounter","id":"79c29ec6-f8a1-4fa5-905b-c58f17da78d6","meta":{"profile":["http://hl7.org/fhir/us/qicore/StructureDefinition/qicore-encounter"]},"status":"finished","class":{"system":"http://terminology.hl7.org/CodeSystem/v3-ActCode","code":"IMP","display":"inpatient encounter"},"type":[{"coding":[{"system":"http://snomed.info/sct","code":"32485007"}]}],"subject":{"reference":"Patient/4580e833-7432-4f02-8742-8beceaac18e8"},"period":{"start":"2026-11-20T08:00:00Z","end":"2026-11-24T08:15:00.000+00:00"},"length":{"value":4,"unit":"days"},"reasonReference":[{"reference":"Condition/1df85158-adb5-4e8b-9286-b07bae8fd5f8"}]},"request":{"method":"PUT","url":"Encounter/79c29ec6-f8a1-4fa5-905b-c58f17da78d6"}},{"fullUrl":"https://madie.cms.gov/claim/5ca62962b8484628b8de1ec5","resource":{"resourceType":"Claim","id":"5ca62962b8484628b8de1ec5","meta":{"profile":["http://hl7.org/fhir/us/qicore/StructureDefinition/qicore-claim"]},"status":"active","type":{"coding":[{"system":"http://terminology.hl7.org/CodeSystem/claim-type","code":"institutional"}]},"use":"claim","patient":{"reference":"Patient/d170a0a8-b5ad-4303-b6df-e304dd5f92ad"},"created":"2026-12-01","provider":{"reference":"Practitioner/086430b3-71a3-4103-8393-f3fd841cb749"},"priority":{"coding":[{"system":"http://terminology.hl7.org/CodeSystem/processpriority","code":"normal"}]},"diagnosis":[{"sequence":1,"diagnosisCodeableConcept":{"coding":[{"system":"http://hl7.org/fhir/sid/icd-10-cm","code":"I63.00"}]},"type":[{"coding":[{"system":"http://terminology.hl7.org/CodeSystem/ex-diagnosistype","code":"principal"}]}]}],"insurance":[{"sequence":1,"focal":true,"coverage":{"reference":"Coverage/5fa041661c76ba66d9959367"}}],"item":[{"sequence":1,"diagnosisSequence":[1],"productOrService":{"coding":[{"system":"http://terminology.hl7.org/CodeSystem/ex-USCLS","code":"99555"}]},"encounter":[{"reference":"Encounter/79c29ec6-f8a1-4fa5-905b-c58f17da78d6"}]}]},"request":{"method":"PUT","url":"Claim/5ca62962b8484628b8de1ec5"}},{"fullUrl":"https://madie.cms.gov/MedicationRequest/cbd0bde2-fae0-4579-bb4f-df42f59f45b8","resource":{"resourceType":"MedicationRequest","id":"cbd0bde2-fae0-4579-bb4f-df42f59f45b8","meta":{"profile":["http://hl7.org/fhir/us/qicore/StructureDefinition/qicore-medicationrequest"]},"status":"completed","intent":"order","category":[{"coding":[{"system":"http://terminology.hl7.org/CodeSystem/medicationrequest-category","code":"community","display":"Community","userSelected":true}]}],"doNotPerform":false,"medicationCodeableConcept":{"coding":[{"system":"http://www.nlm.nih.gov/research/umls/rxnorm","version":"2022-01","code":"308351","display":"2.5 ML argatroban 100 MG/ML Injection","userSelected":true}]},"subject":{"reference":"Patient/4580e833-7432-4f02-8742-8beceaac18e8"},"authoredOn":"2026-11-24T08:00:00Z","requester":{"reference":"Practitioner/example"}},"request":{"method":"PUT","url":"MedicationRequest/cbd0bde2-fae0-4579-bb4f-df42f59f45b8"}},{"fullUrl":"https://madie.cms.gov/Coverage/08a15974-1bef-4eed-9153-d2c43bbc7258","resource":{"resourceType":"Coverage","id":"08a15974-1bef-4eed-9153-d2c43bbc7258","meta":{"profile":["http://hl7.org/fhir/us/qicore/StructureDefinition/qicore-coverage"]},"status":"active","subscriberId":"523435","beneficiary":{"reference":"Patient/162a5913-9989-42f2-8d6a-ae460e245e4c"},"relationship":{"coding":[{"system":"http://terminology.hl7.org/CodeSystem/subscriber-relationship","code":"self"}]},"payor":[{"reference":"Organization/0396b9e4-d0c4-4f34-b54d-91bf3fa159ad"}]},"request":{"method":"PUT","url":"Coverage/08a15974-1bef-4eed-9153-d2c43bbc7258"}},{"fullUrl":"https://madie.cms.gov/Procedure/b16e2f2b-ee40-45fd-9ad9-2a9fe6523dcb","resource":{"resourceType":"Procedure","id":"b16e2f2b-ee40-45fd-9ad9-2a9fe6523dcb","meta":{"profile":["http://hl7.org/fhir/us/qicore/StructureDefinition/qicore-procedure"]},"extension":[{"url":"http://hl7.org/fhir/us/qicore/StructureDefinition/qicore-recorded","valueDateTime":"2026-11-19T13:35:00Z"}],"status":"completed","code":{"coding":[{"system":"http://www.cms.gov/Medicare/Coding/ICD10","code":"02560ZZ"},{"system":"http://snomed.info/sct","code":"175095005"}]},"subject":{"reference":"Patient/4580e833-7432-4f02-8742-8beceaac18e8"},"performedPeriod":{"start":"2026-11-20T06:00:00Z","end":"2026-11-20T07:15:00.000+00:00"}},"request":{"method":"PUT","url":"Procedure/b16e2f2b-ee40-45fd-9ad9-2a9fe6523dcb"}},{"fullUrl":"https://madie.cms.gov/Condition/1df85158-adb5-4e8b-9286-b07bae8fd5f8","resource":{"resourceType":"Condition","id":"1df85158-adb5-4e8b-9286-b07bae8fd5f8","meta":{"profile":["http://hl7.org/fhir/us/qicore/StructureDefinition/qicore-condition-problems-health-concerns"]},"clinicalStatus":{"coding":[{"system":"http://terminology.hl7.org/CodeSystem/condition-clinical","code":"active"}]},"verificationStatus":{"coding":[{"system":"http://terminology.hl7.org/CodeSystem/condition-ver-status","code":"confirmed"}]},"category":[{"coding":[{"system":"http://terminology.hl7.org/CodeSystem/condition-category","code":"encounter-diagnosis","display":"Encounter Diagnosis"}]}],"code":{"coding":[{"system":"http://snomed.info/sct","version":"2021-09","code":"111297002","display":"Nonparalytic stroke (disorder)","userSelected":true}]},"subject":{"reference":"Patient/4580e833-7432-4f02-8742-8beceaac18e8"},"recordedDate":"2026-10-13T08:00:00Z"},"request":{"method":"PUT","url":"Condition/1df85158-adb5-4e8b-9286-b07bae8fd5f8"}},{"fullUrl":"https://madie.cms.gov/Organization/0396b9e4-d0c4-4f34-b54d-91bf3fa159ad","resource":{"resourceType":"Organization","id":"0396b9e4-d0c4-4f34-b54d-91bf3fa159ad","meta":{"profile":["http://hl7.org/fhir/us/qicore/StructureDefinition/qicore-organization"]},"identifier":[{"use":"temp","system":"urn:oid:2.16.840.1.113883.4.4","value":"21-3259825"}],"active":true,"type":[{"coding":[{"system":"http://terminology.hl7.org/CodeSystem/organization-type","code":"pay","display":"Payer"}]}],"name":"Blue Cross Blue Shield of Texas","telecom":[{"system":"phone","value":"(+1) 972-766-6900"}],"address":[{"use":"billing","type":"postal","line":["P.O. Box 660044"],"city":"Dallas","state":"TX","postalCode":"75266-0044","country":"USA"}]},"request":{"method":"PUT","url":"Organization/0396b9e4-d0c4-4f34-b54d-91bf3fa159ad"}},{"fullUrl":"https://madie.cms.gov/Practitioner/086430b3-71a3-4103-8393-f3fd841cb749","resource":{"resourceType":"Practitioner","id":"086430b3-71a3-4103-8393-f3fd841cb749","meta":{"profile":["http://hl7.org/fhir/us/qicore/StructureDefinition/qicore-practitioner"]},"identifier":[{"system":"http://hl7.org/fhir/sid/us-npi","value":"9999999896"}],"name":[{"family":"Evil","prefix":["Dr"]}]},"request":{"method":"PUT","url":"Practitioner/086430b3-71a3-4103-8393-f3fd841cb749"}},{"fullUrl":"https://madie.cms.gov/MeasureReport/680eb030-e0a0-46b9-98ea-fd6001139fb4","resource":{"resourceType":"MeasureReport","id":"680eb030-e0a0-46b9-98ea-fd6001139fb4","meta":{"profile":["http://hl7.org/fhir/us/cqfmeasures/StructureDefinition/test-case-cqfm"]},"contained":[{"resourceType":"Parameters","id":"06813212-8a4d-4dbf-a857-c7a24bff5c0a-parameters","parameter":[{"name":"subject","valueString":"4580e833-7432-4f02-8742-8beceaac18e8"}]}],"extension":[{"url":"http://hl7.org/fhir/StructureDefinition/cqf-inputParameters","valueReference":{"reference":"#06813212-8a4d-4dbf-a857-c7a24bff5c0a-parameters"}},{"url":"http://hl7.org/fhir/us/cqfmeasures/StructureDefinition/cqfm-testCaseDescription","valueMarkdown":"Testing anticoag do not perform for coverage=False"}],"modifierExtension":[{"url":"http://hl7.org/fhir/us/cqfmeasures/StructureDefinition/cqfm-isTestCase","valueBoolean":true}],"status":"complete","type":"individual","measure":"https://madie.cms.gov/Measure/CMS71FHIRSTKAnticoagAFFlutter","period":{"start":"2026-01-01","end":"2026-12-31"},"group":[{"id":"Group_1","population":[{"id":"InitialPopulation_1","code":{"coding":[{"system":"http://terminology.hl7.org/CodeSystem/measure-population","code":"initial-population","display":"Initial Population"}]},"count":1},{"id":"Denominator_1","code":{"coding":[{"system":"http://terminology.hl7.org/CodeSystem/measure-population","code":"denominator","display":"Denominator"}]},"count":1},{"id":"DenominatorExclusion_1","code":{"coding":[{"system":"http://terminology.hl7.org/CodeSystem/measure-population","code":"denominator-exclusion","display":"Denominator Exclusion"}]},"count":0},{"id":"Numerator_1","code":{"coding":[{"system":"http://terminology.hl7.org/CodeSystem/measure-population","code":"numerator","display":"Numerator"}]},"count":1},{"id":"DenominatorException_1","code":{"coding":[{"system":"http://terminology.hl7.org/CodeSystem/measure-population","code":"denominator-exception","display":"Denominator Exception"}]},"count":0}],"measureScore":{"value":0.0}}],"evaluatedResource":[{"reference":"Patient/4580e833-7432-4f02-8742-8beceaac18e8"},{"reference":"Encounter/79c29ec6-f8a1-4fa5-905b-c58f17da78d6"},{"reference":"Claim/5ca62962b8484628b8de1ec5"},{"reference":"MedicationRequest/cbd0bde2-fae0-4579-bb4f-df42f59f45b8"},{"reference":"Coverage/08a15974-1bef-4eed-9153-d2c43bbc7258"},{"reference":"Procedure/b16e2f2b-ee40-45fd-9ad9-2a9fe6523dcb"},{"reference":"Condition/1df85158-adb5-4e8b-9286-b07bae8fd5f8"},{"reference":"Organization/0396b9e4-d0c4-4f34-b54d-91bf3fa159ad"},{"reference":"Practitioner/086430b3-71a3-4103-8393-f3fd841cb749"}]},"request":{"method":"PUT","url":"MeasureReport/680eb030-e0a0-46b9-98ea-fd6001139fb4"}}]},"request":{"method":"PUT","url":"Bundle/633c9d020968f8012250fc66"}},{"fullUrl":"Practitioner/086430b3-71a3-4103-8393-f3fd841cb749","resource":{"resourceType":"Practitioner","id":"086430b3-71a3-4103-8393-f3fd841cb749","meta":{"profile":["http://hl7.org/fhir/us/qicore/StructureDefinition/qicore-practitioner"]},"identifier":[{"system":"http://hl7.org/fhir/sid/us-npi","value":"9999999896"}],"name":[{"family":"Evil","prefix":["Dr"]}]},"request":{"method":"PUT","url":"Practitioner/086430b3-71a3-4103-8393-f3fd841cb749"}},{"fullUrl":"MeasureReport/680eb030-e0a0-46b9-98ea-fd6001139fb4","resource":{"resourceType":"MeasureReport","id":"680eb030-e0a0-46b9-98ea-fd6001139fb4","meta":{"profile":["http://hl7.org/fhir/us/cqfmeasures/StructureDefinition/test-case-cqfm"]},"contained":[{"resourceType":"Parameters","id":"06813212-8a4d-4dbf-a857-c7a24bff5c0a-parameters","parameter":[{"name":"subject","valueString":"4580e833-7432-4f02-8742-8beceaac18e8"}]}],"extension":[{"url":"http://hl7.org/fhir/StructureDefinition/cqf-inputParameters","valueReference":{"reference":"#06813212-8a4d-4dbf-a857-c7a24bff5c0a-parameters"}},{"url":"http://hl7.org/fhir/us/cqfmeasures/StructureDefinition/cqfm-testCaseDescription","valueMarkdown":"Testing anticoag do not perform for coverage=False"}],"modifierExtension":[{"url":"http://hl7.org/fhir/us/cqfmeasures/StructureDefinition/cqfm-isTestCase","valueBoolean":true}],"status":"complete","type":"individual","measure":"https://madie.cms.gov/Measure/CMS71FHIRSTKAnticoagAFFlutter","period":{"start":"2026-01-01","end":"2026-12-31"},"group":[{"id":"Group_1","population":[{"id":"InitialPopulation_1","code":{"coding":[{"system":"http://terminology.hl7.org/CodeSystem/measure-population","code":"initial-population","display":"Initial Population"}]},"count":1},{"id":"Denominator_1","code":{"coding":[{"system":"http://terminology.hl7.org/CodeSystem/measure-population","code":"denominator","display":"Denominator"}]},"count":1},{"id":"DenominatorExclusion_1","code":{"coding":[{"system":"http://terminology.hl7.org/CodeSystem/measure-population","code":"denominator-exclusion","display":"Denominator Exclusion"}]},"count":0},{"id":"Numerator_1","code":{"coding":[{"system":"http://terminology.hl7.org/CodeSystem/measure-population","code":"numerator","display":"Numerator"}]},"count":1},{"id":"DenominatorException_1","code":{"coding":[{"system":"http://terminology.hl7.org/CodeSystem/measure-population","code":"denominator-exception","display":"Denominator Exception"}]},"count":0}],"measureScore":{"value":0.0}}],"evaluatedResource":[{"reference":"Patient/4580e833-7432-4f02-8742-8beceaac18e8"},{"reference":"Encounter/79c29ec6-f8a1-4fa5-905b-c58f17da78d6"},{"reference":"Claim/5ca62962b8484628b8de1ec5"},{"reference":"MedicationRequest/cbd0bde2-fae0-4579-bb4f-df42f59f45b8"},{"reference":"Coverage/08a15974-1bef-4eed-9153-d2c43bbc7258"},{"reference":"Procedure/b16e2f2b-ee40-45fd-9ad9-2a9fe6523dcb"},{"reference":"Condition/1df85158-adb5-4e8b-9286-b07bae8fd5f8"},{"reference":"Organization/0396b9e4-d0c4-4f34-b54d-91bf3fa159ad"},{"reference":"Practitioner/086430b3-71a3-4103-8393-f3fd841cb749"}]},"request":{"method":"PUT","url":"MeasureReport/680eb030-e0a0-46b9-98ea-fd6001139fb4"}},{"fullUrl":"Encounter/79c29ec6-f8a1-4fa5-905b-c58f17da78d6","resource":{"resourceType":"Encounter","id":"79c29ec6-f8a1-4fa5-905b-c58f17da78d6","meta":{"profile":["http://hl7.org/fhir/us/qicore/StructureDefinition/qicore-encounter"]},"status":"finished","class":{"system":"http://terminology.hl7.org/CodeSystem/v3-ActCode","code":"IMP","display":"inpatient encounter"},"type":[{"coding":[{"system":"http://snomed.info/sct","code":"32485007"}]}],"subject":{"reference":"Patient/4580e833-7432-4f02-8742-8beceaac18e8"},"period":{"start":"2026-11-20T08:00:00Z","end":"2026-11-24T08:15:00.000+00:00"},"length":{"value":4,"unit":"days"},"reasonReference":[{"reference":"Condition/1df85158-adb5-4e8b-9286-b07bae8fd5f8"}]},"request":{"method":"PUT","url":"Encounter/79c29ec6-f8a1-4fa5-905b-c58f17da78d6"}},{"fullUrl":"Coverage/08a15974-1bef-4eed-9153-d2c43bbc7258","resource":{"resourceType":"Coverage","id":"08a15974-1bef-4eed-9153-d2c43bbc7258","meta":{"profile":["http://hl7.org/fhir/us/qicore/StructureDefinition/qicore-coverage"]},"status":"active","subscriberId":"523435","beneficiary":{"reference":"Patient/162a5913-9989-42f2-8d6a-ae460e245e4c"},"relationship":{"coding":[{"system":"http://terminology.hl7.org/CodeSystem/subscriber-relationship","code":"self"}]},"payor":[{"reference":"Organization/0396b9e4-d0c4-4f34-b54d-91bf3fa159ad"}]},"request":{"method":"PUT","url":"Coverage/08a15974-1bef-4eed-9153-d2c43bbc7258"}},{"fullUrl":"Organization/0396b9e4-d0c4-4f34-b54d-91bf3fa159ad","resource":{"resourceType":"Organization","id":"0396b9e4-d0c4-4f34-b54d-91bf3fa159ad","meta":{"profile":["http://hl7.org/fhir/us/qicore/StructureDefinition/qicore-organization"]},"identifier":[{"use":"temp","system":"urn:oid:2.16.840.1.113883.4.4","value":"21-3259825"}],"active":true,"type":[{"coding":[{"system":"http://terminology.hl7.org/CodeSystem/organization-type","code":"pay","display":"Payer"}]}],"name":"Blue Cross Blue Shield of Texas","telecom":[{"system":"phone","value":"(+1) 972-766-6900"}],"address":[{"use":"billing","type":"postal","line":["P.O. Box 660044"],"city":"Dallas","state":"TX","postalCode":"75266-0044","country":"USA"}]},"request":{"method":"PUT","url":"Organization/0396b9e4-d0c4-4f34-b54d-91bf3fa159ad"}},{"fullUrl":"Condition/1df85158-adb5-4e8b-9286-b07bae8fd5f8","resource":{"resourceType":"Condition","id":"1df85158-adb5-4e8b-9286-b07bae8fd5f8","meta":{"profile":["http://hl7.org/fhir/us/qicore/StructureDefinition/qicore-condition-problems-health-concerns"]},"clinicalStatus":{"coding":[{"system":"http://terminology.hl7.org/CodeSystem/condition-clinical","code":"active"}]},"verificationStatus":{"coding":[{"system":"http://terminology.hl7.org/CodeSystem/condition-ver-status","code":"confirmed"}]},"category":[{"coding":[{"system":"http://terminology.hl7.org/CodeSystem/condition-category","code":"encounter-diagnosis","display":"Encounter Diagnosis"}]}],"code":{"coding":[{"system":"http://snomed.info/sct","version":"2021-09","code":"111297002","display":"Nonparalytic stroke (disorder)","userSelected":true}]},"subject":{"reference":"Patient/4580e833-7432-4f02-8742-8beceaac18e8"},"recordedDate":"2026-10-13T08:00:00Z"},"request":{"method":"PUT","url":"Condition/1df85158-adb5-4e8b-9286-b07bae8fd5f8"}},{"fullUrl":"MedicationRequest/cbd0bde2-fae0-4579-bb4f-df42f59f45b8","resource":{"resourceType":"MedicationRequest","id":"cbd0bde2-fae0-4579-bb4f-df42f59f45b8","meta":{"profile":["http://hl7.org/fhir/us/qicore/StructureDefinition/qicore-medicationrequest"]},"status":"completed","intent":"order","category":[{"coding":[{"system":"http://terminology.hl7.org/CodeSystem/medicationrequest-category","code":"community","display":"Community","userSelected":true}]}],"doNotPerform":false,"medicationCodeableConcept":{"coding":[{"system":"http://www.nlm.nih.gov/research/umls/rxnorm","version":"2022-01","code":"308351","display":"2.5 ML argatroban 100 MG/ML Injection","userSelected":true}]},"subject":{"reference":"Patient/4580e833-7432-4f02-8742-8beceaac18e8"},"authoredOn":"2026-11-24T08:00:00Z","requester":{"reference":"Practitioner/example"}},"request":{"method":"PUT","url":"MedicationRequest/cbd0bde2-fae0-4579-bb4f-df42f59f45b8"}},{"fullUrl":"Procedure/b16e2f2b-ee40-45fd-9ad9-2a9fe6523dcb","resource":{"resourceType":"Procedure","id":"b16e2f2b-ee40-45fd-9ad9-2a9fe6523dcb","meta":{"profile":["http://hl7.org/fhir/us/qicore/StructureDefinition/qicore-procedure"]},"extension":[{"url":"http://hl7.org/fhir/us/qicore/StructureDefinition/qicore-recorded","valueDateTime":"2026-11-19T13:35:00Z"}],"status":"completed","code":{"coding":[{"system":"http://www.cms.gov/Medicare/Coding/ICD10","code":"02560ZZ"},{"system":"http://snomed.info/sct","code":"175095005"}]},"subject":{"reference":"Patient/4580e833-7432-4f02-8742-8beceaac18e8"},"performedPeriod":{"start":"2026-11-20T06:00:00Z","end":"2026-11-20T07:15:00.000+00:00"}},"request":{"method":"PUT","url":"Procedure/b16e2f2b-ee40-45fd-9ad9-2a9fe6523dcb"}},{"fullUrl":"Patient/4580e833-7432-4f02-8742-8beceaac18e8","resource":{"resourceType":"Patient","id":"4580e833-7432-4f02-8742-8beceaac18e8","meta":{"profile":["http://hl7.org/fhir/us/qicore/StructureDefinition/qicore-patient"]},"text":{"status":"generated","div":"<div xmlns=\"http://www.w3.org/1999/xhtml\"><div class=\"hapiHeaderText\">Anticoag@DC <b>NUMERPASS </b></div><table class=\"hapiPropertyTable\"><tbody><tr><td>Identifier</td><td>52c14de634122f39abfbd9ffaa41bc27</td></tr><tr><td>Date of birth</td><td><span>23 May 1954</span></td></tr></tbody></table></div>"},"extension":[{"url":"http://hl7.org/fhir/us/core/StructureDefinition/us-core-race","extension":[{"url":"ombCategory","valueCoding":{"system":"urn:oid:2.16.840.1.113883.6.238","code":"1002-5","display":"American Indian or Alaska Native","userSelected":true}},{"url":"text","valueString":"American Indian or Alaska Native"}]},{"url":"http://hl7.org/fhir/us/core/StructureDefinition/us-core-ethnicity","extension":[{"url":"ombCategory","valueCoding":{"system":"urn:oid:2.16.840.1.113883.6.238","code":"2135-2","display":"Hispanic or Latino","userSelected":true}},{"url":"text","valueString":"Hispanic or Latino"}]}],"identifier":[{"type":{"coding":[{"system":"http://terminology.hl7.org/CodeSystem/v2-0203","code":"MR"}]},"system":"https://bonnie-fhir.healthit.gov/","value":"633c9d020968f8012250fc66"}],"active":true,"name":[{"use":"usual","family":"NUMERPass","given":["AnticoagatDischDONOTPERForm"]}],"gender":"female","birthDate":"1955-05-23"},"request":{"method":"PUT","url":"Patient/4580e833-7432-4f02-8742-8beceaac18e8"}},{"fullUrl":"Claim/5ca62962b8484628b8de1ec5","resource":{"resourceType":"Claim","id":"5ca62962b8484628b8de1ec5","meta":{"profile":["http://hl7.org/fhir/us/qicore/StructureDefinition/qicore-claim"]},"status":"active","type":{"coding":[{"system":"http://terminology.hl7.org/CodeSystem/claim-type","code":"institutional"}]},"use":"claim","patient":{"reference":"Patient/d170a0a8-b5ad-4303-b6df-e304dd5f92ad"},"created":"2026-12-01","provider":{"reference":"Practitioner/086430b3-71a3-4103-8393-f3fd841cb749"},"priority":{"coding":[{"system":"http://terminology.hl7.org/CodeSystem/processpriority","code":"normal"}]},"diagnosis":[{"sequence":1,"diagnosisCodeableConcept":{"coding":[{"system":"http://hl7.org/fhir/sid/icd-10-cm","code":"I63.00"}]},"type":[{"coding":[{"system":"http://terminology.hl7.org/CodeSystem/ex-diagnosistype","code":"principal"}]}]}],"insurance":[{"sequence":1,"focal":true,"coverage":{"reference":"Coverage/5fa041661c76ba66d9959367"}}],"item":[{"sequence":1,"diagnosisSequence":[1],"productOrService":{"coding":[{"system":"http://terminology.hl7.org/CodeSystem/ex-USCLS","code":"99555"}]},"encounter":[{"reference":"Encounter/79c29ec6-f8a1-4fa5-905b-c58f17da78d6"}]}]},"request":{"method":"PUT","url":"Claim/5ca62962b8484628b8de1ec5"}}]}