{"resourceType":"Bundle","id":"tests-29fd4e9e-7f7c-4356-8d72-7eabc8060963-bundle","type":"transaction","entry":[{"fullUrl":"Encounter/0cceb65d-fc12-409f-95ae-85ea0fe0add9","resource":{"resourceType":"Encounter","id":"0cceb65d-fc12-409f-95ae-85ea0fe0add9","meta":{"profile":["http://hl7.org/fhir/us/qicore/StructureDefinition/qicore-encounter"]},"status":"finished","class":{"system":"http://terminology.hl7.org/CodeSystem/v3-ActCode","code":"IMP","display":"inpatient encounter"},"type":[{"coding":[{"system":"http://snomed.info/sct","code":"183452005"}]}],"subject":{"reference":"Patient/29fd4e9e-7f7c-4356-8d72-7eabc8060963"},"period":{"start":"2026-02-08T08:00:00Z","end":"2026-02-10T08:15:00.000+00:00"},"length":{"value":2,"unit":"days"},"reasonReference":[{"reference":"Condition/dcb3abcd-2034-4bb4-aec2-bd56f2de2203"}]},"request":{"method":"PUT","url":"Encounter/0cceb65d-fc12-409f-95ae-85ea0fe0add9"}},{"fullUrl":"Organization/38d448fe-d53a-4ced-8df2-c514a2ebae88","resource":{"resourceType":"Organization","id":"38d448fe-d53a-4ced-8df2-c514a2ebae88","meta":{"profile":["http://hl7.org/fhir/us/qicore/StructureDefinition/qicore-organization"]},"identifier":[{"use":"temp","system":"urn:oid:2.16.840.1.113883.4.4","value":"21-3259825"}],"active":true,"type":[{"coding":[{"system":"http://terminology.hl7.org/CodeSystem/organization-type","code":"pay","display":"Payer"}]}],"name":"Blue Cross Blue Shield of Texas","telecom":[{"system":"phone","value":"(+1) 972-766-6900"}],"address":[{"use":"billing","type":"postal","line":["P.O. Box 660044"],"city":"Dallas","state":"TX","postalCode":"75266-0044","country":"USA"}]},"request":{"method":"PUT","url":"Organization/38d448fe-d53a-4ced-8df2-c514a2ebae88"}},{"fullUrl":"Bundle/633c9d030968f8012250fc9a","resource":{"resourceType":"Bundle","id":"633c9d030968f8012250fc9a","type":"transaction","entry":[{"fullUrl":"https://madie.cms.gov/Patient/29fd4e9e-7f7c-4356-8d72-7eabc8060963","resource":{"resourceType":"Patient","id":"29fd4e9e-7f7c-4356-8d72-7eabc8060963","meta":{"profile":["http://hl7.org/fhir/us/qicore/StructureDefinition/qicore-patient"]},"text":{"status":"generated","div":"<div xmlns=\"http://www.w3.org/1999/xhtml\"><div class=\"hapiHeaderText\">Dx=Afib/flutterStart&gt;EncEnd <b>DENOMFAIL </b></div><table class=\"hapiPropertyTable\"><tbody><tr><td>Identifier</td><td>6b7cd5f3b5c915e66087549c0e58b13c</td></tr><tr><td>Date of birth</td><td><span>01 December 1960</span></td></tr></tbody></table></div>"},"extension":[{"url":"http://hl7.org/fhir/us/core/StructureDefinition/us-core-race","extension":[{"url":"ombCategory","valueCoding":{"system":"urn:oid:2.16.840.1.113883.6.238","code":"1002-5","display":"American Indian or Alaska Native","userSelected":true}},{"url":"text","valueString":"American Indian or Alaska Native"}]},{"url":"http://hl7.org/fhir/us/core/StructureDefinition/us-core-ethnicity","extension":[{"url":"ombCategory","valueCoding":{"system":"urn:oid:2.16.840.1.113883.6.238","code":"2135-2","display":"Hispanic or Latino","userSelected":true}},{"url":"text","valueString":"Hispanic or Latino"}]}],"identifier":[{"type":{"coding":[{"system":"http://terminology.hl7.org/CodeSystem/v2-0203","code":"MR"}]},"system":"https://bonnie-fhir.healthit.gov/","value":"633c9d030968f8012250fc9a"}],"active":true,"name":[{"use":"usual","family":"DENOMFail","given":["Dx=Afib/flutterStart>EncEnd"]}],"gender":"male","birthDate":"1961-12-01"},"request":{"method":"PUT","url":"Patient/29fd4e9e-7f7c-4356-8d72-7eabc8060963"}},{"fullUrl":"https://madie.cms.gov/Condition/55f8ad8d-3b5a-421c-8ed7-439f2f80b27d","resource":{"resourceType":"Condition","id":"55f8ad8d-3b5a-421c-8ed7-439f2f80b27d","meta":{"profile":["http://hl7.org/fhir/us/qicore/StructureDefinition/qicore-condition-problems-health-concerns"]},"clinicalStatus":{"coding":[{"system":"http://terminology.hl7.org/CodeSystem/condition-clinical","code":"inactive"}]},"verificationStatus":{"coding":[{"system":"http://terminology.hl7.org/CodeSystem/condition-ver-status","code":"confirmed"}]},"category":[{"coding":[{"system":"http://terminology.hl7.org/CodeSystem/condition-category","code":"encounter-diagnosis","display":"Encounter Diagnosis"}]}],"code":{"coding":[{"system":"http://snomed.info/sct","code":"195080001"},{"system":"http://hl7.org/fhir/sid/icd-9-cm","code":"427.31"},{"system":"http://hl7.org/fhir/sid/icd-10-cm","code":"I48.0"}]},"subject":{"reference":"Patient/29fd4e9e-7f7c-4356-8d72-7eabc8060963"},"encounter":{"reference":"Encounter/0cceb65d-fc12-409f-95ae-85ea0fe0add9"},"onsetDateTime":"2026-02-11T08:15:00Z","abatementDateTime":"2026-02-11T08:15:00.000+00:00"},"request":{"method":"PUT","url":"Condition/55f8ad8d-3b5a-421c-8ed7-439f2f80b27d"}},{"fullUrl":"https://madie.cms.gov/Encounter/0cceb65d-fc12-409f-95ae-85ea0fe0add9","resource":{"resourceType":"Encounter","id":"0cceb65d-fc12-409f-95ae-85ea0fe0add9","meta":{"profile":["http://hl7.org/fhir/us/qicore/StructureDefinition/qicore-encounter"]},"status":"finished","class":{"system":"http://terminology.hl7.org/CodeSystem/v3-ActCode","code":"IMP","display":"inpatient encounter"},"type":[{"coding":[{"system":"http://snomed.info/sct","code":"183452005"}]}],"subject":{"reference":"Patient/29fd4e9e-7f7c-4356-8d72-7eabc8060963"},"period":{"start":"2026-02-08T08:00:00Z","end":"2026-02-10T08:15:00.000+00:00"},"length":{"value":2,"unit":"days"},"reasonReference":[{"reference":"Condition/dcb3abcd-2034-4bb4-aec2-bd56f2de2203"}]},"request":{"method":"PUT","url":"Encounter/0cceb65d-fc12-409f-95ae-85ea0fe0add9"}},{"fullUrl":"https://madie.cms.gov/Coverage/8133c0fc-d24a-4324-8ac3-f8e937cdd2f4","resource":{"resourceType":"Coverage","id":"8133c0fc-d24a-4324-8ac3-f8e937cdd2f4","status":"active","subscriberId":"523435","beneficiary":{"reference":"Patient/29fd4e9e-7f7c-4356-8d72-7eabc8060963"},"relationship":{"coding":[{"system":"http://terminology.hl7.org/CodeSystem/subscriber-relationship","code":"self"}]},"period":{"start":"1961-12-01T08:00:00Z"},"payor":[{"reference":"Organization/38d448fe-d53a-4ced-8df2-c514a2ebae88"}]},"request":{"method":"PUT","url":"Coverage/8133c0fc-d24a-4324-8ac3-f8e937cdd2f4"}},{"fullUrl":"https://madie.cms.gov/Condition/dcb3abcd-2034-4bb4-aec2-bd56f2de2203","resource":{"resourceType":"Condition","id":"dcb3abcd-2034-4bb4-aec2-bd56f2de2203","meta":{"profile":["http://hl7.org/fhir/us/qicore/StructureDefinition/qicore-condition-problems-health-concerns"]},"clinicalStatus":{"coding":[{"system":"http://terminology.hl7.org/CodeSystem/condition-clinical","code":"active"}]},"verificationStatus":{"coding":[{"system":"http://terminology.hl7.org/CodeSystem/condition-ver-status","code":"confirmed"}]},"category":[{"coding":[{"system":"http://terminology.hl7.org/CodeSystem/condition-category","code":"encounter-diagnosis","display":"Encounter Diagnosis"}]}],"code":{"coding":[{"system":"http://snomed.info/sct","version":"2021-09","code":"111297002","display":"Nonparalytic stroke (disorder)","userSelected":true}]},"subject":{"reference":"Patient/29fd4e9e-7f7c-4356-8d72-7eabc8060963"},"recordedDate":"2026-10-13T08:00:00Z"},"request":{"method":"PUT","url":"Condition/dcb3abcd-2034-4bb4-aec2-bd56f2de2203"}},{"fullUrl":"https://madie.cms.gov/claim/5ca62962b8484628b8de1ec5","resource":{"resourceType":"Claim","id":"5ca62962b8484628b8de1ec5","meta":{"profile":["http://hl7.org/fhir/us/qicore/StructureDefinition/qicore-claim"]},"status":"active","type":{"coding":[{"system":"http://terminology.hl7.org/CodeSystem/claim-type","code":"institutional"}]},"use":"claim","patient":{"reference":"Patient/d170a0a8-b5ad-4303-b6df-e304dd5f92ad"},"created":"2026-12-01","provider":{"reference":"Practitioner/641ddba3-730e-4af5-be0a-2231276585ed"},"priority":{"coding":[{"system":"http://terminology.hl7.org/CodeSystem/processpriority","code":"normal"}]},"diagnosis":[{"sequence":1,"diagnosisCodeableConcept":{"coding":[{"system":"http://hl7.org/fhir/sid/icd-10-cm","code":"I63.00"}]},"type":[{"coding":[{"system":"http://terminology.hl7.org/CodeSystem/ex-diagnosistype","code":"principal"}]}]}],"insurance":[{"sequence":1,"focal":true,"coverage":{"reference":"Coverage/5fa041661c76ba66d9959367"}}],"item":[{"sequence":1,"diagnosisSequence":[1],"productOrService":{"coding":[{"system":"http://terminology.hl7.org/CodeSystem/ex-USCLS","code":"99555"}]},"encounter":[{"reference":"Encounter/0cceb65d-fc12-409f-95ae-85ea0fe0add9"}]}]},"request":{"method":"PUT","url":"Claim/5ca62962b8484628b8de1ec5"}},{"fullUrl":"https://madie.cms.gov/Organization/38d448fe-d53a-4ced-8df2-c514a2ebae88","resource":{"resourceType":"Organization","id":"38d448fe-d53a-4ced-8df2-c514a2ebae88","meta":{"profile":["http://hl7.org/fhir/us/qicore/StructureDefinition/qicore-organization"]},"identifier":[{"use":"temp","system":"urn:oid:2.16.840.1.113883.4.4","value":"21-3259825"}],"active":true,"type":[{"coding":[{"system":"http://terminology.hl7.org/CodeSystem/organization-type","code":"pay","display":"Payer"}]}],"name":"Blue Cross Blue Shield of Texas","telecom":[{"system":"phone","value":"(+1) 972-766-6900"}],"address":[{"use":"billing","type":"postal","line":["P.O. Box 660044"],"city":"Dallas","state":"TX","postalCode":"75266-0044","country":"USA"}]},"request":{"method":"PUT","url":"Organization/38d448fe-d53a-4ced-8df2-c514a2ebae88"}},{"fullUrl":"https://madie.cms.gov/Practitioner/641ddba3-730e-4af5-be0a-2231276585ed","resource":{"resourceType":"Practitioner","id":"641ddba3-730e-4af5-be0a-2231276585ed","meta":{"profile":["http://hl7.org/fhir/us/qicore/StructureDefinition/qicore-practitioner"]},"identifier":[{"system":"http://hl7.org/fhir/sid/us-npi","value":"9999999896"}],"name":[{"family":"Evil","prefix":["Dr"]}]},"request":{"method":"PUT","url":"Practitioner/641ddba3-730e-4af5-be0a-2231276585ed"}},{"fullUrl":"https://madie.cms.gov/MeasureReport/76c7e88c-2974-4144-874e-d0eaf41759ee","resource":{"resourceType":"MeasureReport","id":"76c7e88c-2974-4144-874e-d0eaf41759ee","meta":{"profile":["http://hl7.org/fhir/us/cqfmeasures/StructureDefinition/test-case-cqfm"]},"contained":[{"resourceType":"Parameters","id":"d779f409-945d-4b82-a0ae-5844d34add6d-parameters","parameter":[{"name":"subject","valueString":"29fd4e9e-7f7c-4356-8d72-7eabc8060963"}]}],"extension":[{"url":"http://hl7.org/fhir/StructureDefinition/cqf-inputParameters","valueReference":{"reference":"#d779f409-945d-4b82-a0ae-5844d34add6d-parameters"}},{"url":"http://hl7.org/fhir/us/cqfmeasures/StructureDefinition/cqfm-testCaseDescription","valueMarkdown":"\"Diagnosis = Afib/flutter start time > encounter end time\nThis case tests the denominator diagnosis criteria (does not meet criteria). \"\n"}],"modifierExtension":[{"url":"http://hl7.org/fhir/us/cqfmeasures/StructureDefinition/cqfm-isTestCase","valueBoolean":true}],"status":"complete","type":"individual","measure":"https://madie.cms.gov/Measure/CMS71FHIRSTKAnticoagAFFlutter","period":{"start":"2026-01-01","end":"2026-12-31"},"group":[{"id":"Group_1","population":[{"id":"InitialPopulation_1","code":{"coding":[{"system":"http://terminology.hl7.org/CodeSystem/measure-population","code":"initial-population","display":"Initial Population"}]},"count":1},{"id":"Denominator_1","code":{"coding":[{"system":"http://terminology.hl7.org/CodeSystem/measure-population","code":"denominator","display":"Denominator"}]},"count":0},{"id":"DenominatorExclusion_1","code":{"coding":[{"system":"http://terminology.hl7.org/CodeSystem/measure-population","code":"denominator-exclusion","display":"Denominator Exclusion"}]},"count":0},{"id":"Numerator_1","code":{"coding":[{"system":"http://terminology.hl7.org/CodeSystem/measure-population","code":"numerator","display":"Numerator"}]},"count":0},{"id":"DenominatorException_1","code":{"coding":[{"system":"http://terminology.hl7.org/CodeSystem/measure-population","code":"denominator-exception","display":"Denominator Exception"}]},"count":0}],"measureScore":{"value":0.0}}],"evaluatedResource":[{"reference":"Patient/29fd4e9e-7f7c-4356-8d72-7eabc8060963"},{"reference":"Condition/55f8ad8d-3b5a-421c-8ed7-439f2f80b27d"},{"reference":"Encounter/0cceb65d-fc12-409f-95ae-85ea0fe0add9"},{"reference":"Coverage/8133c0fc-d24a-4324-8ac3-f8e937cdd2f4"},{"reference":"Condition/dcb3abcd-2034-4bb4-aec2-bd56f2de2203"},{"reference":"Claim/5ca62962b8484628b8de1ec5"},{"reference":"Organization/38d448fe-d53a-4ced-8df2-c514a2ebae88"},{"reference":"Practitioner/641ddba3-730e-4af5-be0a-2231276585ed"}]},"request":{"method":"PUT","url":"MeasureReport/76c7e88c-2974-4144-874e-d0eaf41759ee"}}]},"request":{"method":"PUT","url":"Bundle/633c9d030968f8012250fc9a"}},{"fullUrl":"MeasureReport/76c7e88c-2974-4144-874e-d0eaf41759ee","resource":{"resourceType":"MeasureReport","id":"76c7e88c-2974-4144-874e-d0eaf41759ee","meta":{"profile":["http://hl7.org/fhir/us/cqfmeasures/StructureDefinition/test-case-cqfm"]},"contained":[{"resourceType":"Parameters","id":"d779f409-945d-4b82-a0ae-5844d34add6d-parameters","parameter":[{"name":"subject","valueString":"29fd4e9e-7f7c-4356-8d72-7eabc8060963"}]}],"extension":[{"url":"http://hl7.org/fhir/StructureDefinition/cqf-inputParameters","valueReference":{"reference":"#d779f409-945d-4b82-a0ae-5844d34add6d-parameters"}},{"url":"http://hl7.org/fhir/us/cqfmeasures/StructureDefinition/cqfm-testCaseDescription","valueMarkdown":"\"Diagnosis = Afib/flutter start time > encounter end time\nThis case tests the denominator diagnosis criteria (does not meet criteria). \"\n"}],"modifierExtension":[{"url":"http://hl7.org/fhir/us/cqfmeasures/StructureDefinition/cqfm-isTestCase","valueBoolean":true}],"status":"complete","type":"individual","measure":"https://madie.cms.gov/Measure/CMS71FHIRSTKAnticoagAFFlutter","period":{"start":"2026-01-01","end":"2026-12-31"},"group":[{"id":"Group_1","population":[{"id":"InitialPopulation_1","code":{"coding":[{"system":"http://terminology.hl7.org/CodeSystem/measure-population","code":"initial-population","display":"Initial Population"}]},"count":1},{"id":"Denominator_1","code":{"coding":[{"system":"http://terminology.hl7.org/CodeSystem/measure-population","code":"denominator","display":"Denominator"}]},"count":0},{"id":"DenominatorExclusion_1","code":{"coding":[{"system":"http://terminology.hl7.org/CodeSystem/measure-population","code":"denominator-exclusion","display":"Denominator Exclusion"}]},"count":0},{"id":"Numerator_1","code":{"coding":[{"system":"http://terminology.hl7.org/CodeSystem/measure-population","code":"numerator","display":"Numerator"}]},"count":0},{"id":"DenominatorException_1","code":{"coding":[{"system":"http://terminology.hl7.org/CodeSystem/measure-population","code":"denominator-exception","display":"Denominator Exception"}]},"count":0}],"measureScore":{"value":0.0}}],"evaluatedResource":[{"reference":"Patient/29fd4e9e-7f7c-4356-8d72-7eabc8060963"},{"reference":"Condition/55f8ad8d-3b5a-421c-8ed7-439f2f80b27d"},{"reference":"Encounter/0cceb65d-fc12-409f-95ae-85ea0fe0add9"},{"reference":"Coverage/8133c0fc-d24a-4324-8ac3-f8e937cdd2f4"},{"reference":"Condition/dcb3abcd-2034-4bb4-aec2-bd56f2de2203"},{"reference":"Claim/5ca62962b8484628b8de1ec5"},{"reference":"Organization/38d448fe-d53a-4ced-8df2-c514a2ebae88"},{"reference":"Practitioner/641ddba3-730e-4af5-be0a-2231276585ed"}]},"request":{"method":"PUT","url":"MeasureReport/76c7e88c-2974-4144-874e-d0eaf41759ee"}},{"fullUrl":"Practitioner/641ddba3-730e-4af5-be0a-2231276585ed","resource":{"resourceType":"Practitioner","id":"641ddba3-730e-4af5-be0a-2231276585ed","meta":{"profile":["http://hl7.org/fhir/us/qicore/StructureDefinition/qicore-practitioner"]},"identifier":[{"system":"http://hl7.org/fhir/sid/us-npi","value":"9999999896"}],"name":[{"family":"Evil","prefix":["Dr"]}]},"request":{"method":"PUT","url":"Practitioner/641ddba3-730e-4af5-be0a-2231276585ed"}},{"fullUrl":"Condition/dcb3abcd-2034-4bb4-aec2-bd56f2de2203","resource":{"resourceType":"Condition","id":"dcb3abcd-2034-4bb4-aec2-bd56f2de2203","meta":{"profile":["http://hl7.org/fhir/us/qicore/StructureDefinition/qicore-condition-problems-health-concerns"]},"clinicalStatus":{"coding":[{"system":"http://terminology.hl7.org/CodeSystem/condition-clinical","code":"active"}]},"verificationStatus":{"coding":[{"system":"http://terminology.hl7.org/CodeSystem/condition-ver-status","code":"confirmed"}]},"category":[{"coding":[{"system":"http://terminology.hl7.org/CodeSystem/condition-category","code":"encounter-diagnosis","display":"Encounter Diagnosis"}]}],"code":{"coding":[{"system":"http://snomed.info/sct","version":"2021-09","code":"111297002","display":"Nonparalytic stroke (disorder)","userSelected":true}]},"subject":{"reference":"Patient/29fd4e9e-7f7c-4356-8d72-7eabc8060963"},"recordedDate":"2026-10-13T08:00:00Z"},"request":{"method":"PUT","url":"Condition/dcb3abcd-2034-4bb4-aec2-bd56f2de2203"}},{"fullUrl":"Patient/29fd4e9e-7f7c-4356-8d72-7eabc8060963","resource":{"resourceType":"Patient","id":"29fd4e9e-7f7c-4356-8d72-7eabc8060963","meta":{"profile":["http://hl7.org/fhir/us/qicore/StructureDefinition/qicore-patient"]},"text":{"status":"generated","div":"<div xmlns=\"http://www.w3.org/1999/xhtml\"><div class=\"hapiHeaderText\">Dx=Afib/flutterStart&gt;EncEnd <b>DENOMFAIL </b></div><table class=\"hapiPropertyTable\"><tbody><tr><td>Identifier</td><td>6b7cd5f3b5c915e66087549c0e58b13c</td></tr><tr><td>Date of birth</td><td><span>01 December 1960</span></td></tr></tbody></table></div>"},"extension":[{"url":"http://hl7.org/fhir/us/core/StructureDefinition/us-core-race","extension":[{"url":"ombCategory","valueCoding":{"system":"urn:oid:2.16.840.1.113883.6.238","code":"1002-5","display":"American Indian or Alaska Native","userSelected":true}},{"url":"text","valueString":"American Indian or Alaska Native"}]},{"url":"http://hl7.org/fhir/us/core/StructureDefinition/us-core-ethnicity","extension":[{"url":"ombCategory","valueCoding":{"system":"urn:oid:2.16.840.1.113883.6.238","code":"2135-2","display":"Hispanic or Latino","userSelected":true}},{"url":"text","valueString":"Hispanic or Latino"}]}],"identifier":[{"type":{"coding":[{"system":"http://terminology.hl7.org/CodeSystem/v2-0203","code":"MR"}]},"system":"https://bonnie-fhir.healthit.gov/","value":"633c9d030968f8012250fc9a"}],"active":true,"name":[{"use":"usual","family":"DENOMFail","given":["Dx=Afib/flutterStart>EncEnd"]}],"gender":"male","birthDate":"1961-12-01"},"request":{"method":"PUT","url":"Patient/29fd4e9e-7f7c-4356-8d72-7eabc8060963"}},{"fullUrl":"Coverage/8133c0fc-d24a-4324-8ac3-f8e937cdd2f4","resource":{"resourceType":"Coverage","id":"8133c0fc-d24a-4324-8ac3-f8e937cdd2f4","status":"active","subscriberId":"523435","beneficiary":{"reference":"Patient/29fd4e9e-7f7c-4356-8d72-7eabc8060963"},"relationship":{"coding":[{"system":"http://terminology.hl7.org/CodeSystem/subscriber-relationship","code":"self"}]},"period":{"start":"1961-12-01T08:00:00Z"},"payor":[{"reference":"Organization/38d448fe-d53a-4ced-8df2-c514a2ebae88"}]},"request":{"method":"PUT","url":"Coverage/8133c0fc-d24a-4324-8ac3-f8e937cdd2f4"}},{"fullUrl":"Claim/5ca62962b8484628b8de1ec5","resource":{"resourceType":"Claim","id":"5ca62962b8484628b8de1ec5","meta":{"profile":["http://hl7.org/fhir/us/qicore/StructureDefinition/qicore-claim"]},"status":"active","type":{"coding":[{"system":"http://terminology.hl7.org/CodeSystem/claim-type","code":"institutional"}]},"use":"claim","patient":{"reference":"Patient/d170a0a8-b5ad-4303-b6df-e304dd5f92ad"},"created":"2026-12-01","provider":{"reference":"Practitioner/641ddba3-730e-4af5-be0a-2231276585ed"},"priority":{"coding":[{"system":"http://terminology.hl7.org/CodeSystem/processpriority","code":"normal"}]},"diagnosis":[{"sequence":1,"diagnosisCodeableConcept":{"coding":[{"system":"http://hl7.org/fhir/sid/icd-10-cm","code":"I63.00"}]},"type":[{"coding":[{"system":"http://terminology.hl7.org/CodeSystem/ex-diagnosistype","code":"principal"}]}]}],"insurance":[{"sequence":1,"focal":true,"coverage":{"reference":"Coverage/5fa041661c76ba66d9959367"}}],"item":[{"sequence":1,"diagnosisSequence":[1],"productOrService":{"coding":[{"system":"http://terminology.hl7.org/CodeSystem/ex-USCLS","code":"99555"}]},"encounter":[{"reference":"Encounter/0cceb65d-fc12-409f-95ae-85ea0fe0add9"}]}]},"request":{"method":"PUT","url":"Claim/5ca62962b8484628b8de1ec5"}},{"fullUrl":"Condition/55f8ad8d-3b5a-421c-8ed7-439f2f80b27d","resource":{"resourceType":"Condition","id":"55f8ad8d-3b5a-421c-8ed7-439f2f80b27d","meta":{"profile":["http://hl7.org/fhir/us/qicore/StructureDefinition/qicore-condition-problems-health-concerns"]},"clinicalStatus":{"coding":[{"system":"http://terminology.hl7.org/CodeSystem/condition-clinical","code":"inactive"}]},"verificationStatus":{"coding":[{"system":"http://terminology.hl7.org/CodeSystem/condition-ver-status","code":"confirmed"}]},"category":[{"coding":[{"system":"http://terminology.hl7.org/CodeSystem/condition-category","code":"encounter-diagnosis","display":"Encounter Diagnosis"}]}],"code":{"coding":[{"system":"http://snomed.info/sct","code":"195080001"},{"system":"http://hl7.org/fhir/sid/icd-9-cm","code":"427.31"},{"system":"http://hl7.org/fhir/sid/icd-10-cm","code":"I48.0"}]},"subject":{"reference":"Patient/29fd4e9e-7f7c-4356-8d72-7eabc8060963"},"encounter":{"reference":"Encounter/0cceb65d-fc12-409f-95ae-85ea0fe0add9"},"onsetDateTime":"2026-02-11T08:15:00Z","abatementDateTime":"2026-02-11T08:15:00.000+00:00"},"request":{"method":"PUT","url":"Condition/55f8ad8d-3b5a-421c-8ed7-439f2f80b27d"}}]}