{"resourceType":"Bundle","id":"tests-d5991213-5237-4eb3-a6e9-61404f836d3b-bundle","type":"transaction","entry":[{"resource":{"resourceType":"Organization","id":"0511062d-a0d6-4e66-8583-c7ac20ab6317","meta":{"profile":["http://hl7.org/fhir/us/qicore/StructureDefinition/qicore-organization"]},"identifier":[{"use":"temp","system":"urn:oid:2.16.840.1.113883.4.4","value":"21-3259825"}],"active":true,"type":[{"coding":[{"system":"http://terminology.hl7.org/CodeSystem/organization-type","code":"pay","display":"Payer"}]}],"name":"Blue Cross Blue Shield of Texas","telecom":[{"system":"phone","value":"(+1) 972-766-6900"}],"address":[{"use":"billing","type":"postal","line":["P.O. Box 660044"],"city":"Dallas","state":"TX","postalCode":"75266-0044","country":"USA"}]},"request":{"method":"PUT","url":"Organization/0511062d-a0d6-4e66-8583-c7ac20ab6317"}},{"resource":{"resourceType":"Patient","id":"d5991213-5237-4eb3-a6e9-61404f836d3b","meta":{"profile":["http://hl7.org/fhir/us/qicore/StructureDefinition/qicore-patient"]},"text":{"status":"generated","div":"<div xmlns=\"http://www.w3.org/1999/xhtml\"><div class=\"hapiHeaderText\">EncPrinDx=Afib/Flutter Rank2 <b>IPPFAIL </b></div><table class=\"hapiPropertyTable\"><tbody><tr><td>Identifier</td><td>2038d8a42effee0cae92f8c6fde4ebe8</td></tr><tr><td>Date of birth</td><td><span>01 December 1960</span></td></tr></tbody></table></div>"},"extension":[{"url":"http://hl7.org/fhir/us/core/StructureDefinition/us-core-race","extension":[{"url":"ombCategory","valueCoding":{"system":"urn:oid:2.16.840.1.113883.6.238","code":"1002-5","display":"American Indian or Alaska Native","userSelected":true}},{"url":"text","valueString":"American Indian or Alaska Native"}]},{"url":"http://hl7.org/fhir/us/core/StructureDefinition/us-core-ethnicity","extension":[{"url":"ombCategory","valueCoding":{"system":"urn:oid:2.16.840.1.113883.6.238","code":"2135-2","display":"Hispanic or Latino","userSelected":true}},{"url":"text","valueString":"Hispanic or Latino"}]}],"identifier":[{"type":{"coding":[{"system":"http://terminology.hl7.org/CodeSystem/v2-0203","code":"MR"}]},"system":"https://bonnie-fhir.healthit.gov/","value":"633c9d040968f8012250fcab"}],"active":true,"name":[{"use":"usual","family":"IPPFail ","given":["EncPrinDx=Afib/Flutter Rank2"]}],"gender":"male","birthDate":"1961-12-01"},"request":{"method":"PUT","url":"Patient/d5991213-5237-4eb3-a6e9-61404f836d3b"}},{"resource":{"resourceType":"Practitioner","id":"0afbc65c-8828-4703-8075-93605b3a4599","meta":{"profile":["http://hl7.org/fhir/us/qicore/StructureDefinition/qicore-practitioner"]},"identifier":[{"system":"http://hl7.org/fhir/sid/us-npi","value":"9999999896"}],"name":[{"family":"Evil","prefix":["Dr"]}]},"request":{"method":"PUT","url":"Practitioner/0afbc65c-8828-4703-8075-93605b3a4599"}},{"resource":{"resourceType":"Bundle","id":"633c9d040968f8012250fcab","type":"transaction","entry":[{"fullUrl":"https://madie.cms.gov/Patient/d5991213-5237-4eb3-a6e9-61404f836d3b","resource":{"resourceType":"Patient","id":"d5991213-5237-4eb3-a6e9-61404f836d3b","meta":{"profile":["http://hl7.org/fhir/us/qicore/StructureDefinition/qicore-patient"]},"text":{"status":"generated","div":"<div xmlns=\"http://www.w3.org/1999/xhtml\"><div class=\"hapiHeaderText\">EncPrinDx=Afib/Flutter Rank2 <b>IPPFAIL </b></div><table class=\"hapiPropertyTable\"><tbody><tr><td>Identifier</td><td>2038d8a42effee0cae92f8c6fde4ebe8</td></tr><tr><td>Date of birth</td><td><span>01 December 1960</span></td></tr></tbody></table></div>"},"extension":[{"url":"http://hl7.org/fhir/us/core/StructureDefinition/us-core-race","extension":[{"url":"ombCategory","valueCoding":{"system":"urn:oid:2.16.840.1.113883.6.238","code":"1002-5","display":"American Indian or Alaska Native","userSelected":true}},{"url":"text","valueString":"American Indian or Alaska Native"}]},{"url":"http://hl7.org/fhir/us/core/StructureDefinition/us-core-ethnicity","extension":[{"url":"ombCategory","valueCoding":{"system":"urn:oid:2.16.840.1.113883.6.238","code":"2135-2","display":"Hispanic or Latino","userSelected":true}},{"url":"text","valueString":"Hispanic or Latino"}]}],"identifier":[{"type":{"coding":[{"system":"http://terminology.hl7.org/CodeSystem/v2-0203","code":"MR"}]},"system":"https://bonnie-fhir.healthit.gov/","value":"633c9d040968f8012250fcab"}],"active":true,"name":[{"use":"usual","family":"IPPFail ","given":["EncPrinDx=Afib/Flutter Rank2"]}],"gender":"male","birthDate":"1961-12-01"},"request":{"method":"PUT","url":"Patient/d5991213-5237-4eb3-a6e9-61404f836d3b"}},{"fullUrl":"https://madie.cms.gov/Encounter/f9a876f7-379a-457a-8f17-f20edba0697d","resource":{"resourceType":"Encounter","id":"f9a876f7-379a-457a-8f17-f20edba0697d","meta":{"profile":["http://hl7.org/fhir/us/qicore/StructureDefinition/qicore-encounter"]},"status":"finished","class":{"system":"http://terminology.hl7.org/CodeSystem/v3-ActCode","code":"IMP","display":"inpatient encounter"},"type":[{"coding":[{"system":"http://snomed.info/sct","code":"32485007"}]}],"subject":{"reference":"Patient/d5991213-5237-4eb3-a6e9-61404f836d3b"},"period":{"start":"2026-02-08T08:00:00Z","end":"2026-02-10T08:15:00.000+00:00"},"length":{"value":2,"unit":"days"},"reasonReference":[{"reference":"Condition/0bbc4be0-be92-41a8-bb12-b7741775d7e8"}]},"request":{"method":"PUT","url":"Encounter/f9a876f7-379a-457a-8f17-f20edba0697d"}},{"fullUrl":"https://madie.cms.gov/Coverage/582d4a7a-1229-4284-a752-b6819ec09340","resource":{"resourceType":"Coverage","id":"582d4a7a-1229-4284-a752-b6819ec09340","meta":{"profile":["http://hl7.org/fhir/us/qicore/StructureDefinition/qicore-coverage"]},"status":"active","subscriberId":"523435","beneficiary":{"reference":"Patient/162a5913-9989-42f2-8d6a-ae460e245e4c"},"relationship":{"coding":[{"system":"http://terminology.hl7.org/CodeSystem/subscriber-relationship","code":"self"}]},"payor":[{"reference":"Organization/0511062d-a0d6-4e66-8583-c7ac20ab6317"}]},"request":{"method":"PUT","url":"Coverage/582d4a7a-1229-4284-a752-b6819ec09340"}},{"fullUrl":"https://madie.cms.gov/Condition/0bbc4be0-be92-41a8-bb12-b7741775d7e8","resource":{"resourceType":"Condition","id":"0bbc4be0-be92-41a8-bb12-b7741775d7e8","meta":{"profile":["http://hl7.org/fhir/us/qicore/StructureDefinition/qicore-condition-problems-health-concerns"]},"clinicalStatus":{"coding":[{"system":"http://terminology.hl7.org/CodeSystem/condition-clinical","code":"active"}]},"verificationStatus":{"coding":[{"system":"http://terminology.hl7.org/CodeSystem/condition-ver-status","code":"confirmed"}]},"category":[{"coding":[{"system":"http://terminology.hl7.org/CodeSystem/condition-category","code":"encounter-diagnosis","display":"Encounter Diagnosis"}]}],"code":{"coding":[{"system":"http://snomed.info/sct","version":"2021-09","code":"120041000119109","display":"Atrial fibrillation with rapid ventricular response (disorder)","userSelected":true}]},"subject":{"reference":"Patient/d5991213-5237-4eb3-a6e9-61404f836d3b"},"recordedDate":"2026-10-13T08:00:00Z"},"request":{"method":"PUT","url":"Condition/0bbc4be0-be92-41a8-bb12-b7741775d7e8"}},{"fullUrl":"https://madie.cms.gov/claim/5ca62962b8484628b8de1ec5","resource":{"resourceType":"Claim","id":"5ca62962b8484628b8de1ec5","meta":{"profile":["http://hl7.org/fhir/us/qicore/StructureDefinition/qicore-claim"]},"status":"active","type":{"coding":[{"system":"http://terminology.hl7.org/CodeSystem/claim-type","code":"institutional"}]},"use":"claim","patient":{"reference":"Patient/d170a0a8-b5ad-4303-b6df-e304dd5f92ad"},"created":"2026-12-01","provider":{"reference":"Practitioner/0afbc65c-8828-4703-8075-93605b3a4599"},"priority":{"coding":[{"system":"http://terminology.hl7.org/CodeSystem/processpriority","code":"normal"}]},"diagnosis":[{"sequence":1,"diagnosisCodeableConcept":{"coding":[{"system":"http://hl7.org/fhir/sid/icd-10-cm","code":"I48.00"}]},"type":[{"coding":[{"system":"http://terminology.hl7.org/CodeSystem/ex-diagnosistype","code":"principal"}]}]}],"insurance":[{"sequence":1,"focal":true,"coverage":{"reference":"Coverage/5fa041661c76ba66d9959367"}}],"item":[{"sequence":2,"diagnosisSequence":[2],"productOrService":{"coding":[{"system":"http://terminology.hl7.org/CodeSystem/ex-USCLS","code":"99555"}]},"encounter":[{"reference":"Encounter/atrial-fibrillation-flutter-1987"}]}]},"request":{"method":"PUT","url":"Claim/5ca62962b8484628b8de1ec5"}},{"fullUrl":"https://madie.cms.gov/Organization/0511062d-a0d6-4e66-8583-c7ac20ab6317","resource":{"resourceType":"Organization","id":"0511062d-a0d6-4e66-8583-c7ac20ab6317","meta":{"profile":["http://hl7.org/fhir/us/qicore/StructureDefinition/qicore-organization"]},"identifier":[{"use":"temp","system":"urn:oid:2.16.840.1.113883.4.4","value":"21-3259825"}],"active":true,"type":[{"coding":[{"system":"http://terminology.hl7.org/CodeSystem/organization-type","code":"pay","display":"Payer"}]}],"name":"Blue Cross Blue Shield of Texas","telecom":[{"system":"phone","value":"(+1) 972-766-6900"}],"address":[{"use":"billing","type":"postal","line":["P.O. Box 660044"],"city":"Dallas","state":"TX","postalCode":"75266-0044","country":"USA"}]},"request":{"method":"PUT","url":"Organization/0511062d-a0d6-4e66-8583-c7ac20ab6317"}},{"fullUrl":"https://madie.cms.gov/Practitioner/0afbc65c-8828-4703-8075-93605b3a4599","resource":{"resourceType":"Practitioner","id":"0afbc65c-8828-4703-8075-93605b3a4599","meta":{"profile":["http://hl7.org/fhir/us/qicore/StructureDefinition/qicore-practitioner"]},"identifier":[{"system":"http://hl7.org/fhir/sid/us-npi","value":"9999999896"}],"name":[{"family":"Evil","prefix":["Dr"]}]},"request":{"method":"PUT","url":"Practitioner/0afbc65c-8828-4703-8075-93605b3a4599"}},{"fullUrl":"https://madie.cms.gov/MeasureReport/1d5b50c3-0f72-41c3-8873-65e0f3b95ec8","resource":{"resourceType":"MeasureReport","id":"1d5b50c3-0f72-41c3-8873-65e0f3b95ec8","meta":{"profile":["http://hl7.org/fhir/us/cqfmeasures/StructureDefinition/test-case-cqfm"]},"contained":[{"resourceType":"Parameters","id":"9abfdcb3-ca0c-4374-b05d-00d1da8dc971-parameters","parameter":[{"name":"subject","valueString":"d5991213-5237-4eb3-a6e9-61404f836d3b"}]}],"extension":[{"url":"http://hl7.org/fhir/StructureDefinition/cqf-inputParameters","valueReference":{"reference":"#9abfdcb3-ca0c-4374-b05d-00d1da8dc971-parameters"}},{"url":"http://hl7.org/fhir/us/cqfmeasures/StructureDefinition/cqfm-testCaseDescription","valueMarkdown":"Principal diagnosis not in value set\n"}],"modifierExtension":[{"url":"http://hl7.org/fhir/us/cqfmeasures/StructureDefinition/cqfm-isTestCase","valueBoolean":true}],"status":"complete","type":"individual","measure":"https://madie.cms.gov/Measure/CMS71FHIRSTKAnticoagAFFlutter","period":{"start":"2026-01-01","end":"2026-12-31"},"group":[{"id":"Group_1","population":[{"id":"InitialPopulation_1","code":{"coding":[{"system":"http://terminology.hl7.org/CodeSystem/measure-population","code":"initial-population","display":"Initial Population"}]},"count":0},{"id":"Denominator_1","code":{"coding":[{"system":"http://terminology.hl7.org/CodeSystem/measure-population","code":"denominator","display":"Denominator"}]},"count":0},{"id":"DenominatorExclusion_1","code":{"coding":[{"system":"http://terminology.hl7.org/CodeSystem/measure-population","code":"denominator-exclusion","display":"Denominator Exclusion"}]},"count":0},{"id":"Numerator_1","code":{"coding":[{"system":"http://terminology.hl7.org/CodeSystem/measure-population","code":"numerator","display":"Numerator"}]},"count":0},{"id":"DenominatorException_1","code":{"coding":[{"system":"http://terminology.hl7.org/CodeSystem/measure-population","code":"denominator-exception","display":"Denominator Exception"}]},"count":0}],"measureScore":{"value":0.0}}],"evaluatedResource":[{"reference":"Patient/d5991213-5237-4eb3-a6e9-61404f836d3b"},{"reference":"Encounter/f9a876f7-379a-457a-8f17-f20edba0697d"},{"reference":"Coverage/582d4a7a-1229-4284-a752-b6819ec09340"},{"reference":"Condition/0bbc4be0-be92-41a8-bb12-b7741775d7e8"},{"reference":"Claim/5ca62962b8484628b8de1ec5"},{"reference":"Organization/0511062d-a0d6-4e66-8583-c7ac20ab6317"},{"reference":"Practitioner/0afbc65c-8828-4703-8075-93605b3a4599"}]},"request":{"method":"PUT","url":"MeasureReport/1d5b50c3-0f72-41c3-8873-65e0f3b95ec8"}}]},"request":{"method":"PUT","url":"Bundle/633c9d040968f8012250fcab"}},{"resource":{"resourceType":"Encounter","id":"f9a876f7-379a-457a-8f17-f20edba0697d","meta":{"profile":["http://hl7.org/fhir/us/qicore/StructureDefinition/qicore-encounter"]},"status":"finished","class":{"system":"http://terminology.hl7.org/CodeSystem/v3-ActCode","code":"IMP","display":"inpatient encounter"},"type":[{"coding":[{"system":"http://snomed.info/sct","code":"32485007"}]}],"subject":{"reference":"Patient/d5991213-5237-4eb3-a6e9-61404f836d3b"},"period":{"start":"2026-02-08T08:00:00Z","end":"2026-02-10T08:15:00.000+00:00"},"length":{"value":2,"unit":"days"},"reasonReference":[{"reference":"Condition/0bbc4be0-be92-41a8-bb12-b7741775d7e8"}]},"request":{"method":"PUT","url":"Encounter/f9a876f7-379a-457a-8f17-f20edba0697d"}},{"resource":{"resourceType":"Coverage","id":"582d4a7a-1229-4284-a752-b6819ec09340","meta":{"profile":["http://hl7.org/fhir/us/qicore/StructureDefinition/qicore-coverage"]},"status":"active","subscriberId":"523435","beneficiary":{"reference":"Patient/162a5913-9989-42f2-8d6a-ae460e245e4c"},"relationship":{"coding":[{"system":"http://terminology.hl7.org/CodeSystem/subscriber-relationship","code":"self"}]},"payor":[{"reference":"Organization/0511062d-a0d6-4e66-8583-c7ac20ab6317"}]},"request":{"method":"PUT","url":"Coverage/582d4a7a-1229-4284-a752-b6819ec09340"}},{"resource":{"resourceType":"MeasureReport","id":"1d5b50c3-0f72-41c3-8873-65e0f3b95ec8","meta":{"profile":["http://hl7.org/fhir/us/cqfmeasures/StructureDefinition/test-case-cqfm"]},"contained":[{"resourceType":"Parameters","id":"9abfdcb3-ca0c-4374-b05d-00d1da8dc971-parameters","parameter":[{"name":"subject","valueString":"d5991213-5237-4eb3-a6e9-61404f836d3b"}]}],"extension":[{"url":"http://hl7.org/fhir/StructureDefinition/cqf-inputParameters","valueReference":{"reference":"#9abfdcb3-ca0c-4374-b05d-00d1da8dc971-parameters"}},{"url":"http://hl7.org/fhir/us/cqfmeasures/StructureDefinition/cqfm-testCaseDescription","valueMarkdown":"Principal diagnosis not in value set\n"}],"modifierExtension":[{"url":"http://hl7.org/fhir/us/cqfmeasures/StructureDefinition/cqfm-isTestCase","valueBoolean":true}],"status":"complete","type":"individual","measure":"https://madie.cms.gov/Measure/CMS71FHIRSTKAnticoagAFFlutter","period":{"start":"2026-01-01","end":"2026-12-31"},"group":[{"id":"Group_1","population":[{"id":"InitialPopulation_1","code":{"coding":[{"system":"http://terminology.hl7.org/CodeSystem/measure-population","code":"initial-population","display":"Initial Population"}]},"count":0},{"id":"Denominator_1","code":{"coding":[{"system":"http://terminology.hl7.org/CodeSystem/measure-population","code":"denominator","display":"Denominator"}]},"count":0},{"id":"DenominatorExclusion_1","code":{"coding":[{"system":"http://terminology.hl7.org/CodeSystem/measure-population","code":"denominator-exclusion","display":"Denominator Exclusion"}]},"count":0},{"id":"Numerator_1","code":{"coding":[{"system":"http://terminology.hl7.org/CodeSystem/measure-population","code":"numerator","display":"Numerator"}]},"count":0},{"id":"DenominatorException_1","code":{"coding":[{"system":"http://terminology.hl7.org/CodeSystem/measure-population","code":"denominator-exception","display":"Denominator Exception"}]},"count":0}],"measureScore":{"value":0.0}}],"evaluatedResource":[{"reference":"Patient/d5991213-5237-4eb3-a6e9-61404f836d3b"},{"reference":"Encounter/f9a876f7-379a-457a-8f17-f20edba0697d"},{"reference":"Coverage/582d4a7a-1229-4284-a752-b6819ec09340"},{"reference":"Condition/0bbc4be0-be92-41a8-bb12-b7741775d7e8"},{"reference":"Claim/5ca62962b8484628b8de1ec5"},{"reference":"Organization/0511062d-a0d6-4e66-8583-c7ac20ab6317"},{"reference":"Practitioner/0afbc65c-8828-4703-8075-93605b3a4599"}]},"request":{"method":"PUT","url":"MeasureReport/1d5b50c3-0f72-41c3-8873-65e0f3b95ec8"}},{"resource":{"resourceType":"Condition","id":"0bbc4be0-be92-41a8-bb12-b7741775d7e8","meta":{"profile":["http://hl7.org/fhir/us/qicore/StructureDefinition/qicore-condition-problems-health-concerns"]},"clinicalStatus":{"coding":[{"system":"http://terminology.hl7.org/CodeSystem/condition-clinical","code":"active"}]},"verificationStatus":{"coding":[{"system":"http://terminology.hl7.org/CodeSystem/condition-ver-status","code":"confirmed"}]},"category":[{"coding":[{"system":"http://terminology.hl7.org/CodeSystem/condition-category","code":"encounter-diagnosis","display":"Encounter Diagnosis"}]}],"code":{"coding":[{"system":"http://snomed.info/sct","version":"2021-09","code":"120041000119109","display":"Atrial fibrillation with rapid ventricular response (disorder)","userSelected":true}]},"subject":{"reference":"Patient/d5991213-5237-4eb3-a6e9-61404f836d3b"},"recordedDate":"2026-10-13T08:00:00Z"},"request":{"method":"PUT","url":"Condition/0bbc4be0-be92-41a8-bb12-b7741775d7e8"}},{"resource":{"resourceType":"Claim","id":"5ca62962b8484628b8de1ec5","meta":{"profile":["http://hl7.org/fhir/us/qicore/StructureDefinition/qicore-claim"]},"status":"active","type":{"coding":[{"system":"http://terminology.hl7.org/CodeSystem/claim-type","code":"institutional"}]},"use":"claim","patient":{"reference":"Patient/d170a0a8-b5ad-4303-b6df-e304dd5f92ad"},"created":"2026-12-01","provider":{"reference":"Practitioner/0afbc65c-8828-4703-8075-93605b3a4599"},"priority":{"coding":[{"system":"http://terminology.hl7.org/CodeSystem/processpriority","code":"normal"}]},"diagnosis":[{"sequence":1,"diagnosisCodeableConcept":{"coding":[{"system":"http://hl7.org/fhir/sid/icd-10-cm","code":"I48.00"}]},"type":[{"coding":[{"system":"http://terminology.hl7.org/CodeSystem/ex-diagnosistype","code":"principal"}]}]}],"insurance":[{"sequence":1,"focal":true,"coverage":{"reference":"Coverage/5fa041661c76ba66d9959367"}}],"item":[{"sequence":2,"diagnosisSequence":[2],"productOrService":{"coding":[{"system":"http://terminology.hl7.org/CodeSystem/ex-USCLS","code":"99555"}]},"encounter":[{"reference":"Encounter/atrial-fibrillation-flutter-1987"}]}]},"request":{"method":"PUT","url":"Claim/5ca62962b8484628b8de1ec5"}}]}