{"resourceType":"Bundle","id":"tests-e695d66d-1f4e-4b69-acad-0861f1222d44-bundle","type":"transaction","entry":[{"resource":{"resourceType":"Coverage","id":"99e3591a-833d-4d37-812d-2f362f52c8d8","meta":{"profile":["http://hl7.org/fhir/us/qicore/StructureDefinition/qicore-coverage"]},"status":"active","subscriberId":"523435","beneficiary":{"reference":"Patient/162a5913-9989-42f2-8d6a-ae460e245e4c"},"relationship":{"coding":[{"system":"http://terminology.hl7.org/CodeSystem/subscriber-relationship","code":"self"}]},"payor":[{"reference":"Organization/321bbeae-c660-46ae-bad2-454d5097e378"}]},"request":{"method":"PUT","url":"Coverage/99e3591a-833d-4d37-812d-2f362f52c8d8"}},{"resource":{"resourceType":"Practitioner","id":"06317a6b-2db5-4ab4-9558-2ad28789e292","meta":{"profile":["http://hl7.org/fhir/us/qicore/StructureDefinition/qicore-practitioner"]},"identifier":[{"system":"http://hl7.org/fhir/sid/us-npi","value":"9999999896"}],"name":[{"family":"Evil","prefix":["Dr"]}]},"request":{"method":"PUT","url":"Practitioner/06317a6b-2db5-4ab4-9558-2ad28789e292"}},{"resource":{"resourceType":"Procedure","id":"8c6ff1fd-c6ff-4e8b-9d80-63c32110f51b","meta":{"profile":["http://hl7.org/fhir/us/qicore/StructureDefinition/qicore-procedure"]},"extension":[{"url":"http://hl7.org/fhir/us/qicore/StructureDefinition/qicore-recorded","valueDateTime":"2026-11-19T13:35:00Z"}],"status":"completed","code":{"coding":[{"system":"http://www.cms.gov/Medicare/Coding/ICD10","code":"02560ZZ"},{"system":"http://snomed.info/sct","code":"175095005"}]},"subject":{"reference":"Patient/e695d66d-1f4e-4b69-acad-0861f1222d44"},"performedDateTime":"2026-02-08T07:59:00Z"},"request":{"method":"PUT","url":"Procedure/8c6ff1fd-c6ff-4e8b-9d80-63c32110f51b"}},{"resource":{"resourceType":"MeasureReport","id":"21427b19-ba5a-4c7b-ba0a-cfaa3a930b2c","meta":{"profile":["http://hl7.org/fhir/us/cqfmeasures/StructureDefinition/test-case-cqfm"]},"contained":[{"resourceType":"Parameters","id":"8b70162e-3ffe-4b78-9e70-80095e614ca6-parameters","parameter":[{"name":"subject","valueString":"e695d66d-1f4e-4b69-acad-0861f1222d44"}]}],"extension":[{"url":"http://hl7.org/fhir/StructureDefinition/cqf-inputParameters","valueReference":{"reference":"#8b70162e-3ffe-4b78-9e70-80095e614ca6-parameters"}},{"url":"http://hl7.org/fhir/us/cqfmeasures/StructureDefinition/cqfm-testCaseDescription","valueMarkdown":"Proc performed Atrial Ablation starts before start of OccA by 1 minutes\n"}],"modifierExtension":[{"url":"http://hl7.org/fhir/us/cqfmeasures/StructureDefinition/cqfm-isTestCase","valueBoolean":true}],"status":"complete","type":"individual","measure":"https://madie.cms.gov/Measure/CMS71FHIRSTKAnticoagAFFlutter","period":{"start":"2026-01-01","end":"2026-12-31"},"group":[{"id":"Group_1","population":[{"id":"InitialPopulation_1","code":{"coding":[{"system":"http://terminology.hl7.org/CodeSystem/measure-population","code":"initial-population","display":"Initial Population"}]},"count":1},{"id":"Denominator_1","code":{"coding":[{"system":"http://terminology.hl7.org/CodeSystem/measure-population","code":"denominator","display":"Denominator"}]},"count":1},{"id":"DenominatorExclusion_1","code":{"coding":[{"system":"http://terminology.hl7.org/CodeSystem/measure-population","code":"denominator-exclusion","display":"Denominator Exclusion"}]},"count":0},{"id":"Numerator_1","code":{"coding":[{"system":"http://terminology.hl7.org/CodeSystem/measure-population","code":"numerator","display":"Numerator"}]},"count":0},{"id":"DenominatorException_1","code":{"coding":[{"system":"http://terminology.hl7.org/CodeSystem/measure-population","code":"denominator-exception","display":"Denominator Exception"}]},"count":0}],"measureScore":{"value":0.0}}],"evaluatedResource":[{"reference":"Patient/e695d66d-1f4e-4b69-acad-0861f1222d44"},{"reference":"Encounter/ece053be-6c99-4c7c-8087-a866c45463ab"},{"reference":"Claim/5ca62962b8484628b8de1ec5"},{"reference":"Coverage/99e3591a-833d-4d37-812d-2f362f52c8d8"},{"reference":"Procedure/8c6ff1fd-c6ff-4e8b-9d80-63c32110f51b"},{"reference":"Condition/472cacd4-ca3a-474a-bd5b-7b0b59fd195d"},{"reference":"Organization/321bbeae-c660-46ae-bad2-454d5097e378"},{"reference":"Practitioner/06317a6b-2db5-4ab4-9558-2ad28789e292"}]},"request":{"method":"PUT","url":"MeasureReport/21427b19-ba5a-4c7b-ba0a-cfaa3a930b2c"}},{"resource":{"resourceType":"Encounter","id":"ece053be-6c99-4c7c-8087-a866c45463ab","meta":{"profile":["http://hl7.org/fhir/us/qicore/StructureDefinition/qicore-encounter"]},"status":"finished","class":{"system":"http://terminology.hl7.org/CodeSystem/v3-ActCode","code":"IMP","display":"inpatient encounter"},"type":[{"coding":[{"system":"http://snomed.info/sct","code":"32485007"}]}],"subject":{"reference":"Patient/e695d66d-1f4e-4b69-acad-0861f1222d44"},"period":{"start":"2026-02-08T08:00:00Z","end":"2026-02-10T08:15:00.000+00:00"},"length":{"value":2,"unit":"days"}},"request":{"method":"PUT","url":"Encounter/ece053be-6c99-4c7c-8087-a866c45463ab"}},{"resource":{"resourceType":"Bundle","id":"633c9d040968f8012250fcb2","type":"transaction","entry":[{"fullUrl":"https://madie.cms.gov/Patient/e695d66d-1f4e-4b69-acad-0861f1222d44","resource":{"resourceType":"Patient","id":"e695d66d-1f4e-4b69-acad-0861f1222d44","meta":{"profile":["http://hl7.org/fhir/us/qicore/StructureDefinition/qicore-patient"]},"text":{"status":"generated","div":"<div xmlns=\"http://www.w3.org/1999/xhtml\"><div class=\"hapiHeaderText\">ProcAtrialAblB4EncDateTime <b>DENOMPASS </b></div><table class=\"hapiPropertyTable\"><tbody><tr><td>Identifier</td><td>1ebc7a8ec0c65913b7018969c7b50ead</td></tr><tr><td>Date of birth</td><td><span>01 December 1960</span></td></tr></tbody></table></div>"},"extension":[{"url":"http://hl7.org/fhir/us/core/StructureDefinition/us-core-race","extension":[{"url":"ombCategory","valueCoding":{"system":"urn:oid:2.16.840.1.113883.6.238","code":"1002-5","display":"American Indian or Alaska Native","userSelected":true}},{"url":"text","valueString":"American Indian or Alaska Native"}]},{"url":"http://hl7.org/fhir/us/core/StructureDefinition/us-core-ethnicity","extension":[{"url":"ombCategory","valueCoding":{"system":"urn:oid:2.16.840.1.113883.6.238","code":"2135-2","display":"Hispanic or Latino","userSelected":true}},{"url":"text","valueString":"Hispanic or Latino"}]}],"identifier":[{"type":{"coding":[{"system":"http://terminology.hl7.org/CodeSystem/v2-0203","code":"MR"}]},"system":"https://bonnie-fhir.healthit.gov/","value":"633c9d040968f8012250fcb2"}],"active":true,"name":[{"use":"usual","family":"DENOMPass","given":["ProcAtrialAblB4EncDateTime"]}],"gender":"male","birthDate":"1961-12-01"},"request":{"method":"PUT","url":"Patient/e695d66d-1f4e-4b69-acad-0861f1222d44"}},{"fullUrl":"https://madie.cms.gov/Encounter/ece053be-6c99-4c7c-8087-a866c45463ab","resource":{"resourceType":"Encounter","id":"ece053be-6c99-4c7c-8087-a866c45463ab","meta":{"profile":["http://hl7.org/fhir/us/qicore/StructureDefinition/qicore-encounter"]},"status":"finished","class":{"system":"http://terminology.hl7.org/CodeSystem/v3-ActCode","code":"IMP","display":"inpatient encounter"},"type":[{"coding":[{"system":"http://snomed.info/sct","code":"32485007"}]}],"subject":{"reference":"Patient/e695d66d-1f4e-4b69-acad-0861f1222d44"},"period":{"start":"2026-02-08T08:00:00Z","end":"2026-02-10T08:15:00.000+00:00"},"length":{"value":2,"unit":"days"}},"request":{"method":"PUT","url":"Encounter/ece053be-6c99-4c7c-8087-a866c45463ab"}},{"fullUrl":"https://madie.cms.gov/claim/5ca62962b8484628b8de1ec5","resource":{"resourceType":"Claim","id":"5ca62962b8484628b8de1ec5","meta":{"profile":["http://hl7.org/fhir/us/qicore/StructureDefinition/qicore-claim"]},"status":"active","type":{"coding":[{"system":"http://terminology.hl7.org/CodeSystem/claim-type","code":"institutional"}]},"use":"claim","patient":{"reference":"Patient/d170a0a8-b5ad-4303-b6df-e304dd5f92ad"},"created":"2026-12-01","provider":{"reference":"Practitioner/06317a6b-2db5-4ab4-9558-2ad28789e292"},"priority":{"coding":[{"system":"http://terminology.hl7.org/CodeSystem/processpriority","code":"normal"}]},"diagnosis":[{"sequence":1,"diagnosisCodeableConcept":{"coding":[{"system":"http://hl7.org/fhir/sid/icd-10-cm","code":"I63.00"}]},"type":[{"coding":[{"system":"http://terminology.hl7.org/CodeSystem/ex-diagnosistype","code":"principal"}]}]}],"insurance":[{"sequence":1,"focal":true,"coverage":{"reference":"Coverage/5fa041661c76ba66d9959367"}}],"item":[{"sequence":1,"diagnosisSequence":[1],"productOrService":{"coding":[{"system":"http://terminology.hl7.org/CodeSystem/ex-USCLS","code":"99555"}]},"encounter":[{"reference":"Encounter/ece053be-6c99-4c7c-8087-a866c45463ab"}]}]},"request":{"method":"PUT","url":"Claim/5ca62962b8484628b8de1ec5"}},{"fullUrl":"https://madie.cms.gov/Coverage/99e3591a-833d-4d37-812d-2f362f52c8d8","resource":{"resourceType":"Coverage","id":"99e3591a-833d-4d37-812d-2f362f52c8d8","meta":{"profile":["http://hl7.org/fhir/us/qicore/StructureDefinition/qicore-coverage"]},"status":"active","subscriberId":"523435","beneficiary":{"reference":"Patient/162a5913-9989-42f2-8d6a-ae460e245e4c"},"relationship":{"coding":[{"system":"http://terminology.hl7.org/CodeSystem/subscriber-relationship","code":"self"}]},"payor":[{"reference":"Organization/321bbeae-c660-46ae-bad2-454d5097e378"}]},"request":{"method":"PUT","url":"Coverage/99e3591a-833d-4d37-812d-2f362f52c8d8"}},{"fullUrl":"https://madie.cms.gov/Procedure/8c6ff1fd-c6ff-4e8b-9d80-63c32110f51b","resource":{"resourceType":"Procedure","id":"8c6ff1fd-c6ff-4e8b-9d80-63c32110f51b","meta":{"profile":["http://hl7.org/fhir/us/qicore/StructureDefinition/qicore-procedure"]},"extension":[{"url":"http://hl7.org/fhir/us/qicore/StructureDefinition/qicore-recorded","valueDateTime":"2026-11-19T13:35:00Z"}],"status":"completed","code":{"coding":[{"system":"http://www.cms.gov/Medicare/Coding/ICD10","code":"02560ZZ"},{"system":"http://snomed.info/sct","code":"175095005"}]},"subject":{"reference":"Patient/e695d66d-1f4e-4b69-acad-0861f1222d44"},"performedDateTime":"2026-02-08T07:59:00Z"},"request":{"method":"PUT","url":"Procedure/8c6ff1fd-c6ff-4e8b-9d80-63c32110f51b"}},{"fullUrl":"https://madie.cms.gov/Condition/472cacd4-ca3a-474a-bd5b-7b0b59fd195d","resource":{"resourceType":"Condition","id":"472cacd4-ca3a-474a-bd5b-7b0b59fd195d","meta":{"profile":["http://hl7.org/fhir/us/qicore/StructureDefinition/qicore-condition-problems-health-concerns"]},"clinicalStatus":{"coding":[{"system":"http://terminology.hl7.org/CodeSystem/condition-clinical","code":"active"}]},"verificationStatus":{"coding":[{"system":"http://terminology.hl7.org/CodeSystem/condition-ver-status","code":"confirmed"}]},"category":[{"coding":[{"system":"http://terminology.hl7.org/CodeSystem/condition-category","code":"encounter-diagnosis","display":"Encounter Diagnosis"}]}],"code":{"coding":[{"system":"http://snomed.info/sct","version":"2021-09","code":"111297002","display":"Nonparalytic stroke (disorder)","userSelected":true}]},"subject":{"reference":"Patient/e695d66d-1f4e-4b69-acad-0861f1222d44"},"recordedDate":"2026-10-13T08:00:00Z"},"request":{"method":"PUT","url":"Condition/472cacd4-ca3a-474a-bd5b-7b0b59fd195d"}},{"fullUrl":"https://madie.cms.gov/Organization/321bbeae-c660-46ae-bad2-454d5097e378","resource":{"resourceType":"Organization","id":"321bbeae-c660-46ae-bad2-454d5097e378","meta":{"profile":["http://hl7.org/fhir/us/qicore/StructureDefinition/qicore-organization"]},"identifier":[{"use":"temp","system":"urn:oid:2.16.840.1.113883.4.4","value":"21-3259825"}],"active":true,"type":[{"coding":[{"system":"http://terminology.hl7.org/CodeSystem/organization-type","code":"pay","display":"Payer"}]}],"name":"Blue Cross Blue Shield of Texas","telecom":[{"system":"phone","value":"(+1) 972-766-6900"}],"address":[{"use":"billing","type":"postal","line":["P.O. Box 660044"],"city":"Dallas","state":"TX","postalCode":"75266-0044","country":"USA"}]},"request":{"method":"PUT","url":"Organization/321bbeae-c660-46ae-bad2-454d5097e378"}},{"fullUrl":"https://madie.cms.gov/Practitioner/06317a6b-2db5-4ab4-9558-2ad28789e292","resource":{"resourceType":"Practitioner","id":"06317a6b-2db5-4ab4-9558-2ad28789e292","meta":{"profile":["http://hl7.org/fhir/us/qicore/StructureDefinition/qicore-practitioner"]},"identifier":[{"system":"http://hl7.org/fhir/sid/us-npi","value":"9999999896"}],"name":[{"family":"Evil","prefix":["Dr"]}]},"request":{"method":"PUT","url":"Practitioner/06317a6b-2db5-4ab4-9558-2ad28789e292"}},{"fullUrl":"https://madie.cms.gov/MeasureReport/21427b19-ba5a-4c7b-ba0a-cfaa3a930b2c","resource":{"resourceType":"MeasureReport","id":"21427b19-ba5a-4c7b-ba0a-cfaa3a930b2c","meta":{"profile":["http://hl7.org/fhir/us/cqfmeasures/StructureDefinition/test-case-cqfm"]},"contained":[{"resourceType":"Parameters","id":"8b70162e-3ffe-4b78-9e70-80095e614ca6-parameters","parameter":[{"name":"subject","valueString":"e695d66d-1f4e-4b69-acad-0861f1222d44"}]}],"extension":[{"url":"http://hl7.org/fhir/StructureDefinition/cqf-inputParameters","valueReference":{"reference":"#8b70162e-3ffe-4b78-9e70-80095e614ca6-parameters"}},{"url":"http://hl7.org/fhir/us/cqfmeasures/StructureDefinition/cqfm-testCaseDescription","valueMarkdown":"Proc performed Atrial Ablation starts before start of OccA by 1 minutes\n"}],"modifierExtension":[{"url":"http://hl7.org/fhir/us/cqfmeasures/StructureDefinition/cqfm-isTestCase","valueBoolean":true}],"status":"complete","type":"individual","measure":"https://madie.cms.gov/Measure/CMS71FHIRSTKAnticoagAFFlutter","period":{"start":"2026-01-01","end":"2026-12-31"},"group":[{"id":"Group_1","population":[{"id":"InitialPopulation_1","code":{"coding":[{"system":"http://terminology.hl7.org/CodeSystem/measure-population","code":"initial-population","display":"Initial Population"}]},"count":1},{"id":"Denominator_1","code":{"coding":[{"system":"http://terminology.hl7.org/CodeSystem/measure-population","code":"denominator","display":"Denominator"}]},"count":1},{"id":"DenominatorExclusion_1","code":{"coding":[{"system":"http://terminology.hl7.org/CodeSystem/measure-population","code":"denominator-exclusion","display":"Denominator Exclusion"}]},"count":0},{"id":"Numerator_1","code":{"coding":[{"system":"http://terminology.hl7.org/CodeSystem/measure-population","code":"numerator","display":"Numerator"}]},"count":0},{"id":"DenominatorException_1","code":{"coding":[{"system":"http://terminology.hl7.org/CodeSystem/measure-population","code":"denominator-exception","display":"Denominator Exception"}]},"count":0}],"measureScore":{"value":0.0}}],"evaluatedResource":[{"reference":"Patient/e695d66d-1f4e-4b69-acad-0861f1222d44"},{"reference":"Encounter/ece053be-6c99-4c7c-8087-a866c45463ab"},{"reference":"Claim/5ca62962b8484628b8de1ec5"},{"reference":"Coverage/99e3591a-833d-4d37-812d-2f362f52c8d8"},{"reference":"Procedure/8c6ff1fd-c6ff-4e8b-9d80-63c32110f51b"},{"reference":"Condition/472cacd4-ca3a-474a-bd5b-7b0b59fd195d"},{"reference":"Organization/321bbeae-c660-46ae-bad2-454d5097e378"},{"reference":"Practitioner/06317a6b-2db5-4ab4-9558-2ad28789e292"}]},"request":{"method":"PUT","url":"MeasureReport/21427b19-ba5a-4c7b-ba0a-cfaa3a930b2c"}}]},"request":{"method":"PUT","url":"Bundle/633c9d040968f8012250fcb2"}},{"resource":{"resourceType":"Organization","id":"321bbeae-c660-46ae-bad2-454d5097e378","meta":{"profile":["http://hl7.org/fhir/us/qicore/StructureDefinition/qicore-organization"]},"identifier":[{"use":"temp","system":"urn:oid:2.16.840.1.113883.4.4","value":"21-3259825"}],"active":true,"type":[{"coding":[{"system":"http://terminology.hl7.org/CodeSystem/organization-type","code":"pay","display":"Payer"}]}],"name":"Blue Cross Blue Shield of Texas","telecom":[{"system":"phone","value":"(+1) 972-766-6900"}],"address":[{"use":"billing","type":"postal","line":["P.O. Box 660044"],"city":"Dallas","state":"TX","postalCode":"75266-0044","country":"USA"}]},"request":{"method":"PUT","url":"Organization/321bbeae-c660-46ae-bad2-454d5097e378"}},{"resource":{"resourceType":"Condition","id":"472cacd4-ca3a-474a-bd5b-7b0b59fd195d","meta":{"profile":["http://hl7.org/fhir/us/qicore/StructureDefinition/qicore-condition-problems-health-concerns"]},"clinicalStatus":{"coding":[{"system":"http://terminology.hl7.org/CodeSystem/condition-clinical","code":"active"}]},"verificationStatus":{"coding":[{"system":"http://terminology.hl7.org/CodeSystem/condition-ver-status","code":"confirmed"}]},"category":[{"coding":[{"system":"http://terminology.hl7.org/CodeSystem/condition-category","code":"encounter-diagnosis","display":"Encounter Diagnosis"}]}],"code":{"coding":[{"system":"http://snomed.info/sct","version":"2021-09","code":"111297002","display":"Nonparalytic stroke (disorder)","userSelected":true}]},"subject":{"reference":"Patient/e695d66d-1f4e-4b69-acad-0861f1222d44"},"recordedDate":"2026-10-13T08:00:00Z"},"request":{"method":"PUT","url":"Condition/472cacd4-ca3a-474a-bd5b-7b0b59fd195d"}},{"resource":{"resourceType":"Patient","id":"e695d66d-1f4e-4b69-acad-0861f1222d44","meta":{"profile":["http://hl7.org/fhir/us/qicore/StructureDefinition/qicore-patient"]},"text":{"status":"generated","div":"<div xmlns=\"http://www.w3.org/1999/xhtml\"><div class=\"hapiHeaderText\">ProcAtrialAblB4EncDateTime <b>DENOMPASS </b></div><table class=\"hapiPropertyTable\"><tbody><tr><td>Identifier</td><td>1ebc7a8ec0c65913b7018969c7b50ead</td></tr><tr><td>Date of birth</td><td><span>01 December 1960</span></td></tr></tbody></table></div>"},"extension":[{"url":"http://hl7.org/fhir/us/core/StructureDefinition/us-core-race","extension":[{"url":"ombCategory","valueCoding":{"system":"urn:oid:2.16.840.1.113883.6.238","code":"1002-5","display":"American Indian or Alaska Native","userSelected":true}},{"url":"text","valueString":"American Indian or Alaska Native"}]},{"url":"http://hl7.org/fhir/us/core/StructureDefinition/us-core-ethnicity","extension":[{"url":"ombCategory","valueCoding":{"system":"urn:oid:2.16.840.1.113883.6.238","code":"2135-2","display":"Hispanic or Latino","userSelected":true}},{"url":"text","valueString":"Hispanic or Latino"}]}],"identifier":[{"type":{"coding":[{"system":"http://terminology.hl7.org/CodeSystem/v2-0203","code":"MR"}]},"system":"https://bonnie-fhir.healthit.gov/","value":"633c9d040968f8012250fcb2"}],"active":true,"name":[{"use":"usual","family":"DENOMPass","given":["ProcAtrialAblB4EncDateTime"]}],"gender":"male","birthDate":"1961-12-01"},"request":{"method":"PUT","url":"Patient/e695d66d-1f4e-4b69-acad-0861f1222d44"}},{"resource":{"resourceType":"Claim","id":"5ca62962b8484628b8de1ec5","meta":{"profile":["http://hl7.org/fhir/us/qicore/StructureDefinition/qicore-claim"]},"status":"active","type":{"coding":[{"system":"http://terminology.hl7.org/CodeSystem/claim-type","code":"institutional"}]},"use":"claim","patient":{"reference":"Patient/d170a0a8-b5ad-4303-b6df-e304dd5f92ad"},"created":"2026-12-01","provider":{"reference":"Practitioner/06317a6b-2db5-4ab4-9558-2ad28789e292"},"priority":{"coding":[{"system":"http://terminology.hl7.org/CodeSystem/processpriority","code":"normal"}]},"diagnosis":[{"sequence":1,"diagnosisCodeableConcept":{"coding":[{"system":"http://hl7.org/fhir/sid/icd-10-cm","code":"I63.00"}]},"type":[{"coding":[{"system":"http://terminology.hl7.org/CodeSystem/ex-diagnosistype","code":"principal"}]}]}],"insurance":[{"sequence":1,"focal":true,"coverage":{"reference":"Coverage/5fa041661c76ba66d9959367"}}],"item":[{"sequence":1,"diagnosisSequence":[1],"productOrService":{"coding":[{"system":"http://terminology.hl7.org/CodeSystem/ex-USCLS","code":"99555"}]},"encounter":[{"reference":"Encounter/ece053be-6c99-4c7c-8087-a866c45463ab"}]}]},"request":{"method":"PUT","url":"Claim/5ca62962b8484628b8de1ec5"}}]}