{"resourceType":"Bundle","id":"tests-63e42e45-fb2a-4a44-8354-79ea81b5d041-bundle","type":"transaction","entry":[{"fullUrl":"Patient/63e42e45-fb2a-4a44-8354-79ea81b5d041","resource":{"resourceType":"Patient","id":"63e42e45-fb2a-4a44-8354-79ea81b5d041","meta":{"profile":["http://hl7.org/fhir/us/qicore/StructureDefinition/qicore-patient"]},"text":{"status":"generated","div":"<div xmlns=\"http://www.w3.org/1999/xhtml\"><div class=\"hapiHeaderText\">CMOdurObs_NoEDObs&lt;1hrBFEnc <b>DENEXPASS </b></div><table class=\"hapiPropertyTable\"><tbody><tr><td>Identifier</td><td>78184564d7a2b04b1b82068bb9a7b746</td></tr><tr><td>Date of birth</td><td><span>18 September 1985</span></td></tr></tbody></table></div>"},"extension":[{"url":"http://hl7.org/fhir/us/core/StructureDefinition/us-core-race","extension":[{"url":"ombCategory","valueCoding":{"system":"urn:oid:2.16.840.1.113883.6.238","code":"1002-5","display":"American Indian or Alaska Native","userSelected":true}},{"url":"text","valueString":"American Indian or Alaska Native"}]},{"url":"http://hl7.org/fhir/us/core/StructureDefinition/us-core-ethnicity","extension":[{"url":"ombCategory","valueCoding":{"system":"urn:oid:2.16.840.1.113883.6.238","code":"2135-2","display":"Hispanic or Latino","userSelected":true}},{"url":"text","valueString":"Hispanic or Latino"}]}],"identifier":[{"type":{"coding":[{"system":"http://terminology.hl7.org/CodeSystem/v2-0203","code":"MR"}]},"system":"https://bonnie-fhir.healthit.gov/","value":"633c9d030968f8012250fc85"}],"active":true,"name":[{"use":"usual","family":"DENEXPass","given":["CMOdurObs_NoEDObs<1hrBFEnc"]}],"gender":"female","birthDate":"1986-09-18"},"request":{"method":"PUT","url":"Patient/63e42e45-fb2a-4a44-8354-79ea81b5d041"}},{"fullUrl":"Coverage/fb919b17-93d3-4893-a8b0-8a8cce3c491d","resource":{"resourceType":"Coverage","id":"fb919b17-93d3-4893-a8b0-8a8cce3c491d","status":"active","subscriberId":"523435","beneficiary":{"reference":"Patient/63e42e45-fb2a-4a44-8354-79ea81b5d041"},"relationship":{"coding":[{"system":"http://terminology.hl7.org/CodeSystem/subscriber-relationship","code":"self"}]},"period":{"start":"1986-09-18T08:00:00Z"},"payor":[{"reference":"Organization/2f94b22b-07d0-48af-8ff7-aa23ad52fb00"}]},"request":{"method":"PUT","url":"Coverage/fb919b17-93d3-4893-a8b0-8a8cce3c491d"}},{"fullUrl":"Encounter/881aef05-acfa-40b2-8864-cc931e21c1c3","resource":{"resourceType":"Encounter","id":"881aef05-acfa-40b2-8864-cc931e21c1c3","meta":{"profile":["http://hl7.org/fhir/us/qicore/StructureDefinition/qicore-encounter"]},"status":"finished","class":{"system":"http://terminology.hl7.org/CodeSystem/v3-ActCode","code":"OBSENC","display":"observation encounter"},"type":[{"coding":[{"system":"http://snomed.info/sct","code":"448951000124107"}]}],"subject":{"reference":"Patient/63e42e45-fb2a-4a44-8354-79ea81b5d041"},"period":{"start":"2026-10-01T08:00:00Z","end":"2026-10-01T08:59:00.000+00:00"},"length":{"value":0,"unit":"days"}},"request":{"method":"PUT","url":"Encounter/881aef05-acfa-40b2-8864-cc931e21c1c3"}},{"fullUrl":"Condition/224a5a23-1312-42ee-bdd8-4970654cd965","resource":{"resourceType":"Condition","id":"224a5a23-1312-42ee-bdd8-4970654cd965","meta":{"profile":["http://hl7.org/fhir/us/qicore/StructureDefinition/qicore-condition-problems-health-concerns"]},"clinicalStatus":{"coding":[{"system":"http://terminology.hl7.org/CodeSystem/condition-clinical","code":"active"}]},"verificationStatus":{"coding":[{"system":"http://terminology.hl7.org/CodeSystem/condition-ver-status","code":"confirmed"}]},"category":[{"coding":[{"system":"http://terminology.hl7.org/CodeSystem/condition-category","code":"encounter-diagnosis","display":"Encounter Diagnosis"}]}],"code":{"coding":[{"system":"http://snomed.info/sct","version":"2021-09","code":"111297002","display":"Nonparalytic stroke (disorder)","userSelected":true}]},"subject":{"reference":"Patient/63e42e45-fb2a-4a44-8354-79ea81b5d041"},"recordedDate":"2026-10-13T08:00:00Z"},"request":{"method":"PUT","url":"Condition/224a5a23-1312-42ee-bdd8-4970654cd965"}},{"fullUrl":"Condition/bbe9cfa2-be76-4f82-9af2-2b77b2f994af","resource":{"resourceType":"Condition","id":"bbe9cfa2-be76-4f82-9af2-2b77b2f994af","meta":{"profile":["http://hl7.org/fhir/us/qicore/StructureDefinition/qicore-condition-problems-health-concerns"]},"clinicalStatus":{"coding":[{"system":"http://terminology.hl7.org/CodeSystem/condition-clinical","code":"inactive"}]},"verificationStatus":{"coding":[{"system":"http://terminology.hl7.org/CodeSystem/condition-ver-status","code":"confirmed"}]},"category":[{"coding":[{"system":"http://terminology.hl7.org/CodeSystem/condition-category","code":"encounter-diagnosis","display":"Encounter Diagnosis"}]}],"code":{"coding":[{"system":"http://hl7.org/fhir/sid/icd-10-cm","code":"I48.20"},{"system":"http://hl7.org/fhir/sid/icd-10-cm","code":"I48.0"},{"system":"http://snomed.info/sct","code":"5370000"}]},"subject":{"reference":"Patient/63e42e45-fb2a-4a44-8354-79ea81b5d041"},"onsetDateTime":"2026-10-01T09:00:00Z","abatementDateTime":"2026-10-12T00:15:00.000+00:00"},"request":{"method":"PUT","url":"Condition/bbe9cfa2-be76-4f82-9af2-2b77b2f994af"}},{"fullUrl":"MeasureReport/cd40ff22-f42a-4927-b141-692223a47fc7","resource":{"resourceType":"MeasureReport","id":"cd40ff22-f42a-4927-b141-692223a47fc7","meta":{"profile":["http://hl7.org/fhir/us/cqfmeasures/StructureDefinition/test-case-cqfm"]},"contained":[{"resourceType":"Parameters","id":"1e0406e0-2e7a-4fba-8949-0f9d480e90e4-parameters","parameter":[{"name":"subject","valueString":"63e42e45-fb2a-4a44-8354-79ea81b5d041"}]}],"extension":[{"url":"http://hl7.org/fhir/StructureDefinition/cqf-inputParameters","valueReference":{"reference":"#1e0406e0-2e7a-4fba-8949-0f9d480e90e4-parameters"}},{"url":"http://hl7.org/fhir/us/cqfmeasures/StructureDefinition/cqfm-testCaseDescription","valueMarkdown":"Patient receives Observation. No ED Obs starts 1 min before inpatient encounter. Testing HospitalizationWithObservation function.\n"}],"modifierExtension":[{"url":"http://hl7.org/fhir/us/cqfmeasures/StructureDefinition/cqfm-isTestCase","valueBoolean":true}],"status":"complete","type":"individual","measure":"https://madie.cms.gov/Measure/CMS71FHIRSTKAnticoagAFFlutter","period":{"start":"2026-01-01","end":"2026-12-31"},"group":[{"id":"Group_1","population":[{"id":"InitialPopulation_1","code":{"coding":[{"system":"http://terminology.hl7.org/CodeSystem/measure-population","code":"initial-population","display":"Initial Population"}]},"count":1},{"id":"Denominator_1","code":{"coding":[{"system":"http://terminology.hl7.org/CodeSystem/measure-population","code":"denominator","display":"Denominator"}]},"count":1},{"id":"DenominatorExclusion_1","code":{"coding":[{"system":"http://terminology.hl7.org/CodeSystem/measure-population","code":"denominator-exclusion","display":"Denominator Exclusion"}]},"count":1},{"id":"Numerator_1","code":{"coding":[{"system":"http://terminology.hl7.org/CodeSystem/measure-population","code":"numerator","display":"Numerator"}]},"count":0},{"id":"DenominatorException_1","code":{"coding":[{"system":"http://terminology.hl7.org/CodeSystem/measure-population","code":"denominator-exception","display":"Denominator Exception"}]},"count":0}],"measureScore":{"value":0.0}}],"evaluatedResource":[{"reference":"Patient/63e42e45-fb2a-4a44-8354-79ea81b5d041"},{"reference":"Condition/bbe9cfa2-be76-4f82-9af2-2b77b2f994af"},{"reference":"Encounter/881aef05-acfa-40b2-8864-cc931e21c1c3"},{"reference":"Encounter/67e8832a-ff47-4489-9214-911b7586efac"},{"reference":"ServiceRequest/63cf99f9-342d-4e6a-b05e-eae9521927e6"},{"reference":"Coverage/fb919b17-93d3-4893-a8b0-8a8cce3c491d"},{"reference":"Claim/5ca62962b8484628b8de1ec5"},{"reference":"Condition/224a5a23-1312-42ee-bdd8-4970654cd965"},{"reference":"Organization/2f94b22b-07d0-48af-8ff7-aa23ad52fb00"},{"reference":"Practitioner/c25fe658-b1df-4cf9-85f7-835d2d7a403a"}]},"request":{"method":"PUT","url":"MeasureReport/cd40ff22-f42a-4927-b141-692223a47fc7"}},{"fullUrl":"Encounter/67e8832a-ff47-4489-9214-911b7586efac","resource":{"resourceType":"Encounter","id":"67e8832a-ff47-4489-9214-911b7586efac","meta":{"profile":["http://hl7.org/fhir/us/qicore/StructureDefinition/qicore-encounter"]},"status":"finished","class":{"system":"http://terminology.hl7.org/CodeSystem/v3-ActCode","code":"IMP","display":"inpatient encounter"},"type":[{"coding":[{"system":"http://snomed.info/sct","code":"32485007"}]}],"subject":{"reference":"Patient/63e42e45-fb2a-4a44-8354-79ea81b5d041"},"period":{"start":"2026-10-01T09:00:00Z","end":"2026-10-12T00:15:00.000+00:00"},"length":{"value":11,"unit":"days"},"reasonReference":[{"reference":"Condition/bbe9cfa2-be76-4f82-9af2-2b77b2f994af"}]},"request":{"method":"PUT","url":"Encounter/67e8832a-ff47-4489-9214-911b7586efac"}},{"fullUrl":"Bundle/633c9d030968f8012250fc85","resource":{"resourceType":"Bundle","id":"633c9d030968f8012250fc85","type":"transaction","entry":[{"fullUrl":"https://madie.cms.gov/Patient/63e42e45-fb2a-4a44-8354-79ea81b5d041","resource":{"resourceType":"Patient","id":"63e42e45-fb2a-4a44-8354-79ea81b5d041","meta":{"profile":["http://hl7.org/fhir/us/qicore/StructureDefinition/qicore-patient"]},"text":{"status":"generated","div":"<div xmlns=\"http://www.w3.org/1999/xhtml\"><div class=\"hapiHeaderText\">CMOdurObs_NoEDObs&lt;1hrBFEnc <b>DENEXPASS </b></div><table class=\"hapiPropertyTable\"><tbody><tr><td>Identifier</td><td>78184564d7a2b04b1b82068bb9a7b746</td></tr><tr><td>Date of birth</td><td><span>18 September 1985</span></td></tr></tbody></table></div>"},"extension":[{"url":"http://hl7.org/fhir/us/core/StructureDefinition/us-core-race","extension":[{"url":"ombCategory","valueCoding":{"system":"urn:oid:2.16.840.1.113883.6.238","code":"1002-5","display":"American Indian or Alaska Native","userSelected":true}},{"url":"text","valueString":"American Indian or Alaska Native"}]},{"url":"http://hl7.org/fhir/us/core/StructureDefinition/us-core-ethnicity","extension":[{"url":"ombCategory","valueCoding":{"system":"urn:oid:2.16.840.1.113883.6.238","code":"2135-2","display":"Hispanic or Latino","userSelected":true}},{"url":"text","valueString":"Hispanic or Latino"}]}],"identifier":[{"type":{"coding":[{"system":"http://terminology.hl7.org/CodeSystem/v2-0203","code":"MR"}]},"system":"https://bonnie-fhir.healthit.gov/","value":"633c9d030968f8012250fc85"}],"active":true,"name":[{"use":"usual","family":"DENEXPass","given":["CMOdurObs_NoEDObs<1hrBFEnc"]}],"gender":"female","birthDate":"1986-09-18"},"request":{"method":"PUT","url":"Patient/63e42e45-fb2a-4a44-8354-79ea81b5d041"}},{"fullUrl":"https://madie.cms.gov/Condition/bbe9cfa2-be76-4f82-9af2-2b77b2f994af","resource":{"resourceType":"Condition","id":"bbe9cfa2-be76-4f82-9af2-2b77b2f994af","meta":{"profile":["http://hl7.org/fhir/us/qicore/StructureDefinition/qicore-condition-problems-health-concerns"]},"clinicalStatus":{"coding":[{"system":"http://terminology.hl7.org/CodeSystem/condition-clinical","code":"inactive"}]},"verificationStatus":{"coding":[{"system":"http://terminology.hl7.org/CodeSystem/condition-ver-status","code":"confirmed"}]},"category":[{"coding":[{"system":"http://terminology.hl7.org/CodeSystem/condition-category","code":"encounter-diagnosis","display":"Encounter Diagnosis"}]}],"code":{"coding":[{"system":"http://hl7.org/fhir/sid/icd-10-cm","code":"I48.20"},{"system":"http://hl7.org/fhir/sid/icd-10-cm","code":"I48.0"},{"system":"http://snomed.info/sct","code":"5370000"}]},"subject":{"reference":"Patient/63e42e45-fb2a-4a44-8354-79ea81b5d041"},"onsetDateTime":"2026-10-01T09:00:00Z","abatementDateTime":"2026-10-12T00:15:00.000+00:00"},"request":{"method":"PUT","url":"Condition/bbe9cfa2-be76-4f82-9af2-2b77b2f994af"}},{"fullUrl":"https://madie.cms.gov/Encounter/881aef05-acfa-40b2-8864-cc931e21c1c3","resource":{"resourceType":"Encounter","id":"881aef05-acfa-40b2-8864-cc931e21c1c3","meta":{"profile":["http://hl7.org/fhir/us/qicore/StructureDefinition/qicore-encounter"]},"status":"finished","class":{"system":"http://terminology.hl7.org/CodeSystem/v3-ActCode","code":"OBSENC","display":"observation encounter"},"type":[{"coding":[{"system":"http://snomed.info/sct","code":"448951000124107"}]}],"subject":{"reference":"Patient/63e42e45-fb2a-4a44-8354-79ea81b5d041"},"period":{"start":"2026-10-01T08:00:00Z","end":"2026-10-01T08:59:00.000+00:00"},"length":{"value":0,"unit":"days"}},"request":{"method":"PUT","url":"Encounter/881aef05-acfa-40b2-8864-cc931e21c1c3"}},{"fullUrl":"https://madie.cms.gov/Encounter/67e8832a-ff47-4489-9214-911b7586efac","resource":{"resourceType":"Encounter","id":"67e8832a-ff47-4489-9214-911b7586efac","meta":{"profile":["http://hl7.org/fhir/us/qicore/StructureDefinition/qicore-encounter"]},"status":"finished","class":{"system":"http://terminology.hl7.org/CodeSystem/v3-ActCode","code":"IMP","display":"inpatient encounter"},"type":[{"coding":[{"system":"http://snomed.info/sct","code":"32485007"}]}],"subject":{"reference":"Patient/63e42e45-fb2a-4a44-8354-79ea81b5d041"},"period":{"start":"2026-10-01T09:00:00Z","end":"2026-10-12T00:15:00.000+00:00"},"length":{"value":11,"unit":"days"},"reasonReference":[{"reference":"Condition/bbe9cfa2-be76-4f82-9af2-2b77b2f994af"}]},"request":{"method":"PUT","url":"Encounter/67e8832a-ff47-4489-9214-911b7586efac"}},{"fullUrl":"https://madie.cms.gov/ServiceRequest/63cf99f9-342d-4e6a-b05e-eae9521927e6","resource":{"resourceType":"ServiceRequest","id":"63cf99f9-342d-4e6a-b05e-eae9521927e6","meta":{"profile":["http://hl7.org/fhir/us/qicore/StructureDefinition/qicore-servicerequest"]},"status":"active","intent":"order","code":{"coding":[{"system":"http://snomed.info/sct","code":"133918004"}]},"subject":{"reference":"Patient/63e42e45-fb2a-4a44-8354-79ea81b5d041"},"authoredOn":"2026-10-01T08:01:00Z"},"request":{"method":"PUT","url":"ServiceRequest/63cf99f9-342d-4e6a-b05e-eae9521927e6"}},{"fullUrl":"https://madie.cms.gov/Coverage/fb919b17-93d3-4893-a8b0-8a8cce3c491d","resource":{"resourceType":"Coverage","id":"fb919b17-93d3-4893-a8b0-8a8cce3c491d","status":"active","subscriberId":"523435","beneficiary":{"reference":"Patient/63e42e45-fb2a-4a44-8354-79ea81b5d041"},"relationship":{"coding":[{"system":"http://terminology.hl7.org/CodeSystem/subscriber-relationship","code":"self"}]},"period":{"start":"1986-09-18T08:00:00Z"},"payor":[{"reference":"Organization/2f94b22b-07d0-48af-8ff7-aa23ad52fb00"}]},"request":{"method":"PUT","url":"Coverage/fb919b17-93d3-4893-a8b0-8a8cce3c491d"}},{"fullUrl":"https://madie.cms.gov/claim/5ca62962b8484628b8de1ec5","resource":{"resourceType":"Claim","id":"5ca62962b8484628b8de1ec5","meta":{"profile":["http://hl7.org/fhir/us/qicore/StructureDefinition/qicore-claim"]},"status":"active","type":{"coding":[{"system":"http://terminology.hl7.org/CodeSystem/claim-type","code":"institutional"}]},"use":"claim","patient":{"reference":"Patient/d170a0a8-b5ad-4303-b6df-e304dd5f92ad"},"created":"2026-12-01","provider":{"reference":"Practitioner/c25fe658-b1df-4cf9-85f7-835d2d7a403a"},"priority":{"coding":[{"system":"http://terminology.hl7.org/CodeSystem/processpriority","code":"normal"}]},"diagnosis":[{"sequence":1,"diagnosisCodeableConcept":{"coding":[{"system":"http://hl7.org/fhir/sid/icd-10-cm","code":"I63.00"}]},"type":[{"coding":[{"system":"http://terminology.hl7.org/CodeSystem/ex-diagnosistype","code":"principal"}]}]}],"insurance":[{"sequence":1,"focal":true,"coverage":{"reference":"Coverage/5fa041661c76ba66d9959367"}}],"item":[{"sequence":1,"diagnosisSequence":[1],"productOrService":{"coding":[{"system":"http://terminology.hl7.org/CodeSystem/ex-USCLS","code":"99555"}]},"encounter":[{"reference":"Encounter/67e8832a-ff47-4489-9214-911b7586efac"}]}]},"request":{"method":"PUT","url":"Claim/5ca62962b8484628b8de1ec5"}},{"fullUrl":"https://madie.cms.gov/Condition/224a5a23-1312-42ee-bdd8-4970654cd965","resource":{"resourceType":"Condition","id":"224a5a23-1312-42ee-bdd8-4970654cd965","meta":{"profile":["http://hl7.org/fhir/us/qicore/StructureDefinition/qicore-condition-problems-health-concerns"]},"clinicalStatus":{"coding":[{"system":"http://terminology.hl7.org/CodeSystem/condition-clinical","code":"active"}]},"verificationStatus":{"coding":[{"system":"http://terminology.hl7.org/CodeSystem/condition-ver-status","code":"confirmed"}]},"category":[{"coding":[{"system":"http://terminology.hl7.org/CodeSystem/condition-category","code":"encounter-diagnosis","display":"Encounter Diagnosis"}]}],"code":{"coding":[{"system":"http://snomed.info/sct","version":"2021-09","code":"111297002","display":"Nonparalytic stroke (disorder)","userSelected":true}]},"subject":{"reference":"Patient/63e42e45-fb2a-4a44-8354-79ea81b5d041"},"recordedDate":"2026-10-13T08:00:00Z"},"request":{"method":"PUT","url":"Condition/224a5a23-1312-42ee-bdd8-4970654cd965"}},{"fullUrl":"https://madie.cms.gov/Organization/2f94b22b-07d0-48af-8ff7-aa23ad52fb00","resource":{"resourceType":"Organization","id":"2f94b22b-07d0-48af-8ff7-aa23ad52fb00","meta":{"profile":["http://hl7.org/fhir/us/qicore/StructureDefinition/qicore-organization"]},"identifier":[{"use":"temp","system":"urn:oid:2.16.840.1.113883.4.4","value":"21-3259825"}],"active":true,"type":[{"coding":[{"system":"http://terminology.hl7.org/CodeSystem/organization-type","code":"pay","display":"Payer"}]}],"name":"Blue Cross Blue Shield of Texas","telecom":[{"system":"phone","value":"(+1) 972-766-6900"}],"address":[{"use":"billing","type":"postal","line":["P.O. Box 660044"],"city":"Dallas","state":"TX","postalCode":"75266-0044","country":"USA"}]},"request":{"method":"PUT","url":"Organization/2f94b22b-07d0-48af-8ff7-aa23ad52fb00"}},{"fullUrl":"https://madie.cms.gov/Practitioner/c25fe658-b1df-4cf9-85f7-835d2d7a403a","resource":{"resourceType":"Practitioner","id":"c25fe658-b1df-4cf9-85f7-835d2d7a403a","meta":{"profile":["http://hl7.org/fhir/us/qicore/StructureDefinition/qicore-practitioner"]},"identifier":[{"system":"http://hl7.org/fhir/sid/us-npi","value":"9999999896"}],"name":[{"family":"Evil","prefix":["Dr"]}]},"request":{"method":"PUT","url":"Practitioner/c25fe658-b1df-4cf9-85f7-835d2d7a403a"}},{"fullUrl":"https://madie.cms.gov/MeasureReport/cd40ff22-f42a-4927-b141-692223a47fc7","resource":{"resourceType":"MeasureReport","id":"cd40ff22-f42a-4927-b141-692223a47fc7","meta":{"profile":["http://hl7.org/fhir/us/cqfmeasures/StructureDefinition/test-case-cqfm"]},"contained":[{"resourceType":"Parameters","id":"1e0406e0-2e7a-4fba-8949-0f9d480e90e4-parameters","parameter":[{"name":"subject","valueString":"63e42e45-fb2a-4a44-8354-79ea81b5d041"}]}],"extension":[{"url":"http://hl7.org/fhir/StructureDefinition/cqf-inputParameters","valueReference":{"reference":"#1e0406e0-2e7a-4fba-8949-0f9d480e90e4-parameters"}},{"url":"http://hl7.org/fhir/us/cqfmeasures/StructureDefinition/cqfm-testCaseDescription","valueMarkdown":"Patient receives Observation. No ED Obs starts 1 min before inpatient encounter. Testing HospitalizationWithObservation function.\n"}],"modifierExtension":[{"url":"http://hl7.org/fhir/us/cqfmeasures/StructureDefinition/cqfm-isTestCase","valueBoolean":true}],"status":"complete","type":"individual","measure":"https://madie.cms.gov/Measure/CMS71FHIRSTKAnticoagAFFlutter","period":{"start":"2026-01-01","end":"2026-12-31"},"group":[{"id":"Group_1","population":[{"id":"InitialPopulation_1","code":{"coding":[{"system":"http://terminology.hl7.org/CodeSystem/measure-population","code":"initial-population","display":"Initial Population"}]},"count":1},{"id":"Denominator_1","code":{"coding":[{"system":"http://terminology.hl7.org/CodeSystem/measure-population","code":"denominator","display":"Denominator"}]},"count":1},{"id":"DenominatorExclusion_1","code":{"coding":[{"system":"http://terminology.hl7.org/CodeSystem/measure-population","code":"denominator-exclusion","display":"Denominator Exclusion"}]},"count":1},{"id":"Numerator_1","code":{"coding":[{"system":"http://terminology.hl7.org/CodeSystem/measure-population","code":"numerator","display":"Numerator"}]},"count":0},{"id":"DenominatorException_1","code":{"coding":[{"system":"http://terminology.hl7.org/CodeSystem/measure-population","code":"denominator-exception","display":"Denominator Exception"}]},"count":0}],"measureScore":{"value":0.0}}],"evaluatedResource":[{"reference":"Patient/63e42e45-fb2a-4a44-8354-79ea81b5d041"},{"reference":"Condition/bbe9cfa2-be76-4f82-9af2-2b77b2f994af"},{"reference":"Encounter/881aef05-acfa-40b2-8864-cc931e21c1c3"},{"reference":"Encounter/67e8832a-ff47-4489-9214-911b7586efac"},{"reference":"ServiceRequest/63cf99f9-342d-4e6a-b05e-eae9521927e6"},{"reference":"Coverage/fb919b17-93d3-4893-a8b0-8a8cce3c491d"},{"reference":"Claim/5ca62962b8484628b8de1ec5"},{"reference":"Condition/224a5a23-1312-42ee-bdd8-4970654cd965"},{"reference":"Organization/2f94b22b-07d0-48af-8ff7-aa23ad52fb00"},{"reference":"Practitioner/c25fe658-b1df-4cf9-85f7-835d2d7a403a"}]},"request":{"method":"PUT","url":"MeasureReport/cd40ff22-f42a-4927-b141-692223a47fc7"}}]},"request":{"method":"PUT","url":"Bundle/633c9d030968f8012250fc85"}},{"fullUrl":"Practitioner/c25fe658-b1df-4cf9-85f7-835d2d7a403a","resource":{"resourceType":"Practitioner","id":"c25fe658-b1df-4cf9-85f7-835d2d7a403a","meta":{"profile":["http://hl7.org/fhir/us/qicore/StructureDefinition/qicore-practitioner"]},"identifier":[{"system":"http://hl7.org/fhir/sid/us-npi","value":"9999999896"}],"name":[{"family":"Evil","prefix":["Dr"]}]},"request":{"method":"PUT","url":"Practitioner/c25fe658-b1df-4cf9-85f7-835d2d7a403a"}},{"fullUrl":"ServiceRequest/63cf99f9-342d-4e6a-b05e-eae9521927e6","resource":{"resourceType":"ServiceRequest","id":"63cf99f9-342d-4e6a-b05e-eae9521927e6","meta":{"profile":["http://hl7.org/fhir/us/qicore/StructureDefinition/qicore-servicerequest"]},"status":"active","intent":"order","code":{"coding":[{"system":"http://snomed.info/sct","code":"133918004"}]},"subject":{"reference":"Patient/63e42e45-fb2a-4a44-8354-79ea81b5d041"},"authoredOn":"2026-10-01T08:01:00Z"},"request":{"method":"PUT","url":"ServiceRequest/63cf99f9-342d-4e6a-b05e-eae9521927e6"}},{"fullUrl":"Organization/2f94b22b-07d0-48af-8ff7-aa23ad52fb00","resource":{"resourceType":"Organization","id":"2f94b22b-07d0-48af-8ff7-aa23ad52fb00","meta":{"profile":["http://hl7.org/fhir/us/qicore/StructureDefinition/qicore-organization"]},"identifier":[{"use":"temp","system":"urn:oid:2.16.840.1.113883.4.4","value":"21-3259825"}],"active":true,"type":[{"coding":[{"system":"http://terminology.hl7.org/CodeSystem/organization-type","code":"pay","display":"Payer"}]}],"name":"Blue Cross Blue Shield of Texas","telecom":[{"system":"phone","value":"(+1) 972-766-6900"}],"address":[{"use":"billing","type":"postal","line":["P.O. Box 660044"],"city":"Dallas","state":"TX","postalCode":"75266-0044","country":"USA"}]},"request":{"method":"PUT","url":"Organization/2f94b22b-07d0-48af-8ff7-aa23ad52fb00"}},{"fullUrl":"Claim/5ca62962b8484628b8de1ec5","resource":{"resourceType":"Claim","id":"5ca62962b8484628b8de1ec5","meta":{"profile":["http://hl7.org/fhir/us/qicore/StructureDefinition/qicore-claim"]},"status":"active","type":{"coding":[{"system":"http://terminology.hl7.org/CodeSystem/claim-type","code":"institutional"}]},"use":"claim","patient":{"reference":"Patient/d170a0a8-b5ad-4303-b6df-e304dd5f92ad"},"created":"2026-12-01","provider":{"reference":"Practitioner/c25fe658-b1df-4cf9-85f7-835d2d7a403a"},"priority":{"coding":[{"system":"http://terminology.hl7.org/CodeSystem/processpriority","code":"normal"}]},"diagnosis":[{"sequence":1,"diagnosisCodeableConcept":{"coding":[{"system":"http://hl7.org/fhir/sid/icd-10-cm","code":"I63.00"}]},"type":[{"coding":[{"system":"http://terminology.hl7.org/CodeSystem/ex-diagnosistype","code":"principal"}]}]}],"insurance":[{"sequence":1,"focal":true,"coverage":{"reference":"Coverage/5fa041661c76ba66d9959367"}}],"item":[{"sequence":1,"diagnosisSequence":[1],"productOrService":{"coding":[{"system":"http://terminology.hl7.org/CodeSystem/ex-USCLS","code":"99555"}]},"encounter":[{"reference":"Encounter/67e8832a-ff47-4489-9214-911b7586efac"}]}]},"request":{"method":"PUT","url":"Claim/5ca62962b8484628b8de1ec5"}}]}