{"resourceType":"Bundle","id":"tests-595ebfd1-fe6a-4b4b-96a1-23a72f6a70da-bundle","type":"transaction","entry":[{"resource":{"resourceType":"MedicationRequest","id":"7cdf3b67-b291-4abb-8acc-bf5fbce65d2e","meta":{"profile":["http://hl7.org/fhir/us/qicore/StructureDefinition/qicore-medicationnotrequested"]},"status":"completed","intent":"order","category":[{"coding":[{"system":"http://terminology.hl7.org/CodeSystem/medicationrequest-category","code":"community"}]}],"doNotPerform":true,"medicationCodeableConcept":{"coding":[{"system":"http://www.nlm.nih.gov/research/umls/rxnorm","code":"308351"}]},"subject":{"reference":"Patient/595ebfd1-fe6a-4b4b-96a1-23a72f6a70da"},"authoredOn":"2026-11-24T08:10:00Z","requester":{"reference":"Practitioner/example"},"reasonCode":[{"coding":[{"system":"http://snomed.info/sct","code":"443390004"}]}]},"request":{"method":"PUT","url":"MedicationRequest/7cdf3b67-b291-4abb-8acc-bf5fbce65d2e"}},{"resource":{"resourceType":"Organization","id":"5a4c9b54-db82-4a6f-9ed1-4ba326658d8d","meta":{"profile":["http://hl7.org/fhir/us/qicore/StructureDefinition/qicore-organization"]},"identifier":[{"use":"temp","system":"urn:oid:2.16.840.1.113883.4.4","value":"21-3259825"}],"active":true,"type":[{"coding":[{"system":"http://terminology.hl7.org/CodeSystem/organization-type","code":"pay","display":"Payer"}]}],"name":"Blue Cross Blue Shield of Texas","telecom":[{"system":"phone","value":"(+1) 972-766-6900"}],"address":[{"use":"billing","type":"postal","line":["P.O. Box 660044"],"city":"Dallas","state":"TX","postalCode":"75266-0044","country":"USA"}]},"request":{"method":"PUT","url":"Organization/5a4c9b54-db82-4a6f-9ed1-4ba326658d8d"}},{"resource":{"resourceType":"Procedure","id":"7ed87b32-3c77-4818-ac15-b41ee08ce21d","meta":{"profile":["http://hl7.org/fhir/us/qicore/StructureDefinition/qicore-procedure"]},"extension":[{"url":"http://hl7.org/fhir/us/qicore/StructureDefinition/qicore-recorded","valueDateTime":"2014-04-05T13:35:00Z"}],"status":"completed","code":{"coding":[{"system":"http://www.cms.gov/Medicare/Coding/ICD10","code":"02560ZZ"},{"system":"http://snomed.info/sct","code":"175095005"}]},"subject":{"reference":"Patient/595ebfd1-fe6a-4b4b-96a1-23a72f6a70da"},"performedPeriod":{"start":"2026-11-20T06:00:00Z","end":"2026-11-20T07:15:00.000+00:00"}},"request":{"method":"PUT","url":"Procedure/7ed87b32-3c77-4818-ac15-b41ee08ce21d"}},{"resource":{"resourceType":"Condition","id":"f0aaecde-aea4-42ac-a5f1-73b2b5b05b67","meta":{"profile":["http://hl7.org/fhir/us/qicore/StructureDefinition/qicore-condition-problems-health-concerns"]},"clinicalStatus":{"coding":[{"system":"http://terminology.hl7.org/CodeSystem/condition-clinical","code":"active"}]},"verificationStatus":{"coding":[{"system":"http://terminology.hl7.org/CodeSystem/condition-ver-status","code":"confirmed"}]},"category":[{"coding":[{"system":"http://terminology.hl7.org/CodeSystem/condition-category","code":"encounter-diagnosis","display":"Encounter Diagnosis"}]}],"code":{"coding":[{"system":"http://snomed.info/sct","version":"2021-09","code":"111297002","display":"Nonparalytic stroke (disorder)","userSelected":true}]},"subject":{"reference":"Patient/595ebfd1-fe6a-4b4b-96a1-23a72f6a70da"},"recordedDate":"2026-10-13T08:00:00Z"},"request":{"method":"PUT","url":"Condition/f0aaecde-aea4-42ac-a5f1-73b2b5b05b67"}},{"resource":{"resourceType":"MeasureReport","id":"014d015b-d737-4564-8b0d-f94f1a699271","meta":{"profile":["http://hl7.org/fhir/us/cqfmeasures/StructureDefinition/test-case-cqfm"]},"contained":[{"resourceType":"Parameters","id":"422a4f59-d8c9-4062-840a-c191dcbe01b8-parameters","parameter":[{"name":"subject","valueString":"595ebfd1-fe6a-4b4b-96a1-23a72f6a70da"}]}],"extension":[{"url":"http://hl7.org/fhir/StructureDefinition/cqf-inputParameters","valueReference":{"reference":"#422a4f59-d8c9-4062-840a-c191dcbe01b8-parameters"}},{"url":"http://hl7.org/fhir/us/cqfmeasures/StructureDefinition/cqfm-testCaseDescription","valueMarkdown":"Patient did not receive anticoagulant, patient refused\n"}],"modifierExtension":[{"url":"http://hl7.org/fhir/us/cqfmeasures/StructureDefinition/cqfm-isTestCase","valueBoolean":true}],"status":"complete","type":"individual","measure":"https://madie.cms.gov/Measure/CMS71FHIRSTKAnticoagAFFlutter","period":{"start":"2026-01-01","end":"2026-12-31"},"group":[{"id":"Group_1","population":[{"id":"InitialPopulation_1","code":{"coding":[{"system":"http://terminology.hl7.org/CodeSystem/measure-population","code":"initial-population","display":"Initial Population"}]},"count":1},{"id":"Denominator_1","code":{"coding":[{"system":"http://terminology.hl7.org/CodeSystem/measure-population","code":"denominator","display":"Denominator"}]},"count":1},{"id":"DenominatorExclusion_1","code":{"coding":[{"system":"http://terminology.hl7.org/CodeSystem/measure-population","code":"denominator-exclusion","display":"Denominator Exclusion"}]},"count":0},{"id":"Numerator_1","code":{"coding":[{"system":"http://terminology.hl7.org/CodeSystem/measure-population","code":"numerator","display":"Numerator"}]},"count":0},{"id":"DenominatorException_1","code":{"coding":[{"system":"http://terminology.hl7.org/CodeSystem/measure-population","code":"denominator-exception","display":"Denominator Exception"}]},"count":1}],"measureScore":{"value":0.0}}],"evaluatedResource":[{"reference":"Patient/595ebfd1-fe6a-4b4b-96a1-23a72f6a70da"},{"reference":"Encounter/7faabac0-3919-4e08-a61e-be8ad2d9cb8e"},{"reference":"Claim/5ca62962b8484628b8de1ec5"},{"reference":"MedicationRequest/7cdf3b67-b291-4abb-8acc-bf5fbce65d2e"},{"reference":"Coverage/ba841c77-9d6b-401b-84ea-bd98a8cc4c79"},{"reference":"Procedure/7ed87b32-3c77-4818-ac15-b41ee08ce21d"},{"reference":"Condition/f0aaecde-aea4-42ac-a5f1-73b2b5b05b67"},{"reference":"Organization/5a4c9b54-db82-4a6f-9ed1-4ba326658d8d"}]},"request":{"method":"PUT","url":"MeasureReport/014d015b-d737-4564-8b0d-f94f1a699271"}},{"resource":{"resourceType":"Bundle","id":"633c9d030968f8012250fc8c","type":"transaction","entry":[{"fullUrl":"https://madie.cms.gov/Patient/595ebfd1-fe6a-4b4b-96a1-23a72f6a70da","resource":{"resourceType":"Patient","id":"595ebfd1-fe6a-4b4b-96a1-23a72f6a70da","meta":{"profile":["http://hl7.org/fhir/us/qicore/StructureDefinition/qicore-patient"]},"text":{"status":"generated","div":"<div xmlns=\"http://www.w3.org/1999/xhtml\"><div class=\"hapiHeaderText\">MedDCPatRefDuringEncInp <b>DENEXCEPPASS </b></div><table class=\"hapiPropertyTable\"><tbody><tr><td>Identifier</td><td>0c63b215784ea7e3383559263b15cd7e</td></tr><tr><td>Date of birth</td><td><span>23 May 1954</span></td></tr></tbody></table></div>"},"extension":[{"url":"http://hl7.org/fhir/us/core/StructureDefinition/us-core-race","extension":[{"url":"ombCategory","valueCoding":{"system":"urn:oid:2.16.840.1.113883.6.238","code":"1002-5","display":"American Indian or Alaska Native","userSelected":true}},{"url":"text","valueString":"American Indian or Alaska Native"}]},{"url":"http://hl7.org/fhir/us/core/StructureDefinition/us-core-ethnicity","extension":[{"url":"ombCategory","valueCoding":{"system":"urn:oid:2.16.840.1.113883.6.238","code":"2135-2","display":"Hispanic or Latino","userSelected":true}},{"url":"text","valueString":"Hispanic or Latino"}]}],"identifier":[{"type":{"coding":[{"system":"http://terminology.hl7.org/CodeSystem/v2-0203","code":"MR"}]},"system":"https://bonnie-fhir.healthit.gov/","value":"633c9d030968f8012250fc8c"}],"active":true,"name":[{"use":"usual","family":"DENEXCEPPass","given":["MedDCPatRefDuringEncInp"]}],"gender":"female","birthDate":"1955-05-23"},"request":{"method":"PUT","url":"Patient/595ebfd1-fe6a-4b4b-96a1-23a72f6a70da"}},{"fullUrl":"https://madie.cms.gov/Encounter/7faabac0-3919-4e08-a61e-be8ad2d9cb8e","resource":{"resourceType":"Encounter","id":"7faabac0-3919-4e08-a61e-be8ad2d9cb8e","meta":{"profile":["http://hl7.org/fhir/us/qicore/StructureDefinition/qicore-encounter"]},"status":"finished","class":{"system":"http://terminology.hl7.org/CodeSystem/v3-ActCode","code":"IMP","display":"inpatient encounter"},"type":[{"coding":[{"system":"http://snomed.info/sct","code":"32485007"}]}],"subject":{"reference":"Patient/595ebfd1-fe6a-4b4b-96a1-23a72f6a70da"},"period":{"start":"2026-11-20T08:00:00Z","end":"2026-11-24T08:15:00.000+00:00"},"length":{"value":4,"unit":"days"},"reasonReference":[{"reference":"Condition/f0aaecde-aea4-42ac-a5f1-73b2b5b05b67"}]},"request":{"method":"PUT","url":"Encounter/7faabac0-3919-4e08-a61e-be8ad2d9cb8e"}},{"fullUrl":"https://madie.cms.gov/claim/5ca62962b8484628b8de1ec5","resource":{"resourceType":"Claim","id":"5ca62962b8484628b8de1ec5","meta":{"profile":["http://hl7.org/fhir/us/qicore/StructureDefinition/qicore-claim"]},"status":"active","type":{"coding":[{"system":"http://terminology.hl7.org/CodeSystem/claim-type","code":"institutional"}]},"use":"claim","patient":{"reference":"Patient/d170a0a8-b5ad-4303-b6df-e304dd5f92ad"},"created":"2026-12-01","provider":{"reference":"Practitioner/practitioner-123456"},"priority":{"coding":[{"system":"http://terminology.hl7.org/CodeSystem/processpriority","code":"normal"}]},"diagnosis":[{"sequence":1,"diagnosisCodeableConcept":{"coding":[{"system":"http://hl7.org/fhir/sid/icd-10-cm","code":"I63.00"}]},"type":[{"coding":[{"system":"http://terminology.hl7.org/CodeSystem/ex-diagnosistype","code":"principal"}]}]}],"insurance":[{"sequence":1,"focal":true,"coverage":{"reference":"Coverage/5fa041661c76ba66d9959367"}}],"item":[{"sequence":1,"diagnosisSequence":[1],"productOrService":{"coding":[{"system":"http://terminology.hl7.org/CodeSystem/ex-USCLS","code":"99555"}]},"encounter":[{"reference":"Encounter/7faabac0-3919-4e08-a61e-be8ad2d9cb8e"}]}]},"request":{"method":"PUT","url":"Claim/5ca62962b8484628b8de1ec5"}},{"fullUrl":"https://madie.cms.gov/MedicationRequest/7cdf3b67-b291-4abb-8acc-bf5fbce65d2e","resource":{"resourceType":"MedicationRequest","id":"7cdf3b67-b291-4abb-8acc-bf5fbce65d2e","meta":{"profile":["http://hl7.org/fhir/us/qicore/StructureDefinition/qicore-medicationnotrequested"]},"status":"completed","intent":"order","category":[{"coding":[{"system":"http://terminology.hl7.org/CodeSystem/medicationrequest-category","code":"community"}]}],"doNotPerform":true,"medicationCodeableConcept":{"coding":[{"system":"http://www.nlm.nih.gov/research/umls/rxnorm","code":"308351"}]},"subject":{"reference":"Patient/595ebfd1-fe6a-4b4b-96a1-23a72f6a70da"},"authoredOn":"2026-11-24T08:10:00Z","requester":{"reference":"Practitioner/example"},"reasonCode":[{"coding":[{"system":"http://snomed.info/sct","code":"443390004"}]}]},"request":{"method":"PUT","url":"MedicationRequest/7cdf3b67-b291-4abb-8acc-bf5fbce65d2e"}},{"fullUrl":"https://madie.cms.gov/Coverage/ba841c77-9d6b-401b-84ea-bd98a8cc4c79","resource":{"resourceType":"Coverage","id":"ba841c77-9d6b-401b-84ea-bd98a8cc4c79","meta":{"profile":["http://hl7.org/fhir/us/qicore/StructureDefinition/qicore-coverage"]},"status":"active","subscriberId":"523435","beneficiary":{"reference":"Patient/162a5913-9989-42f2-8d6a-ae460e245e4c"},"relationship":{"coding":[{"system":"http://terminology.hl7.org/CodeSystem/subscriber-relationship","code":"self"}]},"payor":[{"reference":"Organization/5a4c9b54-db82-4a6f-9ed1-4ba326658d8d"}]},"request":{"method":"PUT","url":"Coverage/ba841c77-9d6b-401b-84ea-bd98a8cc4c79"}},{"fullUrl":"https://madie.cms.gov/Procedure/7ed87b32-3c77-4818-ac15-b41ee08ce21d","resource":{"resourceType":"Procedure","id":"7ed87b32-3c77-4818-ac15-b41ee08ce21d","meta":{"profile":["http://hl7.org/fhir/us/qicore/StructureDefinition/qicore-procedure"]},"extension":[{"url":"http://hl7.org/fhir/us/qicore/StructureDefinition/qicore-recorded","valueDateTime":"2014-04-05T13:35:00Z"}],"status":"completed","code":{"coding":[{"system":"http://www.cms.gov/Medicare/Coding/ICD10","code":"02560ZZ"},{"system":"http://snomed.info/sct","code":"175095005"}]},"subject":{"reference":"Patient/595ebfd1-fe6a-4b4b-96a1-23a72f6a70da"},"performedPeriod":{"start":"2026-11-20T06:00:00Z","end":"2026-11-20T07:15:00.000+00:00"}},"request":{"method":"PUT","url":"Procedure/7ed87b32-3c77-4818-ac15-b41ee08ce21d"}},{"fullUrl":"https://madie.cms.gov/Condition/f0aaecde-aea4-42ac-a5f1-73b2b5b05b67","resource":{"resourceType":"Condition","id":"f0aaecde-aea4-42ac-a5f1-73b2b5b05b67","meta":{"profile":["http://hl7.org/fhir/us/qicore/StructureDefinition/qicore-condition-problems-health-concerns"]},"clinicalStatus":{"coding":[{"system":"http://terminology.hl7.org/CodeSystem/condition-clinical","code":"active"}]},"verificationStatus":{"coding":[{"system":"http://terminology.hl7.org/CodeSystem/condition-ver-status","code":"confirmed"}]},"category":[{"coding":[{"system":"http://terminology.hl7.org/CodeSystem/condition-category","code":"encounter-diagnosis","display":"Encounter Diagnosis"}]}],"code":{"coding":[{"system":"http://snomed.info/sct","version":"2021-09","code":"111297002","display":"Nonparalytic stroke (disorder)","userSelected":true}]},"subject":{"reference":"Patient/595ebfd1-fe6a-4b4b-96a1-23a72f6a70da"},"recordedDate":"2026-10-13T08:00:00Z"},"request":{"method":"PUT","url":"Condition/f0aaecde-aea4-42ac-a5f1-73b2b5b05b67"}},{"fullUrl":"https://madie.cms.gov/Organization/5a4c9b54-db82-4a6f-9ed1-4ba326658d8d","resource":{"resourceType":"Organization","id":"5a4c9b54-db82-4a6f-9ed1-4ba326658d8d","meta":{"profile":["http://hl7.org/fhir/us/qicore/StructureDefinition/qicore-organization"]},"identifier":[{"use":"temp","system":"urn:oid:2.16.840.1.113883.4.4","value":"21-3259825"}],"active":true,"type":[{"coding":[{"system":"http://terminology.hl7.org/CodeSystem/organization-type","code":"pay","display":"Payer"}]}],"name":"Blue Cross Blue Shield of Texas","telecom":[{"system":"phone","value":"(+1) 972-766-6900"}],"address":[{"use":"billing","type":"postal","line":["P.O. Box 660044"],"city":"Dallas","state":"TX","postalCode":"75266-0044","country":"USA"}]},"request":{"method":"PUT","url":"Organization/5a4c9b54-db82-4a6f-9ed1-4ba326658d8d"}},{"fullUrl":"https://madie.cms.gov/MeasureReport/014d015b-d737-4564-8b0d-f94f1a699271","resource":{"resourceType":"MeasureReport","id":"014d015b-d737-4564-8b0d-f94f1a699271","meta":{"profile":["http://hl7.org/fhir/us/cqfmeasures/StructureDefinition/test-case-cqfm"]},"contained":[{"resourceType":"Parameters","id":"422a4f59-d8c9-4062-840a-c191dcbe01b8-parameters","parameter":[{"name":"subject","valueString":"595ebfd1-fe6a-4b4b-96a1-23a72f6a70da"}]}],"extension":[{"url":"http://hl7.org/fhir/StructureDefinition/cqf-inputParameters","valueReference":{"reference":"#422a4f59-d8c9-4062-840a-c191dcbe01b8-parameters"}},{"url":"http://hl7.org/fhir/us/cqfmeasures/StructureDefinition/cqfm-testCaseDescription","valueMarkdown":"Patient did not receive anticoagulant, patient refused\n"}],"modifierExtension":[{"url":"http://hl7.org/fhir/us/cqfmeasures/StructureDefinition/cqfm-isTestCase","valueBoolean":true}],"status":"complete","type":"individual","measure":"https://madie.cms.gov/Measure/CMS71FHIRSTKAnticoagAFFlutter","period":{"start":"2026-01-01","end":"2026-12-31"},"group":[{"id":"Group_1","population":[{"id":"InitialPopulation_1","code":{"coding":[{"system":"http://terminology.hl7.org/CodeSystem/measure-population","code":"initial-population","display":"Initial Population"}]},"count":1},{"id":"Denominator_1","code":{"coding":[{"system":"http://terminology.hl7.org/CodeSystem/measure-population","code":"denominator","display":"Denominator"}]},"count":1},{"id":"DenominatorExclusion_1","code":{"coding":[{"system":"http://terminology.hl7.org/CodeSystem/measure-population","code":"denominator-exclusion","display":"Denominator Exclusion"}]},"count":0},{"id":"Numerator_1","code":{"coding":[{"system":"http://terminology.hl7.org/CodeSystem/measure-population","code":"numerator","display":"Numerator"}]},"count":0},{"id":"DenominatorException_1","code":{"coding":[{"system":"http://terminology.hl7.org/CodeSystem/measure-population","code":"denominator-exception","display":"Denominator Exception"}]},"count":1}],"measureScore":{"value":0.0}}],"evaluatedResource":[{"reference":"Patient/595ebfd1-fe6a-4b4b-96a1-23a72f6a70da"},{"reference":"Encounter/7faabac0-3919-4e08-a61e-be8ad2d9cb8e"},{"reference":"Claim/5ca62962b8484628b8de1ec5"},{"reference":"MedicationRequest/7cdf3b67-b291-4abb-8acc-bf5fbce65d2e"},{"reference":"Coverage/ba841c77-9d6b-401b-84ea-bd98a8cc4c79"},{"reference":"Procedure/7ed87b32-3c77-4818-ac15-b41ee08ce21d"},{"reference":"Condition/f0aaecde-aea4-42ac-a5f1-73b2b5b05b67"},{"reference":"Organization/5a4c9b54-db82-4a6f-9ed1-4ba326658d8d"}]},"request":{"method":"PUT","url":"MeasureReport/014d015b-d737-4564-8b0d-f94f1a699271"}}]},"request":{"method":"PUT","url":"Bundle/633c9d030968f8012250fc8c"}},{"resource":{"resourceType":"Patient","id":"595ebfd1-fe6a-4b4b-96a1-23a72f6a70da","meta":{"profile":["http://hl7.org/fhir/us/qicore/StructureDefinition/qicore-patient"]},"text":{"status":"generated","div":"<div xmlns=\"http://www.w3.org/1999/xhtml\"><div class=\"hapiHeaderText\">MedDCPatRefDuringEncInp <b>DENEXCEPPASS </b></div><table class=\"hapiPropertyTable\"><tbody><tr><td>Identifier</td><td>0c63b215784ea7e3383559263b15cd7e</td></tr><tr><td>Date of birth</td><td><span>23 May 1954</span></td></tr></tbody></table></div>"},"extension":[{"url":"http://hl7.org/fhir/us/core/StructureDefinition/us-core-race","extension":[{"url":"ombCategory","valueCoding":{"system":"urn:oid:2.16.840.1.113883.6.238","code":"1002-5","display":"American Indian or Alaska Native","userSelected":true}},{"url":"text","valueString":"American Indian or Alaska Native"}]},{"url":"http://hl7.org/fhir/us/core/StructureDefinition/us-core-ethnicity","extension":[{"url":"ombCategory","valueCoding":{"system":"urn:oid:2.16.840.1.113883.6.238","code":"2135-2","display":"Hispanic or Latino","userSelected":true}},{"url":"text","valueString":"Hispanic or Latino"}]}],"identifier":[{"type":{"coding":[{"system":"http://terminology.hl7.org/CodeSystem/v2-0203","code":"MR"}]},"system":"https://bonnie-fhir.healthit.gov/","value":"633c9d030968f8012250fc8c"}],"active":true,"name":[{"use":"usual","family":"DENEXCEPPass","given":["MedDCPatRefDuringEncInp"]}],"gender":"female","birthDate":"1955-05-23"},"request":{"method":"PUT","url":"Patient/595ebfd1-fe6a-4b4b-96a1-23a72f6a70da"}},{"resource":{"resourceType":"Encounter","id":"7faabac0-3919-4e08-a61e-be8ad2d9cb8e","meta":{"profile":["http://hl7.org/fhir/us/qicore/StructureDefinition/qicore-encounter"]},"status":"finished","class":{"system":"http://terminology.hl7.org/CodeSystem/v3-ActCode","code":"IMP","display":"inpatient encounter"},"type":[{"coding":[{"system":"http://snomed.info/sct","code":"32485007"}]}],"subject":{"reference":"Patient/595ebfd1-fe6a-4b4b-96a1-23a72f6a70da"},"period":{"start":"2026-11-20T08:00:00Z","end":"2026-11-24T08:15:00.000+00:00"},"length":{"value":4,"unit":"days"},"reasonReference":[{"reference":"Condition/f0aaecde-aea4-42ac-a5f1-73b2b5b05b67"}]},"request":{"method":"PUT","url":"Encounter/7faabac0-3919-4e08-a61e-be8ad2d9cb8e"}},{"resource":{"resourceType":"Coverage","id":"ba841c77-9d6b-401b-84ea-bd98a8cc4c79","meta":{"profile":["http://hl7.org/fhir/us/qicore/StructureDefinition/qicore-coverage"]},"status":"active","subscriberId":"523435","beneficiary":{"reference":"Patient/162a5913-9989-42f2-8d6a-ae460e245e4c"},"relationship":{"coding":[{"system":"http://terminology.hl7.org/CodeSystem/subscriber-relationship","code":"self"}]},"payor":[{"reference":"Organization/5a4c9b54-db82-4a6f-9ed1-4ba326658d8d"}]},"request":{"method":"PUT","url":"Coverage/ba841c77-9d6b-401b-84ea-bd98a8cc4c79"}},{"resource":{"resourceType":"Claim","id":"5ca62962b8484628b8de1ec5","meta":{"profile":["http://hl7.org/fhir/us/qicore/StructureDefinition/qicore-claim"]},"status":"active","type":{"coding":[{"system":"http://terminology.hl7.org/CodeSystem/claim-type","code":"institutional"}]},"use":"claim","patient":{"reference":"Patient/d170a0a8-b5ad-4303-b6df-e304dd5f92ad"},"created":"2026-12-01","provider":{"reference":"Practitioner/practitioner-123456"},"priority":{"coding":[{"system":"http://terminology.hl7.org/CodeSystem/processpriority","code":"normal"}]},"diagnosis":[{"sequence":1,"diagnosisCodeableConcept":{"coding":[{"system":"http://hl7.org/fhir/sid/icd-10-cm","code":"I63.00"}]},"type":[{"coding":[{"system":"http://terminology.hl7.org/CodeSystem/ex-diagnosistype","code":"principal"}]}]}],"insurance":[{"sequence":1,"focal":true,"coverage":{"reference":"Coverage/5fa041661c76ba66d9959367"}}],"item":[{"sequence":1,"diagnosisSequence":[1],"productOrService":{"coding":[{"system":"http://terminology.hl7.org/CodeSystem/ex-USCLS","code":"99555"}]},"encounter":[{"reference":"Encounter/7faabac0-3919-4e08-a61e-be8ad2d9cb8e"}]}]},"request":{"method":"PUT","url":"Claim/5ca62962b8484628b8de1ec5"}}]}