{
  "resourceType": "Bundle",
  "id": "6353045e224f3b053967124c",
  "type": "transaction",
  "entry": [ {
    "fullUrl": "https://madie.cms.gov/Patient/3700e4ab-df72-403f-8733-b457583dac19",
    "resource": {
      "resourceType": "Patient",
      "id": "3700e4ab-df72-403f-8733-b457583dac19",
      "meta": {
        "profile": [ "http://hl7.org/fhir/us/qicore/StructureDefinition/qicore-patient" ]
      },
      "extension": [ {
        "url": "http://hl7.org/fhir/us/core/StructureDefinition/us-core-race",
        "extension": [ {
          "url": "ombCategory",
          "valueCoding": {
            "system": "urn:oid:2.16.840.1.113883.6.238",
            "code": "1002-5",
            "display": "American Indian or Alaska Native",
            "userSelected": true
          }
        }, {
          "url": "text",
          "valueString": "American Indian or Alaska Native"
        } ]
      }, {
        "url": "http://hl7.org/fhir/us/core/StructureDefinition/us-core-ethnicity",
        "extension": [ {
          "url": "ombCategory",
          "valueCoding": {
            "system": "urn:oid:2.16.840.1.113883.6.238",
            "code": "2135-2",
            "display": "Hispanic or Latino",
            "userSelected": true
          }
        }, {
          "url": "text",
          "valueString": "Hispanic or Latino"
        } ]
      } ],
      "identifier": [ {
        "type": {
          "coding": [ {
            "system": "http://terminology.hl7.org/CodeSystem/v2-0203",
            "code": "MR"
          } ]
        },
        "system": "https://bonnie-fhir.healthit.gov/",
        "value": "6353045e224f3b053967124c"
      } ],
      "name": [ {
        "family": "DENOMPass",
        "given": [ "EDD24Hr01MinB4DELRsltDtTime" ]
      } ],
      "gender": "female",
      "birthDate": "2005-02-01"
    },
    "request": {
      "method": "PUT",
      "url": "Patient/3700e4ab-df72-403f-8733-b457583dac19"
    }
  }, {
    "fullUrl": "https://madie.cms.gov/Encounter/907038c0-7e9c-47fe-97a0-8869f30247b4",
    "resource": {
      "resourceType": "Encounter",
      "id": "907038c0-7e9c-47fe-97a0-8869f30247b4",
      "meta": {
        "profile": [ "http://hl7.org/fhir/us/qicore/StructureDefinition/qicore-encounter" ]
      },
      "status": "finished",
      "class": {
        "system": "http://terminology.hl7.org/CodeSystem/v3-ActCode",
        "code": "IMP",
        "display": "inpatient encounter"
      },
      "type": [ {
        "coding": [ {
          "system": "http://snomed.info/sct",
          "version": "2022-09",
          "code": "183452005",
          "display": "Emergency hospital admission (procedure)",
          "userSelected": true
        } ]
      } ],
      "subject": {
        "reference": "Patient/3700e4ab-df72-403f-8733-b457583dac19"
      },
      "period": {
        "start": "2026-02-01T08:00:00Z",
        "end": "2026-02-05T08:15:00.000+00:00"
      }
    },
    "request": {
      "method": "PUT",
      "url": "Encounter/907038c0-7e9c-47fe-97a0-8869f30247b4"
    }
  }, {
    "fullUrl": "https://madie.cms.gov/Procedure/34af6e16-9c7f-4133-81fa-87039b61e519",
    "resource": {
      "resourceType": "Procedure",
      "id": "34af6e16-9c7f-4133-81fa-87039b61e519",
      "meta": {
        "profile": [ "http://hl7.org/fhir/us/qicore/StructureDefinition/qicore-procedure" ]
      },
      "extension": [ {
        "url": "http://hl7.org/fhir/us/qicore/StructureDefinition/qicore-recorded",
        "valueDateTime": "2014-04-05T13:35:00Z"
      } ],
      "status": "completed",
      "code": {
        "coding": [ {
          "system": "http://snomed.info/sct",
          "version": "2022-09",
          "code": "10745001",
          "display": "Delivery of transverse presentation (procedure)",
          "userSelected": true
        } ]
      },
      "subject": {
        "reference": "Patient/3700e4ab-df72-403f-8733-b457583dac19"
      },
      "performedPeriod": {
        "start": "2026-02-01T08:00:00Z",
        "end": "2026-02-05T08:15:00.000+00:00"
      }
    },
    "request": {
      "method": "PUT",
      "url": "Procedure/34af6e16-9c7f-4133-81fa-87039b61e519"
    }
  }, {
    "fullUrl": "https://madie.cms.gov/Observation/34470183-0d14-4721-9648-de0bc2ad9e69",
    "resource": {
      "resourceType": "Observation",
      "id": "34470183-0d14-4721-9648-de0bc2ad9e69",
      "meta": {
        "profile": [ "http://hl7.org/fhir/us/qicore/StructureDefinition/qicore-simple-observation" ]
      },
      "status": "final",
      "category": [ {
        "coding": [ {
          "system": "http://terminology.hl7.org/CodeSystem/observation-category",
          "code": "exam",
          "display": "exam",
          "userSelected": true
        } ]
      } ],
      "code": {
        "coding": [ {
          "system": "http://loinc.org",
          "code": "93857-1",
          "display": "Date and time of obstetric delivery",
          "userSelected": true
        } ]
      },
      "subject": {
        "reference": "Patient/3700e4ab-df72-403f-8733-b457583dac19"
      },
      "effectiveDateTime": "2026-02-01T08:00:00Z",
      "performer": [ {
        "reference": "Organization/example1",
        "display": "Hendricks Country Hospital"
      } ],
      "valueDateTime": "2026-02-01T08:00:00.000+00:00"
    },
    "request": {
      "method": "PUT",
      "url": "Observation/34470183-0d14-4721-9648-de0bc2ad9e69"
    }
  }, {
    "fullUrl": "https://madie.cms.gov/Observation/c53f8972-3d07-4b5a-a0b1-913443d13cc3",
    "resource": {
      "resourceType": "Observation",
      "id": "c53f8972-3d07-4b5a-a0b1-913443d13cc3",
      "meta": {
        "profile": [ "http://hl7.org/fhir/us/qicore/StructureDefinition/qicore-simple-observation" ]
      },
      "status": "final",
      "category": [ {
        "coding": [ {
          "system": "http://terminology.hl7.org/CodeSystem/observation-category",
          "code": "exam",
          "display": "exam",
          "userSelected": true
        } ]
      } ],
      "code": {
        "coding": [ {
          "system": "http://loinc.org",
          "code": "11778-8",
          "display": "Delivery date Estimated",
          "userSelected": true
        } ]
      },
      "subject": {
        "reference": "Patient/3700e4ab-df72-403f-8733-b457583dac19"
      },
      "effectiveDateTime": "2026-01-31T07:59:00Z",
      "performer": [ {
        "reference": "Organization/example1",
        "display": "Hendricks Country Hospital"
      } ],
      "valueDateTime": "2026-01-31T08:01:00.000+00:00"
    },
    "request": {
      "method": "PUT",
      "url": "Observation/c53f8972-3d07-4b5a-a0b1-913443d13cc3"
    }
  }, {
    "fullUrl": "https://madie.cms.gov/Coverage/039fbc52-b0be-4150-a9df-7183cf6e5e4a",
    "resource": {
      "resourceType": "Coverage",
      "id": "039fbc52-b0be-4150-a9df-7183cf6e5e4a",
      "meta": {
        "profile": [ "http://hl7.org/fhir/us/qicore/StructureDefinition/qicore-coverage" ]
      },
      "status": "active",
      "subscriberId": "523435",
      "beneficiary": {
        "reference": "Patient/3700e4ab-df72-403f-8733-b457583dac19"
      },
      "relationship": {
        "coding": [ {
          "system": "http://terminology.hl7.org/CodeSystem/subscriber-relationship",
          "code": "self"
        } ]
      },
      "payor": [ {
        "reference": "Organization/ab7b3daf-9040-4dfa-86ed-7961b30c9866"
      } ]
    },
    "request": {
      "method": "PUT",
      "url": "Coverage/039fbc52-b0be-4150-a9df-7183cf6e5e4a"
    }
  }, {
    "fullUrl": "https://madie.cms.gov/Organization/ab7b3daf-9040-4dfa-86ed-7961b30c9866",
    "resource": {
      "resourceType": "Organization",
      "id": "ab7b3daf-9040-4dfa-86ed-7961b30c9866",
      "meta": {
        "profile": [ "http://hl7.org/fhir/us/qicore/StructureDefinition/qicore-organization" ]
      },
      "identifier": [ {
        "use": "temp",
        "system": "urn:oid:2.16.840.1.113883.4.4",
        "value": "21-3259825"
      } ],
      "active": true,
      "type": [ {
        "coding": [ {
          "system": "http://terminology.hl7.org/CodeSystem/organization-type",
          "code": "pay",
          "display": "Payer"
        } ]
      } ],
      "name": "Blue Cross Blue Shield of Texas",
      "telecom": [ {
        "system": "phone",
        "value": "(+1) 972-766-6900"
      } ],
      "address": [ {
        "use": "billing",
        "type": "postal",
        "line": [ "P.O. Box 660044" ],
        "city": "Dallas",
        "state": "TX",
        "postalCode": "75266-0044",
        "country": "USA"
      } ]
    },
    "request": {
      "method": "PUT",
      "url": "Organization/ab7b3daf-9040-4dfa-86ed-7961b30c9866"
    }
  }, {
    "fullUrl": "https://madie.cms.gov/Practitioner/076bd5ce-5e4f-4a18-be47-5c92b80e7ca6",
    "resource": {
      "resourceType": "Practitioner",
      "id": "076bd5ce-5e4f-4a18-be47-5c92b80e7ca6",
      "meta": {
        "profile": [ "http://hl7.org/fhir/us/qicore/StructureDefinition/qicore-practitioner" ]
      },
      "identifier": [ {
        "system": "http://hl7.org/fhir/sid/us-npi",
        "value": "1234567890"
      } ],
      "name": [ {
        "family": "Evil",
        "prefix": [ "Dr" ]
      } ]
    },
    "request": {
      "method": "PUT",
      "url": "Practitioner/076bd5ce-5e4f-4a18-be47-5c92b80e7ca6"
    }
  }, {
    "fullUrl": "https://madie.cms.gov/MeasureReport/34b32eae-622c-4cd6-8953-d5d7011fbe09",
    "resource": {
      "resourceType": "MeasureReport",
      "id": "34b32eae-622c-4cd6-8953-d5d7011fbe09",
      "meta": {
        "profile": [ "http://hl7.org/fhir/us/cqfmeasures/StructureDefinition/test-case-cqfm" ]
      },
      "contained": [ {
        "resourceType": "Parameters",
        "id": "f684f577-9ebd-4d66-8032-b767f95e4039-parameters",
        "parameter": [ {
          "name": "subject",
          "valueString": "3700e4ab-df72-403f-8733-b457583dac19"
        } ]
      } ],
      "extension": [ {
        "url": "http://hl7.org/fhir/StructureDefinition/cqf-inputParameters",
        "valueReference": {
          "reference": "#f684f577-9ebd-4d66-8032-b767f95e4039-parameters"
        }
      }, {
        "url": "http://hl7.org/fhir/us/cqfmeasures/StructureDefinition/cqfm-testCaseDescription",
        "valueMarkdown": "Last assessment Performed, Estimated Delivery Date, Relevant time, 24 hours 1 min before Delivery Result Date/Time.  EDD has date/time\n"
      } ],
      "modifierExtension": [ {
        "url": "http://hl7.org/fhir/us/cqfmeasures/StructureDefinition/cqfm-isTestCase",
        "valueBoolean": true
      } ],
      "status": "complete",
      "type": "individual",
      "measure": "https://madie.cms.gov/Measure/CMS1028FHIRPCSevereOBComps",
      "period": {
        "start": "2026-01-01",
        "end": "2026-12-31"
      },
      "group": [ {
        "id": "Group_1",
        "population": [ {
          "id": "InitialPopulation_1",
          "code": {
            "coding": [ {
              "system": "http://terminology.hl7.org/CodeSystem/measure-population",
              "code": "initial-population",
              "display": "Initial Population"
            } ]
          },
          "count": 1
        }, {
          "id": "Denominator_1",
          "code": {
            "coding": [ {
              "system": "http://terminology.hl7.org/CodeSystem/measure-population",
              "code": "denominator",
              "display": "Denominator"
            } ]
          },
          "count": 1
        }, {
          "id": "Numerator_1",
          "code": {
            "coding": [ {
              "system": "http://terminology.hl7.org/CodeSystem/measure-population",
              "code": "numerator",
              "display": "Numerator"
            } ]
          },
          "count": 0
        }, {
          "id": "NumeratorExclusion_1",
          "code": {
            "coding": [ {
              "system": "http://terminology.hl7.org/CodeSystem/measure-population",
              "code": "numerator-exclusion",
              "display": "Numerator Exclusion"
            } ]
          },
          "count": 0
        } ],
        "measureScore": {
          "value": 0.0
        }
      }, {
        "id": "Group_2",
        "population": [ {
          "id": "InitialPopulation_2",
          "code": {
            "coding": [ {
              "system": "http://terminology.hl7.org/CodeSystem/measure-population",
              "code": "initial-population",
              "display": "Initial Population"
            } ]
          },
          "count": 1
        }, {
          "id": "Denominator_2",
          "code": {
            "coding": [ {
              "system": "http://terminology.hl7.org/CodeSystem/measure-population",
              "code": "denominator",
              "display": "Denominator"
            } ]
          },
          "count": 1
        }, {
          "id": "Numerator_2",
          "code": {
            "coding": [ {
              "system": "http://terminology.hl7.org/CodeSystem/measure-population",
              "code": "numerator",
              "display": "Numerator"
            } ]
          },
          "count": 0
        }, {
          "id": "NumeratorExclusion_2",
          "code": {
            "coding": [ {
              "system": "http://terminology.hl7.org/CodeSystem/measure-population",
              "code": "numerator-exclusion",
              "display": "Numerator Exclusion"
            } ]
          },
          "count": 0
        } ],
        "measureScore": {
          "value": 0.0
        }
      } ],
      "evaluatedResource": [ {
        "reference": "Patient/3700e4ab-df72-403f-8733-b457583dac19"
      }, {
        "reference": "Encounter/907038c0-7e9c-47fe-97a0-8869f30247b4"
      }, {
        "reference": "Procedure/34af6e16-9c7f-4133-81fa-87039b61e519"
      }, {
        "reference": "Observation/34470183-0d14-4721-9648-de0bc2ad9e69"
      }, {
        "reference": "Observation/c53f8972-3d07-4b5a-a0b1-913443d13cc3"
      }, {
        "reference": "Coverage/039fbc52-b0be-4150-a9df-7183cf6e5e4a"
      }, {
        "reference": "Organization/ab7b3daf-9040-4dfa-86ed-7961b30c9866"
      }, {
        "reference": "Practitioner/076bd5ce-5e4f-4a18-be47-5c92b80e7ca6"
      } ]
    },
    "request": {
      "method": "PUT",
      "url": "MeasureReport/34b32eae-622c-4cd6-8953-d5d7011fbe09"
    }
  } ]
}