{
  "resourceType": "Bundle",
  "id": "62a89870cadf7512b3f7b30c",
  "type": "transaction",
  "entry": [ {
    "fullUrl": "https://madie.cms.gov/Patient/435d23cc-57ef-4f7f-aec3-c7ef524d5cd1",
    "resource": {
      "resourceType": "Patient",
      "id": "435d23cc-57ef-4f7f-aec3-c7ef524d5cd1",
      "meta": {
        "profile": [ "http://hl7.org/fhir/us/qicore/StructureDefinition/qicore-patient" ]
      },
      "extension": [ {
        "url": "http://hl7.org/fhir/us/core/StructureDefinition/us-core-race",
        "extension": [ {
          "url": "ombCategory",
          "valueCoding": {
            "system": "urn:oid:2.16.840.1.113883.6.238",
            "code": "1002-5",
            "display": "American Indian or Alaska Native",
            "userSelected": true
          }
        }, {
          "url": "text",
          "valueString": "American Indian or Alaska Native"
        } ]
      }, {
        "url": "http://hl7.org/fhir/us/core/StructureDefinition/us-core-ethnicity",
        "extension": [ {
          "url": "ombCategory",
          "valueCoding": {
            "system": "urn:oid:2.16.840.1.113883.6.238",
            "code": "2135-2",
            "display": "Hispanic or Latino",
            "userSelected": true
          }
        }, {
          "url": "text",
          "valueString": "Hispanic or Latino"
        } ]
      } ],
      "identifier": [ {
        "type": {
          "coding": [ {
            "system": "http://terminology.hl7.org/CodeSystem/v2-0203",
            "code": "MR"
          } ]
        },
        "system": "https://bonnie-fhir.healthit.gov/",
        "value": "62a89870cadf7512b3f7b30c"
      } ],
      "name": [ {
        "family": "DENEXPass",
        "given": [ "HTNOneDayBeforeEnc" ]
      } ],
      "gender": "male",
      "birthDate": "2007-01-01"
    },
    "request": {
      "method": "PUT",
      "url": "Patient/435d23cc-57ef-4f7f-aec3-c7ef524d5cd1"
    }
  }, {
    "fullUrl": "https://madie.cms.gov/Encounter/bfe0d277-cfa6-474a-9aa7-36331a14b872",
    "resource": {
      "resourceType": "Encounter",
      "id": "bfe0d277-cfa6-474a-9aa7-36331a14b872",
      "meta": {
        "profile": [ "http://hl7.org/fhir/us/qicore/StructureDefinition/qicore-encounter" ]
      },
      "status": "finished",
      "class": {
        "system": "http://terminology.hl7.org/CodeSystem/v3-ActCode",
        "code": "AMB",
        "display": "ambulatory"
      },
      "type": [ {
        "coding": [ {
          "system": "http://snomed.info/sct",
          "version": "2022-03",
          "code": "4525004",
          "display": "Emergency department patient visit (procedure)",
          "userSelected": true
        } ]
      } ],
      "subject": {
        "reference": "Patient/435d23cc-57ef-4f7f-aec3-c7ef524d5cd1"
      },
      "period": {
        "start": "2026-01-01T08:00:00.000+00:00",
        "end": "2026-01-01T10:00:00.000+00:00"
      }
    },
    "request": {
      "method": "PUT",
      "url": "Encounter/bfe0d277-cfa6-474a-9aa7-36331a14b872"
    }
  }, {
    "fullUrl": "https://madie.cms.gov/Condition/8ddd133d-5621-45d7-b8f8-d2c65812b09b",
    "resource": {
      "resourceType": "Condition",
      "id": "8ddd133d-5621-45d7-b8f8-d2c65812b09b",
      "meta": {
        "profile": [ "http://hl7.org/fhir/us/qicore/StructureDefinition/qicore-condition-problems-health-concerns" ]
      },
      "clinicalStatus": {
        "coding": [ {
          "system": "http://terminology.hl7.org/CodeSystem/condition-clinical",
          "code": "recurrence",
          "display": "recurrence",
          "userSelected": true
        } ]
      },
      "verificationStatus": {
        "coding": [ {
          "system": "http://terminology.hl7.org/CodeSystem/condition-ver-status",
          "code": "confirmed",
          "display": "Confirmed",
          "userSelected": true
        } ]
      },
      "category": [ {
        "coding": [ {
          "system": "http://hl7.org/fhir/us/core/CodeSystem/condition-category",
          "code": "health-concern",
          "display": "Health health-concern"
        } ]
      } ],
      "code": {
        "coding": [ {
          "system": "http://snomed.info/sct",
          "version": "2022-03",
          "code": "31992008",
          "display": "Secondary hypertension (disorder)",
          "userSelected": true
        } ]
      },
      "subject": {
        "reference": "Patient/9df71b27-b988-421e-87ba-671a39f0b0b2"
      },
      "onsetPeriod": {
        "start": "2025-12-31T15:00:00.000+00:00"
      }
    },
    "request": {
      "method": "PUT",
      "url": "Condition/8ddd133d-5621-45d7-b8f8-d2c65812b09b"
    }
  }, {
    "fullUrl": "https://madie.cms.gov/Coverage/47aae5e0-ee85-453d-a88d-28e2beae7a45",
    "resource": {
      "resourceType": "Coverage",
      "id": "47aae5e0-ee85-453d-a88d-28e2beae7a45",
      "meta": {
        "profile": [ "http://hl7.org/fhir/us/qicore/StructureDefinition/qicore-coverage" ]
      },
      "status": "active",
      "beneficiary": {
        "reference": "Patient/435d23cc-57ef-4f7f-aec3-c7ef524d5cd1"
      },
      "payor": [ {
        "reference": "Organization/435ebf63-b6fc-4b6c-868c-a11c38b8bb1f"
      } ]
    },
    "request": {
      "method": "PUT",
      "url": "Coverage/47aae5e0-ee85-453d-a88d-28e2beae7a45"
    }
  }, {
    "fullUrl": "https://madie.cms.gov/Organization/435ebf63-b6fc-4b6c-868c-a11c38b8bb1f",
    "resource": {
      "resourceType": "Organization",
      "id": "435ebf63-b6fc-4b6c-868c-a11c38b8bb1f",
      "meta": {
        "profile": [ "http://hl7.org/fhir/us/qicore/StructureDefinition/qicore-organization" ]
      },
      "identifier": [ {
        "use": "temp",
        "system": "urn:oid:2.16.840.1.113883.4.4",
        "value": "21-3259825"
      } ],
      "active": true,
      "type": [ {
        "coding": [ {
          "system": "http://terminology.hl7.org/CodeSystem/organization-type",
          "code": "pay",
          "display": "Payer"
        } ]
      } ],
      "name": "Blue Cross Blue Shield of Texas",
      "telecom": [ {
        "system": "phone",
        "value": "(+1) 972-766-6900"
      } ],
      "address": [ {
        "use": "billing",
        "type": "postal",
        "line": [ "P.O. Box 660044" ],
        "city": "Dallas",
        "state": "TX",
        "postalCode": "75266-0044",
        "country": "USA"
      } ]
    },
    "request": {
      "method": "PUT",
      "url": "Organization/435ebf63-b6fc-4b6c-868c-a11c38b8bb1f"
    }
  }, {
    "fullUrl": "https://madie.cms.gov/Practitioner/5581439a-7480-42c3-beb5-4bcf94f4f24f",
    "resource": {
      "resourceType": "Practitioner",
      "id": "5581439a-7480-42c3-beb5-4bcf94f4f24f",
      "meta": {
        "profile": [ "http://hl7.org/fhir/us/qicore/StructureDefinition/qicore-practitioner" ]
      },
      "identifier": [ {
        "system": "http://hl7.org/fhir/sid/us-npi",
        "value": "123456"
      } ],
      "name": [ {
        "family": "Evil",
        "prefix": [ "Dr" ]
      } ]
    },
    "request": {
      "method": "PUT",
      "url": "Practitioner/5581439a-7480-42c3-beb5-4bcf94f4f24f"
    }
  }, {
    "fullUrl": "https://madie.cms.gov/MeasureReport/91a0cb0d-4db6-43a1-bb3a-772779c5f38c",
    "resource": {
      "resourceType": "MeasureReport",
      "id": "91a0cb0d-4db6-43a1-bb3a-772779c5f38c",
      "meta": {
        "profile": [ "http://hl7.org/fhir/us/cqfmeasures/StructureDefinition/test-case-cqfm" ]
      },
      "contained": [ {
        "resourceType": "Parameters",
        "id": "476ca8ba-70df-4c88-9245-041875e2c06c-parameters",
        "parameter": [ {
          "name": "subject",
          "valueString": "435d23cc-57ef-4f7f-aec3-c7ef524d5cd1"
        } ]
      } ],
      "extension": [ {
        "url": "http://hl7.org/fhir/StructureDefinition/cqf-inputParameters",
        "valueReference": {
          "reference": "#476ca8ba-70df-4c88-9245-041875e2c06c-parameters"
        }
      }, {
        "url": "http://hl7.org/fhir/us/cqfmeasures/StructureDefinition/cqfm-testCaseDescription",
        "valueMarkdown": "Enc first day of MP, HTN (health concern, recurrence) dx last day of prior year"
      } ],
      "modifierExtension": [ {
        "url": "http://hl7.org/fhir/us/cqfmeasures/StructureDefinition/cqfm-isTestCase",
        "valueBoolean": true
      } ],
      "status": "complete",
      "type": "individual",
      "measure": "https://madie.cms.gov/Measure/CMS22FHIRPCSBPScreeningFollowUp",
      "period": {
        "start": "2026-01-01",
        "end": "2026-12-31"
      },
      "group": [ {
        "id": "Group_1",
        "population": [ {
          "id": "InitialPopulation_1",
          "code": {
            "coding": [ {
              "system": "http://terminology.hl7.org/CodeSystem/measure-population",
              "code": "initial-population",
              "display": "Initial Population"
            } ]
          },
          "count": 1
        }, {
          "id": "Denominator_1",
          "code": {
            "coding": [ {
              "system": "http://terminology.hl7.org/CodeSystem/measure-population",
              "code": "denominator",
              "display": "Denominator"
            } ]
          },
          "count": 1
        }, {
          "id": "DenominatorExclusion_1",
          "code": {
            "coding": [ {
              "system": "http://terminology.hl7.org/CodeSystem/measure-population",
              "code": "denominator-exclusion",
              "display": "Denominator Exclusion"
            } ]
          },
          "count": 1
        }, {
          "id": "Numerator_1",
          "code": {
            "coding": [ {
              "system": "http://terminology.hl7.org/CodeSystem/measure-population",
              "code": "numerator",
              "display": "Numerator"
            } ]
          },
          "count": 0
        }, {
          "id": "DenominatorException_1",
          "code": {
            "coding": [ {
              "system": "http://terminology.hl7.org/CodeSystem/measure-population",
              "code": "denominator-exception",
              "display": "Denominator Exception"
            } ]
          },
          "count": 0
        } ],
        "measureScore": {
          "value": 0.0
        }
      } ],
      "evaluatedResource": [ {
        "reference": "Patient/435d23cc-57ef-4f7f-aec3-c7ef524d5cd1"
      }, {
        "reference": "Encounter/bfe0d277-cfa6-474a-9aa7-36331a14b872"
      }, {
        "reference": "Condition/8ddd133d-5621-45d7-b8f8-d2c65812b09b"
      }, {
        "reference": "Coverage/47aae5e0-ee85-453d-a88d-28e2beae7a45"
      }, {
        "reference": "Organization/435ebf63-b6fc-4b6c-868c-a11c38b8bb1f"
      }, {
        "reference": "Practitioner/5581439a-7480-42c3-beb5-4bcf94f4f24f"
      } ]
    },
    "request": {
      "method": "PUT",
      "url": "MeasureReport/91a0cb0d-4db6-43a1-bb3a-772779c5f38c"
    }
  } ]
}