{
    "entry": [
        {
            "request": {
                "method": "PUT",
                "url": "Patient/435d23cc-57ef-4f7f-aec3-c7ef524d5cd1"
            },
            "resource": {
                "identifier": [{
                    "system": "https://bonnie-fhir.healthit.gov/",
                    "type": {"coding": [{
                        "system": "http://terminology.hl7.org/CodeSystem/v2-0203",
                        "code": "MR"
                    }]},
                    "value": "62a89870cadf7512b3f7b30c"
                }],
                "extension": [
                    {
                        "extension": [
                            {
                                "valueCoding": {
                                    "system": "urn:oid:2.16.840.1.113883.6.238",
                                    "code": "1002-5",
                                    "userSelected": true,
                                    "display": "American Indian or Alaska Native"
                                },
                                "url": "ombCategory"
                            },
                            {
                                "valueString": "American Indian or Alaska Native",
                                "url": "text"
                            }
                        ],
                        "url": "http://hl7.org/fhir/us/core/StructureDefinition/us-core-race"
                    },
                    {
                        "extension": [
                            {
                                "valueCoding": {
                                    "system": "urn:oid:2.16.840.1.113883.6.238",
                                    "code": "2135-2",
                                    "userSelected": true,
                                    "display": "Hispanic or Latino"
                                },
                                "url": "ombCategory"
                            },
                            {
                                "valueString": "Hispanic or Latino",
                                "url": "text"
                            }
                        ],
                        "url": "http://hl7.org/fhir/us/core/StructureDefinition/us-core-ethnicity"
                    }
                ],
                "gender": "male",
                "meta": {"profile": ["http://hl7.org/fhir/us/qicore/StructureDefinition/qicore-patient"]},
                "name": [{
                    "given": ["HTNOneDayBeforeEnc"],
                    "family": "DENEXPass"
                }],
                "id": "435d23cc-57ef-4f7f-aec3-c7ef524d5cd1",
                "birthDate": "2007-01-01",
                "resourceType": "Patient"
            },
            "fullUrl": "https://madie.cms.gov/Patient/435d23cc-57ef-4f7f-aec3-c7ef524d5cd1"
        },
        {
            "request": {
                "method": "PUT",
                "url": "Encounter/bfe0d277-cfa6-474a-9aa7-36331a14b872"
            },
            "resource": {
                "period": {
                    "start": "2026-01-01T08:00:00.000+00:00",
                    "end": "2026-01-01T10:00:00.000+00:00"
                },
                "meta": {"profile": ["http://hl7.org/fhir/us/qicore/StructureDefinition/qicore-encounter"]},
                "subject": {"reference": "Patient/435d23cc-57ef-4f7f-aec3-c7ef524d5cd1"},
                "id": "bfe0d277-cfa6-474a-9aa7-36331a14b872",
                "type": [{"coding": [{
                    "system": "http://snomed.info/sct",
                    "code": "4525004",
                    "userSelected": true,
                    "display": "Emergency department patient visit (procedure)",
                    "version": "2022-03"
                }]}],
                "class": {
                    "system": "http://terminology.hl7.org/CodeSystem/v3-ActCode",
                    "code": "AMB",
                    "display": "ambulatory"
                },
                "resourceType": "Encounter",
                "status": "finished"
            },
            "fullUrl": "https://madie.cms.gov/Encounter/bfe0d277-cfa6-474a-9aa7-36331a14b872"
        },
        {
            "request": {
                "method": "PUT",
                "url": "Condition/8ddd133d-5621-45d7-b8f8-d2c65812b09b"
            },
            "resource": {
                "code": {"coding": [{
                    "system": "http://snomed.info/sct",
                    "code": "31992008",
                    "userSelected": true,
                    "display": "Secondary hypertension (disorder)",
                    "version": "2022-03"
                }]},
                "onsetPeriod": {"start": "2025-12-31T15:00:00.000+00:00"},
                "verificationStatus": {"coding": [{
                    "system": "http://terminology.hl7.org/CodeSystem/condition-ver-status",
                    "code": "confirmed",
                    "userSelected": true,
                    "display": "Confirmed"
                }]},
                "meta": {"profile": ["http://hl7.org/fhir/us/qicore/StructureDefinition/qicore-condition-problems-health-concerns"]},
                "subject": {"reference": "Patient/9df71b27-b988-421e-87ba-671a39f0b0b2"},
                "id": "8ddd133d-5621-45d7-b8f8-d2c65812b09b",
                "clinicalStatus": {"coding": [{
                    "system": "http://terminology.hl7.org/CodeSystem/condition-clinical",
                    "code": "recurrence",
                    "userSelected": true,
                    "display": "recurrence"
                }]},
                "category": [{"coding": [{
                    "system": "http://hl7.org/fhir/us/core/CodeSystem/condition-category",
                    "code": "health-concern",
                    "display": "Health health-concern"
                }]}],
                "resourceType": "Condition"
            },
            "fullUrl": "https://madie.cms.gov/Condition/8ddd133d-5621-45d7-b8f8-d2c65812b09b"
        },
        {
            "request": {
                "method": "PUT",
                "url": "Coverage/47aae5e0-ee85-453d-a88d-28e2beae7a45"
            },
            "resource": {
                "payor": [{"reference": "Organization/435ebf63-b6fc-4b6c-868c-a11c38b8bb1f"}],
                "beneficiary": {"reference": "Patient/435d23cc-57ef-4f7f-aec3-c7ef524d5cd1"},
                "meta": {"profile": ["http://hl7.org/fhir/us/qicore/StructureDefinition/qicore-coverage"]},
                "id": "47aae5e0-ee85-453d-a88d-28e2beae7a45",
                "resourceType": "Coverage",
                "status": "active"
            },
            "fullUrl": "https://madie.cms.gov/Coverage/47aae5e0-ee85-453d-a88d-28e2beae7a45"
        },
        {
            "request": {
                "method": "PUT",
                "url": "Organization/435ebf63-b6fc-4b6c-868c-a11c38b8bb1f"
            },
            "resource": {
                "identifier": [{
                    "system": "urn:oid:2.16.840.1.113883.4.4",
                    "use": "temp",
                    "value": "21-3259825"
                }],
                "address": [{
                    "country": "USA",
                    "city": "Dallas",
                    "use": "billing",
                    "line": ["P.O. Box 660044"],
                    "postalCode": "75266-0044",
                    "state": "TX",
                    "type": "postal"
                }],
                "meta": {"profile": ["http://hl7.org/fhir/us/qicore/StructureDefinition/qicore-organization"]},
                "name": "Blue Cross Blue Shield of Texas",
                "active": true,
                "telecom": [{
                    "system": "phone",
                    "value": "(+1) 972-766-6900"
                }],
                "id": "435ebf63-b6fc-4b6c-868c-a11c38b8bb1f",
                "type": [{"coding": [{
                    "system": "http://terminology.hl7.org/CodeSystem/organization-type",
                    "code": "pay",
                    "display": "Payer"
                }]}],
                "resourceType": "Organization"
            },
            "fullUrl": "https://madie.cms.gov/Organization/435ebf63-b6fc-4b6c-868c-a11c38b8bb1f"
        },
        {
            "request": {
                "method": "PUT",
                "url": "Practitioner/5581439a-7480-42c3-beb5-4bcf94f4f24f"
            },
            "resource": {
                "identifier": [{
                    "system": "http://hl7.org/fhir/sid/us-npi",
                    "value": "123456"
                }],
                "meta": {"profile": ["http://hl7.org/fhir/us/qicore/StructureDefinition/qicore-practitioner"]},
                "name": [{
                    "prefix": ["Dr"],
                    "family": "Evil"
                }],
                "id": "5581439a-7480-42c3-beb5-4bcf94f4f24f",
                "resourceType": "Practitioner"
            },
            "fullUrl": "https://madie.cms.gov/Practitioner/5581439a-7480-42c3-beb5-4bcf94f4f24f"
        },
        {
            "request": {
                "method": "PUT",
                "url": "MeasureReport/91a0cb0d-4db6-43a1-bb3a-772779c5f38c"
            },
            "resource": {
                "contained": [{
                    "parameter": [{
                        "valueString": "435d23cc-57ef-4f7f-aec3-c7ef524d5cd1",
                        "name": "subject"
                    }],
                    "id": "476ca8ba-70df-4c88-9245-041875e2c06c-parameters",
                    "resourceType": "Parameters"
                }],
                "extension": [
                    {
                        "valueReference": {"reference": "#476ca8ba-70df-4c88-9245-041875e2c06c-parameters"},
                        "url": "http://hl7.org/fhir/StructureDefinition/cqf-inputParameters"
                    },
                    {
                        "valueMarkdown": "Enc first day of MP, HTN (health concern, recurrence) dx last day of prior year",
                        "url": "http://hl7.org/fhir/us/cqfmeasures/StructureDefinition/cqfm-testCaseDescription"
                    }
                ],
                "period": {
                    "start": "2026-01-01",
                    "end": "2026-12-31"
                },
                "measure": "https://madie.cms.gov/Measure/CMS22FHIRPCSBPScreeningFollowUp",
                "meta": {"profile": ["http://hl7.org/fhir/us/cqfmeasures/StructureDefinition/test-case-cqfm"]},
                "modifierExtension": [{
                    "valueBoolean": true,
                    "url": "http://hl7.org/fhir/us/cqfmeasures/StructureDefinition/cqfm-isTestCase"
                }],
                "id": "91a0cb0d-4db6-43a1-bb3a-772779c5f38c",
                "evaluatedResource": [
                    {"reference": "Patient/435d23cc-57ef-4f7f-aec3-c7ef524d5cd1"},
                    {"reference": "Encounter/bfe0d277-cfa6-474a-9aa7-36331a14b872"},
                    {"reference": "Condition/8ddd133d-5621-45d7-b8f8-d2c65812b09b"},
                    {"reference": "Coverage/47aae5e0-ee85-453d-a88d-28e2beae7a45"},
                    {"reference": "Organization/435ebf63-b6fc-4b6c-868c-a11c38b8bb1f"},
                    {"reference": "Practitioner/5581439a-7480-42c3-beb5-4bcf94f4f24f"}
                ],
                "type": "individual",
                "resourceType": "MeasureReport",
                "status": "complete",
                "group": [{
                    "id": "Group_1",
                    "measureScore": {"value": 0},
                    "population": [
                        {
                            "code": {"coding": [{
                                "system": "http://terminology.hl7.org/CodeSystem/measure-population",
                                "code": "initial-population",
                                "display": "Initial Population"
                            }]},
                            "count": 1,
                            "id": "InitialPopulation_1"
                        },
                        {
                            "code": {"coding": [{
                                "system": "http://terminology.hl7.org/CodeSystem/measure-population",
                                "code": "denominator",
                                "display": "Denominator"
                            }]},
                            "count": 1,
                            "id": "Denominator_1"
                        },
                        {
                            "code": {"coding": [{
                                "system": "http://terminology.hl7.org/CodeSystem/measure-population",
                                "code": "denominator-exclusion",
                                "display": "Denominator Exclusion"
                            }]},
                            "count": 1,
                            "id": "DenominatorExclusion_1"
                        },
                        {
                            "code": {"coding": [{
                                "system": "http://terminology.hl7.org/CodeSystem/measure-population",
                                "code": "numerator",
                                "display": "Numerator"
                            }]},
                            "count": 0,
                            "id": "Numerator_1"
                        },
                        {
                            "code": {"coding": [{
                                "system": "http://terminology.hl7.org/CodeSystem/measure-population",
                                "code": "denominator-exception",
                                "display": "Denominator Exception"
                            }]},
                            "count": 0,
                            "id": "DenominatorException_1"
                        }
                    ]
                }]
            },
            "fullUrl": "https://madie.cms.gov/MeasureReport/91a0cb0d-4db6-43a1-bb3a-772779c5f38c"
        }
    ],
    "id": "62a89870cadf7512b3f7b30c",
    "type": "transaction",
    "resourceType": "Bundle"
}