{"resourceType":"Bundle","id":"tests-3d1f8f54-c264-4641-acc1-62aa3dcaa42d-bundle","type":"transaction","entry":[{"resource":{"resourceType":"Organization","id":"ed3f7eba-ad41-486b-bf2d-689ce3d84a5f","meta":{"profile":["http://hl7.org/fhir/us/qicore/StructureDefinition/qicore-organization"]},"identifier":[{"use":"temp","system":"urn:oid:2.16.840.1.113883.4.4","value":"21-3259825"}],"active":true,"type":[{"coding":[{"system":"http://terminology.hl7.org/CodeSystem/organization-type","code":"pay","display":"Payer"}]}],"name":"Blue Cross Blue Shield of Texas","telecom":[{"system":"phone","value":"(+1) 972-766-6900"}],"address":[{"use":"billing","type":"postal","line":["P.O. Box 660044"],"city":"Dallas","state":"TX","postalCode":"75266-0044","country":"USA"}]},"request":{"method":"PUT","url":"Organization/ed3f7eba-ad41-486b-bf2d-689ce3d84a5f"}},{"resource":{"resourceType":"Patient","id":"3d1f8f54-c264-4641-acc1-62aa3dcaa42d","meta":{"profile":["http://hl7.org/fhir/us/qicore/StructureDefinition/qicore-patient"]},"text":{"status":"generated","div":"<div xmlns=\"http://www.w3.org/1999/xhtml\"><div class=\"hapiHeaderText\">CMOPerfDayB4Enc <b>DENEXFAIL </b></div><table class=\"hapiPropertyTable\"><tbody><tr><td>Identifier</td><td>988b4053b5293f0d618963ef8ca3e167</td></tr><tr><td>Date of birth</td><td><span>03 March 1974</span></td></tr></tbody></table></div>"},"extension":[{"url":"http://hl7.org/fhir/us/core/StructureDefinition/us-core-race","extension":[{"url":"ombCategory","valueCoding":{"system":"urn:oid:2.16.840.1.113883.6.238","code":"1002-5","display":"American Indian or Alaska Native","userSelected":true}},{"url":"text","valueString":"American Indian or Alaska Native"}]},{"url":"http://hl7.org/fhir/us/core/StructureDefinition/us-core-ethnicity","extension":[{"url":"ombCategory","valueCoding":{"system":"urn:oid:2.16.840.1.113883.6.238","code":"2135-2","display":"Hispanic or Latino","userSelected":true}},{"url":"text","valueString":"Hispanic or Latino"}]}],"identifier":[{"type":{"coding":[{"system":"http://terminology.hl7.org/CodeSystem/v2-0203","code":"MR"}]},"system":"https://bonnie-fhir.healthit.gov/","value":"612e6ec602c62a011f2ef89e"}],"active":true,"name":[{"use":"usual","family":"DENEXFail","given":["CMOPerfDayB4Enc"]}],"gender":"female","birthDate":"1975-03-03"},"request":{"method":"PUT","url":"Patient/3d1f8f54-c264-4641-acc1-62aa3dcaa42d"}},{"resource":{"resourceType":"Practitioner","id":"78bc760d-3d44-44c6-b20b-11b9a20bc340","identifier":[{"system":"http://hl7.org/fhir/sid/us-npi","value":"123456"}],"name":[{"family":"Evil","prefix":["Dr"]}]},"request":{"method":"PUT","url":"Practitioner/78bc760d-3d44-44c6-b20b-11b9a20bc340"}},{"resource":{"resourceType":"Coverage","id":"71382cc2-b11d-421e-b143-13389f66738f","status":"active","beneficiary":{"reference":"Patient/3d1f8f54-c264-4641-acc1-62aa3dcaa42d"},"period":{"start":"1975-03-03T08:00:00.000+00:00"},"payor":[{"reference":"Organization/ed3f7eba-ad41-486b-bf2d-689ce3d84a5f"}]},"request":{"method":"PUT","url":"Coverage/71382cc2-b11d-421e-b143-13389f66738f"}},{"resource":{"resourceType":"Encounter","id":"326a9b83-de7e-4f45-9878-09205ae8889b","meta":{"profile":["http://hl7.org/fhir/us/qicore/StructureDefinition/qicore-encounter"]},"status":"finished","class":{"system":"http://terminology.hl7.org/CodeSystem/v3-ActCode","code":"IMP","display":"inpatient encounter"},"type":[{"coding":[{"system":"http://snomed.info/sct","code":"8715000"}]}],"subject":{"reference":"Patient/3d1f8f54-c264-4641-acc1-62aa3dcaa42d"},"period":{"start":"2026-12-04T08:00:00.000+00:00","end":"2026-12-30T08:15:00.000+00:00"},"length":{"value":26.0,"unit":"days"},"location":[{"location":{"reference":"Location/404f498d-4573-4cb0-b6ae-b723b7f872eb"},"period":{"start":"2026-12-06T08:00:00.000+00:00","end":"2026-12-12T08:15:00.000+00:00"}}]},"request":{"method":"PUT","url":"Encounter/326a9b83-de7e-4f45-9878-09205ae8889b"}},{"resource":{"resourceType":"MeasureReport","id":"8e0811a5-0716-4396-b861-23815ff32081","meta":{"profile":["http://hl7.org/fhir/us/cqfmeasures/StructureDefinition/test-case-cqfm"]},"contained":[{"resourceType":"Parameters","id":"6c76c002-81da-4733-9db3-836d06506458-parameters","parameter":[{"name":"subject","valueString":"3d1f8f54-c264-4641-acc1-62aa3dcaa42d"}]}],"extension":[{"url":"http://hl7.org/fhir/StructureDefinition/cqf-inputParameters","valueReference":{"reference":"#6c76c002-81da-4733-9db3-836d06506458-parameters"}},{"url":"http://hl7.org/fhir/us/cqfmeasures/StructureDefinition/cqfm-testCaseDescription","valueMarkdown":"comfort measures starts before IP encounter\n"}],"modifierExtension":[{"url":"http://hl7.org/fhir/us/cqfmeasures/StructureDefinition/cqfm-isTestCase","valueBoolean":true}],"status":"complete","type":"individual","measure":"https://madie.cms.gov/Measure/CMS190VTEProphylaxisICUFHIR","period":{"start":"2026-01-01","end":"2026-12-31"},"group":[{"id":"Group_1","population":[{"id":"InitialPopulation_1","code":{"coding":[{"system":"http://terminology.hl7.org/CodeSystem/measure-population","code":"initial-population","display":"Initial Population"}]},"count":1},{"id":"Denominator_1","code":{"coding":[{"system":"http://terminology.hl7.org/CodeSystem/measure-population","code":"denominator","display":"Denominator"}]},"count":1},{"id":"DenominatorExclusion_1","code":{"coding":[{"system":"http://terminology.hl7.org/CodeSystem/measure-population","code":"denominator-exclusion","display":"Denominator Exclusion"}]},"count":0},{"id":"Numerator_1","code":{"coding":[{"system":"http://terminology.hl7.org/CodeSystem/measure-population","code":"numerator","display":"Numerator"}]},"count":0},{"id":"DenominatorException_1","code":{"coding":[{"system":"http://terminology.hl7.org/CodeSystem/measure-population","code":"denominator-exception","display":"Denominator Exception"}]},"count":0}],"measureScore":{"value":0.0}}],"evaluatedResource":[{"reference":"Patient/3d1f8f54-c264-4641-acc1-62aa3dcaa42d"},{"reference":"Encounter/326a9b83-de7e-4f45-9878-09205ae8889b"},{"reference":"Procedure/d2a7467a-8fe0-4e4a-af14-86fdf6fc9ae9"},{"reference":"Coverage/71382cc2-b11d-421e-b143-13389f66738f"},{"reference":"Location/404f498d-4573-4cb0-b6ae-b723b7f872eb"},{"reference":"Organization/ed3f7eba-ad41-486b-bf2d-689ce3d84a5f"},{"reference":"Practitioner/78bc760d-3d44-44c6-b20b-11b9a20bc340"}]},"request":{"method":"PUT","url":"MeasureReport/8e0811a5-0716-4396-b861-23815ff32081"}},{"resource":{"resourceType":"Procedure","id":"d2a7467a-8fe0-4e4a-af14-86fdf6fc9ae9","meta":{"profile":["http://hl7.org/fhir/us/qicore/StructureDefinition/qicore-procedure"]},"extension":[{"url":"http://hl7.org/fhir/us/qicore/StructureDefinition/qicore-recorded","valueDateTime":"2013-12-04T13:35:00.000+00:00"}],"status":"completed","code":{"coding":[{"system":"http://snomed.info/sct","code":"133918004"}]},"subject":{"reference":"Patient/3d1f8f54-c264-4641-acc1-62aa3dcaa42d"},"performedPeriod":{"start":"2026-12-03T10:00:00.000+00:00"}},"request":{"method":"PUT","url":"Procedure/d2a7467a-8fe0-4e4a-af14-86fdf6fc9ae9"}},{"resource":{"resourceType":"Bundle","id":"612e6ec602c62a011f2ef89e","type":"transaction","entry":[{"fullUrl":"https://madie.cms.gov/Patient/3d1f8f54-c264-4641-acc1-62aa3dcaa42d","resource":{"resourceType":"Patient","id":"3d1f8f54-c264-4641-acc1-62aa3dcaa42d","meta":{"profile":["http://hl7.org/fhir/us/qicore/StructureDefinition/qicore-patient"]},"text":{"status":"generated","div":"<div xmlns=\"http://www.w3.org/1999/xhtml\"><div class=\"hapiHeaderText\">CMOPerfDayB4Enc <b>DENEXFAIL </b></div><table class=\"hapiPropertyTable\"><tbody><tr><td>Identifier</td><td>988b4053b5293f0d618963ef8ca3e167</td></tr><tr><td>Date of birth</td><td><span>03 March 1974</span></td></tr></tbody></table></div>"},"extension":[{"url":"http://hl7.org/fhir/us/core/StructureDefinition/us-core-race","extension":[{"url":"ombCategory","valueCoding":{"system":"urn:oid:2.16.840.1.113883.6.238","code":"1002-5","display":"American Indian or Alaska Native","userSelected":true}},{"url":"text","valueString":"American Indian or Alaska Native"}]},{"url":"http://hl7.org/fhir/us/core/StructureDefinition/us-core-ethnicity","extension":[{"url":"ombCategory","valueCoding":{"system":"urn:oid:2.16.840.1.113883.6.238","code":"2135-2","display":"Hispanic or Latino","userSelected":true}},{"url":"text","valueString":"Hispanic or Latino"}]}],"identifier":[{"type":{"coding":[{"system":"http://terminology.hl7.org/CodeSystem/v2-0203","code":"MR"}]},"system":"https://bonnie-fhir.healthit.gov/","value":"612e6ec602c62a011f2ef89e"}],"active":true,"name":[{"use":"usual","family":"DENEXFail","given":["CMOPerfDayB4Enc"]}],"gender":"female","birthDate":"1975-03-03"},"request":{"method":"PUT","url":"Patient/3d1f8f54-c264-4641-acc1-62aa3dcaa42d"}},{"fullUrl":"https://madie.cms.gov/Encounter/326a9b83-de7e-4f45-9878-09205ae8889b","resource":{"resourceType":"Encounter","id":"326a9b83-de7e-4f45-9878-09205ae8889b","meta":{"profile":["http://hl7.org/fhir/us/qicore/StructureDefinition/qicore-encounter"]},"status":"finished","class":{"system":"http://terminology.hl7.org/CodeSystem/v3-ActCode","code":"IMP","display":"inpatient encounter"},"type":[{"coding":[{"system":"http://snomed.info/sct","code":"8715000"}]}],"subject":{"reference":"Patient/3d1f8f54-c264-4641-acc1-62aa3dcaa42d"},"period":{"start":"2026-12-04T08:00:00.000+00:00","end":"2026-12-30T08:15:00.000+00:00"},"length":{"value":26.0,"unit":"days"},"location":[{"location":{"reference":"Location/404f498d-4573-4cb0-b6ae-b723b7f872eb"},"period":{"start":"2026-12-06T08:00:00.000+00:00","end":"2026-12-12T08:15:00.000+00:00"}}]},"request":{"method":"PUT","url":"Encounter/326a9b83-de7e-4f45-9878-09205ae8889b"}},{"fullUrl":"https://madie.cms.gov/Procedure/d2a7467a-8fe0-4e4a-af14-86fdf6fc9ae9","resource":{"resourceType":"Procedure","id":"d2a7467a-8fe0-4e4a-af14-86fdf6fc9ae9","meta":{"profile":["http://hl7.org/fhir/us/qicore/StructureDefinition/qicore-procedure"]},"extension":[{"url":"http://hl7.org/fhir/us/qicore/StructureDefinition/qicore-recorded","valueDateTime":"2013-12-04T13:35:00.000+00:00"}],"status":"completed","code":{"coding":[{"system":"http://snomed.info/sct","code":"133918004"}]},"subject":{"reference":"Patient/3d1f8f54-c264-4641-acc1-62aa3dcaa42d"},"performedPeriod":{"start":"2026-12-03T10:00:00.000+00:00"}},"request":{"method":"PUT","url":"Procedure/d2a7467a-8fe0-4e4a-af14-86fdf6fc9ae9"}},{"fullUrl":"https://madie.cms.gov/Coverage/71382cc2-b11d-421e-b143-13389f66738f","resource":{"resourceType":"Coverage","id":"71382cc2-b11d-421e-b143-13389f66738f","status":"active","beneficiary":{"reference":"Patient/3d1f8f54-c264-4641-acc1-62aa3dcaa42d"},"period":{"start":"1975-03-03T08:00:00.000+00:00"},"payor":[{"reference":"Organization/ed3f7eba-ad41-486b-bf2d-689ce3d84a5f"}]},"request":{"method":"PUT","url":"Coverage/71382cc2-b11d-421e-b143-13389f66738f"}},{"fullUrl":"https://madie.cms.gov/Location/404f498d-4573-4cb0-b6ae-b723b7f872eb","resource":{"resourceType":"Location","id":"404f498d-4573-4cb0-b6ae-b723b7f872eb","meta":{"profile":["http://hl7.org/fhir/us/qicore/StructureDefinition/qicore-location"]},"identifier":[{"use":"usual","system":"http://exampleoflocation.com","value":"B1-S.F2"}],"name":"Medical Surgical East, first floor","type":[{"coding":[{"system":"https://www.cdc.gov/nhsn/cdaportal/terminology/codesystem/hsloc.html","code":"1025-6","display":"Trauma Critical Care","userSelected":true}]}]},"request":{"method":"PUT","url":"Location/404f498d-4573-4cb0-b6ae-b723b7f872eb"}},{"fullUrl":"https://madie.cms.gov/Organization/ed3f7eba-ad41-486b-bf2d-689ce3d84a5f","resource":{"resourceType":"Organization","id":"ed3f7eba-ad41-486b-bf2d-689ce3d84a5f","meta":{"profile":["http://hl7.org/fhir/us/qicore/StructureDefinition/qicore-organization"]},"identifier":[{"use":"temp","system":"urn:oid:2.16.840.1.113883.4.4","value":"21-3259825"}],"active":true,"type":[{"coding":[{"system":"http://terminology.hl7.org/CodeSystem/organization-type","code":"pay","display":"Payer"}]}],"name":"Blue Cross Blue Shield of Texas","telecom":[{"system":"phone","value":"(+1) 972-766-6900"}],"address":[{"use":"billing","type":"postal","line":["P.O. Box 660044"],"city":"Dallas","state":"TX","postalCode":"75266-0044","country":"USA"}]},"request":{"method":"PUT","url":"Organization/ed3f7eba-ad41-486b-bf2d-689ce3d84a5f"}},{"fullUrl":"https://madie.cms.gov/Practitioner/78bc760d-3d44-44c6-b20b-11b9a20bc340","resource":{"resourceType":"Practitioner","id":"78bc760d-3d44-44c6-b20b-11b9a20bc340","identifier":[{"system":"http://hl7.org/fhir/sid/us-npi","value":"123456"}],"name":[{"family":"Evil","prefix":["Dr"]}]},"request":{"method":"PUT","url":"Practitioner/78bc760d-3d44-44c6-b20b-11b9a20bc340"}},{"fullUrl":"https://madie.cms.gov/MeasureReport/8e0811a5-0716-4396-b861-23815ff32081","resource":{"resourceType":"MeasureReport","id":"8e0811a5-0716-4396-b861-23815ff32081","meta":{"profile":["http://hl7.org/fhir/us/cqfmeasures/StructureDefinition/test-case-cqfm"]},"contained":[{"resourceType":"Parameters","id":"6c76c002-81da-4733-9db3-836d06506458-parameters","parameter":[{"name":"subject","valueString":"3d1f8f54-c264-4641-acc1-62aa3dcaa42d"}]}],"extension":[{"url":"http://hl7.org/fhir/StructureDefinition/cqf-inputParameters","valueReference":{"reference":"#6c76c002-81da-4733-9db3-836d06506458-parameters"}},{"url":"http://hl7.org/fhir/us/cqfmeasures/StructureDefinition/cqfm-testCaseDescription","valueMarkdown":"comfort measures starts before IP encounter\n"}],"modifierExtension":[{"url":"http://hl7.org/fhir/us/cqfmeasures/StructureDefinition/cqfm-isTestCase","valueBoolean":true}],"status":"complete","type":"individual","measure":"https://madie.cms.gov/Measure/CMS190VTEProphylaxisICUFHIR","period":{"start":"2026-01-01","end":"2026-12-31"},"group":[{"id":"Group_1","population":[{"id":"InitialPopulation_1","code":{"coding":[{"system":"http://terminology.hl7.org/CodeSystem/measure-population","code":"initial-population","display":"Initial Population"}]},"count":1},{"id":"Denominator_1","code":{"coding":[{"system":"http://terminology.hl7.org/CodeSystem/measure-population","code":"denominator","display":"Denominator"}]},"count":1},{"id":"DenominatorExclusion_1","code":{"coding":[{"system":"http://terminology.hl7.org/CodeSystem/measure-population","code":"denominator-exclusion","display":"Denominator Exclusion"}]},"count":0},{"id":"Numerator_1","code":{"coding":[{"system":"http://terminology.hl7.org/CodeSystem/measure-population","code":"numerator","display":"Numerator"}]},"count":0},{"id":"DenominatorException_1","code":{"coding":[{"system":"http://terminology.hl7.org/CodeSystem/measure-population","code":"denominator-exception","display":"Denominator Exception"}]},"count":0}],"measureScore":{"value":0.0}}],"evaluatedResource":[{"reference":"Patient/3d1f8f54-c264-4641-acc1-62aa3dcaa42d"},{"reference":"Encounter/326a9b83-de7e-4f45-9878-09205ae8889b"},{"reference":"Procedure/d2a7467a-8fe0-4e4a-af14-86fdf6fc9ae9"},{"reference":"Coverage/71382cc2-b11d-421e-b143-13389f66738f"},{"reference":"Location/404f498d-4573-4cb0-b6ae-b723b7f872eb"},{"reference":"Organization/ed3f7eba-ad41-486b-bf2d-689ce3d84a5f"},{"reference":"Practitioner/78bc760d-3d44-44c6-b20b-11b9a20bc340"}]},"request":{"method":"PUT","url":"MeasureReport/8e0811a5-0716-4396-b861-23815ff32081"}}]},"request":{"method":"PUT","url":"Bundle/612e6ec602c62a011f2ef89e"}},{"resource":{"resourceType":"Location","id":"404f498d-4573-4cb0-b6ae-b723b7f872eb","meta":{"profile":["http://hl7.org/fhir/us/qicore/StructureDefinition/qicore-location"]},"identifier":[{"use":"usual","system":"http://exampleoflocation.com","value":"B1-S.F2"}],"name":"Medical Surgical East, first floor","type":[{"coding":[{"system":"https://www.cdc.gov/nhsn/cdaportal/terminology/codesystem/hsloc.html","code":"1025-6","display":"Trauma Critical Care","userSelected":true}]}]},"request":{"method":"PUT","url":"Location/404f498d-4573-4cb0-b6ae-b723b7f872eb"}}]}