{"resourceType":"Bundle","id":"tests-6e9594c6-7336-4735-b402-0bd0a1d10c6d-bundle","type":"transaction","entry":[{"resource":{"resourceType":"Procedure","id":"aac691f6-7182-4a8e-acd2-37e815fc60df","meta":{"profile":["http://hl7.org/fhir/us/qicore/StructureDefinition/qicore-procedure"]},"extension":[{"url":"http://hl7.org/fhir/us/qicore/StructureDefinition/qicore-recorded","valueDateTime":"2013-12-06T13:35:00.000+00:00"}],"status":"completed","code":{"coding":[{"system":"http://snomed.info/sct","code":"18946005"}]},"subject":{"reference":"Patient/6e9594c6-7336-4735-b402-0bd0a1d10c6d"},"performedPeriod":{"start":"2026-12-06T08:00:00.000+00:00","end":"2026-12-06T09:00:00.000+00:00"}},"request":{"method":"PUT","url":"Procedure/aac691f6-7182-4a8e-acd2-37e815fc60df"}},{"resource":{"resourceType":"Organization","id":"9c8cc1af-6196-446d-8296-2832a0b863bb","meta":{"profile":["http://hl7.org/fhir/us/qicore/StructureDefinition/qicore-organization"]},"identifier":[{"use":"temp","system":"urn:oid:2.16.840.1.113883.4.4","value":"21-3259825"}],"active":true,"type":[{"coding":[{"system":"http://terminology.hl7.org/CodeSystem/organization-type","code":"pay","display":"Payer"}]}],"name":"Blue Cross Blue Shield of Texas","telecom":[{"system":"phone","value":"(+1) 972-766-6900"}],"address":[{"use":"billing","type":"postal","line":["P.O. Box 660044"],"city":"Dallas","state":"TX","postalCode":"75266-0044","country":"USA"}]},"request":{"method":"PUT","url":"Organization/9c8cc1af-6196-446d-8296-2832a0b863bb"}},{"resource":{"resourceType":"Location","id":"ac6fbc26-a6cb-4f8a-8dd7-7c93fa54c741","meta":{"profile":["http://hl7.org/fhir/us/qicore/StructureDefinition/qicore-location"]},"identifier":[{"use":"usual","system":"http://exampleoflocation.com","value":"B1-S.F2"}],"name":"Medical Surgical East, first floor","type":[{"coding":[{"system":"https://www.cdc.gov/nhsn/cdaportal/terminology/codesystem/hsloc.html","code":"1025-6","display":"Trauma Critical Care","userSelected":true}]}]},"request":{"method":"PUT","url":"Location/ac6fbc26-a6cb-4f8a-8dd7-7c93fa54c741"}},{"resource":{"resourceType":"Practitioner","id":"8af8ae30-66dc-43f4-9be5-f06d65425a28","identifier":[{"system":"http://hl7.org/fhir/sid/us-npi","value":"123456"}],"name":[{"family":"Evil","prefix":["Dr"]}]},"request":{"method":"PUT","url":"Practitioner/8af8ae30-66dc-43f4-9be5-f06d65425a28"}},{"resource":{"resourceType":"Encounter","id":"ab1d3435-44ba-40ce-85f8-33b124e4801d","meta":{"profile":["http://hl7.org/fhir/us/qicore/StructureDefinition/qicore-encounter"]},"status":"finished","class":{"system":"http://terminology.hl7.org/CodeSystem/v3-ActCode","code":"IMP","display":"inpatient encounter"},"type":[{"coding":[{"system":"http://snomed.info/sct","code":"8715000"}]}],"subject":{"reference":"Patient/6e9594c6-7336-4735-b402-0bd0a1d10c6d"},"period":{"start":"2026-12-04T08:00:00.000+00:00","end":"2026-12-30T08:15:00.000+00:00"},"length":{"value":26.0,"unit":"days"},"location":[{"location":{"reference":"Location/ac6fbc26-a6cb-4f8a-8dd7-7c93fa54c741"},"period":{"start":"2026-12-06T08:00:00.000+00:00","end":"2026-12-12T08:15:00.000+00:00"}}]},"request":{"method":"PUT","url":"Encounter/ab1d3435-44ba-40ce-85f8-33b124e4801d"}},{"resource":{"resourceType":"MedicationAdministration","id":"52f5f5f1-dc69-4b55-b018-7176f490acca","meta":{"profile":["http://hl7.org/fhir/us/qicore/StructureDefinition/qicore-medicationadministration"]},"status":"completed","medicationCodeableConcept":{"coding":[{"system":"http://www.nlm.nih.gov/research/umls/rxnorm","code":"1361607"}]},"subject":{"reference":"Patient/6e9594c6-7336-4735-b402-0bd0a1d10c6d"},"effectivePeriod":{"start":"2026-12-06T08:00:00.000+00:00","end":"2026-12-12T08:15:00.000+00:00"},"dosage":{"route":{"coding":[{"system":"http://snomed.info/sct","code":"418114005","display":"Intravenous route"}]},"dose":{"value":500,"unit":"ml","system":"http://unitsofmeasure.org","code":"ml"}}},"request":{"method":"PUT","url":"MedicationAdministration/52f5f5f1-dc69-4b55-b018-7176f490acca"}},{"resource":{"resourceType":"Bundle","id":"612e6f4e02c62a011f2f15ae","type":"transaction","entry":[{"fullUrl":"https://madie.cms.gov/Patient/6e9594c6-7336-4735-b402-0bd0a1d10c6d","resource":{"resourceType":"Patient","id":"6e9594c6-7336-4735-b402-0bd0a1d10c6d","meta":{"profile":["http://hl7.org/fhir/us/qicore/StructureDefinition/qicore-patient"]},"text":{"status":"generated","div":"<div xmlns=\"http://www.w3.org/1999/xhtml\"><div class=\"hapiHeaderText\">MAUHepOnAnesEndOnICUStart <b>NUMERPASS </b></div><table class=\"hapiPropertyTable\"><tbody><tr><td>Identifier</td><td>18da224ba07858aaf8efb0009ede783e</td></tr><tr><td>Date of birth</td><td><span>03 March 1974</span></td></tr></tbody></table></div>"},"extension":[{"url":"http://hl7.org/fhir/us/core/StructureDefinition/us-core-race","extension":[{"url":"ombCategory","valueCoding":{"system":"urn:oid:2.16.840.1.113883.6.238","code":"1002-5","display":"American Indian or Alaska Native","userSelected":true}},{"url":"text","valueString":"American Indian or Alaska Native"}]},{"url":"http://hl7.org/fhir/us/core/StructureDefinition/us-core-ethnicity","extension":[{"url":"ombCategory","valueCoding":{"system":"urn:oid:2.16.840.1.113883.6.238","code":"2135-2","display":"Hispanic or Latino","userSelected":true}},{"url":"text","valueString":"Hispanic or Latino"}]}],"identifier":[{"type":{"coding":[{"system":"http://terminology.hl7.org/CodeSystem/v2-0203","code":"MR"}]},"system":"https://bonnie-fhir.healthit.gov/","value":"612e6f4e02c62a011f2f15ae"}],"active":true,"name":[{"use":"usual","family":"NUMERPass","given":["MAUHepOnAnesEndOnICUStart"]}],"gender":"female","birthDate":"1975-03-03"},"request":{"method":"PUT","url":"Patient/6e9594c6-7336-4735-b402-0bd0a1d10c6d"}},{"fullUrl":"https://madie.cms.gov/Encounter/ab1d3435-44ba-40ce-85f8-33b124e4801d","resource":{"resourceType":"Encounter","id":"ab1d3435-44ba-40ce-85f8-33b124e4801d","meta":{"profile":["http://hl7.org/fhir/us/qicore/StructureDefinition/qicore-encounter"]},"status":"finished","class":{"system":"http://terminology.hl7.org/CodeSystem/v3-ActCode","code":"IMP","display":"inpatient encounter"},"type":[{"coding":[{"system":"http://snomed.info/sct","code":"8715000"}]}],"subject":{"reference":"Patient/6e9594c6-7336-4735-b402-0bd0a1d10c6d"},"period":{"start":"2026-12-04T08:00:00.000+00:00","end":"2026-12-30T08:15:00.000+00:00"},"length":{"value":26.0,"unit":"days"},"location":[{"location":{"reference":"Location/ac6fbc26-a6cb-4f8a-8dd7-7c93fa54c741"},"period":{"start":"2026-12-06T08:00:00.000+00:00","end":"2026-12-12T08:15:00.000+00:00"}}]},"request":{"method":"PUT","url":"Encounter/ab1d3435-44ba-40ce-85f8-33b124e4801d"}},{"fullUrl":"https://madie.cms.gov/Coverage/42d11c2d-d9e7-4e2a-8251-c8dbbf33ffff","resource":{"resourceType":"Coverage","id":"42d11c2d-d9e7-4e2a-8251-c8dbbf33ffff","status":"active","beneficiary":{"reference":"Patient/6e9594c6-7336-4735-b402-0bd0a1d10c6d"},"period":{"start":"1975-03-03T08:00:00.000+00:00"},"payor":[{"reference":"Organization/9c8cc1af-6196-446d-8296-2832a0b863bb"}]},"request":{"method":"PUT","url":"Coverage/42d11c2d-d9e7-4e2a-8251-c8dbbf33ffff"}},{"fullUrl":"https://madie.cms.gov/MedicationAdministration/52f5f5f1-dc69-4b55-b018-7176f490acca","resource":{"resourceType":"MedicationAdministration","id":"52f5f5f1-dc69-4b55-b018-7176f490acca","meta":{"profile":["http://hl7.org/fhir/us/qicore/StructureDefinition/qicore-medicationadministration"]},"status":"completed","medicationCodeableConcept":{"coding":[{"system":"http://www.nlm.nih.gov/research/umls/rxnorm","code":"1361607"}]},"subject":{"reference":"Patient/6e9594c6-7336-4735-b402-0bd0a1d10c6d"},"effectivePeriod":{"start":"2026-12-06T08:00:00.000+00:00","end":"2026-12-12T08:15:00.000+00:00"},"dosage":{"route":{"coding":[{"system":"http://snomed.info/sct","code":"418114005","display":"Intravenous route"}]},"dose":{"value":500,"unit":"ml","system":"http://unitsofmeasure.org","code":"ml"}}},"request":{"method":"PUT","url":"MedicationAdministration/52f5f5f1-dc69-4b55-b018-7176f490acca"}},{"fullUrl":"https://madie.cms.gov/Procedure/aac691f6-7182-4a8e-acd2-37e815fc60df","resource":{"resourceType":"Procedure","id":"aac691f6-7182-4a8e-acd2-37e815fc60df","meta":{"profile":["http://hl7.org/fhir/us/qicore/StructureDefinition/qicore-procedure"]},"extension":[{"url":"http://hl7.org/fhir/us/qicore/StructureDefinition/qicore-recorded","valueDateTime":"2013-12-06T13:35:00.000+00:00"}],"status":"completed","code":{"coding":[{"system":"http://snomed.info/sct","code":"18946005"}]},"subject":{"reference":"Patient/6e9594c6-7336-4735-b402-0bd0a1d10c6d"},"performedPeriod":{"start":"2026-12-06T08:00:00.000+00:00","end":"2026-12-06T09:00:00.000+00:00"}},"request":{"method":"PUT","url":"Procedure/aac691f6-7182-4a8e-acd2-37e815fc60df"}},{"fullUrl":"https://madie.cms.gov/Location/ac6fbc26-a6cb-4f8a-8dd7-7c93fa54c741","resource":{"resourceType":"Location","id":"ac6fbc26-a6cb-4f8a-8dd7-7c93fa54c741","meta":{"profile":["http://hl7.org/fhir/us/qicore/StructureDefinition/qicore-location"]},"identifier":[{"use":"usual","system":"http://exampleoflocation.com","value":"B1-S.F2"}],"name":"Medical Surgical East, first floor","type":[{"coding":[{"system":"https://www.cdc.gov/nhsn/cdaportal/terminology/codesystem/hsloc.html","code":"1025-6","display":"Trauma Critical Care","userSelected":true}]}]},"request":{"method":"PUT","url":"Location/ac6fbc26-a6cb-4f8a-8dd7-7c93fa54c741"}},{"fullUrl":"https://madie.cms.gov/Organization/9c8cc1af-6196-446d-8296-2832a0b863bb","resource":{"resourceType":"Organization","id":"9c8cc1af-6196-446d-8296-2832a0b863bb","meta":{"profile":["http://hl7.org/fhir/us/qicore/StructureDefinition/qicore-organization"]},"identifier":[{"use":"temp","system":"urn:oid:2.16.840.1.113883.4.4","value":"21-3259825"}],"active":true,"type":[{"coding":[{"system":"http://terminology.hl7.org/CodeSystem/organization-type","code":"pay","display":"Payer"}]}],"name":"Blue Cross Blue Shield of Texas","telecom":[{"system":"phone","value":"(+1) 972-766-6900"}],"address":[{"use":"billing","type":"postal","line":["P.O. Box 660044"],"city":"Dallas","state":"TX","postalCode":"75266-0044","country":"USA"}]},"request":{"method":"PUT","url":"Organization/9c8cc1af-6196-446d-8296-2832a0b863bb"}},{"fullUrl":"https://madie.cms.gov/Practitioner/8af8ae30-66dc-43f4-9be5-f06d65425a28","resource":{"resourceType":"Practitioner","id":"8af8ae30-66dc-43f4-9be5-f06d65425a28","identifier":[{"system":"http://hl7.org/fhir/sid/us-npi","value":"123456"}],"name":[{"family":"Evil","prefix":["Dr"]}]},"request":{"method":"PUT","url":"Practitioner/8af8ae30-66dc-43f4-9be5-f06d65425a28"}},{"fullUrl":"https://madie.cms.gov/MeasureReport/c9de4305-887c-4162-84e9-156a3c8b5384","resource":{"resourceType":"MeasureReport","id":"c9de4305-887c-4162-84e9-156a3c8b5384","meta":{"profile":["http://hl7.org/fhir/us/cqfmeasures/StructureDefinition/test-case-cqfm"]},"contained":[{"resourceType":"Parameters","id":"6599c3b9-2b06-4b00-b83b-ebbf66c93403-parameters","parameter":[{"name":"subject","valueString":"6e9594c6-7336-4735-b402-0bd0a1d10c6d"}]}],"extension":[{"url":"http://hl7.org/fhir/StructureDefinition/cqf-inputParameters","valueReference":{"reference":"#6599c3b9-2b06-4b00-b83b-ebbf66c93403-parameters"}},{"url":"http://hl7.org/fhir/us/cqfmeasures/StructureDefinition/cqfm-testCaseDescription","valueMarkdown":"meets IPP, meets Denominator, medication administered:Unfractionated Heparin Route:IV starts concurrent with Anesthesia ends, Anes ends concurrent with start of ICU\n"}],"modifierExtension":[{"url":"http://hl7.org/fhir/us/cqfmeasures/StructureDefinition/cqfm-isTestCase","valueBoolean":true}],"status":"complete","type":"individual","measure":"https://madie.cms.gov/Measure/CMS190VTEProphylaxisICUFHIR","period":{"start":"2026-01-01","end":"2026-12-31"},"group":[{"id":"Group_1","population":[{"id":"InitialPopulation_1","code":{"coding":[{"system":"http://terminology.hl7.org/CodeSystem/measure-population","code":"initial-population","display":"Initial Population"}]},"count":1},{"id":"Denominator_1","code":{"coding":[{"system":"http://terminology.hl7.org/CodeSystem/measure-population","code":"denominator","display":"Denominator"}]},"count":1},{"id":"DenominatorExclusion_1","code":{"coding":[{"system":"http://terminology.hl7.org/CodeSystem/measure-population","code":"denominator-exclusion","display":"Denominator Exclusion"}]},"count":0},{"id":"Numerator_1","code":{"coding":[{"system":"http://terminology.hl7.org/CodeSystem/measure-population","code":"numerator","display":"Numerator"}]},"count":1},{"id":"DenominatorException_1","code":{"coding":[{"system":"http://terminology.hl7.org/CodeSystem/measure-population","code":"denominator-exception","display":"Denominator Exception"}]},"count":0}],"measureScore":{"value":0.0}}],"evaluatedResource":[{"reference":"Patient/6e9594c6-7336-4735-b402-0bd0a1d10c6d"},{"reference":"Encounter/ab1d3435-44ba-40ce-85f8-33b124e4801d"},{"reference":"Coverage/42d11c2d-d9e7-4e2a-8251-c8dbbf33ffff"},{"reference":"MedicationAdministration/52f5f5f1-dc69-4b55-b018-7176f490acca"},{"reference":"Procedure/aac691f6-7182-4a8e-acd2-37e815fc60df"},{"reference":"Location/ac6fbc26-a6cb-4f8a-8dd7-7c93fa54c741"},{"reference":"Organization/9c8cc1af-6196-446d-8296-2832a0b863bb"},{"reference":"Practitioner/8af8ae30-66dc-43f4-9be5-f06d65425a28"}]},"request":{"method":"PUT","url":"MeasureReport/c9de4305-887c-4162-84e9-156a3c8b5384"}}]},"request":{"method":"PUT","url":"Bundle/612e6f4e02c62a011f2f15ae"}},{"resource":{"resourceType":"Patient","id":"6e9594c6-7336-4735-b402-0bd0a1d10c6d","meta":{"profile":["http://hl7.org/fhir/us/qicore/StructureDefinition/qicore-patient"]},"text":{"status":"generated","div":"<div xmlns=\"http://www.w3.org/1999/xhtml\"><div class=\"hapiHeaderText\">MAUHepOnAnesEndOnICUStart <b>NUMERPASS </b></div><table class=\"hapiPropertyTable\"><tbody><tr><td>Identifier</td><td>18da224ba07858aaf8efb0009ede783e</td></tr><tr><td>Date of birth</td><td><span>03 March 1974</span></td></tr></tbody></table></div>"},"extension":[{"url":"http://hl7.org/fhir/us/core/StructureDefinition/us-core-race","extension":[{"url":"ombCategory","valueCoding":{"system":"urn:oid:2.16.840.1.113883.6.238","code":"1002-5","display":"American Indian or Alaska Native","userSelected":true}},{"url":"text","valueString":"American Indian or Alaska Native"}]},{"url":"http://hl7.org/fhir/us/core/StructureDefinition/us-core-ethnicity","extension":[{"url":"ombCategory","valueCoding":{"system":"urn:oid:2.16.840.1.113883.6.238","code":"2135-2","display":"Hispanic or Latino","userSelected":true}},{"url":"text","valueString":"Hispanic or Latino"}]}],"identifier":[{"type":{"coding":[{"system":"http://terminology.hl7.org/CodeSystem/v2-0203","code":"MR"}]},"system":"https://bonnie-fhir.healthit.gov/","value":"612e6f4e02c62a011f2f15ae"}],"active":true,"name":[{"use":"usual","family":"NUMERPass","given":["MAUHepOnAnesEndOnICUStart"]}],"gender":"female","birthDate":"1975-03-03"},"request":{"method":"PUT","url":"Patient/6e9594c6-7336-4735-b402-0bd0a1d10c6d"}},{"resource":{"resourceType":"MeasureReport","id":"c9de4305-887c-4162-84e9-156a3c8b5384","meta":{"profile":["http://hl7.org/fhir/us/cqfmeasures/StructureDefinition/test-case-cqfm"]},"contained":[{"resourceType":"Parameters","id":"6599c3b9-2b06-4b00-b83b-ebbf66c93403-parameters","parameter":[{"name":"subject","valueString":"6e9594c6-7336-4735-b402-0bd0a1d10c6d"}]}],"extension":[{"url":"http://hl7.org/fhir/StructureDefinition/cqf-inputParameters","valueReference":{"reference":"#6599c3b9-2b06-4b00-b83b-ebbf66c93403-parameters"}},{"url":"http://hl7.org/fhir/us/cqfmeasures/StructureDefinition/cqfm-testCaseDescription","valueMarkdown":"meets IPP, meets Denominator, medication administered:Unfractionated Heparin Route:IV starts concurrent with Anesthesia ends, Anes ends concurrent with start of ICU\n"}],"modifierExtension":[{"url":"http://hl7.org/fhir/us/cqfmeasures/StructureDefinition/cqfm-isTestCase","valueBoolean":true}],"status":"complete","type":"individual","measure":"https://madie.cms.gov/Measure/CMS190VTEProphylaxisICUFHIR","period":{"start":"2026-01-01","end":"2026-12-31"},"group":[{"id":"Group_1","population":[{"id":"InitialPopulation_1","code":{"coding":[{"system":"http://terminology.hl7.org/CodeSystem/measure-population","code":"initial-population","display":"Initial Population"}]},"count":1},{"id":"Denominator_1","code":{"coding":[{"system":"http://terminology.hl7.org/CodeSystem/measure-population","code":"denominator","display":"Denominator"}]},"count":1},{"id":"DenominatorExclusion_1","code":{"coding":[{"system":"http://terminology.hl7.org/CodeSystem/measure-population","code":"denominator-exclusion","display":"Denominator Exclusion"}]},"count":0},{"id":"Numerator_1","code":{"coding":[{"system":"http://terminology.hl7.org/CodeSystem/measure-population","code":"numerator","display":"Numerator"}]},"count":1},{"id":"DenominatorException_1","code":{"coding":[{"system":"http://terminology.hl7.org/CodeSystem/measure-population","code":"denominator-exception","display":"Denominator Exception"}]},"count":0}],"measureScore":{"value":0.0}}],"evaluatedResource":[{"reference":"Patient/6e9594c6-7336-4735-b402-0bd0a1d10c6d"},{"reference":"Encounter/ab1d3435-44ba-40ce-85f8-33b124e4801d"},{"reference":"Coverage/42d11c2d-d9e7-4e2a-8251-c8dbbf33ffff"},{"reference":"MedicationAdministration/52f5f5f1-dc69-4b55-b018-7176f490acca"},{"reference":"Procedure/aac691f6-7182-4a8e-acd2-37e815fc60df"},{"reference":"Location/ac6fbc26-a6cb-4f8a-8dd7-7c93fa54c741"},{"reference":"Organization/9c8cc1af-6196-446d-8296-2832a0b863bb"},{"reference":"Practitioner/8af8ae30-66dc-43f4-9be5-f06d65425a28"}]},"request":{"method":"PUT","url":"MeasureReport/c9de4305-887c-4162-84e9-156a3c8b5384"}},{"resource":{"resourceType":"Coverage","id":"42d11c2d-d9e7-4e2a-8251-c8dbbf33ffff","status":"active","beneficiary":{"reference":"Patient/6e9594c6-7336-4735-b402-0bd0a1d10c6d"},"period":{"start":"1975-03-03T08:00:00.000+00:00"},"payor":[{"reference":"Organization/9c8cc1af-6196-446d-8296-2832a0b863bb"}]},"request":{"method":"PUT","url":"Coverage/42d11c2d-d9e7-4e2a-8251-c8dbbf33ffff"}}]}