{"resourceType":"Bundle","id":"tests-632831b0-1ebf-47b5-b439-3a124cd77c37-bundle","type":"transaction","entry":[{"resource":{"resourceType":"Practitioner","id":"2d3bc8e0-862c-490e-93dd-cacc7a847f08","identifier":[{"system":"http://hl7.org/fhir/sid/us-npi","value":"123456"}],"name":[{"family":"Evil","prefix":["Dr"]}]},"request":{"method":"PUT","url":"Practitioner/2d3bc8e0-862c-490e-93dd-cacc7a847f08"}},{"resource":{"resourceType":"Encounter","id":"43964403-30a3-4a58-b2d3-9b93ee777e3b","meta":{"profile":["http://hl7.org/fhir/us/qicore/StructureDefinition/qicore-encounter"]},"status":"finished","class":{"system":"http://terminology.hl7.org/CodeSystem/v3-ActCode","code":"EMER","display":"emergency"},"type":[{"coding":[{"system":"http://snomed.info/sct","code":"4525004"}]}],"subject":{"reference":"Patient/632831b0-1ebf-47b5-b439-3a124cd77c37"},"period":{"start":"2026-10-31T05:00:00.000+00:00","end":"2026-11-01T07:15:00.000+00:00"},"length":{"value":1,"unit":"days"}},"request":{"method":"PUT","url":"Encounter/43964403-30a3-4a58-b2d3-9b93ee777e3b"}},{"resource":{"resourceType":"Bundle","id":"612e6ab302c62a011f2eafaf","type":"transaction","entry":[{"fullUrl":"https://madie.cms.gov/Patient/632831b0-1ebf-47b5-b439-3a124cd77c37","resource":{"resourceType":"Patient","id":"632831b0-1ebf-47b5-b439-3a124cd77c37","meta":{"profile":["http://hl7.org/fhir/us/qicore/StructureDefinition/qicore-patient"]},"text":{"status":"generated","div":"<div xmlns=\"http://www.w3.org/1999/xhtml\"><div class=\"hapiHeaderText\">PtRefDAVFPDayOfICU <b>NUMERPASS </b></div><table class=\"hapiPropertyTable\"><tbody><tr><td>Identifier</td><td>5f7ad5e9fc357bf072546722e2c19e60</td></tr><tr><td>Date of birth</td><td><span>02 January 1974</span></td></tr></tbody></table></div>"},"extension":[{"url":"http://hl7.org/fhir/us/core/StructureDefinition/us-core-race","extension":[{"url":"ombCategory","valueCoding":{"system":"urn:oid:2.16.840.1.113883.6.238","code":"1002-5","display":"American Indian or Alaska Native","userSelected":true}},{"url":"text","valueString":"American Indian or Alaska Native"}]},{"url":"http://hl7.org/fhir/us/core/StructureDefinition/us-core-ethnicity","extension":[{"url":"ombCategory","valueCoding":{"system":"urn:oid:2.16.840.1.113883.6.238","code":"2135-2","display":"Hispanic or Latino","userSelected":true}},{"url":"text","valueString":"Hispanic or Latino"}]}],"identifier":[{"type":{"coding":[{"system":"http://terminology.hl7.org/CodeSystem/v2-0203","code":"MR"}]},"system":"https://bonnie-fhir.healthit.gov/","value":"612e6ab302c62a011f2eafaf"}],"active":true,"name":[{"use":"usual","family":"NUMERPass","given":["PtRefDAVFPDayOfICU"]}],"gender":"male","birthDate":"1975-01-02"},"request":{"method":"PUT","url":"Patient/632831b0-1ebf-47b5-b439-3a124cd77c37"}},{"fullUrl":"https://madie.cms.gov/Encounter/43964403-30a3-4a58-b2d3-9b93ee777e3b","resource":{"resourceType":"Encounter","id":"43964403-30a3-4a58-b2d3-9b93ee777e3b","meta":{"profile":["http://hl7.org/fhir/us/qicore/StructureDefinition/qicore-encounter"]},"status":"finished","class":{"system":"http://terminology.hl7.org/CodeSystem/v3-ActCode","code":"EMER","display":"emergency"},"type":[{"coding":[{"system":"http://snomed.info/sct","code":"4525004"}]}],"subject":{"reference":"Patient/632831b0-1ebf-47b5-b439-3a124cd77c37"},"period":{"start":"2026-10-31T05:00:00.000+00:00","end":"2026-11-01T07:15:00.000+00:00"},"length":{"value":1,"unit":"days"}},"request":{"method":"PUT","url":"Encounter/43964403-30a3-4a58-b2d3-9b93ee777e3b"}},{"fullUrl":"https://madie.cms.gov/Encounter/49c1ba8e-f699-4c2d-bc6d-4575b07ab80c","resource":{"resourceType":"Encounter","id":"49c1ba8e-f699-4c2d-bc6d-4575b07ab80c","meta":{"profile":["http://hl7.org/fhir/us/qicore/StructureDefinition/qicore-encounter"]},"status":"finished","class":{"system":"http://terminology.hl7.org/CodeSystem/v3-ActCode","code":"IMP","display":"inpatient encounter"},"type":[{"coding":[{"system":"http://snomed.info/sct","code":"8715000"}]}],"subject":{"reference":"Patient/632831b0-1ebf-47b5-b439-3a124cd77c37"},"period":{"start":"2026-11-01T08:00:00.000+00:00","end":"2026-11-26T08:15:00.000+00:00"},"length":{"value":25,"unit":"days"},"location":[{"location":{"reference":"Location/471ff22f-872c-45be-bd32-a9c15e069fff"},"period":{"start":"2026-11-01T09:00:00.000+00:00","end":"2026-11-02T08:15:00.000+00:00"}}]},"request":{"method":"PUT","url":"Encounter/49c1ba8e-f699-4c2d-bc6d-4575b07ab80c"}},{"fullUrl":"https://madie.cms.gov/Coverage/220dba21-4aa3-43fe-826b-3b2b9cf92abf","resource":{"resourceType":"Coverage","id":"220dba21-4aa3-43fe-826b-3b2b9cf92abf","status":"active","beneficiary":{"reference":"Patient/632831b0-1ebf-47b5-b439-3a124cd77c37"},"period":{"start":"1975-01-02T08:00:00.000+00:00"},"payor":[{"reference":"Organization/67138677-9759-462c-a60e-3c219315a9da"}]},"request":{"method":"PUT","url":"Coverage/220dba21-4aa3-43fe-826b-3b2b9cf92abf"}},{"fullUrl":"https://madie.cms.gov/Procedure/65ef6af3-5af5-4870-b7c1-a07835f97f33","resource":{"resourceType":"Procedure","id":"65ef6af3-5af5-4870-b7c1-a07835f97f33","meta":{"profile":["http://hl7.org/fhir/us/qicore/StructureDefinition/qicore-procedurenotdone"]},"extension":[{"url":"http://hl7.org/fhir/us/qicore/StructureDefinition/qicore-recorded","valueDateTime":"2026-11-01T13:35:00.000+00:00"}],"status":"not-done","statusReason":{"coding":[{"system":"http://snomed.info/sct","code":"443390004","display":"Refusal of treatment by patient (situation)","userSelected":true}]},"code":{"coding":[{"system":"http://snomed.info/sct","version":"2025-03","code":"442410008","display":"Application of venous foot pump (procedure)","userSelected":true}]},"subject":{"reference":"Patient/632831b0-1ebf-47b5-b439-3a124cd77c37"},"_performedDateTime":{"extension":[{"url":"http://hl7.org/fhir/StructureDefinition/data-absent-reason","valueCode":"not-performed"}]}},"request":{"method":"PUT","url":"Procedure/65ef6af3-5af5-4870-b7c1-a07835f97f33"}},{"fullUrl":"https://madie.cms.gov/Location/471ff22f-872c-45be-bd32-a9c15e069fff","resource":{"resourceType":"Location","id":"471ff22f-872c-45be-bd32-a9c15e069fff","meta":{"profile":["http://hl7.org/fhir/us/qicore/StructureDefinition/qicore-location"]},"identifier":[{"use":"usual","system":"http://exampleoflocation.com","value":"B1-S.F2"}],"name":"Medical Surgical East, first floor","type":[{"coding":[{"system":"https://www.cdc.gov/nhsn/cdaportal/terminology/codesystem/hsloc.html","code":"1025-6","display":"Trauma Critical Care","userSelected":true}]}]},"request":{"method":"PUT","url":"Location/471ff22f-872c-45be-bd32-a9c15e069fff"}},{"fullUrl":"https://madie.cms.gov/Organization/67138677-9759-462c-a60e-3c219315a9da","resource":{"resourceType":"Organization","id":"67138677-9759-462c-a60e-3c219315a9da","meta":{"profile":["http://hl7.org/fhir/us/qicore/StructureDefinition/qicore-organization"]},"identifier":[{"use":"temp","system":"urn:oid:2.16.840.1.113883.4.4","value":"21-3259825"}],"active":true,"type":[{"coding":[{"system":"http://terminology.hl7.org/CodeSystem/organization-type","code":"pay","display":"Payer"}]}],"name":"Blue Cross Blue Shield of Texas","telecom":[{"system":"phone","value":"(+1) 972-766-6900"}],"address":[{"use":"billing","type":"postal","line":["P.O. Box 660044"],"city":"Dallas","state":"TX","postalCode":"75266-0044","country":"USA"}]},"request":{"method":"PUT","url":"Organization/67138677-9759-462c-a60e-3c219315a9da"}},{"fullUrl":"https://madie.cms.gov/Practitioner/2d3bc8e0-862c-490e-93dd-cacc7a847f08","resource":{"resourceType":"Practitioner","id":"2d3bc8e0-862c-490e-93dd-cacc7a847f08","identifier":[{"system":"http://hl7.org/fhir/sid/us-npi","value":"123456"}],"name":[{"family":"Evil","prefix":["Dr"]}]},"request":{"method":"PUT","url":"Practitioner/2d3bc8e0-862c-490e-93dd-cacc7a847f08"}},{"fullUrl":"https://madie.cms.gov/MeasureReport/10e8ede7-103c-455a-88a0-0376e4800edb","resource":{"resourceType":"MeasureReport","id":"10e8ede7-103c-455a-88a0-0376e4800edb","meta":{"profile":["http://hl7.org/fhir/us/cqfmeasures/StructureDefinition/test-case-cqfm"]},"contained":[{"resourceType":"Parameters","id":"08dc457a-437d-49b4-abdb-639592d226ff-parameters","parameter":[{"name":"subject","valueString":"632831b0-1ebf-47b5-b439-3a124cd77c37"}]}],"extension":[{"url":"http://hl7.org/fhir/StructureDefinition/cqf-inputParameters","valueReference":{"reference":"#08dc457a-437d-49b4-abdb-639592d226ff-parameters"}},{"url":"http://hl7.org/fhir/us/cqfmeasures/StructureDefinition/cqfm-testCaseDescription","valueMarkdown":"vfp adm not done due to patient refusal on the day of ICU\n"}],"modifierExtension":[{"url":"http://hl7.org/fhir/us/cqfmeasures/StructureDefinition/cqfm-isTestCase","valueBoolean":true}],"status":"complete","type":"individual","measure":"https://madie.cms.gov/Measure/CMS190VTEProphylaxisICUFHIR","period":{"start":"2026-01-01","end":"2026-12-31"},"group":[{"id":"Group_1","population":[{"id":"InitialPopulation_1","code":{"coding":[{"system":"http://terminology.hl7.org/CodeSystem/measure-population","code":"initial-population","display":"Initial Population"}]},"count":1},{"id":"Denominator_1","code":{"coding":[{"system":"http://terminology.hl7.org/CodeSystem/measure-population","code":"denominator","display":"Denominator"}]},"count":1},{"id":"DenominatorExclusion_1","code":{"coding":[{"system":"http://terminology.hl7.org/CodeSystem/measure-population","code":"denominator-exclusion","display":"Denominator Exclusion"}]},"count":0},{"id":"Numerator_1","code":{"coding":[{"system":"http://terminology.hl7.org/CodeSystem/measure-population","code":"numerator","display":"Numerator"}]},"count":1},{"id":"DenominatorException_1","code":{"coding":[{"system":"http://terminology.hl7.org/CodeSystem/measure-population","code":"denominator-exception","display":"Denominator Exception"}]},"count":0}],"measureScore":{"value":0.0}}],"evaluatedResource":[{"reference":"Patient/632831b0-1ebf-47b5-b439-3a124cd77c37"},{"reference":"Encounter/43964403-30a3-4a58-b2d3-9b93ee777e3b"},{"reference":"Encounter/49c1ba8e-f699-4c2d-bc6d-4575b07ab80c"},{"reference":"Coverage/220dba21-4aa3-43fe-826b-3b2b9cf92abf"},{"reference":"Procedure/65ef6af3-5af5-4870-b7c1-a07835f97f33"},{"reference":"Location/471ff22f-872c-45be-bd32-a9c15e069fff"},{"reference":"Organization/67138677-9759-462c-a60e-3c219315a9da"},{"reference":"Practitioner/2d3bc8e0-862c-490e-93dd-cacc7a847f08"}]},"request":{"method":"PUT","url":"MeasureReport/10e8ede7-103c-455a-88a0-0376e4800edb"}}]},"request":{"method":"PUT","url":"Bundle/612e6ab302c62a011f2eafaf"}},{"resource":{"resourceType":"MeasureReport","id":"10e8ede7-103c-455a-88a0-0376e4800edb","meta":{"profile":["http://hl7.org/fhir/us/cqfmeasures/StructureDefinition/test-case-cqfm"]},"contained":[{"resourceType":"Parameters","id":"08dc457a-437d-49b4-abdb-639592d226ff-parameters","parameter":[{"name":"subject","valueString":"632831b0-1ebf-47b5-b439-3a124cd77c37"}]}],"extension":[{"url":"http://hl7.org/fhir/StructureDefinition/cqf-inputParameters","valueReference":{"reference":"#08dc457a-437d-49b4-abdb-639592d226ff-parameters"}},{"url":"http://hl7.org/fhir/us/cqfmeasures/StructureDefinition/cqfm-testCaseDescription","valueMarkdown":"vfp adm not done due to patient refusal on the day of ICU\n"}],"modifierExtension":[{"url":"http://hl7.org/fhir/us/cqfmeasures/StructureDefinition/cqfm-isTestCase","valueBoolean":true}],"status":"complete","type":"individual","measure":"https://madie.cms.gov/Measure/CMS190VTEProphylaxisICUFHIR","period":{"start":"2026-01-01","end":"2026-12-31"},"group":[{"id":"Group_1","population":[{"id":"InitialPopulation_1","code":{"coding":[{"system":"http://terminology.hl7.org/CodeSystem/measure-population","code":"initial-population","display":"Initial Population"}]},"count":1},{"id":"Denominator_1","code":{"coding":[{"system":"http://terminology.hl7.org/CodeSystem/measure-population","code":"denominator","display":"Denominator"}]},"count":1},{"id":"DenominatorExclusion_1","code":{"coding":[{"system":"http://terminology.hl7.org/CodeSystem/measure-population","code":"denominator-exclusion","display":"Denominator Exclusion"}]},"count":0},{"id":"Numerator_1","code":{"coding":[{"system":"http://terminology.hl7.org/CodeSystem/measure-population","code":"numerator","display":"Numerator"}]},"count":1},{"id":"DenominatorException_1","code":{"coding":[{"system":"http://terminology.hl7.org/CodeSystem/measure-population","code":"denominator-exception","display":"Denominator Exception"}]},"count":0}],"measureScore":{"value":0.0}}],"evaluatedResource":[{"reference":"Patient/632831b0-1ebf-47b5-b439-3a124cd77c37"},{"reference":"Encounter/43964403-30a3-4a58-b2d3-9b93ee777e3b"},{"reference":"Encounter/49c1ba8e-f699-4c2d-bc6d-4575b07ab80c"},{"reference":"Coverage/220dba21-4aa3-43fe-826b-3b2b9cf92abf"},{"reference":"Procedure/65ef6af3-5af5-4870-b7c1-a07835f97f33"},{"reference":"Location/471ff22f-872c-45be-bd32-a9c15e069fff"},{"reference":"Organization/67138677-9759-462c-a60e-3c219315a9da"},{"reference":"Practitioner/2d3bc8e0-862c-490e-93dd-cacc7a847f08"}]},"request":{"method":"PUT","url":"MeasureReport/10e8ede7-103c-455a-88a0-0376e4800edb"}},{"resource":{"resourceType":"Coverage","id":"220dba21-4aa3-43fe-826b-3b2b9cf92abf","status":"active","beneficiary":{"reference":"Patient/632831b0-1ebf-47b5-b439-3a124cd77c37"},"period":{"start":"1975-01-02T08:00:00.000+00:00"},"payor":[{"reference":"Organization/67138677-9759-462c-a60e-3c219315a9da"}]},"request":{"method":"PUT","url":"Coverage/220dba21-4aa3-43fe-826b-3b2b9cf92abf"}},{"resource":{"resourceType":"Encounter","id":"49c1ba8e-f699-4c2d-bc6d-4575b07ab80c","meta":{"profile":["http://hl7.org/fhir/us/qicore/StructureDefinition/qicore-encounter"]},"status":"finished","class":{"system":"http://terminology.hl7.org/CodeSystem/v3-ActCode","code":"IMP","display":"inpatient encounter"},"type":[{"coding":[{"system":"http://snomed.info/sct","code":"8715000"}]}],"subject":{"reference":"Patient/632831b0-1ebf-47b5-b439-3a124cd77c37"},"period":{"start":"2026-11-01T08:00:00.000+00:00","end":"2026-11-26T08:15:00.000+00:00"},"length":{"value":25,"unit":"days"},"location":[{"location":{"reference":"Location/471ff22f-872c-45be-bd32-a9c15e069fff"},"period":{"start":"2026-11-01T09:00:00.000+00:00","end":"2026-11-02T08:15:00.000+00:00"}}]},"request":{"method":"PUT","url":"Encounter/49c1ba8e-f699-4c2d-bc6d-4575b07ab80c"}},{"resource":{"resourceType":"Procedure","id":"65ef6af3-5af5-4870-b7c1-a07835f97f33","meta":{"profile":["http://hl7.org/fhir/us/qicore/StructureDefinition/qicore-procedurenotdone"]},"extension":[{"url":"http://hl7.org/fhir/us/qicore/StructureDefinition/qicore-recorded","valueDateTime":"2026-11-01T13:35:00.000+00:00"}],"status":"not-done","statusReason":{"coding":[{"system":"http://snomed.info/sct","code":"443390004","display":"Refusal of treatment by patient (situation)","userSelected":true}]},"code":{"coding":[{"system":"http://snomed.info/sct","version":"2025-03","code":"442410008","display":"Application of venous foot pump (procedure)","userSelected":true}]},"subject":{"reference":"Patient/632831b0-1ebf-47b5-b439-3a124cd77c37"},"_performedDateTime":{"extension":[{"url":"http://hl7.org/fhir/StructureDefinition/data-absent-reason","valueCode":"not-performed"}]}},"request":{"method":"PUT","url":"Procedure/65ef6af3-5af5-4870-b7c1-a07835f97f33"}},{"resource":{"resourceType":"Patient","id":"632831b0-1ebf-47b5-b439-3a124cd77c37","meta":{"profile":["http://hl7.org/fhir/us/qicore/StructureDefinition/qicore-patient"]},"text":{"status":"generated","div":"<div xmlns=\"http://www.w3.org/1999/xhtml\"><div class=\"hapiHeaderText\">PtRefDAVFPDayOfICU <b>NUMERPASS </b></div><table class=\"hapiPropertyTable\"><tbody><tr><td>Identifier</td><td>5f7ad5e9fc357bf072546722e2c19e60</td></tr><tr><td>Date of birth</td><td><span>02 January 1974</span></td></tr></tbody></table></div>"},"extension":[{"url":"http://hl7.org/fhir/us/core/StructureDefinition/us-core-race","extension":[{"url":"ombCategory","valueCoding":{"system":"urn:oid:2.16.840.1.113883.6.238","code":"1002-5","display":"American Indian or Alaska Native","userSelected":true}},{"url":"text","valueString":"American Indian or Alaska Native"}]},{"url":"http://hl7.org/fhir/us/core/StructureDefinition/us-core-ethnicity","extension":[{"url":"ombCategory","valueCoding":{"system":"urn:oid:2.16.840.1.113883.6.238","code":"2135-2","display":"Hispanic or Latino","userSelected":true}},{"url":"text","valueString":"Hispanic or Latino"}]}],"identifier":[{"type":{"coding":[{"system":"http://terminology.hl7.org/CodeSystem/v2-0203","code":"MR"}]},"system":"https://bonnie-fhir.healthit.gov/","value":"612e6ab302c62a011f2eafaf"}],"active":true,"name":[{"use":"usual","family":"NUMERPass","given":["PtRefDAVFPDayOfICU"]}],"gender":"male","birthDate":"1975-01-02"},"request":{"method":"PUT","url":"Patient/632831b0-1ebf-47b5-b439-3a124cd77c37"}},{"resource":{"resourceType":"Organization","id":"67138677-9759-462c-a60e-3c219315a9da","meta":{"profile":["http://hl7.org/fhir/us/qicore/StructureDefinition/qicore-organization"]},"identifier":[{"use":"temp","system":"urn:oid:2.16.840.1.113883.4.4","value":"21-3259825"}],"active":true,"type":[{"coding":[{"system":"http://terminology.hl7.org/CodeSystem/organization-type","code":"pay","display":"Payer"}]}],"name":"Blue Cross Blue Shield of Texas","telecom":[{"system":"phone","value":"(+1) 972-766-6900"}],"address":[{"use":"billing","type":"postal","line":["P.O. Box 660044"],"city":"Dallas","state":"TX","postalCode":"75266-0044","country":"USA"}]},"request":{"method":"PUT","url":"Organization/67138677-9759-462c-a60e-3c219315a9da"}},{"resource":{"resourceType":"Location","id":"471ff22f-872c-45be-bd32-a9c15e069fff","meta":{"profile":["http://hl7.org/fhir/us/qicore/StructureDefinition/qicore-location"]},"identifier":[{"use":"usual","system":"http://exampleoflocation.com","value":"B1-S.F2"}],"name":"Medical Surgical East, first floor","type":[{"coding":[{"system":"https://www.cdc.gov/nhsn/cdaportal/terminology/codesystem/hsloc.html","code":"1025-6","display":"Trauma Critical Care","userSelected":true}]}]},"request":{"method":"PUT","url":"Location/471ff22f-872c-45be-bd32-a9c15e069fff"}}]}