{"resourceType":"Bundle","id":"tests-7c66ff2b-6e58-4665-98d9-4a9bbda4e79d-bundle","type":"transaction","entry":[{"resource":{"resourceType":"Bundle","id":"612e6ead02c62a011f2ef3a8","type":"transaction","entry":[{"fullUrl":"https://madie.cms.gov/Patient/7c66ff2b-6e58-4665-98d9-4a9bbda4e79d","resource":{"resourceType":"Patient","id":"7c66ff2b-6e58-4665-98d9-4a9bbda4e79d","meta":{"profile":["http://hl7.org/fhir/us/qicore/StructureDefinition/qicore-patient"]},"text":{"status":"generated","div":"<div xmlns=\"http://www.w3.org/1999/xhtml\"><div class=\"hapiHeaderText\">ICU2Locations <b>DENOMPASS </b></div><table class=\"hapiPropertyTable\"><tbody><tr><td>Identifier</td><td>6d76be9baa47bc8df50fa14784b8bb58</td></tr><tr><td>Date of birth</td><td><span>03 March 1974</span></td></tr></tbody></table></div>"},"extension":[{"url":"http://hl7.org/fhir/us/core/StructureDefinition/us-core-race","extension":[{"url":"ombCategory","valueCoding":{"system":"urn:oid:2.16.840.1.113883.6.238","code":"1002-5","display":"American Indian or Alaska Native","userSelected":true}},{"url":"text","valueString":"American Indian or Alaska Native"}]},{"url":"http://hl7.org/fhir/us/core/StructureDefinition/us-core-ethnicity","extension":[{"url":"ombCategory","valueCoding":{"system":"urn:oid:2.16.840.1.113883.6.238","code":"2135-2","display":"Hispanic or Latino","userSelected":true}},{"url":"text","valueString":"Hispanic or Latino"}]},{"url":"http://hl7.org/fhir/us/core/StructureDefinition/us-core-sex","valueCode":"248152002"}],"identifier":[{"type":{"coding":[{"system":"http://terminology.hl7.org/CodeSystem/v2-0203","code":"MR"}]},"system":"https://bonnie-fhir.healthit.gov/","value":"612e6ead02c62a011f2ef3a8"}],"active":true,"name":[{"use":"usual","family":"DENOMPass","given":["ICU2Locations"]}],"gender":"female","birthDate":"1975-03-03"},"request":{"method":"PUT","url":"Patient/7c66ff2b-6e58-4665-98d9-4a9bbda4e79d"}},{"fullUrl":"https://madie.cms.gov/Encounter/a7656e81-086f-4602-90e2-6a7c8dc7c2d1","resource":{"resourceType":"Encounter","id":"a7656e81-086f-4602-90e2-6a7c8dc7c2d1","meta":{"profile":["http://hl7.org/fhir/us/qicore/StructureDefinition/qicore-encounter"]},"status":"finished","class":{"system":"http://terminology.hl7.org/CodeSystem/v3-ActCode","code":"IMP","display":"inpatient encounter"},"type":[{"coding":[{"system":"http://snomed.info/sct","code":"8715000","display":"Hospital admission, elective (procedure)"}]}],"subject":{"reference":"Patient/7c66ff2b-6e58-4665-98d9-4a9bbda4e79d"},"period":{"start":"2026-12-04T08:00:00+00:00","end":"2026-12-30T08:15:00.000+00:00"},"length":{"value":26,"unit":"days"},"location":[{"location":{"reference":"Location/94440f96-7705-4f16-aeed-68484dad9281"},"period":{"start":"2026-12-06T08:00:00+00:00","end":"2026-12-08T08:15:00.000+00:00"}},{"location":{"reference":"Location/fd6fa516-d15b-4e2d-99be-8c6d57f7cfe8"},"period":{"start":"2026-12-31T08:00:00+00:00","end":"2026-12-31T08:15:00.000+00:00"}}]},"request":{"method":"PUT","url":"Encounter/a7656e81-086f-4602-90e2-6a7c8dc7c2d1"}},{"fullUrl":"https://madie.cms.gov/Coverage/d07b5e91-ce11-44a1-b418-28ee54e7580b","resource":{"resourceType":"Coverage","id":"d07b5e91-ce11-44a1-b418-28ee54e7580b","status":"active","beneficiary":{"reference":"Patient/7c66ff2b-6e58-4665-98d9-4a9bbda4e79d"},"period":{"start":"1975-03-03T08:00:00+00:00"},"payor":[{"reference":"Organization/0de6a9e5-653a-4cf5-8438-3749ffaf23f6"}]},"request":{"method":"PUT","url":"Coverage/d07b5e91-ce11-44a1-b418-28ee54e7580b"}},{"fullUrl":"https://madie.cms.gov/Location/94440f96-7705-4f16-aeed-68484dad9281","resource":{"resourceType":"Location","id":"94440f96-7705-4f16-aeed-68484dad9281","meta":{"profile":["http://hl7.org/fhir/us/qicore/StructureDefinition/qicore-location"]},"identifier":[{"use":"usual","system":"http://exampleoflocation.com","value":"B1-S.F2"}],"name":"Medical Surgical East, first floor","type":[{"coding":[{"system":"https://www.cdc.gov/nhsn/cdaportal/terminology/codesystem/hsloc.html","version":"2020","code":"1025-6","display":"Trauma Critical Care","userSelected":true}]}]},"request":{"method":"PUT","url":"Location/94440f96-7705-4f16-aeed-68484dad9281"}},{"fullUrl":"https://madie.cms.gov/Location/fd6fa516-d15b-4e2d-99be-8c6d57f7cfe8","resource":{"resourceType":"Location","id":"fd6fa516-d15b-4e2d-99be-8c6d57f7cfe8","meta":{"profile":["http://hl7.org/fhir/us/qicore/StructureDefinition/qicore-location"]},"identifier":[{"use":"usual","system":"http://exampleoflocation.com","value":"A1-S.F2"}],"name":"Medical Surgical West, first floor","type":[{"coding":[{"system":"https://www.cdc.gov/nhsn/cdaportal/terminology/codesystem/hsloc.html","version":"2020","code":"1025-6","display":"Trauma Critical Care","userSelected":true}]}]},"request":{"method":"PUT","url":"Location/fd6fa516-d15b-4e2d-99be-8c6d57f7cfe8"}},{"fullUrl":"https://madie.cms.gov/Organization/0de6a9e5-653a-4cf5-8438-3749ffaf23f6","resource":{"resourceType":"Organization","id":"0de6a9e5-653a-4cf5-8438-3749ffaf23f6","meta":{"profile":["http://hl7.org/fhir/us/qicore/StructureDefinition/qicore-organization"]},"identifier":[{"use":"temp","system":"urn:oid:2.16.840.1.113883.4.4","value":"21-3259825"}],"active":true,"type":[{"coding":[{"system":"http://terminology.hl7.org/CodeSystem/organization-type","code":"pay","display":"Payer"}]}],"name":"Blue Cross Blue Shield of Texas","telecom":[{"system":"phone","value":"(+1) 972-766-6900"}],"address":[{"use":"billing","type":"postal","line":["P.O. Box 660044"],"city":"Dallas","state":"TX","postalCode":"75266-0044","country":"USA"}]},"request":{"method":"PUT","url":"Organization/0de6a9e5-653a-4cf5-8438-3749ffaf23f6"}},{"fullUrl":"https://madie.cms.gov/MeasureReport/284b3ed9-8355-44c2-bee9-9e7765b51d99","resource":{"resourceType":"MeasureReport","id":"284b3ed9-8355-44c2-bee9-9e7765b51d99","meta":{"profile":["http://hl7.org/fhir/us/cqfmeasures/StructureDefinition/test-case-cqfm"]},"contained":[{"resourceType":"Parameters","id":"db05bbe6-db3f-48f8-9445-6a47c83ce0fb-parameters","parameter":[{"name":"subject","valueString":"7c66ff2b-6e58-4665-98d9-4a9bbda4e79d"}]}],"extension":[{"url":"http://hl7.org/fhir/StructureDefinition/cqf-inputParameters","valueReference":{"reference":"#db05bbe6-db3f-48f8-9445-6a47c83ce0fb-parameters"}},{"url":"http://hl7.org/fhir/us/cqfmeasures/StructureDefinition/cqfm-testCaseDescription","valueMarkdown":"denominator pass- first occurrence of Icu admission or transfer during IP encounter"}],"modifierExtension":[{"url":"http://hl7.org/fhir/us/cqfmeasures/StructureDefinition/cqfm-isTestCase","valueBoolean":true}],"status":"complete","type":"individual","measure":"https://madie.cms.gov/Measure/CMS190VTEProphylaxisICUFHIR","period":{"start":"2026-01-01","end":"2026-12-31"},"group":[{"id":"Group_1","population":[{"id":"InitialPopulation_1","code":{"coding":[{"system":"http://terminology.hl7.org/CodeSystem/measure-population","code":"initial-population","display":"Initial Population"}]},"count":1},{"id":"Denominator_1","code":{"coding":[{"system":"http://terminology.hl7.org/CodeSystem/measure-population","code":"denominator","display":"Denominator"}]},"count":1},{"id":"DenominatorExclusion_1","code":{"coding":[{"system":"http://terminology.hl7.org/CodeSystem/measure-population","code":"denominator-exclusion","display":"Denominator Exclusion"}]},"count":0},{"id":"Numerator_1","code":{"coding":[{"system":"http://terminology.hl7.org/CodeSystem/measure-population","code":"numerator","display":"Numerator"}]},"count":0},{"id":"DenominatorException_1","code":{"coding":[{"system":"http://terminology.hl7.org/CodeSystem/measure-population","code":"denominator-exception","display":"Denominator Exception"}]},"count":0}],"measureScore":{"value":0.0}}],"evaluatedResource":[{"reference":"Patient/7c66ff2b-6e58-4665-98d9-4a9bbda4e79d"},{"reference":"Encounter/a7656e81-086f-4602-90e2-6a7c8dc7c2d1"},{"reference":"Coverage/d07b5e91-ce11-44a1-b418-28ee54e7580b"},{"reference":"Location/94440f96-7705-4f16-aeed-68484dad9281"},{"reference":"Location/fd6fa516-d15b-4e2d-99be-8c6d57f7cfe8"},{"reference":"Organization/0de6a9e5-653a-4cf5-8438-3749ffaf23f6"}]},"request":{"method":"PUT","url":"MeasureReport/284b3ed9-8355-44c2-bee9-9e7765b51d99"}}]},"request":{"method":"PUT","url":"Bundle/612e6ead02c62a011f2ef3a8"}},{"resource":{"resourceType":"Patient","id":"7c66ff2b-6e58-4665-98d9-4a9bbda4e79d","meta":{"profile":["http://hl7.org/fhir/us/qicore/StructureDefinition/qicore-patient"]},"text":{"status":"generated","div":"<div xmlns=\"http://www.w3.org/1999/xhtml\"><div class=\"hapiHeaderText\">ICU2Locations <b>DENOMPASS </b></div><table class=\"hapiPropertyTable\"><tbody><tr><td>Identifier</td><td>6d76be9baa47bc8df50fa14784b8bb58</td></tr><tr><td>Date of birth</td><td><span>03 March 1974</span></td></tr></tbody></table></div>"},"extension":[{"url":"http://hl7.org/fhir/us/core/StructureDefinition/us-core-race","extension":[{"url":"ombCategory","valueCoding":{"system":"urn:oid:2.16.840.1.113883.6.238","code":"1002-5","display":"American Indian or Alaska Native","userSelected":true}},{"url":"text","valueString":"American Indian or Alaska Native"}]},{"url":"http://hl7.org/fhir/us/core/StructureDefinition/us-core-ethnicity","extension":[{"url":"ombCategory","valueCoding":{"system":"urn:oid:2.16.840.1.113883.6.238","code":"2135-2","display":"Hispanic or Latino","userSelected":true}},{"url":"text","valueString":"Hispanic or Latino"}]},{"url":"http://hl7.org/fhir/us/core/StructureDefinition/us-core-sex","valueCode":"248152002"}],"identifier":[{"type":{"coding":[{"system":"http://terminology.hl7.org/CodeSystem/v2-0203","code":"MR"}]},"system":"https://bonnie-fhir.healthit.gov/","value":"612e6ead02c62a011f2ef3a8"}],"active":true,"name":[{"use":"usual","family":"DENOMPass","given":["ICU2Locations"]}],"gender":"female","birthDate":"1975-03-03"},"request":{"method":"PUT","url":"Patient/7c66ff2b-6e58-4665-98d9-4a9bbda4e79d"}},{"resource":{"resourceType":"Organization","id":"0de6a9e5-653a-4cf5-8438-3749ffaf23f6","meta":{"profile":["http://hl7.org/fhir/us/qicore/StructureDefinition/qicore-organization"]},"identifier":[{"use":"temp","system":"urn:oid:2.16.840.1.113883.4.4","value":"21-3259825"}],"active":true,"type":[{"coding":[{"system":"http://terminology.hl7.org/CodeSystem/organization-type","code":"pay","display":"Payer"}]}],"name":"Blue Cross Blue Shield of Texas","telecom":[{"system":"phone","value":"(+1) 972-766-6900"}],"address":[{"use":"billing","type":"postal","line":["P.O. Box 660044"],"city":"Dallas","state":"TX","postalCode":"75266-0044","country":"USA"}]},"request":{"method":"PUT","url":"Organization/0de6a9e5-653a-4cf5-8438-3749ffaf23f6"}},{"resource":{"resourceType":"MeasureReport","id":"284b3ed9-8355-44c2-bee9-9e7765b51d99","meta":{"profile":["http://hl7.org/fhir/us/cqfmeasures/StructureDefinition/test-case-cqfm"]},"contained":[{"resourceType":"Parameters","id":"db05bbe6-db3f-48f8-9445-6a47c83ce0fb-parameters","parameter":[{"name":"subject","valueString":"7c66ff2b-6e58-4665-98d9-4a9bbda4e79d"}]}],"extension":[{"url":"http://hl7.org/fhir/StructureDefinition/cqf-inputParameters","valueReference":{"reference":"#db05bbe6-db3f-48f8-9445-6a47c83ce0fb-parameters"}},{"url":"http://hl7.org/fhir/us/cqfmeasures/StructureDefinition/cqfm-testCaseDescription","valueMarkdown":"denominator pass- first occurrence of Icu admission or transfer during IP encounter"}],"modifierExtension":[{"url":"http://hl7.org/fhir/us/cqfmeasures/StructureDefinition/cqfm-isTestCase","valueBoolean":true}],"status":"complete","type":"individual","measure":"https://madie.cms.gov/Measure/CMS190VTEProphylaxisICUFHIR","period":{"start":"2026-01-01","end":"2026-12-31"},"group":[{"id":"Group_1","population":[{"id":"InitialPopulation_1","code":{"coding":[{"system":"http://terminology.hl7.org/CodeSystem/measure-population","code":"initial-population","display":"Initial Population"}]},"count":1},{"id":"Denominator_1","code":{"coding":[{"system":"http://terminology.hl7.org/CodeSystem/measure-population","code":"denominator","display":"Denominator"}]},"count":1},{"id":"DenominatorExclusion_1","code":{"coding":[{"system":"http://terminology.hl7.org/CodeSystem/measure-population","code":"denominator-exclusion","display":"Denominator Exclusion"}]},"count":0},{"id":"Numerator_1","code":{"coding":[{"system":"http://terminology.hl7.org/CodeSystem/measure-population","code":"numerator","display":"Numerator"}]},"count":0},{"id":"DenominatorException_1","code":{"coding":[{"system":"http://terminology.hl7.org/CodeSystem/measure-population","code":"denominator-exception","display":"Denominator Exception"}]},"count":0}],"measureScore":{"value":0.0}}],"evaluatedResource":[{"reference":"Patient/7c66ff2b-6e58-4665-98d9-4a9bbda4e79d"},{"reference":"Encounter/a7656e81-086f-4602-90e2-6a7c8dc7c2d1"},{"reference":"Coverage/d07b5e91-ce11-44a1-b418-28ee54e7580b"},{"reference":"Location/94440f96-7705-4f16-aeed-68484dad9281"},{"reference":"Location/fd6fa516-d15b-4e2d-99be-8c6d57f7cfe8"},{"reference":"Organization/0de6a9e5-653a-4cf5-8438-3749ffaf23f6"}]},"request":{"method":"PUT","url":"MeasureReport/284b3ed9-8355-44c2-bee9-9e7765b51d99"}},{"resource":{"resourceType":"Location","id":"fd6fa516-d15b-4e2d-99be-8c6d57f7cfe8","meta":{"profile":["http://hl7.org/fhir/us/qicore/StructureDefinition/qicore-location"]},"identifier":[{"use":"usual","system":"http://exampleoflocation.com","value":"A1-S.F2"}],"name":"Medical Surgical West, first floor","type":[{"coding":[{"system":"https://www.cdc.gov/nhsn/cdaportal/terminology/codesystem/hsloc.html","version":"2020","code":"1025-6","display":"Trauma Critical Care","userSelected":true}]}]},"request":{"method":"PUT","url":"Location/fd6fa516-d15b-4e2d-99be-8c6d57f7cfe8"}},{"resource":{"resourceType":"Location","id":"94440f96-7705-4f16-aeed-68484dad9281","meta":{"profile":["http://hl7.org/fhir/us/qicore/StructureDefinition/qicore-location"]},"identifier":[{"use":"usual","system":"http://exampleoflocation.com","value":"B1-S.F2"}],"name":"Medical Surgical East, first floor","type":[{"coding":[{"system":"https://www.cdc.gov/nhsn/cdaportal/terminology/codesystem/hsloc.html","version":"2020","code":"1025-6","display":"Trauma Critical Care","userSelected":true}]}]},"request":{"method":"PUT","url":"Location/94440f96-7705-4f16-aeed-68484dad9281"}},{"resource":{"resourceType":"Encounter","id":"a7656e81-086f-4602-90e2-6a7c8dc7c2d1","meta":{"profile":["http://hl7.org/fhir/us/qicore/StructureDefinition/qicore-encounter"]},"status":"finished","class":{"system":"http://terminology.hl7.org/CodeSystem/v3-ActCode","code":"IMP","display":"inpatient encounter"},"type":[{"coding":[{"system":"http://snomed.info/sct","code":"8715000","display":"Hospital admission, elective (procedure)"}]}],"subject":{"reference":"Patient/7c66ff2b-6e58-4665-98d9-4a9bbda4e79d"},"period":{"start":"2026-12-04T08:00:00+00:00","end":"2026-12-30T08:15:00.000+00:00"},"length":{"value":26,"unit":"days"},"location":[{"location":{"reference":"Location/94440f96-7705-4f16-aeed-68484dad9281"},"period":{"start":"2026-12-06T08:00:00+00:00","end":"2026-12-08T08:15:00.000+00:00"}},{"location":{"reference":"Location/fd6fa516-d15b-4e2d-99be-8c6d57f7cfe8"},"period":{"start":"2026-12-31T08:00:00+00:00","end":"2026-12-31T08:15:00.000+00:00"}}]},"request":{"method":"PUT","url":"Encounter/a7656e81-086f-4602-90e2-6a7c8dc7c2d1"}},{"resource":{"resourceType":"Coverage","id":"d07b5e91-ce11-44a1-b418-28ee54e7580b","status":"active","beneficiary":{"reference":"Patient/7c66ff2b-6e58-4665-98d9-4a9bbda4e79d"},"period":{"start":"1975-03-03T08:00:00+00:00"},"payor":[{"reference":"Organization/0de6a9e5-653a-4cf5-8438-3749ffaf23f6"}]},"request":{"method":"PUT","url":"Coverage/d07b5e91-ce11-44a1-b418-28ee54e7580b"}}]}