{"resourceType":"Bundle","id":"tests-d70dcaf9-4e69-4395-9612-ee1e156f6184-bundle","type":"transaction","entry":[{"resource":{"resourceType":"Practitioner","id":"cdfa723b-69a2-4022-a133-bb821d3369a2","identifier":[{"system":"http://hl7.org/fhir/sid/us-npi","value":"123456"}],"name":[{"family":"Evil","prefix":["Dr"]}]},"request":{"method":"PUT","url":"Practitioner/cdfa723b-69a2-4022-a133-bb821d3369a2"}},{"resource":{"resourceType":"Procedure","id":"a1ee3aa2-219a-484d-9e35-9e1d19730832","meta":{"profile":["http://hl7.org/fhir/us/qicore/StructureDefinition/qicore-procedure"]},"extension":[{"url":"http://hl7.org/fhir/us/qicore/StructureDefinition/qicore-recorded","valueDateTime":"2026-03-26T13:35:00.000+00:00"}],"status":"completed","code":{"coding":[{"system":"http://snomed.info/sct","code":"443448006","display":"Application of intermittent pneumatic compression device (procedure)"}]},"subject":{"reference":"Patient/d70dcaf9-4e69-4395-9612-ee1e156f6184"},"performedPeriod":{"start":"2026-03-22T08:10:00.000+00:00","end":"2026-03-22T08:15:00.000+00:00"}},"request":{"method":"PUT","url":"Procedure/a1ee3aa2-219a-484d-9e35-9e1d19730832"}},{"resource":{"resourceType":"Patient","id":"d70dcaf9-4e69-4395-9612-ee1e156f6184","meta":{"profile":["http://hl7.org/fhir/us/qicore/StructureDefinition/qicore-patient"]},"text":{"status":"generated","div":"<div xmlns=\"http://www.w3.org/1999/xhtml\"><div class=\"hapiHeaderText\">TestMultipleOccur2inNum <b>NUMERPASS </b></div><table class=\"hapiPropertyTable\"><tbody><tr><td>Identifier</td><td>f9dd0d7a6a9f775928ab2c47f31bfdd50dfc6c91e6f0b0e678b3985354333a28</td></tr><tr><td>Date of birth</td><td><span>03 March 1974</span></td></tr></tbody></table></div>"},"extension":[{"url":"http://hl7.org/fhir/us/core/StructureDefinition/us-core-race","extension":[{"url":"ombCategory","valueCoding":{"system":"urn:oid:2.16.840.1.113883.6.238","code":"1002-5","display":"American Indian or Alaska Native","userSelected":true}},{"url":"text","valueString":"American Indian or Alaska Native"}]},{"url":"http://hl7.org/fhir/us/core/StructureDefinition/us-core-ethnicity","extension":[{"url":"ombCategory","valueCoding":{"system":"urn:oid:2.16.840.1.113883.6.238","code":"2135-2","display":"Hispanic or Latino","userSelected":true}},{"url":"text","valueString":"Hispanic or Latino"}]}],"identifier":[{"type":{"coding":[{"system":"http://terminology.hl7.org/CodeSystem/v2-0203","code":"MR"}]},"system":"https://bonnie-fhir.healthit.gov/","value":"612e6f6e02c62a011f2f1d44"}],"active":true,"name":[{"use":"usual","family":"NUMERPass","given":["TestMultipleOccur2inNum"]}],"gender":"female","birthDate":"1975-03-03"},"request":{"method":"PUT","url":"Patient/d70dcaf9-4e69-4395-9612-ee1e156f6184"}},{"resource":{"resourceType":"Organization","id":"b85d3a82-8f07-49fa-afcc-c3498579bc71","meta":{"profile":["http://hl7.org/fhir/us/qicore/StructureDefinition/qicore-organization"]},"identifier":[{"use":"temp","system":"urn:oid:2.16.840.1.113883.4.4","value":"21-3259825"}],"active":true,"type":[{"coding":[{"system":"http://terminology.hl7.org/CodeSystem/organization-type","code":"pay","display":"Payer"}]}],"name":"Blue Cross Blue Shield of Texas","telecom":[{"system":"phone","value":"(+1) 972-766-6900"}],"address":[{"use":"billing","type":"postal","line":["P.O. Box 660044"],"city":"Dallas","state":"TX","postalCode":"75266-0044","country":"USA"}]},"request":{"method":"PUT","url":"Organization/b85d3a82-8f07-49fa-afcc-c3498579bc71"}},{"resource":{"resourceType":"Location","id":"a35af422-d6cc-4b8d-829d-284bc6335d4c","meta":{"profile":["http://hl7.org/fhir/us/qicore/StructureDefinition/qicore-location"]},"identifier":[{"use":"usual","system":"http://exampleoflocation.com","value":"B1-S.F2"}],"name":"Medical Surgical East, first floor","type":[{"coding":[{"system":"https://www.cdc.gov/nhsn/cdaportal/terminology/codesystem/hsloc.html","code":"1025-6","display":"Trauma Critical Care","userSelected":true}]}]},"request":{"method":"PUT","url":"Location/a35af422-d6cc-4b8d-829d-284bc6335d4c"}},{"resource":{"resourceType":"Coverage","id":"72bdd799-39b9-491a-85a0-307c244b2700","status":"active","beneficiary":{"reference":"Patient/d70dcaf9-4e69-4395-9612-ee1e156f6184"},"period":{"start":"1975-03-03T08:00:00.000+00:00"},"payor":[{"reference":"Organization/b85d3a82-8f07-49fa-afcc-c3498579bc71"}]},"request":{"method":"PUT","url":"Coverage/72bdd799-39b9-491a-85a0-307c244b2700"}},{"resource":{"resourceType":"Location","id":"fa5bad34-e2c9-41ce-8c1e-1fb724c668e9","meta":{"profile":["http://hl7.org/fhir/us/qicore/StructureDefinition/qicore-location"]},"identifier":[{"use":"usual","system":"http://exampleoflocation.com","value":"B1-S.F2"}],"name":"Medical Surgical East, first floor","type":[{"coding":[{"system":"https://www.cdc.gov/nhsn/cdaportal/terminology/codesystem/hsloc.html","code":"1025-6","display":"Trauma Critical Care","userSelected":true}]}]},"request":{"method":"PUT","url":"Location/fa5bad34-e2c9-41ce-8c1e-1fb724c668e9"}},{"resource":{"resourceType":"Bundle","id":"612e6f6e02c62a011f2f1d44","type":"transaction","entry":[{"fullUrl":"https://madie.cms.gov/Patient/d70dcaf9-4e69-4395-9612-ee1e156f6184","resource":{"resourceType":"Patient","id":"d70dcaf9-4e69-4395-9612-ee1e156f6184","meta":{"profile":["http://hl7.org/fhir/us/qicore/StructureDefinition/qicore-patient"]},"text":{"status":"generated","div":"<div xmlns=\"http://www.w3.org/1999/xhtml\"><div class=\"hapiHeaderText\">TestMultipleOccur2inNum <b>NUMERPASS </b></div><table class=\"hapiPropertyTable\"><tbody><tr><td>Identifier</td><td>f9dd0d7a6a9f775928ab2c47f31bfdd50dfc6c91e6f0b0e678b3985354333a28</td></tr><tr><td>Date of birth</td><td><span>03 March 1974</span></td></tr></tbody></table></div>"},"extension":[{"url":"http://hl7.org/fhir/us/core/StructureDefinition/us-core-race","extension":[{"url":"ombCategory","valueCoding":{"system":"urn:oid:2.16.840.1.113883.6.238","code":"1002-5","display":"American Indian or Alaska Native","userSelected":true}},{"url":"text","valueString":"American Indian or Alaska Native"}]},{"url":"http://hl7.org/fhir/us/core/StructureDefinition/us-core-ethnicity","extension":[{"url":"ombCategory","valueCoding":{"system":"urn:oid:2.16.840.1.113883.6.238","code":"2135-2","display":"Hispanic or Latino","userSelected":true}},{"url":"text","valueString":"Hispanic or Latino"}]}],"identifier":[{"type":{"coding":[{"system":"http://terminology.hl7.org/CodeSystem/v2-0203","code":"MR"}]},"system":"https://bonnie-fhir.healthit.gov/","value":"612e6f6e02c62a011f2f1d44"}],"active":true,"name":[{"use":"usual","family":"NUMERPass","given":["TestMultipleOccur2inNum"]}],"gender":"female","birthDate":"1975-03-03"},"request":{"method":"PUT","url":"Patient/d70dcaf9-4e69-4395-9612-ee1e156f6184"}},{"fullUrl":"https://madie.cms.gov/Encounter/3769db7d-7445-4b5a-8032-7f1805f56441","resource":{"resourceType":"Encounter","id":"3769db7d-7445-4b5a-8032-7f1805f56441","meta":{"profile":["http://hl7.org/fhir/us/qicore/StructureDefinition/qicore-encounter"]},"status":"finished","class":{"system":"http://terminology.hl7.org/CodeSystem/v3-ActCode","code":"IMP","display":"inpatient encounter"},"type":[{"coding":[{"system":"http://snomed.info/sct","code":"183452005"}]}],"subject":{"reference":"Patient/d70dcaf9-4e69-4395-9612-ee1e156f6184"},"period":{"start":"2026-03-22T08:00:00.000+00:00","end":"2026-03-26T08:15:00.000+00:00"},"length":{"value":4.0,"unit":"days"},"location":[{"location":{"reference":"Location/fa5bad34-e2c9-41ce-8c1e-1fb724c668e9"},"period":{"start":"2026-03-22T08:15:00.000+00:00","end":"2026-03-24T08:00:00.000+00:00"}}]},"request":{"method":"PUT","url":"Encounter/3769db7d-7445-4b5a-8032-7f1805f56441"}},{"fullUrl":"https://madie.cms.gov/Encounter/a631e21d-a320-4cd2-b43c-ab7980446036","resource":{"resourceType":"Encounter","id":"a631e21d-a320-4cd2-b43c-ab7980446036","meta":{"profile":["http://hl7.org/fhir/us/qicore/StructureDefinition/qicore-encounter"]},"status":"finished","class":{"system":"http://terminology.hl7.org/CodeSystem/v3-ActCode","code":"EMER","display":"emergency"},"type":[{"coding":[{"system":"http://snomed.info/sct","code":"4525004"}]}],"subject":{"reference":"Patient/d70dcaf9-4e69-4395-9612-ee1e156f6184"},"period":{"start":"2026-12-06T02:00:00.000+00:00","end":"2026-12-06T08:15:00.000+00:00"},"length":{"value":0.0,"unit":"days"}},"request":{"method":"PUT","url":"Encounter/a631e21d-a320-4cd2-b43c-ab7980446036"}},{"fullUrl":"https://madie.cms.gov/Encounter/c105972f-ed6c-4238-b159-aca22702a33a","resource":{"resourceType":"Encounter","id":"c105972f-ed6c-4238-b159-aca22702a33a","meta":{"profile":["http://hl7.org/fhir/us/qicore/StructureDefinition/qicore-encounter"]},"status":"finished","class":{"system":"http://terminology.hl7.org/CodeSystem/v3-ActCode","code":"IMP","display":"inpatient encounter"},"type":[{"coding":[{"system":"http://snomed.info/sct","code":"8715000"}]}],"subject":{"reference":"Patient/d70dcaf9-4e69-4395-9612-ee1e156f6184"},"period":{"start":"2026-12-06T08:45:00.000+00:00","end":"2026-12-30T08:15:00.000+00:00"},"length":{"value":24.0,"unit":"days"},"location":[{"location":{"reference":"Location/a35af422-d6cc-4b8d-829d-284bc6335d4c"},"period":{"start":"2026-12-06T09:00:00.000+00:00","end":"2026-12-12T08:15:00.000+00:00"}}]},"request":{"method":"PUT","url":"Encounter/c105972f-ed6c-4238-b159-aca22702a33a"}},{"fullUrl":"https://madie.cms.gov/Coverage/72bdd799-39b9-491a-85a0-307c244b2700","resource":{"resourceType":"Coverage","id":"72bdd799-39b9-491a-85a0-307c244b2700","status":"active","beneficiary":{"reference":"Patient/d70dcaf9-4e69-4395-9612-ee1e156f6184"},"period":{"start":"1975-03-03T08:00:00.000+00:00"},"payor":[{"reference":"Organization/b85d3a82-8f07-49fa-afcc-c3498579bc71"}]},"request":{"method":"PUT","url":"Coverage/72bdd799-39b9-491a-85a0-307c244b2700"}},{"fullUrl":"https://madie.cms.gov/MedicationAdministration/863f1d72-dc69-4478-ba84-08e99501659d","resource":{"resourceType":"MedicationAdministration","id":"863f1d72-dc69-4478-ba84-08e99501659d","meta":{"profile":["http://hl7.org/fhir/us/qicore/StructureDefinition/qicore-medicationadministration"]},"status":"completed","medicationCodeableConcept":{"coding":[{"system":"http://www.nlm.nih.gov/research/umls/rxnorm","code":"308351"}]},"subject":{"reference":"Patient/d70dcaf9-4e69-4395-9612-ee1e156f6184"},"effectivePeriod":{"start":"2026-12-07T06:30:00.000+00:00"}},"request":{"method":"PUT","url":"MedicationAdministration/863f1d72-dc69-4478-ba84-08e99501659d"}},{"fullUrl":"https://madie.cms.gov/Location/fa5bad34-e2c9-41ce-8c1e-1fb724c668e9","resource":{"resourceType":"Location","id":"fa5bad34-e2c9-41ce-8c1e-1fb724c668e9","meta":{"profile":["http://hl7.org/fhir/us/qicore/StructureDefinition/qicore-location"]},"identifier":[{"use":"usual","system":"http://exampleoflocation.com","value":"B1-S.F2"}],"name":"Medical Surgical East, first floor","type":[{"coding":[{"system":"https://www.cdc.gov/nhsn/cdaportal/terminology/codesystem/hsloc.html","code":"1025-6","display":"Trauma Critical Care","userSelected":true}]}]},"request":{"method":"PUT","url":"Location/fa5bad34-e2c9-41ce-8c1e-1fb724c668e9"}},{"fullUrl":"https://madie.cms.gov/Location/a35af422-d6cc-4b8d-829d-284bc6335d4c","resource":{"resourceType":"Location","id":"a35af422-d6cc-4b8d-829d-284bc6335d4c","meta":{"profile":["http://hl7.org/fhir/us/qicore/StructureDefinition/qicore-location"]},"identifier":[{"use":"usual","system":"http://exampleoflocation.com","value":"B1-S.F2"}],"name":"Medical Surgical East, first floor","type":[{"coding":[{"system":"https://www.cdc.gov/nhsn/cdaportal/terminology/codesystem/hsloc.html","code":"1025-6","display":"Trauma Critical Care","userSelected":true}]}]},"request":{"method":"PUT","url":"Location/a35af422-d6cc-4b8d-829d-284bc6335d4c"}},{"fullUrl":"https://madie.cms.gov/Procedure/a1ee3aa2-219a-484d-9e35-9e1d19730832","resource":{"resourceType":"Procedure","id":"a1ee3aa2-219a-484d-9e35-9e1d19730832","meta":{"profile":["http://hl7.org/fhir/us/qicore/StructureDefinition/qicore-procedure"]},"extension":[{"url":"http://hl7.org/fhir/us/qicore/StructureDefinition/qicore-recorded","valueDateTime":"2026-03-26T13:35:00.000+00:00"}],"status":"completed","code":{"coding":[{"system":"http://snomed.info/sct","code":"443448006","display":"Application of intermittent pneumatic compression device (procedure)"}]},"subject":{"reference":"Patient/d70dcaf9-4e69-4395-9612-ee1e156f6184"},"performedPeriod":{"start":"2026-03-22T08:10:00.000+00:00","end":"2026-03-22T08:15:00.000+00:00"}},"request":{"method":"PUT","url":"Procedure/a1ee3aa2-219a-484d-9e35-9e1d19730832"}},{"fullUrl":"https://madie.cms.gov/Organization/b85d3a82-8f07-49fa-afcc-c3498579bc71","resource":{"resourceType":"Organization","id":"b85d3a82-8f07-49fa-afcc-c3498579bc71","meta":{"profile":["http://hl7.org/fhir/us/qicore/StructureDefinition/qicore-organization"]},"identifier":[{"use":"temp","system":"urn:oid:2.16.840.1.113883.4.4","value":"21-3259825"}],"active":true,"type":[{"coding":[{"system":"http://terminology.hl7.org/CodeSystem/organization-type","code":"pay","display":"Payer"}]}],"name":"Blue Cross Blue Shield of Texas","telecom":[{"system":"phone","value":"(+1) 972-766-6900"}],"address":[{"use":"billing","type":"postal","line":["P.O. Box 660044"],"city":"Dallas","state":"TX","postalCode":"75266-0044","country":"USA"}]},"request":{"method":"PUT","url":"Organization/b85d3a82-8f07-49fa-afcc-c3498579bc71"}},{"fullUrl":"https://madie.cms.gov/Practitioner/cdfa723b-69a2-4022-a133-bb821d3369a2","resource":{"resourceType":"Practitioner","id":"cdfa723b-69a2-4022-a133-bb821d3369a2","identifier":[{"system":"http://hl7.org/fhir/sid/us-npi","value":"123456"}],"name":[{"family":"Evil","prefix":["Dr"]}]},"request":{"method":"PUT","url":"Practitioner/cdfa723b-69a2-4022-a133-bb821d3369a2"}},{"fullUrl":"https://madie.cms.gov/MeasureReport/d65ba1c9-9ecd-4c3c-bae2-c2dfe58d9945","resource":{"resourceType":"MeasureReport","id":"d65ba1c9-9ecd-4c3c-bae2-c2dfe58d9945","meta":{"profile":["http://hl7.org/fhir/us/cqfmeasures/StructureDefinition/test-case-cqfm"]},"contained":[{"resourceType":"Parameters","id":"230e3adb-0673-456a-976e-1a5fffdd46a6-parameters","parameter":[{"name":"subject","valueString":"d70dcaf9-4e69-4395-9612-ee1e156f6184"}]}],"extension":[{"url":"http://hl7.org/fhir/StructureDefinition/cqf-inputParameters","valueReference":{"reference":"#230e3adb-0673-456a-976e-1a5fffdd46a6-parameters"}},{"url":"http://hl7.org/fhir/us/cqfmeasures/StructureDefinition/cqfm-testCaseDescription","valueMarkdown":" Patient has 2 encounters, both pass Numerator due to Device applied and medication administered.\n"}],"modifierExtension":[{"url":"http://hl7.org/fhir/us/cqfmeasures/StructureDefinition/cqfm-isTestCase","valueBoolean":true}],"status":"complete","type":"individual","measure":"https://madie.cms.gov/Measure/CMS190VTEProphylaxisICUFHIR","period":{"start":"2026-01-01","end":"2026-12-31"},"group":[{"id":"Group_1","population":[{"id":"InitialPopulation_1","code":{"coding":[{"system":"http://terminology.hl7.org/CodeSystem/measure-population","code":"initial-population","display":"Initial Population"}]},"count":2},{"id":"Denominator_1","code":{"coding":[{"system":"http://terminology.hl7.org/CodeSystem/measure-population","code":"denominator","display":"Denominator"}]},"count":2},{"id":"DenominatorExclusion_1","code":{"coding":[{"system":"http://terminology.hl7.org/CodeSystem/measure-population","code":"denominator-exclusion","display":"Denominator Exclusion"}]},"count":0},{"id":"Numerator_1","code":{"coding":[{"system":"http://terminology.hl7.org/CodeSystem/measure-population","code":"numerator","display":"Numerator"}]},"count":2},{"id":"DenominatorException_1","code":{"coding":[{"system":"http://terminology.hl7.org/CodeSystem/measure-population","code":"denominator-exception","display":"Denominator Exception"}]},"count":0}],"measureScore":{"value":0.0}}],"evaluatedResource":[{"reference":"Patient/d70dcaf9-4e69-4395-9612-ee1e156f6184"},{"reference":"Encounter/3769db7d-7445-4b5a-8032-7f1805f56441"},{"reference":"Encounter/a631e21d-a320-4cd2-b43c-ab7980446036"},{"reference":"Encounter/c105972f-ed6c-4238-b159-aca22702a33a"},{"reference":"Coverage/72bdd799-39b9-491a-85a0-307c244b2700"},{"reference":"MedicationAdministration/863f1d72-dc69-4478-ba84-08e99501659d"},{"reference":"Location/fa5bad34-e2c9-41ce-8c1e-1fb724c668e9"},{"reference":"Location/a35af422-d6cc-4b8d-829d-284bc6335d4c"},{"reference":"Procedure/a1ee3aa2-219a-484d-9e35-9e1d19730832"},{"reference":"Organization/b85d3a82-8f07-49fa-afcc-c3498579bc71"},{"reference":"Practitioner/cdfa723b-69a2-4022-a133-bb821d3369a2"}]},"request":{"method":"PUT","url":"MeasureReport/d65ba1c9-9ecd-4c3c-bae2-c2dfe58d9945"}}]},"request":{"method":"PUT","url":"Bundle/612e6f6e02c62a011f2f1d44"}},{"resource":{"resourceType":"Encounter","id":"3769db7d-7445-4b5a-8032-7f1805f56441","meta":{"profile":["http://hl7.org/fhir/us/qicore/StructureDefinition/qicore-encounter"]},"status":"finished","class":{"system":"http://terminology.hl7.org/CodeSystem/v3-ActCode","code":"IMP","display":"inpatient encounter"},"type":[{"coding":[{"system":"http://snomed.info/sct","code":"183452005"}]}],"subject":{"reference":"Patient/d70dcaf9-4e69-4395-9612-ee1e156f6184"},"period":{"start":"2026-03-22T08:00:00.000+00:00","end":"2026-03-26T08:15:00.000+00:00"},"length":{"value":4.0,"unit":"days"},"location":[{"location":{"reference":"Location/fa5bad34-e2c9-41ce-8c1e-1fb724c668e9"},"period":{"start":"2026-03-22T08:15:00.000+00:00","end":"2026-03-24T08:00:00.000+00:00"}}]},"request":{"method":"PUT","url":"Encounter/3769db7d-7445-4b5a-8032-7f1805f56441"}},{"resource":{"resourceType":"Encounter","id":"c105972f-ed6c-4238-b159-aca22702a33a","meta":{"profile":["http://hl7.org/fhir/us/qicore/StructureDefinition/qicore-encounter"]},"status":"finished","class":{"system":"http://terminology.hl7.org/CodeSystem/v3-ActCode","code":"IMP","display":"inpatient encounter"},"type":[{"coding":[{"system":"http://snomed.info/sct","code":"8715000"}]}],"subject":{"reference":"Patient/d70dcaf9-4e69-4395-9612-ee1e156f6184"},"period":{"start":"2026-12-06T08:45:00.000+00:00","end":"2026-12-30T08:15:00.000+00:00"},"length":{"value":24.0,"unit":"days"},"location":[{"location":{"reference":"Location/a35af422-d6cc-4b8d-829d-284bc6335d4c"},"period":{"start":"2026-12-06T09:00:00.000+00:00","end":"2026-12-12T08:15:00.000+00:00"}}]},"request":{"method":"PUT","url":"Encounter/c105972f-ed6c-4238-b159-aca22702a33a"}},{"resource":{"resourceType":"MedicationAdministration","id":"863f1d72-dc69-4478-ba84-08e99501659d","meta":{"profile":["http://hl7.org/fhir/us/qicore/StructureDefinition/qicore-medicationadministration"]},"status":"completed","medicationCodeableConcept":{"coding":[{"system":"http://www.nlm.nih.gov/research/umls/rxnorm","code":"308351"}]},"subject":{"reference":"Patient/d70dcaf9-4e69-4395-9612-ee1e156f6184"},"effectivePeriod":{"start":"2026-12-07T06:30:00.000+00:00"}},"request":{"method":"PUT","url":"MedicationAdministration/863f1d72-dc69-4478-ba84-08e99501659d"}},{"resource":{"resourceType":"MeasureReport","id":"d65ba1c9-9ecd-4c3c-bae2-c2dfe58d9945","meta":{"profile":["http://hl7.org/fhir/us/cqfmeasures/StructureDefinition/test-case-cqfm"]},"contained":[{"resourceType":"Parameters","id":"230e3adb-0673-456a-976e-1a5fffdd46a6-parameters","parameter":[{"name":"subject","valueString":"d70dcaf9-4e69-4395-9612-ee1e156f6184"}]}],"extension":[{"url":"http://hl7.org/fhir/StructureDefinition/cqf-inputParameters","valueReference":{"reference":"#230e3adb-0673-456a-976e-1a5fffdd46a6-parameters"}},{"url":"http://hl7.org/fhir/us/cqfmeasures/StructureDefinition/cqfm-testCaseDescription","valueMarkdown":" Patient has 2 encounters, both pass Numerator due to Device applied and medication administered.\n"}],"modifierExtension":[{"url":"http://hl7.org/fhir/us/cqfmeasures/StructureDefinition/cqfm-isTestCase","valueBoolean":true}],"status":"complete","type":"individual","measure":"https://madie.cms.gov/Measure/CMS190VTEProphylaxisICUFHIR","period":{"start":"2026-01-01","end":"2026-12-31"},"group":[{"id":"Group_1","population":[{"id":"InitialPopulation_1","code":{"coding":[{"system":"http://terminology.hl7.org/CodeSystem/measure-population","code":"initial-population","display":"Initial Population"}]},"count":2},{"id":"Denominator_1","code":{"coding":[{"system":"http://terminology.hl7.org/CodeSystem/measure-population","code":"denominator","display":"Denominator"}]},"count":2},{"id":"DenominatorExclusion_1","code":{"coding":[{"system":"http://terminology.hl7.org/CodeSystem/measure-population","code":"denominator-exclusion","display":"Denominator Exclusion"}]},"count":0},{"id":"Numerator_1","code":{"coding":[{"system":"http://terminology.hl7.org/CodeSystem/measure-population","code":"numerator","display":"Numerator"}]},"count":2},{"id":"DenominatorException_1","code":{"coding":[{"system":"http://terminology.hl7.org/CodeSystem/measure-population","code":"denominator-exception","display":"Denominator Exception"}]},"count":0}],"measureScore":{"value":0.0}}],"evaluatedResource":[{"reference":"Patient/d70dcaf9-4e69-4395-9612-ee1e156f6184"},{"reference":"Encounter/3769db7d-7445-4b5a-8032-7f1805f56441"},{"reference":"Encounter/a631e21d-a320-4cd2-b43c-ab7980446036"},{"reference":"Encounter/c105972f-ed6c-4238-b159-aca22702a33a"},{"reference":"Coverage/72bdd799-39b9-491a-85a0-307c244b2700"},{"reference":"MedicationAdministration/863f1d72-dc69-4478-ba84-08e99501659d"},{"reference":"Location/fa5bad34-e2c9-41ce-8c1e-1fb724c668e9"},{"reference":"Location/a35af422-d6cc-4b8d-829d-284bc6335d4c"},{"reference":"Procedure/a1ee3aa2-219a-484d-9e35-9e1d19730832"},{"reference":"Organization/b85d3a82-8f07-49fa-afcc-c3498579bc71"},{"reference":"Practitioner/cdfa723b-69a2-4022-a133-bb821d3369a2"}]},"request":{"method":"PUT","url":"MeasureReport/d65ba1c9-9ecd-4c3c-bae2-c2dfe58d9945"}},{"resource":{"resourceType":"Encounter","id":"a631e21d-a320-4cd2-b43c-ab7980446036","meta":{"profile":["http://hl7.org/fhir/us/qicore/StructureDefinition/qicore-encounter"]},"status":"finished","class":{"system":"http://terminology.hl7.org/CodeSystem/v3-ActCode","code":"EMER","display":"emergency"},"type":[{"coding":[{"system":"http://snomed.info/sct","code":"4525004"}]}],"subject":{"reference":"Patient/d70dcaf9-4e69-4395-9612-ee1e156f6184"},"period":{"start":"2026-12-06T02:00:00.000+00:00","end":"2026-12-06T08:15:00.000+00:00"},"length":{"value":0.0,"unit":"days"}},"request":{"method":"PUT","url":"Encounter/a631e21d-a320-4cd2-b43c-ab7980446036"}}]}