{"resourceType":"Bundle","id":"tests-7e7f4563-a628-40ab-990b-ca0837313759-bundle","type":"transaction","entry":[{"resource":{"resourceType":"MeasureReport","id":"b3a10910-bbeb-4862-827f-98b215c54fdf","meta":{"profile":["http://hl7.org/fhir/us/cqfmeasures/StructureDefinition/test-case-cqfm"]},"contained":[{"resourceType":"Parameters","id":"daa1947b-712f-4b5e-bb8b-37453dfea9a3-parameters","parameter":[{"name":"subject","valueString":"7e7f4563-a628-40ab-990b-ca0837313759"}]}],"extension":[{"url":"http://hl7.org/fhir/StructureDefinition/cqf-inputParameters","valueReference":{"reference":"#daa1947b-712f-4b5e-bb8b-37453dfea9a3-parameters"}},{"url":"http://hl7.org/fhir/us/cqfmeasures/StructureDefinition/cqfm-testCaseDescription","valueMarkdown":"Patient refuses LMWH adm in Observation Service\n"}],"modifierExtension":[{"url":"http://hl7.org/fhir/us/cqfmeasures/StructureDefinition/cqfm-isTestCase","valueBoolean":true}],"status":"complete","type":"individual","measure":"https://madie.cms.gov/Measure/CMS190VTEProphylaxisICUFHIR","period":{"start":"2026-01-01","end":"2026-12-31"},"group":[{"id":"Group_1","population":[{"id":"InitialPopulation_1","code":{"coding":[{"system":"http://terminology.hl7.org/CodeSystem/measure-population","code":"initial-population","display":"Initial Population"}]},"count":1},{"id":"Denominator_1","code":{"coding":[{"system":"http://terminology.hl7.org/CodeSystem/measure-population","code":"denominator","display":"Denominator"}]},"count":1},{"id":"DenominatorExclusion_1","code":{"coding":[{"system":"http://terminology.hl7.org/CodeSystem/measure-population","code":"denominator-exclusion","display":"Denominator Exclusion"}]},"count":0},{"id":"Numerator_1","code":{"coding":[{"system":"http://terminology.hl7.org/CodeSystem/measure-population","code":"numerator","display":"Numerator"}]},"count":1},{"id":"DenominatorException_1","code":{"coding":[{"system":"http://terminology.hl7.org/CodeSystem/measure-population","code":"denominator-exception","display":"Denominator Exception"}]},"count":0}],"measureScore":{"value":0.0}}],"evaluatedResource":[{"reference":"Patient/7e7f4563-a628-40ab-990b-ca0837313759"},{"reference":"Encounter/f147f1b4-2b3e-4a14-80d7-6477d5fe6f01"},{"reference":"Encounter/78caa562-0cf8-490f-a6d9-f2fba962e1d0"},{"reference":"Coverage/6d071111-00ce-4cef-8c0e-0100a471dfd4"},{"reference":"MedicationAdministration/1b5312f4-3f93-448e-9c08-dcb77061205e"},{"reference":"Location/ef6b96a7-ba92-4a8c-9493-2659a52f8991"},{"reference":"Organization/c58f1d60-ecf0-4a5c-9384-8478f9b2c584"},{"reference":"Practitioner/fd7e1bae-63c0-4568-badf-800aad3dd872"}]},"request":{"method":"PUT","url":"MeasureReport/b3a10910-bbeb-4862-827f-98b215c54fdf"}},{"resource":{"resourceType":"Encounter","id":"f147f1b4-2b3e-4a14-80d7-6477d5fe6f01","meta":{"profile":["http://hl7.org/fhir/us/qicore/StructureDefinition/qicore-encounter"]},"status":"finished","class":{"system":"http://terminology.hl7.org/CodeSystem/v3-ActCode","code":"OBSENC","display":"observation encounter"},"type":[{"coding":[{"system":"http://snomed.info/sct","code":"448951000124107"}]}],"subject":{"reference":"Patient/7e7f4563-a628-40ab-990b-ca0837313759"},"period":{"start":"2026-10-31T05:00:00.000+00:00","end":"2026-11-01T07:15:00.000+00:00"},"length":{"value":1,"unit":"days"}},"request":{"method":"PUT","url":"Encounter/f147f1b4-2b3e-4a14-80d7-6477d5fe6f01"}},{"resource":{"resourceType":"Location","id":"ef6b96a7-ba92-4a8c-9493-2659a52f8991","meta":{"profile":["http://hl7.org/fhir/us/qicore/StructureDefinition/qicore-location"]},"identifier":[{"use":"usual","system":"http://exampleoflocation.com","value":"B1-S.F2"}],"name":"Medical Surgical East, first floor","type":[{"coding":[{"system":"https://www.cdc.gov/nhsn/cdaportal/terminology/codesystem/hsloc.html","code":"1025-6","display":"Trauma Critical Care","userSelected":true}]}]},"request":{"method":"PUT","url":"Location/ef6b96a7-ba92-4a8c-9493-2659a52f8991"}},{"resource":{"resourceType":"Patient","id":"7e7f4563-a628-40ab-990b-ca0837313759","meta":{"profile":["http://hl7.org/fhir/us/qicore/StructureDefinition/qicore-patient"]},"text":{"status":"generated","div":"<div xmlns=\"http://www.w3.org/1999/xhtml\"><div class=\"hapiHeaderText\">PtRefMALMWHOBS <b>NUMERPASS </b></div><table class=\"hapiPropertyTable\"><tbody><tr><td>Identifier</td><td>3dc4a512478cd906257a70aca14edeef</td></tr><tr><td>Date of birth</td><td><span>02 January 1974</span></td></tr></tbody></table></div>"},"extension":[{"url":"http://hl7.org/fhir/us/core/StructureDefinition/us-core-race","extension":[{"url":"ombCategory","valueCoding":{"system":"urn:oid:2.16.840.1.113883.6.238","code":"1002-5","display":"American Indian or Alaska Native","userSelected":true}},{"url":"text","valueString":"American Indian or Alaska Native"}]},{"url":"http://hl7.org/fhir/us/core/StructureDefinition/us-core-ethnicity","extension":[{"url":"ombCategory","valueCoding":{"system":"urn:oid:2.16.840.1.113883.6.238","code":"2135-2","display":"Hispanic or Latino","userSelected":true}},{"url":"text","valueString":"Hispanic or Latino"}]}],"identifier":[{"type":{"coding":[{"system":"http://terminology.hl7.org/CodeSystem/v2-0203","code":"MR"}]},"system":"https://bonnie-fhir.healthit.gov/","value":"612e6aaf02c62a011f2eaee7"}],"active":true,"name":[{"use":"usual","family":"NUMERPass","given":["PtRefMALMWHOBS"]}],"gender":"male","birthDate":"1975-01-02"},"request":{"method":"PUT","url":"Patient/7e7f4563-a628-40ab-990b-ca0837313759"}},{"resource":{"resourceType":"Organization","id":"c58f1d60-ecf0-4a5c-9384-8478f9b2c584","meta":{"profile":["http://hl7.org/fhir/us/qicore/StructureDefinition/qicore-organization"]},"identifier":[{"use":"temp","system":"urn:oid:2.16.840.1.113883.4.4","value":"21-3259825"}],"active":true,"type":[{"coding":[{"system":"http://terminology.hl7.org/CodeSystem/organization-type","code":"pay","display":"Payer"}]}],"name":"Blue Cross Blue Shield of Texas","telecom":[{"system":"phone","value":"(+1) 972-766-6900"}],"address":[{"use":"billing","type":"postal","line":["P.O. Box 660044"],"city":"Dallas","state":"TX","postalCode":"75266-0044","country":"USA"}]},"request":{"method":"PUT","url":"Organization/c58f1d60-ecf0-4a5c-9384-8478f9b2c584"}},{"resource":{"resourceType":"MedicationAdministration","id":"1b5312f4-3f93-448e-9c08-dcb77061205e","meta":{"profile":["http://hl7.org/fhir/us/qicore/StructureDefinition/qicore-medicationadministrationnotdone"]},"extension":[{"url":"http://hl7.org/fhir/us/qicore/StructureDefinition/qicore-recorded","valueDateTime":"2026-11-02T11:00:00.000+00:00"}],"status":"not-done","statusReason":[{"coding":[{"system":"http://snomed.info/sct","code":"443390004","display":"Refusal of treatment by patient (situation)"}]}],"medicationCodeableConcept":{"coding":[{"system":"http://www.nlm.nih.gov/research/umls/rxnorm","code":"854228"}]},"subject":{"reference":"Patient/7e7f4563-a628-40ab-990b-ca0837313759"},"effectivePeriod":{"start":"2026-11-01T06:00:00.000+00:00"}},"request":{"method":"PUT","url":"MedicationAdministration/1b5312f4-3f93-448e-9c08-dcb77061205e"}},{"resource":{"resourceType":"Practitioner","id":"fd7e1bae-63c0-4568-badf-800aad3dd872","identifier":[{"system":"http://hl7.org/fhir/sid/us-npi","value":"123456"}],"name":[{"family":"Evil","prefix":["Dr"]}]},"request":{"method":"PUT","url":"Practitioner/fd7e1bae-63c0-4568-badf-800aad3dd872"}},{"resource":{"resourceType":"Encounter","id":"78caa562-0cf8-490f-a6d9-f2fba962e1d0","meta":{"profile":["http://hl7.org/fhir/us/qicore/StructureDefinition/qicore-encounter"]},"status":"finished","class":{"system":"http://terminology.hl7.org/CodeSystem/v3-ActCode","code":"IMP","display":"inpatient encounter"},"type":[{"coding":[{"system":"http://snomed.info/sct","code":"8715000"}]}],"subject":{"reference":"Patient/7e7f4563-a628-40ab-990b-ca0837313759"},"period":{"start":"2026-11-01T08:00:00.000+00:00","end":"2026-11-26T08:15:00.000+00:00"},"length":{"value":25,"unit":"days"},"location":[{"location":{"reference":"Location/ef6b96a7-ba92-4a8c-9493-2659a52f8991"},"period":{"start":"2026-11-04T09:00:00.000+00:00","end":"2026-11-06T08:15:00.000+00:00"}}]},"request":{"method":"PUT","url":"Encounter/78caa562-0cf8-490f-a6d9-f2fba962e1d0"}},{"resource":{"resourceType":"Bundle","id":"612e6aaf02c62a011f2eaee7","type":"transaction","entry":[{"fullUrl":"https://madie.cms.gov/Patient/7e7f4563-a628-40ab-990b-ca0837313759","resource":{"resourceType":"Patient","id":"7e7f4563-a628-40ab-990b-ca0837313759","meta":{"profile":["http://hl7.org/fhir/us/qicore/StructureDefinition/qicore-patient"]},"text":{"status":"generated","div":"<div xmlns=\"http://www.w3.org/1999/xhtml\"><div class=\"hapiHeaderText\">PtRefMALMWHOBS <b>NUMERPASS </b></div><table class=\"hapiPropertyTable\"><tbody><tr><td>Identifier</td><td>3dc4a512478cd906257a70aca14edeef</td></tr><tr><td>Date of birth</td><td><span>02 January 1974</span></td></tr></tbody></table></div>"},"extension":[{"url":"http://hl7.org/fhir/us/core/StructureDefinition/us-core-race","extension":[{"url":"ombCategory","valueCoding":{"system":"urn:oid:2.16.840.1.113883.6.238","code":"1002-5","display":"American Indian or Alaska Native","userSelected":true}},{"url":"text","valueString":"American Indian or Alaska Native"}]},{"url":"http://hl7.org/fhir/us/core/StructureDefinition/us-core-ethnicity","extension":[{"url":"ombCategory","valueCoding":{"system":"urn:oid:2.16.840.1.113883.6.238","code":"2135-2","display":"Hispanic or Latino","userSelected":true}},{"url":"text","valueString":"Hispanic or Latino"}]}],"identifier":[{"type":{"coding":[{"system":"http://terminology.hl7.org/CodeSystem/v2-0203","code":"MR"}]},"system":"https://bonnie-fhir.healthit.gov/","value":"612e6aaf02c62a011f2eaee7"}],"active":true,"name":[{"use":"usual","family":"NUMERPass","given":["PtRefMALMWHOBS"]}],"gender":"male","birthDate":"1975-01-02"},"request":{"method":"PUT","url":"Patient/7e7f4563-a628-40ab-990b-ca0837313759"}},{"fullUrl":"https://madie.cms.gov/Encounter/f147f1b4-2b3e-4a14-80d7-6477d5fe6f01","resource":{"resourceType":"Encounter","id":"f147f1b4-2b3e-4a14-80d7-6477d5fe6f01","meta":{"profile":["http://hl7.org/fhir/us/qicore/StructureDefinition/qicore-encounter"]},"status":"finished","class":{"system":"http://terminology.hl7.org/CodeSystem/v3-ActCode","code":"OBSENC","display":"observation encounter"},"type":[{"coding":[{"system":"http://snomed.info/sct","code":"448951000124107"}]}],"subject":{"reference":"Patient/7e7f4563-a628-40ab-990b-ca0837313759"},"period":{"start":"2026-10-31T05:00:00.000+00:00","end":"2026-11-01T07:15:00.000+00:00"},"length":{"value":1,"unit":"days"}},"request":{"method":"PUT","url":"Encounter/f147f1b4-2b3e-4a14-80d7-6477d5fe6f01"}},{"fullUrl":"https://madie.cms.gov/Encounter/78caa562-0cf8-490f-a6d9-f2fba962e1d0","resource":{"resourceType":"Encounter","id":"78caa562-0cf8-490f-a6d9-f2fba962e1d0","meta":{"profile":["http://hl7.org/fhir/us/qicore/StructureDefinition/qicore-encounter"]},"status":"finished","class":{"system":"http://terminology.hl7.org/CodeSystem/v3-ActCode","code":"IMP","display":"inpatient encounter"},"type":[{"coding":[{"system":"http://snomed.info/sct","code":"8715000"}]}],"subject":{"reference":"Patient/7e7f4563-a628-40ab-990b-ca0837313759"},"period":{"start":"2026-11-01T08:00:00.000+00:00","end":"2026-11-26T08:15:00.000+00:00"},"length":{"value":25,"unit":"days"},"location":[{"location":{"reference":"Location/ef6b96a7-ba92-4a8c-9493-2659a52f8991"},"period":{"start":"2026-11-04T09:00:00.000+00:00","end":"2026-11-06T08:15:00.000+00:00"}}]},"request":{"method":"PUT","url":"Encounter/78caa562-0cf8-490f-a6d9-f2fba962e1d0"}},{"fullUrl":"https://madie.cms.gov/Coverage/6d071111-00ce-4cef-8c0e-0100a471dfd4","resource":{"resourceType":"Coverage","id":"6d071111-00ce-4cef-8c0e-0100a471dfd4","status":"active","beneficiary":{"reference":"Patient/7e7f4563-a628-40ab-990b-ca0837313759"},"period":{"start":"1975-01-02T08:00:00.000+00:00"},"payor":[{"reference":"Organization/c58f1d60-ecf0-4a5c-9384-8478f9b2c584"}]},"request":{"method":"PUT","url":"Coverage/6d071111-00ce-4cef-8c0e-0100a471dfd4"}},{"fullUrl":"https://madie.cms.gov/MedicationAdministration/1b5312f4-3f93-448e-9c08-dcb77061205e","resource":{"resourceType":"MedicationAdministration","id":"1b5312f4-3f93-448e-9c08-dcb77061205e","meta":{"profile":["http://hl7.org/fhir/us/qicore/StructureDefinition/qicore-medicationadministrationnotdone"]},"extension":[{"url":"http://hl7.org/fhir/us/qicore/StructureDefinition/qicore-recorded","valueDateTime":"2026-11-02T11:00:00.000+00:00"}],"status":"not-done","statusReason":[{"coding":[{"system":"http://snomed.info/sct","code":"443390004","display":"Refusal of treatment by patient (situation)"}]}],"medicationCodeableConcept":{"coding":[{"system":"http://www.nlm.nih.gov/research/umls/rxnorm","code":"854228"}]},"subject":{"reference":"Patient/7e7f4563-a628-40ab-990b-ca0837313759"},"effectivePeriod":{"start":"2026-11-01T06:00:00.000+00:00"}},"request":{"method":"PUT","url":"MedicationAdministration/1b5312f4-3f93-448e-9c08-dcb77061205e"}},{"fullUrl":"https://madie.cms.gov/Location/ef6b96a7-ba92-4a8c-9493-2659a52f8991","resource":{"resourceType":"Location","id":"ef6b96a7-ba92-4a8c-9493-2659a52f8991","meta":{"profile":["http://hl7.org/fhir/us/qicore/StructureDefinition/qicore-location"]},"identifier":[{"use":"usual","system":"http://exampleoflocation.com","value":"B1-S.F2"}],"name":"Medical Surgical East, first floor","type":[{"coding":[{"system":"https://www.cdc.gov/nhsn/cdaportal/terminology/codesystem/hsloc.html","code":"1025-6","display":"Trauma Critical Care","userSelected":true}]}]},"request":{"method":"PUT","url":"Location/ef6b96a7-ba92-4a8c-9493-2659a52f8991"}},{"fullUrl":"https://madie.cms.gov/Organization/c58f1d60-ecf0-4a5c-9384-8478f9b2c584","resource":{"resourceType":"Organization","id":"c58f1d60-ecf0-4a5c-9384-8478f9b2c584","meta":{"profile":["http://hl7.org/fhir/us/qicore/StructureDefinition/qicore-organization"]},"identifier":[{"use":"temp","system":"urn:oid:2.16.840.1.113883.4.4","value":"21-3259825"}],"active":true,"type":[{"coding":[{"system":"http://terminology.hl7.org/CodeSystem/organization-type","code":"pay","display":"Payer"}]}],"name":"Blue Cross Blue Shield of Texas","telecom":[{"system":"phone","value":"(+1) 972-766-6900"}],"address":[{"use":"billing","type":"postal","line":["P.O. Box 660044"],"city":"Dallas","state":"TX","postalCode":"75266-0044","country":"USA"}]},"request":{"method":"PUT","url":"Organization/c58f1d60-ecf0-4a5c-9384-8478f9b2c584"}},{"fullUrl":"https://madie.cms.gov/Practitioner/fd7e1bae-63c0-4568-badf-800aad3dd872","resource":{"resourceType":"Practitioner","id":"fd7e1bae-63c0-4568-badf-800aad3dd872","identifier":[{"system":"http://hl7.org/fhir/sid/us-npi","value":"123456"}],"name":[{"family":"Evil","prefix":["Dr"]}]},"request":{"method":"PUT","url":"Practitioner/fd7e1bae-63c0-4568-badf-800aad3dd872"}},{"fullUrl":"https://madie.cms.gov/MeasureReport/b3a10910-bbeb-4862-827f-98b215c54fdf","resource":{"resourceType":"MeasureReport","id":"b3a10910-bbeb-4862-827f-98b215c54fdf","meta":{"profile":["http://hl7.org/fhir/us/cqfmeasures/StructureDefinition/test-case-cqfm"]},"contained":[{"resourceType":"Parameters","id":"daa1947b-712f-4b5e-bb8b-37453dfea9a3-parameters","parameter":[{"name":"subject","valueString":"7e7f4563-a628-40ab-990b-ca0837313759"}]}],"extension":[{"url":"http://hl7.org/fhir/StructureDefinition/cqf-inputParameters","valueReference":{"reference":"#daa1947b-712f-4b5e-bb8b-37453dfea9a3-parameters"}},{"url":"http://hl7.org/fhir/us/cqfmeasures/StructureDefinition/cqfm-testCaseDescription","valueMarkdown":"Patient refuses LMWH adm in Observation Service\n"}],"modifierExtension":[{"url":"http://hl7.org/fhir/us/cqfmeasures/StructureDefinition/cqfm-isTestCase","valueBoolean":true}],"status":"complete","type":"individual","measure":"https://madie.cms.gov/Measure/CMS190VTEProphylaxisICUFHIR","period":{"start":"2026-01-01","end":"2026-12-31"},"group":[{"id":"Group_1","population":[{"id":"InitialPopulation_1","code":{"coding":[{"system":"http://terminology.hl7.org/CodeSystem/measure-population","code":"initial-population","display":"Initial Population"}]},"count":1},{"id":"Denominator_1","code":{"coding":[{"system":"http://terminology.hl7.org/CodeSystem/measure-population","code":"denominator","display":"Denominator"}]},"count":1},{"id":"DenominatorExclusion_1","code":{"coding":[{"system":"http://terminology.hl7.org/CodeSystem/measure-population","code":"denominator-exclusion","display":"Denominator Exclusion"}]},"count":0},{"id":"Numerator_1","code":{"coding":[{"system":"http://terminology.hl7.org/CodeSystem/measure-population","code":"numerator","display":"Numerator"}]},"count":1},{"id":"DenominatorException_1","code":{"coding":[{"system":"http://terminology.hl7.org/CodeSystem/measure-population","code":"denominator-exception","display":"Denominator Exception"}]},"count":0}],"measureScore":{"value":0.0}}],"evaluatedResource":[{"reference":"Patient/7e7f4563-a628-40ab-990b-ca0837313759"},{"reference":"Encounter/f147f1b4-2b3e-4a14-80d7-6477d5fe6f01"},{"reference":"Encounter/78caa562-0cf8-490f-a6d9-f2fba962e1d0"},{"reference":"Coverage/6d071111-00ce-4cef-8c0e-0100a471dfd4"},{"reference":"MedicationAdministration/1b5312f4-3f93-448e-9c08-dcb77061205e"},{"reference":"Location/ef6b96a7-ba92-4a8c-9493-2659a52f8991"},{"reference":"Organization/c58f1d60-ecf0-4a5c-9384-8478f9b2c584"},{"reference":"Practitioner/fd7e1bae-63c0-4568-badf-800aad3dd872"}]},"request":{"method":"PUT","url":"MeasureReport/b3a10910-bbeb-4862-827f-98b215c54fdf"}}]},"request":{"method":"PUT","url":"Bundle/612e6aaf02c62a011f2eaee7"}},{"resource":{"resourceType":"Coverage","id":"6d071111-00ce-4cef-8c0e-0100a471dfd4","status":"active","beneficiary":{"reference":"Patient/7e7f4563-a628-40ab-990b-ca0837313759"},"period":{"start":"1975-01-02T08:00:00.000+00:00"},"payor":[{"reference":"Organization/c58f1d60-ecf0-4a5c-9384-8478f9b2c584"}]},"request":{"method":"PUT","url":"Coverage/6d071111-00ce-4cef-8c0e-0100a471dfd4"}}]}