{"resourceType":"Bundle","id":"tests-04f44995-82bc-4579-b721-df49ac132735-bundle","type":"transaction","entry":[{"resource":{"resourceType":"Patient","id":"04f44995-82bc-4579-b721-df49ac132735","meta":{"profile":["http://hl7.org/fhir/us/qicore/StructureDefinition/qicore-patient"]},"text":{"status":"generated","div":"<div xmlns=\"http://www.w3.org/1999/xhtml\"><div class=\"hapiHeaderText\">ICUEnd1MinB4Enc <b>DENOMFAIL </b></div><table class=\"hapiPropertyTable\"><tbody><tr><td>Identifier</td><td>009b2b3795c87569355f211b9e8d5ef5</td></tr><tr><td>Date of birth</td><td><span>03 March 1974</span></td></tr></tbody></table></div>"},"extension":[{"url":"http://hl7.org/fhir/us/core/StructureDefinition/us-core-race","extension":[{"url":"ombCategory","valueCoding":{"system":"urn:oid:2.16.840.1.113883.6.238","code":"1002-5","display":"American Indian or Alaska Native","userSelected":true}},{"url":"text","valueString":"American Indian or Alaska Native"}]},{"url":"http://hl7.org/fhir/us/core/StructureDefinition/us-core-ethnicity","extension":[{"url":"ombCategory","valueCoding":{"system":"urn:oid:2.16.840.1.113883.6.238","code":"2186-5","display":"Not Hispanic or Latino","userSelected":true}},{"url":"text","valueString":"Not Hispanic or Latino"}]}],"identifier":[{"type":{"coding":[{"system":"http://terminology.hl7.org/CodeSystem/v2-0203","code":"MR"}]},"system":"https://bonnie-fhir.healthit.gov/","value":"612e6f1b02c62a011f2f0ba0"}],"active":true,"name":[{"use":"usual","family":"DENOMFail","given":["ICUEnd1MinB4Enc"]}],"gender":"female","birthDate":"1975-03-03"},"request":{"method":"PUT","url":"Patient/04f44995-82bc-4579-b721-df49ac132735"}},{"resource":{"resourceType":"Bundle","id":"612e6f1b02c62a011f2f0ba0","type":"transaction","entry":[{"fullUrl":"https://madie.cms.gov/Patient/04f44995-82bc-4579-b721-df49ac132735","resource":{"resourceType":"Patient","id":"04f44995-82bc-4579-b721-df49ac132735","meta":{"profile":["http://hl7.org/fhir/us/qicore/StructureDefinition/qicore-patient"]},"text":{"status":"generated","div":"<div xmlns=\"http://www.w3.org/1999/xhtml\"><div class=\"hapiHeaderText\">ICUEnd1MinB4Enc <b>DENOMFAIL </b></div><table class=\"hapiPropertyTable\"><tbody><tr><td>Identifier</td><td>009b2b3795c87569355f211b9e8d5ef5</td></tr><tr><td>Date of birth</td><td><span>03 March 1974</span></td></tr></tbody></table></div>"},"extension":[{"url":"http://hl7.org/fhir/us/core/StructureDefinition/us-core-race","extension":[{"url":"ombCategory","valueCoding":{"system":"urn:oid:2.16.840.1.113883.6.238","code":"1002-5","display":"American Indian or Alaska Native","userSelected":true}},{"url":"text","valueString":"American Indian or Alaska Native"}]},{"url":"http://hl7.org/fhir/us/core/StructureDefinition/us-core-ethnicity","extension":[{"url":"ombCategory","valueCoding":{"system":"urn:oid:2.16.840.1.113883.6.238","code":"2186-5","display":"Not Hispanic or Latino","userSelected":true}},{"url":"text","valueString":"Not Hispanic or Latino"}]}],"identifier":[{"type":{"coding":[{"system":"http://terminology.hl7.org/CodeSystem/v2-0203","code":"MR"}]},"system":"https://bonnie-fhir.healthit.gov/","value":"612e6f1b02c62a011f2f0ba0"}],"active":true,"name":[{"use":"usual","family":"DENOMFail","given":["ICUEnd1MinB4Enc"]}],"gender":"female","birthDate":"1975-03-03"},"request":{"method":"PUT","url":"Patient/04f44995-82bc-4579-b721-df49ac132735"}},{"fullUrl":"https://madie.cms.gov/Encounter/64e046b3-bcc2-4584-9895-a6eaccce0cd3","resource":{"resourceType":"Encounter","id":"64e046b3-bcc2-4584-9895-a6eaccce0cd3","meta":{"profile":["http://hl7.org/fhir/us/qicore/StructureDefinition/qicore-encounter"]},"status":"finished","class":{"system":"http://terminology.hl7.org/CodeSystem/v3-ActCode","code":"IMP","display":"inpatient encounter"},"type":[{"coding":[{"system":"http://snomed.info/sct","code":"8715000"}]}],"subject":{"reference":"Patient/04f44995-82bc-4579-b721-df49ac132735"},"period":{"start":"2026-12-01T01:05:00.000+00:00","end":"2026-12-31T23:59:00.000+00:00"},"length":{"value":30.0,"unit":"days"},"location":[{"location":{"reference":"Location/intensive-care-unit-108a"},"period":{"start":"2026-11-30T08:00:00.000+00:00","end":"2026-12-01T01:04:00.000+00:00"}}]},"request":{"method":"PUT","url":"Encounter/64e046b3-bcc2-4584-9895-a6eaccce0cd3"}},{"fullUrl":"https://madie.cms.gov/Location/d02d7bc2-0900-459e-810d-d1fb0b027199","resource":{"resourceType":"Location","id":"d02d7bc2-0900-459e-810d-d1fb0b027199","meta":{"profile":["http://hl7.org/fhir/us/qicore/StructureDefinition/qicore-location"]},"identifier":[{"use":"usual","system":"http://exampleoflocation.com","value":"B1-S.F2"}],"name":"Medical Surgical East, first floor","type":[{"coding":[{"system":"https://www.cdc.gov/nhsn/cdaportal/terminology/codesystem/hsloc.html","code":"1025-6","display":"Trauma Critical Care","userSelected":true}]}]},"request":{"method":"PUT","url":"Location/d02d7bc2-0900-459e-810d-d1fb0b027199"}},{"fullUrl":"https://madie.cms.gov/Coverage/834a7d86-2595-4762-9937-2924416bd819","resource":{"resourceType":"Coverage","id":"834a7d86-2595-4762-9937-2924416bd819","status":"active","beneficiary":{"reference":"Patient/04f44995-82bc-4579-b721-df49ac132735"},"period":{"start":"1975-03-03T08:00:00.000+00:00"},"payor":[{"reference":"Organization/16e7e97a-0be2-4cad-adee-fe2abb761be5"}]},"request":{"method":"PUT","url":"Coverage/834a7d86-2595-4762-9937-2924416bd819"}},{"fullUrl":"https://madie.cms.gov/Organization/16e7e97a-0be2-4cad-adee-fe2abb761be5","resource":{"resourceType":"Organization","id":"16e7e97a-0be2-4cad-adee-fe2abb761be5","meta":{"profile":["http://hl7.org/fhir/us/qicore/StructureDefinition/qicore-organization"]},"identifier":[{"use":"temp","system":"urn:oid:2.16.840.1.113883.4.4","value":"21-3259825"}],"active":true,"type":[{"coding":[{"system":"http://terminology.hl7.org/CodeSystem/organization-type","code":"pay","display":"Payer"}]}],"name":"Blue Cross Blue Shield of Texas","telecom":[{"system":"phone","value":"(+1) 972-766-6900"}],"address":[{"use":"billing","type":"postal","line":["P.O. Box 660044"],"city":"Dallas","state":"TX","postalCode":"75266-0044","country":"USA"}]},"request":{"method":"PUT","url":"Organization/16e7e97a-0be2-4cad-adee-fe2abb761be5"}},{"fullUrl":"https://madie.cms.gov/Practitioner/9e56e28e-71ab-43a5-8e8d-816eadae2979","resource":{"resourceType":"Practitioner","id":"9e56e28e-71ab-43a5-8e8d-816eadae2979","identifier":[{"system":"http://hl7.org/fhir/sid/us-npi","value":"123456"}],"name":[{"family":"Evil","prefix":["Dr"]}]},"request":{"method":"PUT","url":"Practitioner/9e56e28e-71ab-43a5-8e8d-816eadae2979"}},{"fullUrl":"https://madie.cms.gov/MeasureReport/1301678b-e24e-4bfa-8053-29b9978b93ac","resource":{"resourceType":"MeasureReport","id":"1301678b-e24e-4bfa-8053-29b9978b93ac","meta":{"profile":["http://hl7.org/fhir/us/cqfmeasures/StructureDefinition/test-case-cqfm"]},"contained":[{"resourceType":"Parameters","id":"125c234c-1d1e-4c74-a657-68008b206cc2-parameters","parameter":[{"name":"subject","valueString":"04f44995-82bc-4579-b721-df49ac132735"}]}],"extension":[{"url":"http://hl7.org/fhir/StructureDefinition/cqf-inputParameters","valueReference":{"reference":"#125c234c-1d1e-4c74-a657-68008b206cc2-parameters"}},{"url":"http://hl7.org/fhir/us/cqfmeasures/StructureDefinition/cqfm-testCaseDescription","valueMarkdown":"ICU.stop 1 min prior to Inp.start\n"}],"modifierExtension":[{"url":"http://hl7.org/fhir/us/cqfmeasures/StructureDefinition/cqfm-isTestCase","valueBoolean":true}],"status":"complete","type":"individual","measure":"https://madie.cms.gov/Measure/CMS190VTEProphylaxisICUFHIR","period":{"start":"2026-01-01","end":"2026-12-31"},"group":[{"id":"Group_1","population":[{"id":"InitialPopulation_1","code":{"coding":[{"system":"http://terminology.hl7.org/CodeSystem/measure-population","code":"initial-population","display":"Initial Population"}]},"count":1},{"id":"Denominator_1","code":{"coding":[{"system":"http://terminology.hl7.org/CodeSystem/measure-population","code":"denominator","display":"Denominator"}]},"count":0},{"id":"DenominatorExclusion_1","code":{"coding":[{"system":"http://terminology.hl7.org/CodeSystem/measure-population","code":"denominator-exclusion","display":"Denominator Exclusion"}]},"count":0},{"id":"Numerator_1","code":{"coding":[{"system":"http://terminology.hl7.org/CodeSystem/measure-population","code":"numerator","display":"Numerator"}]},"count":0},{"id":"DenominatorException_1","code":{"coding":[{"system":"http://terminology.hl7.org/CodeSystem/measure-population","code":"denominator-exception","display":"Denominator Exception"}]},"count":0}],"measureScore":{"value":0.0}}],"evaluatedResource":[{"reference":"Patient/04f44995-82bc-4579-b721-df49ac132735"},{"reference":"Encounter/64e046b3-bcc2-4584-9895-a6eaccce0cd3"},{"reference":"Location/d02d7bc2-0900-459e-810d-d1fb0b027199"},{"reference":"Coverage/834a7d86-2595-4762-9937-2924416bd819"},{"reference":"Organization/16e7e97a-0be2-4cad-adee-fe2abb761be5"},{"reference":"Practitioner/9e56e28e-71ab-43a5-8e8d-816eadae2979"}]},"request":{"method":"PUT","url":"MeasureReport/1301678b-e24e-4bfa-8053-29b9978b93ac"}}]},"request":{"method":"PUT","url":"Bundle/612e6f1b02c62a011f2f0ba0"}},{"resource":{"resourceType":"Coverage","id":"834a7d86-2595-4762-9937-2924416bd819","status":"active","beneficiary":{"reference":"Patient/04f44995-82bc-4579-b721-df49ac132735"},"period":{"start":"1975-03-03T08:00:00.000+00:00"},"payor":[{"reference":"Organization/16e7e97a-0be2-4cad-adee-fe2abb761be5"}]},"request":{"method":"PUT","url":"Coverage/834a7d86-2595-4762-9937-2924416bd819"}},{"resource":{"resourceType":"Location","id":"d02d7bc2-0900-459e-810d-d1fb0b027199","meta":{"profile":["http://hl7.org/fhir/us/qicore/StructureDefinition/qicore-location"]},"identifier":[{"use":"usual","system":"http://exampleoflocation.com","value":"B1-S.F2"}],"name":"Medical Surgical East, first floor","type":[{"coding":[{"system":"https://www.cdc.gov/nhsn/cdaportal/terminology/codesystem/hsloc.html","code":"1025-6","display":"Trauma Critical Care","userSelected":true}]}]},"request":{"method":"PUT","url":"Location/d02d7bc2-0900-459e-810d-d1fb0b027199"}},{"resource":{"resourceType":"Practitioner","id":"9e56e28e-71ab-43a5-8e8d-816eadae2979","identifier":[{"system":"http://hl7.org/fhir/sid/us-npi","value":"123456"}],"name":[{"family":"Evil","prefix":["Dr"]}]},"request":{"method":"PUT","url":"Practitioner/9e56e28e-71ab-43a5-8e8d-816eadae2979"}},{"resource":{"resourceType":"MeasureReport","id":"1301678b-e24e-4bfa-8053-29b9978b93ac","meta":{"profile":["http://hl7.org/fhir/us/cqfmeasures/StructureDefinition/test-case-cqfm"]},"contained":[{"resourceType":"Parameters","id":"125c234c-1d1e-4c74-a657-68008b206cc2-parameters","parameter":[{"name":"subject","valueString":"04f44995-82bc-4579-b721-df49ac132735"}]}],"extension":[{"url":"http://hl7.org/fhir/StructureDefinition/cqf-inputParameters","valueReference":{"reference":"#125c234c-1d1e-4c74-a657-68008b206cc2-parameters"}},{"url":"http://hl7.org/fhir/us/cqfmeasures/StructureDefinition/cqfm-testCaseDescription","valueMarkdown":"ICU.stop 1 min prior to Inp.start\n"}],"modifierExtension":[{"url":"http://hl7.org/fhir/us/cqfmeasures/StructureDefinition/cqfm-isTestCase","valueBoolean":true}],"status":"complete","type":"individual","measure":"https://madie.cms.gov/Measure/CMS190VTEProphylaxisICUFHIR","period":{"start":"2026-01-01","end":"2026-12-31"},"group":[{"id":"Group_1","population":[{"id":"InitialPopulation_1","code":{"coding":[{"system":"http://terminology.hl7.org/CodeSystem/measure-population","code":"initial-population","display":"Initial Population"}]},"count":1},{"id":"Denominator_1","code":{"coding":[{"system":"http://terminology.hl7.org/CodeSystem/measure-population","code":"denominator","display":"Denominator"}]},"count":0},{"id":"DenominatorExclusion_1","code":{"coding":[{"system":"http://terminology.hl7.org/CodeSystem/measure-population","code":"denominator-exclusion","display":"Denominator Exclusion"}]},"count":0},{"id":"Numerator_1","code":{"coding":[{"system":"http://terminology.hl7.org/CodeSystem/measure-population","code":"numerator","display":"Numerator"}]},"count":0},{"id":"DenominatorException_1","code":{"coding":[{"system":"http://terminology.hl7.org/CodeSystem/measure-population","code":"denominator-exception","display":"Denominator Exception"}]},"count":0}],"measureScore":{"value":0.0}}],"evaluatedResource":[{"reference":"Patient/04f44995-82bc-4579-b721-df49ac132735"},{"reference":"Encounter/64e046b3-bcc2-4584-9895-a6eaccce0cd3"},{"reference":"Location/d02d7bc2-0900-459e-810d-d1fb0b027199"},{"reference":"Coverage/834a7d86-2595-4762-9937-2924416bd819"},{"reference":"Organization/16e7e97a-0be2-4cad-adee-fe2abb761be5"},{"reference":"Practitioner/9e56e28e-71ab-43a5-8e8d-816eadae2979"}]},"request":{"method":"PUT","url":"MeasureReport/1301678b-e24e-4bfa-8053-29b9978b93ac"}},{"resource":{"resourceType":"Encounter","id":"64e046b3-bcc2-4584-9895-a6eaccce0cd3","meta":{"profile":["http://hl7.org/fhir/us/qicore/StructureDefinition/qicore-encounter"]},"status":"finished","class":{"system":"http://terminology.hl7.org/CodeSystem/v3-ActCode","code":"IMP","display":"inpatient encounter"},"type":[{"coding":[{"system":"http://snomed.info/sct","code":"8715000"}]}],"subject":{"reference":"Patient/04f44995-82bc-4579-b721-df49ac132735"},"period":{"start":"2026-12-01T01:05:00.000+00:00","end":"2026-12-31T23:59:00.000+00:00"},"length":{"value":30.0,"unit":"days"},"location":[{"location":{"reference":"Location/intensive-care-unit-108a"},"period":{"start":"2026-11-30T08:00:00.000+00:00","end":"2026-12-01T01:04:00.000+00:00"}}]},"request":{"method":"PUT","url":"Encounter/64e046b3-bcc2-4584-9895-a6eaccce0cd3"}},{"resource":{"resourceType":"Organization","id":"16e7e97a-0be2-4cad-adee-fe2abb761be5","meta":{"profile":["http://hl7.org/fhir/us/qicore/StructureDefinition/qicore-organization"]},"identifier":[{"use":"temp","system":"urn:oid:2.16.840.1.113883.4.4","value":"21-3259825"}],"active":true,"type":[{"coding":[{"system":"http://terminology.hl7.org/CodeSystem/organization-type","code":"pay","display":"Payer"}]}],"name":"Blue Cross Blue Shield of Texas","telecom":[{"system":"phone","value":"(+1) 972-766-6900"}],"address":[{"use":"billing","type":"postal","line":["P.O. Box 660044"],"city":"Dallas","state":"TX","postalCode":"75266-0044","country":"USA"}]},"request":{"method":"PUT","url":"Organization/16e7e97a-0be2-4cad-adee-fe2abb761be5"}}]}