{"resourceType":"Bundle","id":"tests-4c60f97c-0043-445c-8bc0-feb3122ca35b-bundle","type":"transaction","entry":[{"resource":{"resourceType":"Coverage","id":"bc532cf9-7344-4dec-82fe-1adaf3a899e8","status":"active","beneficiary":{"reference":"Patient/4c60f97c-0043-445c-8bc0-feb3122ca35b"},"period":{"start":"1975-03-03T08:00:00.000+00:00"},"payor":[{"reference":"Organization/39fa3c6c-1878-4465-b5ee-47b2756be39f"}]},"request":{"method":"PUT","url":"Coverage/bc532cf9-7344-4dec-82fe-1adaf3a899e8"}},{"resource":{"resourceType":"Organization","id":"39fa3c6c-1878-4465-b5ee-47b2756be39f","meta":{"profile":["http://hl7.org/fhir/us/qicore/StructureDefinition/qicore-organization"]},"identifier":[{"use":"temp","system":"urn:oid:2.16.840.1.113883.4.4","value":"21-3259825"}],"active":true,"type":[{"coding":[{"system":"http://terminology.hl7.org/CodeSystem/organization-type","code":"pay","display":"Payer"}]}],"name":"Blue Cross Blue Shield of Texas","telecom":[{"system":"phone","value":"(+1) 972-766-6900"}],"address":[{"use":"billing","type":"postal","line":["P.O. Box 660044"],"city":"Dallas","state":"TX","postalCode":"75266-0044","country":"USA"}]},"request":{"method":"PUT","url":"Organization/39fa3c6c-1878-4465-b5ee-47b2756be39f"}},{"resource":{"resourceType":"Practitioner","id":"0e27f78a-376a-48f5-b750-1a46db22d7f0","identifier":[{"system":"http://hl7.org/fhir/sid/us-npi","value":"123456"}],"name":[{"family":"Evil","prefix":["Dr"]}]},"request":{"method":"PUT","url":"Practitioner/0e27f78a-376a-48f5-b750-1a46db22d7f0"}},{"resource":{"resourceType":"MeasureReport","id":"9c9cf4fd-1eb4-4ec2-bfc5-0167db3445e2","meta":{"profile":["http://hl7.org/fhir/us/cqfmeasures/StructureDefinition/test-case-cqfm"]},"contained":[{"resourceType":"Parameters","id":"15d9af13-df1e-4f43-812c-0bff0068b04b-parameters","parameter":[{"name":"subject","valueString":"4c60f97c-0043-445c-8bc0-feb3122ca35b"}]}],"extension":[{"url":"http://hl7.org/fhir/StructureDefinition/cqf-inputParameters","valueReference":{"reference":"#15d9af13-df1e-4f43-812c-0bff0068b04b-parameters"}},{"url":"http://hl7.org/fhir/us/cqfmeasures/StructureDefinition/cqfm-testCaseDescription","valueMarkdown":"hip fx surgery not principal \n"}],"modifierExtension":[{"url":"http://hl7.org/fhir/us/cqfmeasures/StructureDefinition/cqfm-isTestCase","valueBoolean":true}],"status":"complete","type":"individual","measure":"https://madie.cms.gov/Measure/CMS190VTEProphylaxisICUFHIR","period":{"start":"2026-01-01","end":"2026-12-31"},"group":[{"id":"Group_1","population":[{"id":"InitialPopulation_1","code":{"coding":[{"system":"http://terminology.hl7.org/CodeSystem/measure-population","code":"initial-population","display":"Initial Population"}]},"count":1},{"id":"Denominator_1","code":{"coding":[{"system":"http://terminology.hl7.org/CodeSystem/measure-population","code":"denominator","display":"Denominator"}]},"count":1},{"id":"DenominatorExclusion_1","code":{"coding":[{"system":"http://terminology.hl7.org/CodeSystem/measure-population","code":"denominator-exclusion","display":"Denominator Exclusion"}]},"count":0},{"id":"Numerator_1","code":{"coding":[{"system":"http://terminology.hl7.org/CodeSystem/measure-population","code":"numerator","display":"Numerator"}]},"count":0},{"id":"DenominatorException_1","code":{"coding":[{"system":"http://terminology.hl7.org/CodeSystem/measure-population","code":"denominator-exception","display":"Denominator Exception"}]},"count":0}],"measureScore":{"value":0.0}}],"evaluatedResource":[{"reference":"Patient/4c60f97c-0043-445c-8bc0-feb3122ca35b"},{"reference":"Encounter/bfadbeee-75be-4b79-b359-abe03bcc92df"},{"reference":"Coverage/bc532cf9-7344-4dec-82fe-1adaf3a899e8"},{"reference":"Procedure/434de399-89da-4c4d-a0b4-6a32718dc286"},{"reference":"Location/1c96842b-c645-46f1-972d-b69bb48a8501"},{"reference":"Organization/39fa3c6c-1878-4465-b5ee-47b2756be39f"},{"reference":"Practitioner/0e27f78a-376a-48f5-b750-1a46db22d7f0"}]},"request":{"method":"PUT","url":"MeasureReport/9c9cf4fd-1eb4-4ec2-bfc5-0167db3445e2"}},{"resource":{"resourceType":"Patient","id":"4c60f97c-0043-445c-8bc0-feb3122ca35b","meta":{"profile":["http://hl7.org/fhir/us/qicore/StructureDefinition/qicore-patient"]},"text":{"status":"generated","div":"<div xmlns=\"http://www.w3.org/1999/xhtml\"><div class=\"hapiHeaderText\">HipFxNotPrin <b>DENEXFAIL </b></div><table class=\"hapiPropertyTable\"><tbody><tr><td>Identifier</td><td>31862da5e01d3c5e5400146c9a207dfa</td></tr><tr><td>Date of birth</td><td><span>03 March 1974</span></td></tr></tbody></table></div>"},"extension":[{"url":"http://hl7.org/fhir/us/core/StructureDefinition/us-core-race","extension":[{"url":"ombCategory","valueCoding":{"system":"urn:oid:2.16.840.1.113883.6.238","code":"1002-5","display":"American Indian or Alaska Native","userSelected":true}},{"url":"text","valueString":"American Indian or Alaska Native"}]},{"url":"http://hl7.org/fhir/us/core/StructureDefinition/us-core-ethnicity","extension":[{"url":"ombCategory","valueCoding":{"system":"urn:oid:2.16.840.1.113883.6.238","code":"2135-2","display":"Hispanic or Latino","userSelected":true}},{"url":"text","valueString":"Hispanic or Latino"}]}],"identifier":[{"type":{"coding":[{"system":"http://terminology.hl7.org/CodeSystem/v2-0203","code":"MR"}]},"system":"https://bonnie-fhir.healthit.gov/","value":"612e6e9302c62a011f2eee8b"}],"active":true,"name":[{"use":"usual","family":"DENEXFail","given":["HipFxNotPrin"]}],"gender":"female","birthDate":"1975-03-03"},"request":{"method":"PUT","url":"Patient/4c60f97c-0043-445c-8bc0-feb3122ca35b"}},{"resource":{"resourceType":"Encounter","id":"bfadbeee-75be-4b79-b359-abe03bcc92df","meta":{"profile":["http://hl7.org/fhir/us/qicore/StructureDefinition/qicore-encounter"]},"status":"finished","class":{"system":"http://terminology.hl7.org/CodeSystem/v3-ActCode","code":"IMP","display":"inpatient encounter"},"type":[{"coding":[{"system":"http://snomed.info/sct","code":"8715000"}]}],"subject":{"reference":"Patient/4c60f97c-0043-445c-8bc0-feb3122ca35b"},"period":{"start":"2026-12-04T08:00:00.000+00:00","end":"2026-12-30T08:15:00.000+00:00"},"length":{"value":26.0,"unit":"days"},"location":[{"location":{"reference":"Location/1c96842b-c645-46f1-972d-b69bb48a8501"},"period":{"start":"2026-12-06T08:00:00.000+00:00","end":"2026-12-08T08:15:00.000+00:00"}}]},"request":{"method":"PUT","url":"Encounter/bfadbeee-75be-4b79-b359-abe03bcc92df"}},{"resource":{"resourceType":"Location","id":"1c96842b-c645-46f1-972d-b69bb48a8501","meta":{"profile":["http://hl7.org/fhir/us/qicore/StructureDefinition/qicore-location"]},"identifier":[{"use":"usual","system":"http://exampleoflocation.com","value":"B1-S.F2"}],"name":"Medical Surgical East, first floor","type":[{"coding":[{"system":"https://www.cdc.gov/nhsn/cdaportal/terminology/codesystem/hsloc.html","code":"1025-6","display":"Trauma Critical Care","userSelected":true}]}]},"request":{"method":"PUT","url":"Location/1c96842b-c645-46f1-972d-b69bb48a8501"}},{"resource":{"resourceType":"Procedure","id":"434de399-89da-4c4d-a0b4-6a32718dc286","meta":{"profile":["http://hl7.org/fhir/us/qicore/StructureDefinition/qicore-procedure"]},"extension":[{"url":"http://hl7.org/fhir/us/qicore/StructureDefinition/qicore-recorded","valueDateTime":"2013-12-06T13:35:00.000+00:00"}],"status":"completed","code":{"coding":[{"system":"http://www.cms.gov/Medicare/Coding/ICD10","code":"0SQ90ZZ"}]},"subject":{"reference":"Patient/4c60f97c-0043-445c-8bc0-feb3122ca35b"},"performedPeriod":{"start":"2026-12-06T08:15:00.000+00:00","end":"2026-12-06T11:15:00.000+00:00"}},"request":{"method":"PUT","url":"Procedure/434de399-89da-4c4d-a0b4-6a32718dc286"}},{"resource":{"resourceType":"Bundle","id":"612e6e9302c62a011f2eee8b","type":"transaction","entry":[{"fullUrl":"https://madie.cms.gov/Patient/4c60f97c-0043-445c-8bc0-feb3122ca35b","resource":{"resourceType":"Patient","id":"4c60f97c-0043-445c-8bc0-feb3122ca35b","meta":{"profile":["http://hl7.org/fhir/us/qicore/StructureDefinition/qicore-patient"]},"text":{"status":"generated","div":"<div xmlns=\"http://www.w3.org/1999/xhtml\"><div class=\"hapiHeaderText\">HipFxNotPrin <b>DENEXFAIL </b></div><table class=\"hapiPropertyTable\"><tbody><tr><td>Identifier</td><td>31862da5e01d3c5e5400146c9a207dfa</td></tr><tr><td>Date of birth</td><td><span>03 March 1974</span></td></tr></tbody></table></div>"},"extension":[{"url":"http://hl7.org/fhir/us/core/StructureDefinition/us-core-race","extension":[{"url":"ombCategory","valueCoding":{"system":"urn:oid:2.16.840.1.113883.6.238","code":"1002-5","display":"American Indian or Alaska Native","userSelected":true}},{"url":"text","valueString":"American Indian or Alaska Native"}]},{"url":"http://hl7.org/fhir/us/core/StructureDefinition/us-core-ethnicity","extension":[{"url":"ombCategory","valueCoding":{"system":"urn:oid:2.16.840.1.113883.6.238","code":"2135-2","display":"Hispanic or Latino","userSelected":true}},{"url":"text","valueString":"Hispanic or Latino"}]}],"identifier":[{"type":{"coding":[{"system":"http://terminology.hl7.org/CodeSystem/v2-0203","code":"MR"}]},"system":"https://bonnie-fhir.healthit.gov/","value":"612e6e9302c62a011f2eee8b"}],"active":true,"name":[{"use":"usual","family":"DENEXFail","given":["HipFxNotPrin"]}],"gender":"female","birthDate":"1975-03-03"},"request":{"method":"PUT","url":"Patient/4c60f97c-0043-445c-8bc0-feb3122ca35b"}},{"fullUrl":"https://madie.cms.gov/Encounter/bfadbeee-75be-4b79-b359-abe03bcc92df","resource":{"resourceType":"Encounter","id":"bfadbeee-75be-4b79-b359-abe03bcc92df","meta":{"profile":["http://hl7.org/fhir/us/qicore/StructureDefinition/qicore-encounter"]},"status":"finished","class":{"system":"http://terminology.hl7.org/CodeSystem/v3-ActCode","code":"IMP","display":"inpatient encounter"},"type":[{"coding":[{"system":"http://snomed.info/sct","code":"8715000"}]}],"subject":{"reference":"Patient/4c60f97c-0043-445c-8bc0-feb3122ca35b"},"period":{"start":"2026-12-04T08:00:00.000+00:00","end":"2026-12-30T08:15:00.000+00:00"},"length":{"value":26.0,"unit":"days"},"location":[{"location":{"reference":"Location/1c96842b-c645-46f1-972d-b69bb48a8501"},"period":{"start":"2026-12-06T08:00:00.000+00:00","end":"2026-12-08T08:15:00.000+00:00"}}]},"request":{"method":"PUT","url":"Encounter/bfadbeee-75be-4b79-b359-abe03bcc92df"}},{"fullUrl":"https://madie.cms.gov/Coverage/bc532cf9-7344-4dec-82fe-1adaf3a899e8","resource":{"resourceType":"Coverage","id":"bc532cf9-7344-4dec-82fe-1adaf3a899e8","status":"active","beneficiary":{"reference":"Patient/4c60f97c-0043-445c-8bc0-feb3122ca35b"},"period":{"start":"1975-03-03T08:00:00.000+00:00"},"payor":[{"reference":"Organization/39fa3c6c-1878-4465-b5ee-47b2756be39f"}]},"request":{"method":"PUT","url":"Coverage/bc532cf9-7344-4dec-82fe-1adaf3a899e8"}},{"fullUrl":"https://madie.cms.gov/Procedure/434de399-89da-4c4d-a0b4-6a32718dc286","resource":{"resourceType":"Procedure","id":"434de399-89da-4c4d-a0b4-6a32718dc286","meta":{"profile":["http://hl7.org/fhir/us/qicore/StructureDefinition/qicore-procedure"]},"extension":[{"url":"http://hl7.org/fhir/us/qicore/StructureDefinition/qicore-recorded","valueDateTime":"2013-12-06T13:35:00.000+00:00"}],"status":"completed","code":{"coding":[{"system":"http://www.cms.gov/Medicare/Coding/ICD10","code":"0SQ90ZZ"}]},"subject":{"reference":"Patient/4c60f97c-0043-445c-8bc0-feb3122ca35b"},"performedPeriod":{"start":"2026-12-06T08:15:00.000+00:00","end":"2026-12-06T11:15:00.000+00:00"}},"request":{"method":"PUT","url":"Procedure/434de399-89da-4c4d-a0b4-6a32718dc286"}},{"fullUrl":"https://madie.cms.gov/Location/1c96842b-c645-46f1-972d-b69bb48a8501","resource":{"resourceType":"Location","id":"1c96842b-c645-46f1-972d-b69bb48a8501","meta":{"profile":["http://hl7.org/fhir/us/qicore/StructureDefinition/qicore-location"]},"identifier":[{"use":"usual","system":"http://exampleoflocation.com","value":"B1-S.F2"}],"name":"Medical Surgical East, first floor","type":[{"coding":[{"system":"https://www.cdc.gov/nhsn/cdaportal/terminology/codesystem/hsloc.html","code":"1025-6","display":"Trauma Critical Care","userSelected":true}]}]},"request":{"method":"PUT","url":"Location/1c96842b-c645-46f1-972d-b69bb48a8501"}},{"fullUrl":"https://madie.cms.gov/Organization/39fa3c6c-1878-4465-b5ee-47b2756be39f","resource":{"resourceType":"Organization","id":"39fa3c6c-1878-4465-b5ee-47b2756be39f","meta":{"profile":["http://hl7.org/fhir/us/qicore/StructureDefinition/qicore-organization"]},"identifier":[{"use":"temp","system":"urn:oid:2.16.840.1.113883.4.4","value":"21-3259825"}],"active":true,"type":[{"coding":[{"system":"http://terminology.hl7.org/CodeSystem/organization-type","code":"pay","display":"Payer"}]}],"name":"Blue Cross Blue Shield of Texas","telecom":[{"system":"phone","value":"(+1) 972-766-6900"}],"address":[{"use":"billing","type":"postal","line":["P.O. Box 660044"],"city":"Dallas","state":"TX","postalCode":"75266-0044","country":"USA"}]},"request":{"method":"PUT","url":"Organization/39fa3c6c-1878-4465-b5ee-47b2756be39f"}},{"fullUrl":"https://madie.cms.gov/Practitioner/0e27f78a-376a-48f5-b750-1a46db22d7f0","resource":{"resourceType":"Practitioner","id":"0e27f78a-376a-48f5-b750-1a46db22d7f0","identifier":[{"system":"http://hl7.org/fhir/sid/us-npi","value":"123456"}],"name":[{"family":"Evil","prefix":["Dr"]}]},"request":{"method":"PUT","url":"Practitioner/0e27f78a-376a-48f5-b750-1a46db22d7f0"}},{"fullUrl":"https://madie.cms.gov/MeasureReport/9c9cf4fd-1eb4-4ec2-bfc5-0167db3445e2","resource":{"resourceType":"MeasureReport","id":"9c9cf4fd-1eb4-4ec2-bfc5-0167db3445e2","meta":{"profile":["http://hl7.org/fhir/us/cqfmeasures/StructureDefinition/test-case-cqfm"]},"contained":[{"resourceType":"Parameters","id":"15d9af13-df1e-4f43-812c-0bff0068b04b-parameters","parameter":[{"name":"subject","valueString":"4c60f97c-0043-445c-8bc0-feb3122ca35b"}]}],"extension":[{"url":"http://hl7.org/fhir/StructureDefinition/cqf-inputParameters","valueReference":{"reference":"#15d9af13-df1e-4f43-812c-0bff0068b04b-parameters"}},{"url":"http://hl7.org/fhir/us/cqfmeasures/StructureDefinition/cqfm-testCaseDescription","valueMarkdown":"hip fx surgery not principal \n"}],"modifierExtension":[{"url":"http://hl7.org/fhir/us/cqfmeasures/StructureDefinition/cqfm-isTestCase","valueBoolean":true}],"status":"complete","type":"individual","measure":"https://madie.cms.gov/Measure/CMS190VTEProphylaxisICUFHIR","period":{"start":"2026-01-01","end":"2026-12-31"},"group":[{"id":"Group_1","population":[{"id":"InitialPopulation_1","code":{"coding":[{"system":"http://terminology.hl7.org/CodeSystem/measure-population","code":"initial-population","display":"Initial Population"}]},"count":1},{"id":"Denominator_1","code":{"coding":[{"system":"http://terminology.hl7.org/CodeSystem/measure-population","code":"denominator","display":"Denominator"}]},"count":1},{"id":"DenominatorExclusion_1","code":{"coding":[{"system":"http://terminology.hl7.org/CodeSystem/measure-population","code":"denominator-exclusion","display":"Denominator Exclusion"}]},"count":0},{"id":"Numerator_1","code":{"coding":[{"system":"http://terminology.hl7.org/CodeSystem/measure-population","code":"numerator","display":"Numerator"}]},"count":0},{"id":"DenominatorException_1","code":{"coding":[{"system":"http://terminology.hl7.org/CodeSystem/measure-population","code":"denominator-exception","display":"Denominator Exception"}]},"count":0}],"measureScore":{"value":0.0}}],"evaluatedResource":[{"reference":"Patient/4c60f97c-0043-445c-8bc0-feb3122ca35b"},{"reference":"Encounter/bfadbeee-75be-4b79-b359-abe03bcc92df"},{"reference":"Coverage/bc532cf9-7344-4dec-82fe-1adaf3a899e8"},{"reference":"Procedure/434de399-89da-4c4d-a0b4-6a32718dc286"},{"reference":"Location/1c96842b-c645-46f1-972d-b69bb48a8501"},{"reference":"Organization/39fa3c6c-1878-4465-b5ee-47b2756be39f"},{"reference":"Practitioner/0e27f78a-376a-48f5-b750-1a46db22d7f0"}]},"request":{"method":"PUT","url":"MeasureReport/9c9cf4fd-1eb4-4ec2-bfc5-0167db3445e2"}}]},"request":{"method":"PUT","url":"Bundle/612e6e9302c62a011f2eee8b"}}]}