{"resourceType":"Bundle","id":"tests-da27cb98-5c52-431e-921e-9b925a508689-bundle","type":"transaction","entry":[{"resource":{"resourceType":"Bundle","id":"612e6f6502c62a011f2f1a9e","type":"transaction","entry":[{"fullUrl":"https://madie.cms.gov/Patient/da27cb98-5c52-431e-921e-9b925a508689","resource":{"resourceType":"Patient","id":"da27cb98-5c52-431e-921e-9b925a508689","meta":{"profile":["http://hl7.org/fhir/us/qicore/StructureDefinition/qicore-patient"]},"text":{"status":"generated","div":"<div xmlns=\"http://www.w3.org/1999/xhtml\"><div class=\"hapiHeaderText\">CMOPerf1dayB4EncEd3DayB4Enc <b>DENEXFAIL </b></div><table class=\"hapiPropertyTable\"><tbody><tr><td>Identifier</td><td>bf11ccab793d1a7deae8665db83df87d5b0367d2f50f1935405979410fcf8e18</td></tr><tr><td>Date of birth</td><td><span>03 March 1974</span></td></tr></tbody></table></div>"},"extension":[{"url":"http://hl7.org/fhir/us/core/StructureDefinition/us-core-race","extension":[{"url":"ombCategory","valueCoding":{"system":"urn:oid:2.16.840.1.113883.6.238","code":"1002-5","display":"American Indian or Alaska Native","userSelected":true}},{"url":"text","valueString":"American Indian or Alaska Native"}]},{"url":"http://hl7.org/fhir/us/core/StructureDefinition/us-core-ethnicity","extension":[{"url":"ombCategory","valueCoding":{"system":"urn:oid:2.16.840.1.113883.6.238","code":"2135-2","display":"Hispanic or Latino","userSelected":true}},{"url":"text","valueString":"Hispanic or Latino"}]}],"identifier":[{"type":{"coding":[{"system":"http://terminology.hl7.org/CodeSystem/v2-0203","code":"MR"}]},"system":"https://bonnie-fhir.healthit.gov/","value":"612e6f6502c62a011f2f1a9e"}],"active":true,"name":[{"use":"usual","family":"DENEXFail","given":["CMOPerf1dayB4EncEd3DayB4Enc"]}],"gender":"female","birthDate":"1975-03-03"},"request":{"method":"PUT","url":"Patient/da27cb98-5c52-431e-921e-9b925a508689"}},{"fullUrl":"https://madie.cms.gov/Encounter/520d8bad-3b19-441b-94b0-cfb640150153","resource":{"resourceType":"Encounter","id":"520d8bad-3b19-441b-94b0-cfb640150153","meta":{"profile":["http://hl7.org/fhir/us/qicore/StructureDefinition/qicore-encounter"]},"status":"finished","class":{"system":"http://terminology.hl7.org/CodeSystem/v3-ActCode","code":"EMER","display":"emergency"},"type":[{"coding":[{"system":"http://snomed.info/sct","code":"4525004"}]}],"subject":{"reference":"Patient/da27cb98-5c52-431e-921e-9b925a508689"},"period":{"start":"2026-12-01T06:00:00.000+00:00","end":"2026-12-01T18:30:00.000+00:00"},"length":{"value":0.0,"unit":"days"}},"request":{"method":"PUT","url":"Encounter/520d8bad-3b19-441b-94b0-cfb640150153"}},{"fullUrl":"https://madie.cms.gov/Encounter/906ee4a5-d5ac-4215-bb3d-2d2af4122f23","resource":{"resourceType":"Encounter","id":"906ee4a5-d5ac-4215-bb3d-2d2af4122f23","meta":{"profile":["http://hl7.org/fhir/us/qicore/StructureDefinition/qicore-encounter"]},"status":"finished","class":{"system":"http://terminology.hl7.org/CodeSystem/v3-ActCode","code":"IMP","display":"inpatient encounter"},"type":[{"coding":[{"system":"http://snomed.info/sct","code":"8715000"}]}],"subject":{"reference":"Patient/da27cb98-5c52-431e-921e-9b925a508689"},"period":{"start":"2026-12-04T08:00:00.000+00:00","end":"2026-12-30T08:15:00.000+00:00"},"length":{"value":26.0,"unit":"days"},"location":[{"location":{"reference":"Location/97a14d39-35a8-401b-8684-d079e7f9c25f"},"period":{"start":"2026-12-26T08:00:00.000+00:00","end":"2026-12-28T08:15:00.000+00:00"}}]},"request":{"method":"PUT","url":"Encounter/906ee4a5-d5ac-4215-bb3d-2d2af4122f23"}},{"fullUrl":"https://madie.cms.gov/Procedure/c9b5f195-8b7f-4917-b05c-6c61685cec74","resource":{"resourceType":"Procedure","id":"c9b5f195-8b7f-4917-b05c-6c61685cec74","meta":{"profile":["http://hl7.org/fhir/us/qicore/StructureDefinition/qicore-procedure"]},"extension":[{"url":"http://hl7.org/fhir/us/qicore/StructureDefinition/qicore-recorded","valueDateTime":"2013-12-04T13:35:00.000+00:00"}],"status":"completed","code":{"coding":[{"system":"http://snomed.info/sct","code":"133918004"}]},"subject":{"reference":"Patient/da27cb98-5c52-431e-921e-9b925a508689"},"performedPeriod":{"start":"2026-12-03T07:59:00.000+00:00"}},"request":{"method":"PUT","url":"Procedure/c9b5f195-8b7f-4917-b05c-6c61685cec74"}},{"fullUrl":"https://madie.cms.gov/Coverage/8ed6c766-d0e8-476e-8503-502042596523","resource":{"resourceType":"Coverage","id":"8ed6c766-d0e8-476e-8503-502042596523","status":"active","beneficiary":{"reference":"Patient/da27cb98-5c52-431e-921e-9b925a508689"},"period":{"start":"1975-03-03T08:00:00.000+00:00"},"payor":[{"reference":"Organization/b41f56f6-145c-4f54-8fd0-624c75077405"}]},"request":{"method":"PUT","url":"Coverage/8ed6c766-d0e8-476e-8503-502042596523"}},{"fullUrl":"https://madie.cms.gov/Location/97a14d39-35a8-401b-8684-d079e7f9c25f","resource":{"resourceType":"Location","id":"97a14d39-35a8-401b-8684-d079e7f9c25f","meta":{"profile":["http://hl7.org/fhir/us/qicore/StructureDefinition/qicore-location"]},"identifier":[{"use":"usual","system":"http://exampleoflocation.com","value":"B1-S.F2"}],"name":"Medical Surgical East, first floor","type":[{"coding":[{"system":"https://www.cdc.gov/nhsn/cdaportal/terminology/codesystem/hsloc.html","code":"1025-6","display":"Trauma Critical Care","userSelected":true}]}]},"request":{"method":"PUT","url":"Location/97a14d39-35a8-401b-8684-d079e7f9c25f"}},{"fullUrl":"https://madie.cms.gov/Organization/b41f56f6-145c-4f54-8fd0-624c75077405","resource":{"resourceType":"Organization","id":"b41f56f6-145c-4f54-8fd0-624c75077405","meta":{"profile":["http://hl7.org/fhir/us/qicore/StructureDefinition/qicore-organization"]},"identifier":[{"use":"temp","system":"urn:oid:2.16.840.1.113883.4.4","value":"21-3259825"}],"active":true,"type":[{"coding":[{"system":"http://terminology.hl7.org/CodeSystem/organization-type","code":"pay","display":"Payer"}]}],"name":"Blue Cross Blue Shield of Texas","telecom":[{"system":"phone","value":"(+1) 972-766-6900"}],"address":[{"use":"billing","type":"postal","line":["P.O. Box 660044"],"city":"Dallas","state":"TX","postalCode":"75266-0044","country":"USA"}]},"request":{"method":"PUT","url":"Organization/b41f56f6-145c-4f54-8fd0-624c75077405"}},{"fullUrl":"https://madie.cms.gov/Practitioner/20ad79b3-d872-4187-9e3c-1825b2b014da","resource":{"resourceType":"Practitioner","id":"20ad79b3-d872-4187-9e3c-1825b2b014da","identifier":[{"system":"http://hl7.org/fhir/sid/us-npi","value":"123456"}],"name":[{"family":"Evil","prefix":["Dr"]}]},"request":{"method":"PUT","url":"Practitioner/20ad79b3-d872-4187-9e3c-1825b2b014da"}},{"fullUrl":"https://madie.cms.gov/MeasureReport/0c84ef84-8a61-4015-b4c1-5c9797904e74","resource":{"resourceType":"MeasureReport","id":"0c84ef84-8a61-4015-b4c1-5c9797904e74","meta":{"profile":["http://hl7.org/fhir/us/cqfmeasures/StructureDefinition/test-case-cqfm"]},"contained":[{"resourceType":"Parameters","id":"804423c7-3410-48c0-80c4-7a3d18696c7a-parameters","parameter":[{"name":"subject","valueString":"da27cb98-5c52-431e-921e-9b925a508689"}]}],"extension":[{"url":"http://hl7.org/fhir/StructureDefinition/cqf-inputParameters","valueReference":{"reference":"#804423c7-3410-48c0-80c4-7a3d18696c7a-parameters"}},{"url":"http://hl7.org/fhir/us/cqfmeasures/StructureDefinition/cqfm-testCaseDescription","valueMarkdown":"meets IPP and Denominator, inpatient visit starts 3day after the end of ED visit(Global Hosp without Ed) AND Comfort Measures are performed 1 day before EncIP\n"}],"modifierExtension":[{"url":"http://hl7.org/fhir/us/cqfmeasures/StructureDefinition/cqfm-isTestCase","valueBoolean":true}],"status":"complete","type":"individual","measure":"https://madie.cms.gov/Measure/CMS190VTEProphylaxisICUFHIR","period":{"start":"2026-01-01","end":"2026-12-31"},"group":[{"id":"Group_1","population":[{"id":"InitialPopulation_1","code":{"coding":[{"system":"http://terminology.hl7.org/CodeSystem/measure-population","code":"initial-population","display":"Initial Population"}]},"count":1},{"id":"Denominator_1","code":{"coding":[{"system":"http://terminology.hl7.org/CodeSystem/measure-population","code":"denominator","display":"Denominator"}]},"count":1},{"id":"DenominatorExclusion_1","code":{"coding":[{"system":"http://terminology.hl7.org/CodeSystem/measure-population","code":"denominator-exclusion","display":"Denominator Exclusion"}]},"count":0},{"id":"Numerator_1","code":{"coding":[{"system":"http://terminology.hl7.org/CodeSystem/measure-population","code":"numerator","display":"Numerator"}]},"count":0},{"id":"DenominatorException_1","code":{"coding":[{"system":"http://terminology.hl7.org/CodeSystem/measure-population","code":"denominator-exception","display":"Denominator Exception"}]},"count":0}],"measureScore":{"value":0.0}}],"evaluatedResource":[{"reference":"Patient/da27cb98-5c52-431e-921e-9b925a508689"},{"reference":"Encounter/520d8bad-3b19-441b-94b0-cfb640150153"},{"reference":"Encounter/906ee4a5-d5ac-4215-bb3d-2d2af4122f23"},{"reference":"Procedure/c9b5f195-8b7f-4917-b05c-6c61685cec74"},{"reference":"Coverage/8ed6c766-d0e8-476e-8503-502042596523"},{"reference":"Location/97a14d39-35a8-401b-8684-d079e7f9c25f"},{"reference":"Organization/b41f56f6-145c-4f54-8fd0-624c75077405"},{"reference":"Practitioner/20ad79b3-d872-4187-9e3c-1825b2b014da"}]},"request":{"method":"PUT","url":"MeasureReport/0c84ef84-8a61-4015-b4c1-5c9797904e74"}}]},"request":{"method":"PUT","url":"Bundle/612e6f6502c62a011f2f1a9e"}},{"resource":{"resourceType":"Coverage","id":"8ed6c766-d0e8-476e-8503-502042596523","status":"active","beneficiary":{"reference":"Patient/da27cb98-5c52-431e-921e-9b925a508689"},"period":{"start":"1975-03-03T08:00:00.000+00:00"},"payor":[{"reference":"Organization/b41f56f6-145c-4f54-8fd0-624c75077405"}]},"request":{"method":"PUT","url":"Coverage/8ed6c766-d0e8-476e-8503-502042596523"}},{"resource":{"resourceType":"Organization","id":"b41f56f6-145c-4f54-8fd0-624c75077405","meta":{"profile":["http://hl7.org/fhir/us/qicore/StructureDefinition/qicore-organization"]},"identifier":[{"use":"temp","system":"urn:oid:2.16.840.1.113883.4.4","value":"21-3259825"}],"active":true,"type":[{"coding":[{"system":"http://terminology.hl7.org/CodeSystem/organization-type","code":"pay","display":"Payer"}]}],"name":"Blue Cross Blue Shield of Texas","telecom":[{"system":"phone","value":"(+1) 972-766-6900"}],"address":[{"use":"billing","type":"postal","line":["P.O. Box 660044"],"city":"Dallas","state":"TX","postalCode":"75266-0044","country":"USA"}]},"request":{"method":"PUT","url":"Organization/b41f56f6-145c-4f54-8fd0-624c75077405"}},{"resource":{"resourceType":"Encounter","id":"906ee4a5-d5ac-4215-bb3d-2d2af4122f23","meta":{"profile":["http://hl7.org/fhir/us/qicore/StructureDefinition/qicore-encounter"]},"status":"finished","class":{"system":"http://terminology.hl7.org/CodeSystem/v3-ActCode","code":"IMP","display":"inpatient encounter"},"type":[{"coding":[{"system":"http://snomed.info/sct","code":"8715000"}]}],"subject":{"reference":"Patient/da27cb98-5c52-431e-921e-9b925a508689"},"period":{"start":"2026-12-04T08:00:00.000+00:00","end":"2026-12-30T08:15:00.000+00:00"},"length":{"value":26.0,"unit":"days"},"location":[{"location":{"reference":"Location/97a14d39-35a8-401b-8684-d079e7f9c25f"},"period":{"start":"2026-12-26T08:00:00.000+00:00","end":"2026-12-28T08:15:00.000+00:00"}}]},"request":{"method":"PUT","url":"Encounter/906ee4a5-d5ac-4215-bb3d-2d2af4122f23"}},{"resource":{"resourceType":"Location","id":"97a14d39-35a8-401b-8684-d079e7f9c25f","meta":{"profile":["http://hl7.org/fhir/us/qicore/StructureDefinition/qicore-location"]},"identifier":[{"use":"usual","system":"http://exampleoflocation.com","value":"B1-S.F2"}],"name":"Medical Surgical East, first floor","type":[{"coding":[{"system":"https://www.cdc.gov/nhsn/cdaportal/terminology/codesystem/hsloc.html","code":"1025-6","display":"Trauma Critical Care","userSelected":true}]}]},"request":{"method":"PUT","url":"Location/97a14d39-35a8-401b-8684-d079e7f9c25f"}},{"resource":{"resourceType":"MeasureReport","id":"0c84ef84-8a61-4015-b4c1-5c9797904e74","meta":{"profile":["http://hl7.org/fhir/us/cqfmeasures/StructureDefinition/test-case-cqfm"]},"contained":[{"resourceType":"Parameters","id":"804423c7-3410-48c0-80c4-7a3d18696c7a-parameters","parameter":[{"name":"subject","valueString":"da27cb98-5c52-431e-921e-9b925a508689"}]}],"extension":[{"url":"http://hl7.org/fhir/StructureDefinition/cqf-inputParameters","valueReference":{"reference":"#804423c7-3410-48c0-80c4-7a3d18696c7a-parameters"}},{"url":"http://hl7.org/fhir/us/cqfmeasures/StructureDefinition/cqfm-testCaseDescription","valueMarkdown":"meets IPP and Denominator, inpatient visit starts 3day after the end of ED visit(Global Hosp without Ed) AND Comfort Measures are performed 1 day before EncIP\n"}],"modifierExtension":[{"url":"http://hl7.org/fhir/us/cqfmeasures/StructureDefinition/cqfm-isTestCase","valueBoolean":true}],"status":"complete","type":"individual","measure":"https://madie.cms.gov/Measure/CMS190VTEProphylaxisICUFHIR","period":{"start":"2026-01-01","end":"2026-12-31"},"group":[{"id":"Group_1","population":[{"id":"InitialPopulation_1","code":{"coding":[{"system":"http://terminology.hl7.org/CodeSystem/measure-population","code":"initial-population","display":"Initial Population"}]},"count":1},{"id":"Denominator_1","code":{"coding":[{"system":"http://terminology.hl7.org/CodeSystem/measure-population","code":"denominator","display":"Denominator"}]},"count":1},{"id":"DenominatorExclusion_1","code":{"coding":[{"system":"http://terminology.hl7.org/CodeSystem/measure-population","code":"denominator-exclusion","display":"Denominator Exclusion"}]},"count":0},{"id":"Numerator_1","code":{"coding":[{"system":"http://terminology.hl7.org/CodeSystem/measure-population","code":"numerator","display":"Numerator"}]},"count":0},{"id":"DenominatorException_1","code":{"coding":[{"system":"http://terminology.hl7.org/CodeSystem/measure-population","code":"denominator-exception","display":"Denominator Exception"}]},"count":0}],"measureScore":{"value":0.0}}],"evaluatedResource":[{"reference":"Patient/da27cb98-5c52-431e-921e-9b925a508689"},{"reference":"Encounter/520d8bad-3b19-441b-94b0-cfb640150153"},{"reference":"Encounter/906ee4a5-d5ac-4215-bb3d-2d2af4122f23"},{"reference":"Procedure/c9b5f195-8b7f-4917-b05c-6c61685cec74"},{"reference":"Coverage/8ed6c766-d0e8-476e-8503-502042596523"},{"reference":"Location/97a14d39-35a8-401b-8684-d079e7f9c25f"},{"reference":"Organization/b41f56f6-145c-4f54-8fd0-624c75077405"},{"reference":"Practitioner/20ad79b3-d872-4187-9e3c-1825b2b014da"}]},"request":{"method":"PUT","url":"MeasureReport/0c84ef84-8a61-4015-b4c1-5c9797904e74"}},{"resource":{"resourceType":"Patient","id":"da27cb98-5c52-431e-921e-9b925a508689","meta":{"profile":["http://hl7.org/fhir/us/qicore/StructureDefinition/qicore-patient"]},"text":{"status":"generated","div":"<div xmlns=\"http://www.w3.org/1999/xhtml\"><div class=\"hapiHeaderText\">CMOPerf1dayB4EncEd3DayB4Enc <b>DENEXFAIL </b></div><table class=\"hapiPropertyTable\"><tbody><tr><td>Identifier</td><td>bf11ccab793d1a7deae8665db83df87d5b0367d2f50f1935405979410fcf8e18</td></tr><tr><td>Date of birth</td><td><span>03 March 1974</span></td></tr></tbody></table></div>"},"extension":[{"url":"http://hl7.org/fhir/us/core/StructureDefinition/us-core-race","extension":[{"url":"ombCategory","valueCoding":{"system":"urn:oid:2.16.840.1.113883.6.238","code":"1002-5","display":"American Indian or Alaska Native","userSelected":true}},{"url":"text","valueString":"American Indian or Alaska Native"}]},{"url":"http://hl7.org/fhir/us/core/StructureDefinition/us-core-ethnicity","extension":[{"url":"ombCategory","valueCoding":{"system":"urn:oid:2.16.840.1.113883.6.238","code":"2135-2","display":"Hispanic or Latino","userSelected":true}},{"url":"text","valueString":"Hispanic or Latino"}]}],"identifier":[{"type":{"coding":[{"system":"http://terminology.hl7.org/CodeSystem/v2-0203","code":"MR"}]},"system":"https://bonnie-fhir.healthit.gov/","value":"612e6f6502c62a011f2f1a9e"}],"active":true,"name":[{"use":"usual","family":"DENEXFail","given":["CMOPerf1dayB4EncEd3DayB4Enc"]}],"gender":"female","birthDate":"1975-03-03"},"request":{"method":"PUT","url":"Patient/da27cb98-5c52-431e-921e-9b925a508689"}},{"resource":{"resourceType":"Practitioner","id":"20ad79b3-d872-4187-9e3c-1825b2b014da","identifier":[{"system":"http://hl7.org/fhir/sid/us-npi","value":"123456"}],"name":[{"family":"Evil","prefix":["Dr"]}]},"request":{"method":"PUT","url":"Practitioner/20ad79b3-d872-4187-9e3c-1825b2b014da"}},{"resource":{"resourceType":"Encounter","id":"520d8bad-3b19-441b-94b0-cfb640150153","meta":{"profile":["http://hl7.org/fhir/us/qicore/StructureDefinition/qicore-encounter"]},"status":"finished","class":{"system":"http://terminology.hl7.org/CodeSystem/v3-ActCode","code":"EMER","display":"emergency"},"type":[{"coding":[{"system":"http://snomed.info/sct","code":"4525004"}]}],"subject":{"reference":"Patient/da27cb98-5c52-431e-921e-9b925a508689"},"period":{"start":"2026-12-01T06:00:00.000+00:00","end":"2026-12-01T18:30:00.000+00:00"},"length":{"value":0.0,"unit":"days"}},"request":{"method":"PUT","url":"Encounter/520d8bad-3b19-441b-94b0-cfb640150153"}},{"resource":{"resourceType":"Procedure","id":"c9b5f195-8b7f-4917-b05c-6c61685cec74","meta":{"profile":["http://hl7.org/fhir/us/qicore/StructureDefinition/qicore-procedure"]},"extension":[{"url":"http://hl7.org/fhir/us/qicore/StructureDefinition/qicore-recorded","valueDateTime":"2013-12-04T13:35:00.000+00:00"}],"status":"completed","code":{"coding":[{"system":"http://snomed.info/sct","code":"133918004"}]},"subject":{"reference":"Patient/da27cb98-5c52-431e-921e-9b925a508689"},"performedPeriod":{"start":"2026-12-03T07:59:00.000+00:00"}},"request":{"method":"PUT","url":"Procedure/c9b5f195-8b7f-4917-b05c-6c61685cec74"}}]}