{"resourceType":"Bundle","id":"tests-a30e5588-0e2a-487c-b4d3-15d9e0006741-bundle","type":"transaction","entry":[{"resource":{"resourceType":"Location","id":"0e3484ce-a06d-432f-ab11-572f47d9b3bc","meta":{"profile":["http://hl7.org/fhir/us/qicore/StructureDefinition/qicore-location"]},"identifier":[{"use":"usual","system":"http://exampleoflocation.com","value":"B1-S.F2"}],"name":"Medical Surgical East, first floor","type":[{"coding":[{"system":"https://www.cdc.gov/nhsn/cdaportal/terminology/codesystem/hsloc.html","code":"1025-6","display":"Trauma Critical Care","userSelected":true}]}]},"request":{"method":"PUT","url":"Location/0e3484ce-a06d-432f-ab11-572f47d9b3bc"}},{"resource":{"resourceType":"Coverage","id":"8e60ca47-8f8f-4175-8128-38b20826ad14","status":"active","beneficiary":{"reference":"Patient/a30e5588-0e2a-487c-b4d3-15d9e0006741"},"period":{"start":"1975-01-02T08:00:00Z"},"payor":[{"reference":"Organization/c7b0bf1c-cf4b-400b-8e4c-ce75ad37b1e1"}]},"request":{"method":"PUT","url":"Coverage/8e60ca47-8f8f-4175-8128-38b20826ad14"}},{"resource":{"resourceType":"Encounter","id":"06840673-9955-4e3a-939f-4368e43ca4ce","meta":{"profile":["http://hl7.org/fhir/us/qicore/StructureDefinition/qicore-encounter"]},"status":"finished","class":{"system":"http://terminology.hl7.org/CodeSystem/v3-ActCode","code":"IMP","display":"inpatient encounter"},"type":[{"coding":[{"system":"http://snomed.info/sct","code":"8715000"}]}],"subject":{"reference":"Patient/a30e5588-0e2a-487c-b4d3-15d9e0006741"},"period":{"start":"2026-11-01T08:00:00Z","end":"2026-11-26T08:15:00.000+00:00"},"length":{"value":25,"unit":"days"},"location":[{"location":{"reference":"Location/0e3484ce-a06d-432f-ab11-572f47d9b3bc"},"period":{"start":"2026-11-04T09:00:00Z","end":"2026-11-06T08:15:00.000+00:00"}}]},"request":{"method":"PUT","url":"Encounter/06840673-9955-4e3a-939f-4368e43ca4ce"}},{"resource":{"resourceType":"Task","id":"cff150b5-73ac-4647-b400-2dd0ee994c3d","meta":{"profile":["http://hl7.org/fhir/us/qicore/StructureDefinition/qicore-taskrejected"]},"status":"rejected","statusReason":{"coding":[{"system":"http://snomed.info/sct","code":"443390004","display":"Refusal of treatment by patient (situation)","userSelected":true}]},"code":{"coding":[{"system":"http://hl7.org/fhir/CodeSystem/task-code","code":"fulfill"}]},"focus":{"reference":"MedicationRequest/91c05622-f9de-493e-8ebb-f9490f0b9a33"},"executionPeriod":{"start":"2026-11-01T09:00:00Z","end":"2026-11-03T09:00:00.000+00:00"}},"request":{"method":"PUT","url":"Task/cff150b5-73ac-4647-b400-2dd0ee994c3d"}},{"resource":{"resourceType":"Bundle","id":"612e6b2e02c62a011f2ecc92","type":"transaction","entry":[{"fullUrl":"https://madie.cms.gov/Patient/a30e5588-0e2a-487c-b4d3-15d9e0006741","resource":{"resourceType":"Patient","id":"a30e5588-0e2a-487c-b4d3-15d9e0006741","meta":{"profile":["http://hl7.org/fhir/us/qicore/StructureDefinition/qicore-patient"]},"text":{"status":"generated","div":"<div xmlns=\"http://www.w3.org/1999/xhtml\"><div class=\"hapiHeaderText\">PtRefMOLMWHDayAfterICU<b>NUMERPASS </b></div><table class=\"hapiPropertyTable\"><tbody><tr><td>Identifier</td><td>bec2580a47ed4bf7691b191e0654b2de</td></tr><tr><td>Date of birth</td><td><span>02 January 1974</span></td></tr></tbody></table></div>"},"extension":[{"url":"http://hl7.org/fhir/us/core/StructureDefinition/us-core-race","extension":[{"url":"ombCategory","valueCoding":{"system":"urn:oid:2.16.840.1.113883.6.238","code":"1002-5","display":"American Indian or Alaska Native","userSelected":true}},{"url":"text","valueString":"American Indian or Alaska Native"}]},{"url":"http://hl7.org/fhir/us/core/StructureDefinition/us-core-ethnicity","extension":[{"url":"ombCategory","valueCoding":{"system":"urn:oid:2.16.840.1.113883.6.238","code":"2135-2","display":"Hispanic or Latino","userSelected":true}},{"url":"text","valueString":"Hispanic or Latino"}]}],"identifier":[{"type":{"coding":[{"system":"http://terminology.hl7.org/CodeSystem/v2-0203","code":"MR"}]},"system":"https://bonnie-fhir.healthit.gov/","value":"612e6b2e02c62a011f2ecc92"}],"active":true,"name":[{"use":"usual","family":"NUMERPass","given":["PtRefMORixTaskReject"]}],"gender":"male","birthDate":"1975-01-02"},"request":{"method":"PUT","url":"Patient/a30e5588-0e2a-487c-b4d3-15d9e0006741"}},{"fullUrl":"https://madie.cms.gov/Encounter/06840673-9955-4e3a-939f-4368e43ca4ce","resource":{"resourceType":"Encounter","id":"06840673-9955-4e3a-939f-4368e43ca4ce","meta":{"profile":["http://hl7.org/fhir/us/qicore/StructureDefinition/qicore-encounter"]},"status":"finished","class":{"system":"http://terminology.hl7.org/CodeSystem/v3-ActCode","code":"IMP","display":"inpatient encounter"},"type":[{"coding":[{"system":"http://snomed.info/sct","code":"8715000"}]}],"subject":{"reference":"Patient/a30e5588-0e2a-487c-b4d3-15d9e0006741"},"period":{"start":"2026-11-01T08:00:00Z","end":"2026-11-26T08:15:00.000+00:00"},"length":{"value":25,"unit":"days"},"location":[{"location":{"reference":"Location/0e3484ce-a06d-432f-ab11-572f47d9b3bc"},"period":{"start":"2026-11-04T09:00:00Z","end":"2026-11-06T08:15:00.000+00:00"}}]},"request":{"method":"PUT","url":"Encounter/06840673-9955-4e3a-939f-4368e43ca4ce"}},{"fullUrl":"https://madie.cms.gov/Coverage/8e60ca47-8f8f-4175-8128-38b20826ad14","resource":{"resourceType":"Coverage","id":"8e60ca47-8f8f-4175-8128-38b20826ad14","status":"active","beneficiary":{"reference":"Patient/a30e5588-0e2a-487c-b4d3-15d9e0006741"},"period":{"start":"1975-01-02T08:00:00Z"},"payor":[{"reference":"Organization/c7b0bf1c-cf4b-400b-8e4c-ce75ad37b1e1"}]},"request":{"method":"PUT","url":"Coverage/8e60ca47-8f8f-4175-8128-38b20826ad14"}},{"fullUrl":"https://madie.cms.gov/MedicationRequest/91c05622-f9de-493e-8ebb-f9490f0b9a33","resource":{"resourceType":"MedicationRequest","id":"91c05622-f9de-493e-8ebb-f9490f0b9a33","meta":{"profile":["http://hl7.org/fhir/us/qicore/StructureDefinition/qicore-medicationrequest"]},"status":"active","intent":"order","category":[{"coding":[{"system":"http://terminology.hl7.org/CodeSystem/medicationrequest-category","code":"inpatient"}]}],"doNotPerform":false,"medicationCodeableConcept":{"coding":[{"system":"http://www.nlm.nih.gov/research/umls/rxnorm","code":"1232086"}]},"subject":{"reference":"Patient/a30e5588-0e2a-487c-b4d3-15d9e0006741"},"authoredOn":"2026-11-01T08:00:00Z","requester":{"reference":"Practitioner/123456"},"dosageInstruction":[{"timing":{"repeat":{"boundsPeriod":{"start":"2026-11-03T09:00:00Z"}}}}]},"request":{"method":"PUT","url":"MedicationRequest/91c05622-f9de-493e-8ebb-f9490f0b9a33"}},{"fullUrl":"https://madie.cms.gov/Task/cff150b5-73ac-4647-b400-2dd0ee994c3d","resource":{"resourceType":"Task","id":"cff150b5-73ac-4647-b400-2dd0ee994c3d","meta":{"profile":["http://hl7.org/fhir/us/qicore/StructureDefinition/qicore-taskrejected"]},"status":"rejected","statusReason":{"coding":[{"system":"http://snomed.info/sct","code":"443390004","display":"Refusal of treatment by patient (situation)","userSelected":true}]},"code":{"coding":[{"system":"http://hl7.org/fhir/CodeSystem/task-code","code":"fulfill"}]},"focus":{"reference":"MedicationRequest/91c05622-f9de-493e-8ebb-f9490f0b9a33"},"executionPeriod":{"start":"2026-11-01T09:00:00Z","end":"2026-11-03T09:00:00.000+00:00"}},"request":{"method":"PUT","url":"Task/cff150b5-73ac-4647-b400-2dd0ee994c3d"}},{"fullUrl":"https://madie.cms.gov/Location/0e3484ce-a06d-432f-ab11-572f47d9b3bc","resource":{"resourceType":"Location","id":"0e3484ce-a06d-432f-ab11-572f47d9b3bc","meta":{"profile":["http://hl7.org/fhir/us/qicore/StructureDefinition/qicore-location"]},"identifier":[{"use":"usual","system":"http://exampleoflocation.com","value":"B1-S.F2"}],"name":"Medical Surgical East, first floor","type":[{"coding":[{"system":"https://www.cdc.gov/nhsn/cdaportal/terminology/codesystem/hsloc.html","code":"1025-6","display":"Trauma Critical Care","userSelected":true}]}]},"request":{"method":"PUT","url":"Location/0e3484ce-a06d-432f-ab11-572f47d9b3bc"}},{"fullUrl":"https://madie.cms.gov/Organization/c7b0bf1c-cf4b-400b-8e4c-ce75ad37b1e1","resource":{"resourceType":"Organization","id":"c7b0bf1c-cf4b-400b-8e4c-ce75ad37b1e1","meta":{"profile":["http://hl7.org/fhir/us/qicore/StructureDefinition/qicore-organization"]},"identifier":[{"use":"temp","system":"urn:oid:2.16.840.1.113883.4.4","value":"21-3259825"}],"active":true,"type":[{"coding":[{"system":"http://terminology.hl7.org/CodeSystem/organization-type","code":"pay","display":"Payer"}]}],"name":"Blue Cross Blue Shield of Texas","telecom":[{"system":"phone","value":"(+1) 972-766-6900"}],"address":[{"use":"billing","type":"postal","line":["P.O. Box 660044"],"city":"Dallas","state":"TX","postalCode":"75266-0044","country":"USA"}]},"request":{"method":"PUT","url":"Organization/c7b0bf1c-cf4b-400b-8e4c-ce75ad37b1e1"}},{"fullUrl":"https://madie.cms.gov/Practitioner/b0b10fbe-a73d-4d1d-88af-5b1b5550a2b6","resource":{"resourceType":"Practitioner","id":"b0b10fbe-a73d-4d1d-88af-5b1b5550a2b6","identifier":[{"system":"http://hl7.org/fhir/sid/us-npi","value":"123456"}],"name":[{"family":"Evil","prefix":["Dr"]}]},"request":{"method":"PUT","url":"Practitioner/b0b10fbe-a73d-4d1d-88af-5b1b5550a2b6"}},{"fullUrl":"https://madie.cms.gov/MeasureReport/46ef84e7-1396-4e90-baaf-fd3f897d3689","resource":{"resourceType":"MeasureReport","id":"46ef84e7-1396-4e90-baaf-fd3f897d3689","meta":{"profile":["http://hl7.org/fhir/us/cqfmeasures/StructureDefinition/test-case-cqfm"]},"contained":[{"resourceType":"Parameters","id":"b13a0f80-dce4-4707-8fd7-63faee7d25c4-parameters","parameter":[{"name":"subject","valueString":"a30e5588-0e2a-487c-b4d3-15d9e0006741"}]}],"extension":[{"url":"http://hl7.org/fhir/StructureDefinition/cqf-inputParameters","valueReference":{"reference":"#b13a0f80-dce4-4707-8fd7-63faee7d25c4-parameters"}},{"url":"http://hl7.org/fhir/us/cqfmeasures/StructureDefinition/cqfm-testCaseDescription","valueMarkdown":"Patient refusal for rivaroxaban with Task Rejected"}],"modifierExtension":[{"url":"http://hl7.org/fhir/us/cqfmeasures/StructureDefinition/cqfm-isTestCase","valueBoolean":true}],"status":"complete","type":"individual","measure":"https://madie.cms.gov/Measure/CMS190VTEProphylaxisICUFHIR","period":{"start":"2026-01-01","end":"2026-12-31"},"group":[{"id":"Group_1","population":[{"id":"InitialPopulation_1","code":{"coding":[{"system":"http://terminology.hl7.org/CodeSystem/measure-population","code":"initial-population","display":"Initial Population"}]},"count":1},{"id":"Denominator_1","code":{"coding":[{"system":"http://terminology.hl7.org/CodeSystem/measure-population","code":"denominator","display":"Denominator"}]},"count":1},{"id":"DenominatorExclusion_1","code":{"coding":[{"system":"http://terminology.hl7.org/CodeSystem/measure-population","code":"denominator-exclusion","display":"Denominator Exclusion"}]},"count":0},{"id":"Numerator_1","code":{"coding":[{"system":"http://terminology.hl7.org/CodeSystem/measure-population","code":"numerator","display":"Numerator"}]},"count":1},{"id":"DenominatorException_1","code":{"coding":[{"system":"http://terminology.hl7.org/CodeSystem/measure-population","code":"denominator-exception","display":"Denominator Exception"}]},"count":0}],"measureScore":{"value":0.0}}],"evaluatedResource":[{"reference":"Patient/a30e5588-0e2a-487c-b4d3-15d9e0006741"},{"reference":"Encounter/06840673-9955-4e3a-939f-4368e43ca4ce"},{"reference":"Coverage/8e60ca47-8f8f-4175-8128-38b20826ad14"},{"reference":"MedicationRequest/91c05622-f9de-493e-8ebb-f9490f0b9a33"},{"reference":"Task/cff150b5-73ac-4647-b400-2dd0ee994c3d"},{"reference":"Location/0e3484ce-a06d-432f-ab11-572f47d9b3bc"},{"reference":"Organization/c7b0bf1c-cf4b-400b-8e4c-ce75ad37b1e1"},{"reference":"Practitioner/b0b10fbe-a73d-4d1d-88af-5b1b5550a2b6"}]},"request":{"method":"PUT","url":"MeasureReport/46ef84e7-1396-4e90-baaf-fd3f897d3689"}}]},"request":{"method":"PUT","url":"Bundle/612e6b2e02c62a011f2ecc92"}},{"resource":{"resourceType":"MeasureReport","id":"46ef84e7-1396-4e90-baaf-fd3f897d3689","meta":{"profile":["http://hl7.org/fhir/us/cqfmeasures/StructureDefinition/test-case-cqfm"]},"contained":[{"resourceType":"Parameters","id":"b13a0f80-dce4-4707-8fd7-63faee7d25c4-parameters","parameter":[{"name":"subject","valueString":"a30e5588-0e2a-487c-b4d3-15d9e0006741"}]}],"extension":[{"url":"http://hl7.org/fhir/StructureDefinition/cqf-inputParameters","valueReference":{"reference":"#b13a0f80-dce4-4707-8fd7-63faee7d25c4-parameters"}},{"url":"http://hl7.org/fhir/us/cqfmeasures/StructureDefinition/cqfm-testCaseDescription","valueMarkdown":"Patient refusal for rivaroxaban with Task Rejected"}],"modifierExtension":[{"url":"http://hl7.org/fhir/us/cqfmeasures/StructureDefinition/cqfm-isTestCase","valueBoolean":true}],"status":"complete","type":"individual","measure":"https://madie.cms.gov/Measure/CMS190VTEProphylaxisICUFHIR","period":{"start":"2026-01-01","end":"2026-12-31"},"group":[{"id":"Group_1","population":[{"id":"InitialPopulation_1","code":{"coding":[{"system":"http://terminology.hl7.org/CodeSystem/measure-population","code":"initial-population","display":"Initial Population"}]},"count":1},{"id":"Denominator_1","code":{"coding":[{"system":"http://terminology.hl7.org/CodeSystem/measure-population","code":"denominator","display":"Denominator"}]},"count":1},{"id":"DenominatorExclusion_1","code":{"coding":[{"system":"http://terminology.hl7.org/CodeSystem/measure-population","code":"denominator-exclusion","display":"Denominator Exclusion"}]},"count":0},{"id":"Numerator_1","code":{"coding":[{"system":"http://terminology.hl7.org/CodeSystem/measure-population","code":"numerator","display":"Numerator"}]},"count":1},{"id":"DenominatorException_1","code":{"coding":[{"system":"http://terminology.hl7.org/CodeSystem/measure-population","code":"denominator-exception","display":"Denominator Exception"}]},"count":0}],"measureScore":{"value":0.0}}],"evaluatedResource":[{"reference":"Patient/a30e5588-0e2a-487c-b4d3-15d9e0006741"},{"reference":"Encounter/06840673-9955-4e3a-939f-4368e43ca4ce"},{"reference":"Coverage/8e60ca47-8f8f-4175-8128-38b20826ad14"},{"reference":"MedicationRequest/91c05622-f9de-493e-8ebb-f9490f0b9a33"},{"reference":"Task/cff150b5-73ac-4647-b400-2dd0ee994c3d"},{"reference":"Location/0e3484ce-a06d-432f-ab11-572f47d9b3bc"},{"reference":"Organization/c7b0bf1c-cf4b-400b-8e4c-ce75ad37b1e1"},{"reference":"Practitioner/b0b10fbe-a73d-4d1d-88af-5b1b5550a2b6"}]},"request":{"method":"PUT","url":"MeasureReport/46ef84e7-1396-4e90-baaf-fd3f897d3689"}},{"resource":{"resourceType":"Practitioner","id":"b0b10fbe-a73d-4d1d-88af-5b1b5550a2b6","identifier":[{"system":"http://hl7.org/fhir/sid/us-npi","value":"123456"}],"name":[{"family":"Evil","prefix":["Dr"]}]},"request":{"method":"PUT","url":"Practitioner/b0b10fbe-a73d-4d1d-88af-5b1b5550a2b6"}},{"resource":{"resourceType":"Patient","id":"a30e5588-0e2a-487c-b4d3-15d9e0006741","meta":{"profile":["http://hl7.org/fhir/us/qicore/StructureDefinition/qicore-patient"]},"text":{"status":"generated","div":"<div xmlns=\"http://www.w3.org/1999/xhtml\"><div class=\"hapiHeaderText\">PtRefMOLMWHDayAfterICU<b>NUMERPASS </b></div><table class=\"hapiPropertyTable\"><tbody><tr><td>Identifier</td><td>bec2580a47ed4bf7691b191e0654b2de</td></tr><tr><td>Date of birth</td><td><span>02 January 1974</span></td></tr></tbody></table></div>"},"extension":[{"url":"http://hl7.org/fhir/us/core/StructureDefinition/us-core-race","extension":[{"url":"ombCategory","valueCoding":{"system":"urn:oid:2.16.840.1.113883.6.238","code":"1002-5","display":"American Indian or Alaska Native","userSelected":true}},{"url":"text","valueString":"American Indian or Alaska Native"}]},{"url":"http://hl7.org/fhir/us/core/StructureDefinition/us-core-ethnicity","extension":[{"url":"ombCategory","valueCoding":{"system":"urn:oid:2.16.840.1.113883.6.238","code":"2135-2","display":"Hispanic or Latino","userSelected":true}},{"url":"text","valueString":"Hispanic or Latino"}]}],"identifier":[{"type":{"coding":[{"system":"http://terminology.hl7.org/CodeSystem/v2-0203","code":"MR"}]},"system":"https://bonnie-fhir.healthit.gov/","value":"612e6b2e02c62a011f2ecc92"}],"active":true,"name":[{"use":"usual","family":"NUMERPass","given":["PtRefMORixTaskReject"]}],"gender":"male","birthDate":"1975-01-02"},"request":{"method":"PUT","url":"Patient/a30e5588-0e2a-487c-b4d3-15d9e0006741"}},{"resource":{"resourceType":"MedicationRequest","id":"91c05622-f9de-493e-8ebb-f9490f0b9a33","meta":{"profile":["http://hl7.org/fhir/us/qicore/StructureDefinition/qicore-medicationrequest"]},"status":"active","intent":"order","category":[{"coding":[{"system":"http://terminology.hl7.org/CodeSystem/medicationrequest-category","code":"inpatient"}]}],"doNotPerform":false,"medicationCodeableConcept":{"coding":[{"system":"http://www.nlm.nih.gov/research/umls/rxnorm","code":"1232086"}]},"subject":{"reference":"Patient/a30e5588-0e2a-487c-b4d3-15d9e0006741"},"authoredOn":"2026-11-01T08:00:00Z","requester":{"reference":"Practitioner/123456"},"dosageInstruction":[{"timing":{"repeat":{"boundsPeriod":{"start":"2026-11-03T09:00:00Z"}}}}]},"request":{"method":"PUT","url":"MedicationRequest/91c05622-f9de-493e-8ebb-f9490f0b9a33"}},{"resource":{"resourceType":"Organization","id":"c7b0bf1c-cf4b-400b-8e4c-ce75ad37b1e1","meta":{"profile":["http://hl7.org/fhir/us/qicore/StructureDefinition/qicore-organization"]},"identifier":[{"use":"temp","system":"urn:oid:2.16.840.1.113883.4.4","value":"21-3259825"}],"active":true,"type":[{"coding":[{"system":"http://terminology.hl7.org/CodeSystem/organization-type","code":"pay","display":"Payer"}]}],"name":"Blue Cross Blue Shield of Texas","telecom":[{"system":"phone","value":"(+1) 972-766-6900"}],"address":[{"use":"billing","type":"postal","line":["P.O. Box 660044"],"city":"Dallas","state":"TX","postalCode":"75266-0044","country":"USA"}]},"request":{"method":"PUT","url":"Organization/c7b0bf1c-cf4b-400b-8e4c-ce75ad37b1e1"}}]}