{"resourceType":"Bundle","id":"tests-6eba9c05-05eb-4337-811b-f5303159919f-bundle","type":"transaction","entry":[{"resource":{"resourceType":"Procedure","id":"7dd05161-8c99-4559-820b-72e2dc4d0c27","meta":{"profile":["http://hl7.org/fhir/us/qicore/StructureDefinition/qicore-procedure"]},"extension":[{"url":"http://hl7.org/fhir/us/qicore/StructureDefinition/qicore-recorded","valueDateTime":"2013-12-04T13:35:00.000+00:00"}],"status":"completed","code":{"coding":[{"system":"http://www.cms.gov/Medicare/Coding/ICD10","code":"3E030FZ"}]},"subject":{"reference":"Patient/6eba9c05-05eb-4337-811b-f5303159919f"},"performedPeriod":{"start":"2026-12-04T11:00:00.000+00:00","end":"2026-12-06T11:15:00.000+00:00"}},"request":{"method":"PUT","url":"Procedure/7dd05161-8c99-4559-820b-72e2dc4d0c27"}},{"resource":{"resourceType":"MeasureReport","id":"82671717-e656-468b-8fc5-7160a8e80526","meta":{"profile":["http://hl7.org/fhir/us/cqfmeasures/StructureDefinition/test-case-cqfm"]},"contained":[{"resourceType":"Parameters","id":"e66e7812-e034-49f5-bbc0-9cc697964a49-parameters","parameter":[{"name":"subject","valueString":"6eba9c05-05eb-4337-811b-f5303159919f"}]}],"extension":[{"url":"http://hl7.org/fhir/StructureDefinition/cqf-inputParameters","valueReference":{"reference":"#e66e7812-e034-49f5-bbc0-9cc697964a49-parameters"}},{"url":"http://hl7.org/fhir/us/cqfmeasures/StructureDefinition/cqfm-testCaseDescription","valueMarkdown":"comfort measures starts after end of neuraxial anesthesia and in ICU\n"}],"modifierExtension":[{"url":"http://hl7.org/fhir/us/cqfmeasures/StructureDefinition/cqfm-isTestCase","valueBoolean":true}],"status":"complete","type":"individual","measure":"https://madie.cms.gov/Measure/CMS190VTEProphylaxisICUFHIR","period":{"start":"2026-01-01","end":"2026-12-31"},"group":[{"id":"Group_1","population":[{"id":"InitialPopulation_1","code":{"coding":[{"system":"http://terminology.hl7.org/CodeSystem/measure-population","code":"initial-population","display":"Initial Population"}]},"count":1},{"id":"Denominator_1","code":{"coding":[{"system":"http://terminology.hl7.org/CodeSystem/measure-population","code":"denominator","display":"Denominator"}]},"count":1},{"id":"DenominatorExclusion_1","code":{"coding":[{"system":"http://terminology.hl7.org/CodeSystem/measure-population","code":"denominator-exclusion","display":"Denominator Exclusion"}]},"count":1},{"id":"Numerator_1","code":{"coding":[{"system":"http://terminology.hl7.org/CodeSystem/measure-population","code":"numerator","display":"Numerator"}]},"count":0},{"id":"DenominatorException_1","code":{"coding":[{"system":"http://terminology.hl7.org/CodeSystem/measure-population","code":"denominator-exception","display":"Denominator Exception"}]},"count":0}],"measureScore":{"value":0.0}}],"evaluatedResource":[{"reference":"Patient/6eba9c05-05eb-4337-811b-f5303159919f"},{"reference":"Encounter/89b8b466-0631-4ecf-abed-654f28ec0ef3"},{"reference":"ServiceRequest/2d645050-6db6-437c-88ac-f70660509b90"},{"reference":"Coverage/68b73f29-aa98-42d4-ac3f-a239dfebb31e"},{"reference":"Procedure/7dd05161-8c99-4559-820b-72e2dc4d0c27"},{"reference":"Location/197d4b30-822c-429f-a2b6-4f8d96106284"},{"reference":"Organization/e818231d-b8fe-4776-805b-d381eefc7b6a"},{"reference":"Practitioner/f5b7db58-252c-4271-a3f5-a84b9f0c1ffa"}]},"request":{"method":"PUT","url":"MeasureReport/82671717-e656-468b-8fc5-7160a8e80526"}},{"resource":{"resourceType":"Patient","id":"6eba9c05-05eb-4337-811b-f5303159919f","meta":{"profile":["http://hl7.org/fhir/us/qicore/StructureDefinition/qicore-patient"]},"text":{"status":"generated","div":"<div xmlns=\"http://www.w3.org/1999/xhtml\"><div class=\"hapiHeaderText\">ComfortMeasuresOnICUAfterAnes <b>DENEXPASS </b></div><table class=\"hapiPropertyTable\"><tbody><tr><td>Identifier</td><td>41ae90b5ce0802ca16fefff2109852a5</td></tr><tr><td>Date of birth</td><td><span>23 July 1947</span></td></tr></tbody></table></div>"},"extension":[{"url":"http://hl7.org/fhir/us/core/StructureDefinition/us-core-race","extension":[{"url":"ombCategory","valueCoding":{"system":"urn:oid:2.16.840.1.113883.6.238","code":"1002-5","display":"American Indian or Alaska Native","userSelected":true}},{"url":"text","valueString":"American Indian or Alaska Native"}]},{"url":"http://hl7.org/fhir/us/core/StructureDefinition/us-core-ethnicity","extension":[{"url":"ombCategory","valueCoding":{"system":"urn:oid:2.16.840.1.113883.6.238","code":"2135-2","display":"Hispanic or Latino","userSelected":true}},{"url":"text","valueString":"Hispanic or Latino"}]}],"identifier":[{"type":{"coding":[{"system":"http://terminology.hl7.org/CodeSystem/v2-0203","code":"MR"}]},"system":"https://bonnie-fhir.healthit.gov/","value":"612e6e7e02c62a011f2ee96c"}],"active":true,"name":[{"use":"usual","family":"DENEXPass","given":["ComfortMeasuresOnICUAfterAnes"]}],"gender":"female","birthDate":"1948-07-23"},"request":{"method":"PUT","url":"Patient/6eba9c05-05eb-4337-811b-f5303159919f"}},{"resource":{"resourceType":"Bundle","id":"612e6e7e02c62a011f2ee96c","type":"transaction","entry":[{"fullUrl":"https://madie.cms.gov/Patient/6eba9c05-05eb-4337-811b-f5303159919f","resource":{"resourceType":"Patient","id":"6eba9c05-05eb-4337-811b-f5303159919f","meta":{"profile":["http://hl7.org/fhir/us/qicore/StructureDefinition/qicore-patient"]},"text":{"status":"generated","div":"<div xmlns=\"http://www.w3.org/1999/xhtml\"><div class=\"hapiHeaderText\">ComfortMeasuresOnICUAfterAnes <b>DENEXPASS </b></div><table class=\"hapiPropertyTable\"><tbody><tr><td>Identifier</td><td>41ae90b5ce0802ca16fefff2109852a5</td></tr><tr><td>Date of birth</td><td><span>23 July 1947</span></td></tr></tbody></table></div>"},"extension":[{"url":"http://hl7.org/fhir/us/core/StructureDefinition/us-core-race","extension":[{"url":"ombCategory","valueCoding":{"system":"urn:oid:2.16.840.1.113883.6.238","code":"1002-5","display":"American Indian or Alaska Native","userSelected":true}},{"url":"text","valueString":"American Indian or Alaska Native"}]},{"url":"http://hl7.org/fhir/us/core/StructureDefinition/us-core-ethnicity","extension":[{"url":"ombCategory","valueCoding":{"system":"urn:oid:2.16.840.1.113883.6.238","code":"2135-2","display":"Hispanic or Latino","userSelected":true}},{"url":"text","valueString":"Hispanic or Latino"}]}],"identifier":[{"type":{"coding":[{"system":"http://terminology.hl7.org/CodeSystem/v2-0203","code":"MR"}]},"system":"https://bonnie-fhir.healthit.gov/","value":"612e6e7e02c62a011f2ee96c"}],"active":true,"name":[{"use":"usual","family":"DENEXPass","given":["ComfortMeasuresOnICUAfterAnes"]}],"gender":"female","birthDate":"1948-07-23"},"request":{"method":"PUT","url":"Patient/6eba9c05-05eb-4337-811b-f5303159919f"}},{"fullUrl":"https://madie.cms.gov/Encounter/89b8b466-0631-4ecf-abed-654f28ec0ef3","resource":{"resourceType":"Encounter","id":"89b8b466-0631-4ecf-abed-654f28ec0ef3","meta":{"profile":["http://hl7.org/fhir/us/qicore/StructureDefinition/qicore-encounter"]},"status":"finished","class":{"system":"http://terminology.hl7.org/CodeSystem/v3-ActCode","code":"IMP","display":"inpatient encounter"},"type":[{"coding":[{"system":"http://snomed.info/sct","code":"8715000"}]}],"subject":{"reference":"Patient/6eba9c05-05eb-4337-811b-f5303159919f"},"period":{"start":"2026-12-04T08:00:00.000+00:00","end":"2026-12-30T08:15:00.000+00:00"},"length":{"value":26.0,"unit":"days"},"location":[{"location":{"reference":"Location/197d4b30-822c-429f-a2b6-4f8d96106284"},"period":{"start":"2026-12-06T08:00:00.000+00:00","end":"2026-12-12T08:12:00.000+00:00"}}]},"request":{"method":"PUT","url":"Encounter/89b8b466-0631-4ecf-abed-654f28ec0ef3"}},{"fullUrl":"https://madie.cms.gov/ServiceRequest/2d645050-6db6-437c-88ac-f70660509b90","resource":{"resourceType":"ServiceRequest","id":"2d645050-6db6-437c-88ac-f70660509b90","meta":{"profile":["http://hl7.org/fhir/us/qicore/StructureDefinition/qicore-servicerequest"]},"status":"completed","intent":"order","code":{"coding":[{"system":"http://snomed.info/sct","code":"133918004"}]},"subject":{"reference":"Patient/6eba9c05-05eb-4337-811b-f5303159919f"},"authoredOn":"2026-12-06T11:30:00.000+00:00"},"request":{"method":"PUT","url":"ServiceRequest/2d645050-6db6-437c-88ac-f70660509b90"}},{"fullUrl":"https://madie.cms.gov/Coverage/68b73f29-aa98-42d4-ac3f-a239dfebb31e","resource":{"resourceType":"Coverage","id":"68b73f29-aa98-42d4-ac3f-a239dfebb31e","status":"active","beneficiary":{"reference":"Patient/6eba9c05-05eb-4337-811b-f5303159919f"},"period":{"start":"1975-03-03T08:00:00.000+00:00"},"payor":[{"reference":"Organization/e818231d-b8fe-4776-805b-d381eefc7b6a"}]},"request":{"method":"PUT","url":"Coverage/68b73f29-aa98-42d4-ac3f-a239dfebb31e"}},{"fullUrl":"https://madie.cms.gov/Procedure/7dd05161-8c99-4559-820b-72e2dc4d0c27","resource":{"resourceType":"Procedure","id":"7dd05161-8c99-4559-820b-72e2dc4d0c27","meta":{"profile":["http://hl7.org/fhir/us/qicore/StructureDefinition/qicore-procedure"]},"extension":[{"url":"http://hl7.org/fhir/us/qicore/StructureDefinition/qicore-recorded","valueDateTime":"2013-12-04T13:35:00.000+00:00"}],"status":"completed","code":{"coding":[{"system":"http://www.cms.gov/Medicare/Coding/ICD10","code":"3E030FZ"}]},"subject":{"reference":"Patient/6eba9c05-05eb-4337-811b-f5303159919f"},"performedPeriod":{"start":"2026-12-04T11:00:00.000+00:00","end":"2026-12-06T11:15:00.000+00:00"}},"request":{"method":"PUT","url":"Procedure/7dd05161-8c99-4559-820b-72e2dc4d0c27"}},{"fullUrl":"https://madie.cms.gov/Location/197d4b30-822c-429f-a2b6-4f8d96106284","resource":{"resourceType":"Location","id":"197d4b30-822c-429f-a2b6-4f8d96106284","meta":{"profile":["http://hl7.org/fhir/us/qicore/StructureDefinition/qicore-location"]},"identifier":[{"use":"usual","system":"http://exampleoflocation.com","value":"B1-S.F2"}],"name":"Medical Surgical East, first floor","type":[{"coding":[{"system":"https://www.cdc.gov/nhsn/cdaportal/terminology/codesystem/hsloc.html","code":"1025-6","display":"Trauma Critical Care","userSelected":true}]}]},"request":{"method":"PUT","url":"Location/197d4b30-822c-429f-a2b6-4f8d96106284"}},{"fullUrl":"https://madie.cms.gov/Organization/e818231d-b8fe-4776-805b-d381eefc7b6a","resource":{"resourceType":"Organization","id":"e818231d-b8fe-4776-805b-d381eefc7b6a","meta":{"profile":["http://hl7.org/fhir/us/qicore/StructureDefinition/qicore-organization"]},"identifier":[{"use":"temp","system":"urn:oid:2.16.840.1.113883.4.4","value":"21-3259825"}],"active":true,"type":[{"coding":[{"system":"http://terminology.hl7.org/CodeSystem/organization-type","code":"pay","display":"Payer"}]}],"name":"Blue Cross Blue Shield of Texas","telecom":[{"system":"phone","value":"(+1) 972-766-6900"}],"address":[{"use":"billing","type":"postal","line":["P.O. Box 660044"],"city":"Dallas","state":"TX","postalCode":"75266-0044","country":"USA"}]},"request":{"method":"PUT","url":"Organization/e818231d-b8fe-4776-805b-d381eefc7b6a"}},{"fullUrl":"https://madie.cms.gov/Practitioner/f5b7db58-252c-4271-a3f5-a84b9f0c1ffa","resource":{"resourceType":"Practitioner","id":"f5b7db58-252c-4271-a3f5-a84b9f0c1ffa","identifier":[{"system":"http://hl7.org/fhir/sid/us-npi","value":"123456"}],"name":[{"family":"Evil","prefix":["Dr"]}]},"request":{"method":"PUT","url":"Practitioner/f5b7db58-252c-4271-a3f5-a84b9f0c1ffa"}},{"fullUrl":"https://madie.cms.gov/MeasureReport/82671717-e656-468b-8fc5-7160a8e80526","resource":{"resourceType":"MeasureReport","id":"82671717-e656-468b-8fc5-7160a8e80526","meta":{"profile":["http://hl7.org/fhir/us/cqfmeasures/StructureDefinition/test-case-cqfm"]},"contained":[{"resourceType":"Parameters","id":"e66e7812-e034-49f5-bbc0-9cc697964a49-parameters","parameter":[{"name":"subject","valueString":"6eba9c05-05eb-4337-811b-f5303159919f"}]}],"extension":[{"url":"http://hl7.org/fhir/StructureDefinition/cqf-inputParameters","valueReference":{"reference":"#e66e7812-e034-49f5-bbc0-9cc697964a49-parameters"}},{"url":"http://hl7.org/fhir/us/cqfmeasures/StructureDefinition/cqfm-testCaseDescription","valueMarkdown":"comfort measures starts after end of neuraxial anesthesia and in ICU\n"}],"modifierExtension":[{"url":"http://hl7.org/fhir/us/cqfmeasures/StructureDefinition/cqfm-isTestCase","valueBoolean":true}],"status":"complete","type":"individual","measure":"https://madie.cms.gov/Measure/CMS190VTEProphylaxisICUFHIR","period":{"start":"2026-01-01","end":"2026-12-31"},"group":[{"id":"Group_1","population":[{"id":"InitialPopulation_1","code":{"coding":[{"system":"http://terminology.hl7.org/CodeSystem/measure-population","code":"initial-population","display":"Initial Population"}]},"count":1},{"id":"Denominator_1","code":{"coding":[{"system":"http://terminology.hl7.org/CodeSystem/measure-population","code":"denominator","display":"Denominator"}]},"count":1},{"id":"DenominatorExclusion_1","code":{"coding":[{"system":"http://terminology.hl7.org/CodeSystem/measure-population","code":"denominator-exclusion","display":"Denominator Exclusion"}]},"count":1},{"id":"Numerator_1","code":{"coding":[{"system":"http://terminology.hl7.org/CodeSystem/measure-population","code":"numerator","display":"Numerator"}]},"count":0},{"id":"DenominatorException_1","code":{"coding":[{"system":"http://terminology.hl7.org/CodeSystem/measure-population","code":"denominator-exception","display":"Denominator Exception"}]},"count":0}],"measureScore":{"value":0.0}}],"evaluatedResource":[{"reference":"Patient/6eba9c05-05eb-4337-811b-f5303159919f"},{"reference":"Encounter/89b8b466-0631-4ecf-abed-654f28ec0ef3"},{"reference":"ServiceRequest/2d645050-6db6-437c-88ac-f70660509b90"},{"reference":"Coverage/68b73f29-aa98-42d4-ac3f-a239dfebb31e"},{"reference":"Procedure/7dd05161-8c99-4559-820b-72e2dc4d0c27"},{"reference":"Location/197d4b30-822c-429f-a2b6-4f8d96106284"},{"reference":"Organization/e818231d-b8fe-4776-805b-d381eefc7b6a"},{"reference":"Practitioner/f5b7db58-252c-4271-a3f5-a84b9f0c1ffa"}]},"request":{"method":"PUT","url":"MeasureReport/82671717-e656-468b-8fc5-7160a8e80526"}}]},"request":{"method":"PUT","url":"Bundle/612e6e7e02c62a011f2ee96c"}},{"resource":{"resourceType":"Organization","id":"e818231d-b8fe-4776-805b-d381eefc7b6a","meta":{"profile":["http://hl7.org/fhir/us/qicore/StructureDefinition/qicore-organization"]},"identifier":[{"use":"temp","system":"urn:oid:2.16.840.1.113883.4.4","value":"21-3259825"}],"active":true,"type":[{"coding":[{"system":"http://terminology.hl7.org/CodeSystem/organization-type","code":"pay","display":"Payer"}]}],"name":"Blue Cross Blue Shield of Texas","telecom":[{"system":"phone","value":"(+1) 972-766-6900"}],"address":[{"use":"billing","type":"postal","line":["P.O. Box 660044"],"city":"Dallas","state":"TX","postalCode":"75266-0044","country":"USA"}]},"request":{"method":"PUT","url":"Organization/e818231d-b8fe-4776-805b-d381eefc7b6a"}},{"resource":{"resourceType":"Coverage","id":"68b73f29-aa98-42d4-ac3f-a239dfebb31e","status":"active","beneficiary":{"reference":"Patient/6eba9c05-05eb-4337-811b-f5303159919f"},"period":{"start":"1975-03-03T08:00:00.000+00:00"},"payor":[{"reference":"Organization/e818231d-b8fe-4776-805b-d381eefc7b6a"}]},"request":{"method":"PUT","url":"Coverage/68b73f29-aa98-42d4-ac3f-a239dfebb31e"}},{"resource":{"resourceType":"Encounter","id":"89b8b466-0631-4ecf-abed-654f28ec0ef3","meta":{"profile":["http://hl7.org/fhir/us/qicore/StructureDefinition/qicore-encounter"]},"status":"finished","class":{"system":"http://terminology.hl7.org/CodeSystem/v3-ActCode","code":"IMP","display":"inpatient encounter"},"type":[{"coding":[{"system":"http://snomed.info/sct","code":"8715000"}]}],"subject":{"reference":"Patient/6eba9c05-05eb-4337-811b-f5303159919f"},"period":{"start":"2026-12-04T08:00:00.000+00:00","end":"2026-12-30T08:15:00.000+00:00"},"length":{"value":26.0,"unit":"days"},"location":[{"location":{"reference":"Location/197d4b30-822c-429f-a2b6-4f8d96106284"},"period":{"start":"2026-12-06T08:00:00.000+00:00","end":"2026-12-12T08:12:00.000+00:00"}}]},"request":{"method":"PUT","url":"Encounter/89b8b466-0631-4ecf-abed-654f28ec0ef3"}},{"resource":{"resourceType":"ServiceRequest","id":"2d645050-6db6-437c-88ac-f70660509b90","meta":{"profile":["http://hl7.org/fhir/us/qicore/StructureDefinition/qicore-servicerequest"]},"status":"completed","intent":"order","code":{"coding":[{"system":"http://snomed.info/sct","code":"133918004"}]},"subject":{"reference":"Patient/6eba9c05-05eb-4337-811b-f5303159919f"},"authoredOn":"2026-12-06T11:30:00.000+00:00"},"request":{"method":"PUT","url":"ServiceRequest/2d645050-6db6-437c-88ac-f70660509b90"}},{"resource":{"resourceType":"Practitioner","id":"f5b7db58-252c-4271-a3f5-a84b9f0c1ffa","identifier":[{"system":"http://hl7.org/fhir/sid/us-npi","value":"123456"}],"name":[{"family":"Evil","prefix":["Dr"]}]},"request":{"method":"PUT","url":"Practitioner/f5b7db58-252c-4271-a3f5-a84b9f0c1ffa"}},{"resource":{"resourceType":"Location","id":"197d4b30-822c-429f-a2b6-4f8d96106284","meta":{"profile":["http://hl7.org/fhir/us/qicore/StructureDefinition/qicore-location"]},"identifier":[{"use":"usual","system":"http://exampleoflocation.com","value":"B1-S.F2"}],"name":"Medical Surgical East, first floor","type":[{"coding":[{"system":"https://www.cdc.gov/nhsn/cdaportal/terminology/codesystem/hsloc.html","code":"1025-6","display":"Trauma Critical Care","userSelected":true}]}]},"request":{"method":"PUT","url":"Location/197d4b30-822c-429f-a2b6-4f8d96106284"}}]}