{"resourceType":"Bundle","id":"tests-e35371bf-1c00-4581-b217-4f98f1d779ec-bundle","type":"transaction","entry":[{"resource":{"resourceType":"Practitioner","id":"179ffbf0-d817-4b65-88bf-bb2971ea9055","identifier":[{"system":"http://hl7.org/fhir/sid/us-npi","value":"123456"}],"name":[{"family":"Evil","prefix":["Dr"]}]},"request":{"method":"PUT","url":"Practitioner/179ffbf0-d817-4b65-88bf-bb2971ea9055"}},{"resource":{"resourceType":"Organization","id":"d387c23b-a59f-455a-b703-bce313035005","meta":{"profile":["http://hl7.org/fhir/us/qicore/StructureDefinition/qicore-organization"]},"identifier":[{"use":"temp","system":"urn:oid:2.16.840.1.113883.4.4","value":"21-3259825"}],"active":true,"type":[{"coding":[{"system":"http://terminology.hl7.org/CodeSystem/organization-type","code":"pay","display":"Payer"}]}],"name":"Blue Cross Blue Shield of Texas","telecom":[{"system":"phone","value":"(+1) 972-766-6900"}],"address":[{"use":"billing","type":"postal","line":["P.O. Box 660044"],"city":"Dallas","state":"TX","postalCode":"75266-0044","country":"USA"}]},"request":{"method":"PUT","url":"Organization/d387c23b-a59f-455a-b703-bce313035005"}},{"resource":{"resourceType":"Encounter","id":"158c496b-a5b8-42f4-8ead-06fcdeedb9f5","meta":{"profile":["http://hl7.org/fhir/us/qicore/StructureDefinition/qicore-encounter"]},"status":"finished","class":{"system":"http://terminology.hl7.org/CodeSystem/v3-ActCode","code":"EMER","display":"emergency"},"type":[{"coding":[{"system":"http://snomed.info/sct","code":"4525004"}]}],"subject":{"reference":"Patient/e35371bf-1c00-4581-b217-4f98f1d779ec"},"period":{"start":"2026-12-04T04:00:00.000+00:00","end":"2026-12-04T05:00:00.000+00:00"},"length":{"value":0.0,"unit":"days"}},"request":{"method":"PUT","url":"Encounter/158c496b-a5b8-42f4-8ead-06fcdeedb9f5"}},{"resource":{"resourceType":"Encounter","id":"4516397e-56d2-41c8-8e9d-83e89a301840","meta":{"profile":["http://hl7.org/fhir/us/qicore/StructureDefinition/qicore-encounter"]},"status":"finished","class":{"system":"http://terminology.hl7.org/CodeSystem/v3-ActCode","code":"IMP","display":"inpatient encounter"},"type":[{"coding":[{"system":"http://snomed.info/sct","code":"8715000"}]}],"subject":{"reference":"Patient/e35371bf-1c00-4581-b217-4f98f1d779ec"},"period":{"start":"2026-12-04T08:00:00.000+00:00","end":"2026-12-30T08:15:00.000+00:00"},"length":{"value":26.0,"unit":"days"},"location":[{"location":{"reference":"Location/e285d2e9-e3ba-4ef2-a67c-8d608894ce05"},"period":{"start":"2026-12-26T08:00:00.000+00:00","end":"2026-12-28T08:15:00.000+00:00"}}]},"request":{"method":"PUT","url":"Encounter/4516397e-56d2-41c8-8e9d-83e89a301840"}},{"resource":{"resourceType":"Patient","id":"e35371bf-1c00-4581-b217-4f98f1d779ec","meta":{"profile":["http://hl7.org/fhir/us/qicore/StructureDefinition/qicore-patient"]},"text":{"status":"generated","div":"<div xmlns=\"http://www.w3.org/1999/xhtml\"><div class=\"hapiHeaderText\">CMODuringObsLT1hrBFAdm <b>DENEXPASS </b></div><table class=\"hapiPropertyTable\"><tbody><tr><td>Identifier</td><td>b76722bfa8b7247c1f4f231ad8af146a5c30960d16e3961ba6c562fdeac74b10</td></tr><tr><td>Date of birth</td><td><span>03 March 1970</span></td></tr></tbody></table></div>"},"extension":[{"url":"http://hl7.org/fhir/us/core/StructureDefinition/us-core-race","extension":[{"url":"ombCategory","valueCoding":{"system":"urn:oid:2.16.840.1.113883.6.238","code":"1002-5","display":"American Indian or Alaska Native","userSelected":true}},{"url":"text","valueString":"American Indian or Alaska Native"}]},{"url":"http://hl7.org/fhir/us/core/StructureDefinition/us-core-ethnicity","extension":[{"url":"ombCategory","valueCoding":{"system":"urn:oid:2.16.840.1.113883.6.238","code":"2135-2","display":"Hispanic or Latino","userSelected":true}},{"url":"text","valueString":"Hispanic or Latino"}]}],"identifier":[{"type":{"coding":[{"system":"http://terminology.hl7.org/CodeSystem/v2-0203","code":"MR"}]},"system":"https://bonnie-fhir.healthit.gov/","value":"612e6f6802c62a011f2f1b7a"}],"active":true,"name":[{"use":"usual","family":"DENEXPass","given":["CMODuringObsLT1hrBFAdm"]}],"gender":"female","birthDate":"1971-03-03"},"request":{"method":"PUT","url":"Patient/e35371bf-1c00-4581-b217-4f98f1d779ec"}},{"resource":{"resourceType":"Location","id":"e285d2e9-e3ba-4ef2-a67c-8d608894ce05","meta":{"profile":["http://hl7.org/fhir/us/qicore/StructureDefinition/qicore-location"]},"identifier":[{"use":"usual","system":"http://exampleoflocation.com","value":"B1-S.F2"}],"name":"Medical Surgical East, first floor","type":[{"coding":[{"system":"https://www.cdc.gov/nhsn/cdaportal/terminology/codesystem/hsloc.html","code":"1025-6","display":"Trauma Critical Care","userSelected":true}]}]},"request":{"method":"PUT","url":"Location/e285d2e9-e3ba-4ef2-a67c-8d608894ce05"}},{"resource":{"resourceType":"Encounter","id":"be0798e8-e9ec-4457-b7c7-a066ab4ab612","meta":{"profile":["http://hl7.org/fhir/us/qicore/StructureDefinition/qicore-encounter"]},"status":"finished","class":{"system":"http://terminology.hl7.org/CodeSystem/v3-ActCode","code":"OBSENC","display":"observation encounter"},"type":[{"coding":[{"system":"http://snomed.info/sct","code":"448951000124107"}]}],"subject":{"reference":"Patient/e35371bf-1c00-4581-b217-4f98f1d779ec"},"period":{"start":"2026-12-04T05:15:00.000+00:00","end":"2026-12-04T07:15:00.000+00:00"}},"request":{"method":"PUT","url":"Encounter/be0798e8-e9ec-4457-b7c7-a066ab4ab612"}},{"resource":{"resourceType":"ServiceRequest","id":"eec19269-9e77-42ef-9e2f-a1e4b25902d4","meta":{"profile":["http://hl7.org/fhir/us/qicore/StructureDefinition/qicore-servicerequest"]},"status":"completed","intent":"order","code":{"coding":[{"system":"http://snomed.info/sct","code":"133918004"}]},"subject":{"reference":"Patient/e35371bf-1c00-4581-b217-4f98f1d779ec"},"authoredOn":"2026-12-04T06:00:00.000+00:00"},"request":{"method":"PUT","url":"ServiceRequest/eec19269-9e77-42ef-9e2f-a1e4b25902d4"}},{"resource":{"resourceType":"Bundle","id":"612e6f6802c62a011f2f1b7a","type":"transaction","entry":[{"fullUrl":"https://madie.cms.gov/Patient/e35371bf-1c00-4581-b217-4f98f1d779ec","resource":{"resourceType":"Patient","id":"e35371bf-1c00-4581-b217-4f98f1d779ec","meta":{"profile":["http://hl7.org/fhir/us/qicore/StructureDefinition/qicore-patient"]},"text":{"status":"generated","div":"<div xmlns=\"http://www.w3.org/1999/xhtml\"><div class=\"hapiHeaderText\">CMODuringObsLT1hrBFAdm <b>DENEXPASS </b></div><table class=\"hapiPropertyTable\"><tbody><tr><td>Identifier</td><td>b76722bfa8b7247c1f4f231ad8af146a5c30960d16e3961ba6c562fdeac74b10</td></tr><tr><td>Date of birth</td><td><span>03 March 1970</span></td></tr></tbody></table></div>"},"extension":[{"url":"http://hl7.org/fhir/us/core/StructureDefinition/us-core-race","extension":[{"url":"ombCategory","valueCoding":{"system":"urn:oid:2.16.840.1.113883.6.238","code":"1002-5","display":"American Indian or Alaska Native","userSelected":true}},{"url":"text","valueString":"American Indian or Alaska Native"}]},{"url":"http://hl7.org/fhir/us/core/StructureDefinition/us-core-ethnicity","extension":[{"url":"ombCategory","valueCoding":{"system":"urn:oid:2.16.840.1.113883.6.238","code":"2135-2","display":"Hispanic or Latino","userSelected":true}},{"url":"text","valueString":"Hispanic or Latino"}]}],"identifier":[{"type":{"coding":[{"system":"http://terminology.hl7.org/CodeSystem/v2-0203","code":"MR"}]},"system":"https://bonnie-fhir.healthit.gov/","value":"612e6f6802c62a011f2f1b7a"}],"active":true,"name":[{"use":"usual","family":"DENEXPass","given":["CMODuringObsLT1hrBFAdm"]}],"gender":"female","birthDate":"1971-03-03"},"request":{"method":"PUT","url":"Patient/e35371bf-1c00-4581-b217-4f98f1d779ec"}},{"fullUrl":"https://madie.cms.gov/Encounter/158c496b-a5b8-42f4-8ead-06fcdeedb9f5","resource":{"resourceType":"Encounter","id":"158c496b-a5b8-42f4-8ead-06fcdeedb9f5","meta":{"profile":["http://hl7.org/fhir/us/qicore/StructureDefinition/qicore-encounter"]},"status":"finished","class":{"system":"http://terminology.hl7.org/CodeSystem/v3-ActCode","code":"EMER","display":"emergency"},"type":[{"coding":[{"system":"http://snomed.info/sct","code":"4525004"}]}],"subject":{"reference":"Patient/e35371bf-1c00-4581-b217-4f98f1d779ec"},"period":{"start":"2026-12-04T04:00:00.000+00:00","end":"2026-12-04T05:00:00.000+00:00"},"length":{"value":0.0,"unit":"days"}},"request":{"method":"PUT","url":"Encounter/158c496b-a5b8-42f4-8ead-06fcdeedb9f5"}},{"fullUrl":"https://madie.cms.gov/Encounter/be0798e8-e9ec-4457-b7c7-a066ab4ab612","resource":{"resourceType":"Encounter","id":"be0798e8-e9ec-4457-b7c7-a066ab4ab612","meta":{"profile":["http://hl7.org/fhir/us/qicore/StructureDefinition/qicore-encounter"]},"status":"finished","class":{"system":"http://terminology.hl7.org/CodeSystem/v3-ActCode","code":"OBSENC","display":"observation encounter"},"type":[{"coding":[{"system":"http://snomed.info/sct","code":"448951000124107"}]}],"subject":{"reference":"Patient/e35371bf-1c00-4581-b217-4f98f1d779ec"},"period":{"start":"2026-12-04T05:15:00.000+00:00","end":"2026-12-04T07:15:00.000+00:00"}},"request":{"method":"PUT","url":"Encounter/be0798e8-e9ec-4457-b7c7-a066ab4ab612"}},{"fullUrl":"https://madie.cms.gov/Encounter/4516397e-56d2-41c8-8e9d-83e89a301840","resource":{"resourceType":"Encounter","id":"4516397e-56d2-41c8-8e9d-83e89a301840","meta":{"profile":["http://hl7.org/fhir/us/qicore/StructureDefinition/qicore-encounter"]},"status":"finished","class":{"system":"http://terminology.hl7.org/CodeSystem/v3-ActCode","code":"IMP","display":"inpatient encounter"},"type":[{"coding":[{"system":"http://snomed.info/sct","code":"8715000"}]}],"subject":{"reference":"Patient/e35371bf-1c00-4581-b217-4f98f1d779ec"},"period":{"start":"2026-12-04T08:00:00.000+00:00","end":"2026-12-30T08:15:00.000+00:00"},"length":{"value":26.0,"unit":"days"},"location":[{"location":{"reference":"Location/e285d2e9-e3ba-4ef2-a67c-8d608894ce05"},"period":{"start":"2026-12-26T08:00:00.000+00:00","end":"2026-12-28T08:15:00.000+00:00"}}]},"request":{"method":"PUT","url":"Encounter/4516397e-56d2-41c8-8e9d-83e89a301840"}},{"fullUrl":"https://madie.cms.gov/ServiceRequest/eec19269-9e77-42ef-9e2f-a1e4b25902d4","resource":{"resourceType":"ServiceRequest","id":"eec19269-9e77-42ef-9e2f-a1e4b25902d4","meta":{"profile":["http://hl7.org/fhir/us/qicore/StructureDefinition/qicore-servicerequest"]},"status":"completed","intent":"order","code":{"coding":[{"system":"http://snomed.info/sct","code":"133918004"}]},"subject":{"reference":"Patient/e35371bf-1c00-4581-b217-4f98f1d779ec"},"authoredOn":"2026-12-04T06:00:00.000+00:00"},"request":{"method":"PUT","url":"ServiceRequest/eec19269-9e77-42ef-9e2f-a1e4b25902d4"}},{"fullUrl":"https://madie.cms.gov/Coverage/401dcf2d-e13c-4819-ba09-ade8b78c24b3","resource":{"resourceType":"Coverage","id":"401dcf2d-e13c-4819-ba09-ade8b78c24b3","status":"active","beneficiary":{"reference":"Patient/e35371bf-1c00-4581-b217-4f98f1d779ec"},"period":{"start":"1975-03-03T08:00:00.000+00:00"},"payor":[{"reference":"Organization/d387c23b-a59f-455a-b703-bce313035005"}]},"request":{"method":"PUT","url":"Coverage/401dcf2d-e13c-4819-ba09-ade8b78c24b3"}},{"fullUrl":"https://madie.cms.gov/Location/e285d2e9-e3ba-4ef2-a67c-8d608894ce05","resource":{"resourceType":"Location","id":"e285d2e9-e3ba-4ef2-a67c-8d608894ce05","meta":{"profile":["http://hl7.org/fhir/us/qicore/StructureDefinition/qicore-location"]},"identifier":[{"use":"usual","system":"http://exampleoflocation.com","value":"B1-S.F2"}],"name":"Medical Surgical East, first floor","type":[{"coding":[{"system":"https://www.cdc.gov/nhsn/cdaportal/terminology/codesystem/hsloc.html","code":"1025-6","display":"Trauma Critical Care","userSelected":true}]}]},"request":{"method":"PUT","url":"Location/e285d2e9-e3ba-4ef2-a67c-8d608894ce05"}},{"fullUrl":"https://madie.cms.gov/Organization/d387c23b-a59f-455a-b703-bce313035005","resource":{"resourceType":"Organization","id":"d387c23b-a59f-455a-b703-bce313035005","meta":{"profile":["http://hl7.org/fhir/us/qicore/StructureDefinition/qicore-organization"]},"identifier":[{"use":"temp","system":"urn:oid:2.16.840.1.113883.4.4","value":"21-3259825"}],"active":true,"type":[{"coding":[{"system":"http://terminology.hl7.org/CodeSystem/organization-type","code":"pay","display":"Payer"}]}],"name":"Blue Cross Blue Shield of Texas","telecom":[{"system":"phone","value":"(+1) 972-766-6900"}],"address":[{"use":"billing","type":"postal","line":["P.O. Box 660044"],"city":"Dallas","state":"TX","postalCode":"75266-0044","country":"USA"}]},"request":{"method":"PUT","url":"Organization/d387c23b-a59f-455a-b703-bce313035005"}},{"fullUrl":"https://madie.cms.gov/Practitioner/179ffbf0-d817-4b65-88bf-bb2971ea9055","resource":{"resourceType":"Practitioner","id":"179ffbf0-d817-4b65-88bf-bb2971ea9055","identifier":[{"system":"http://hl7.org/fhir/sid/us-npi","value":"123456"}],"name":[{"family":"Evil","prefix":["Dr"]}]},"request":{"method":"PUT","url":"Practitioner/179ffbf0-d817-4b65-88bf-bb2971ea9055"}},{"fullUrl":"https://madie.cms.gov/MeasureReport/76052754-2079-454c-9199-1a265303fcac","resource":{"resourceType":"MeasureReport","id":"76052754-2079-454c-9199-1a265303fcac","meta":{"profile":["http://hl7.org/fhir/us/cqfmeasures/StructureDefinition/test-case-cqfm"]},"contained":[{"resourceType":"Parameters","id":"0d229475-1075-4e93-bfb7-5ad19479ad1e-parameters","parameter":[{"name":"subject","valueString":"e35371bf-1c00-4581-b217-4f98f1d779ec"}]}],"extension":[{"url":"http://hl7.org/fhir/StructureDefinition/cqf-inputParameters","valueReference":{"reference":"#0d229475-1075-4e93-bfb7-5ad19479ad1e-parameters"}},{"url":"http://hl7.org/fhir/us/cqfmeasures/StructureDefinition/cqfm-testCaseDescription","valueMarkdown":"meets IPP and Denominator and DenExcl, inpatient visit starts <=1 hour after the end of Observation AND Comfort Measures are ordered during Obs\n"}],"modifierExtension":[{"url":"http://hl7.org/fhir/us/cqfmeasures/StructureDefinition/cqfm-isTestCase","valueBoolean":true}],"status":"complete","type":"individual","measure":"https://madie.cms.gov/Measure/CMS190VTEProphylaxisICUFHIR","period":{"start":"2026-01-01","end":"2026-12-31"},"group":[{"id":"Group_1","population":[{"id":"InitialPopulation_1","code":{"coding":[{"system":"http://terminology.hl7.org/CodeSystem/measure-population","code":"initial-population","display":"Initial Population"}]},"count":1},{"id":"Denominator_1","code":{"coding":[{"system":"http://terminology.hl7.org/CodeSystem/measure-population","code":"denominator","display":"Denominator"}]},"count":1},{"id":"DenominatorExclusion_1","code":{"coding":[{"system":"http://terminology.hl7.org/CodeSystem/measure-population","code":"denominator-exclusion","display":"Denominator Exclusion"}]},"count":1},{"id":"Numerator_1","code":{"coding":[{"system":"http://terminology.hl7.org/CodeSystem/measure-population","code":"numerator","display":"Numerator"}]},"count":0},{"id":"DenominatorException_1","code":{"coding":[{"system":"http://terminology.hl7.org/CodeSystem/measure-population","code":"denominator-exception","display":"Denominator Exception"}]},"count":0}],"measureScore":{"value":0.0}}],"evaluatedResource":[{"reference":"Patient/e35371bf-1c00-4581-b217-4f98f1d779ec"},{"reference":"Encounter/158c496b-a5b8-42f4-8ead-06fcdeedb9f5"},{"reference":"Encounter/be0798e8-e9ec-4457-b7c7-a066ab4ab612"},{"reference":"Encounter/4516397e-56d2-41c8-8e9d-83e89a301840"},{"reference":"ServiceRequest/eec19269-9e77-42ef-9e2f-a1e4b25902d4"},{"reference":"Coverage/401dcf2d-e13c-4819-ba09-ade8b78c24b3"},{"reference":"Location/e285d2e9-e3ba-4ef2-a67c-8d608894ce05"},{"reference":"Organization/d387c23b-a59f-455a-b703-bce313035005"},{"reference":"Practitioner/179ffbf0-d817-4b65-88bf-bb2971ea9055"}]},"request":{"method":"PUT","url":"MeasureReport/76052754-2079-454c-9199-1a265303fcac"}}]},"request":{"method":"PUT","url":"Bundle/612e6f6802c62a011f2f1b7a"}},{"resource":{"resourceType":"Coverage","id":"401dcf2d-e13c-4819-ba09-ade8b78c24b3","status":"active","beneficiary":{"reference":"Patient/e35371bf-1c00-4581-b217-4f98f1d779ec"},"period":{"start":"1975-03-03T08:00:00.000+00:00"},"payor":[{"reference":"Organization/d387c23b-a59f-455a-b703-bce313035005"}]},"request":{"method":"PUT","url":"Coverage/401dcf2d-e13c-4819-ba09-ade8b78c24b3"}},{"resource":{"resourceType":"MeasureReport","id":"76052754-2079-454c-9199-1a265303fcac","meta":{"profile":["http://hl7.org/fhir/us/cqfmeasures/StructureDefinition/test-case-cqfm"]},"contained":[{"resourceType":"Parameters","id":"0d229475-1075-4e93-bfb7-5ad19479ad1e-parameters","parameter":[{"name":"subject","valueString":"e35371bf-1c00-4581-b217-4f98f1d779ec"}]}],"extension":[{"url":"http://hl7.org/fhir/StructureDefinition/cqf-inputParameters","valueReference":{"reference":"#0d229475-1075-4e93-bfb7-5ad19479ad1e-parameters"}},{"url":"http://hl7.org/fhir/us/cqfmeasures/StructureDefinition/cqfm-testCaseDescription","valueMarkdown":"meets IPP and Denominator and DenExcl, inpatient visit starts <=1 hour after the end of Observation AND Comfort Measures are ordered during Obs\n"}],"modifierExtension":[{"url":"http://hl7.org/fhir/us/cqfmeasures/StructureDefinition/cqfm-isTestCase","valueBoolean":true}],"status":"complete","type":"individual","measure":"https://madie.cms.gov/Measure/CMS190VTEProphylaxisICUFHIR","period":{"start":"2026-01-01","end":"2026-12-31"},"group":[{"id":"Group_1","population":[{"id":"InitialPopulation_1","code":{"coding":[{"system":"http://terminology.hl7.org/CodeSystem/measure-population","code":"initial-population","display":"Initial Population"}]},"count":1},{"id":"Denominator_1","code":{"coding":[{"system":"http://terminology.hl7.org/CodeSystem/measure-population","code":"denominator","display":"Denominator"}]},"count":1},{"id":"DenominatorExclusion_1","code":{"coding":[{"system":"http://terminology.hl7.org/CodeSystem/measure-population","code":"denominator-exclusion","display":"Denominator Exclusion"}]},"count":1},{"id":"Numerator_1","code":{"coding":[{"system":"http://terminology.hl7.org/CodeSystem/measure-population","code":"numerator","display":"Numerator"}]},"count":0},{"id":"DenominatorException_1","code":{"coding":[{"system":"http://terminology.hl7.org/CodeSystem/measure-population","code":"denominator-exception","display":"Denominator Exception"}]},"count":0}],"measureScore":{"value":0.0}}],"evaluatedResource":[{"reference":"Patient/e35371bf-1c00-4581-b217-4f98f1d779ec"},{"reference":"Encounter/158c496b-a5b8-42f4-8ead-06fcdeedb9f5"},{"reference":"Encounter/be0798e8-e9ec-4457-b7c7-a066ab4ab612"},{"reference":"Encounter/4516397e-56d2-41c8-8e9d-83e89a301840"},{"reference":"ServiceRequest/eec19269-9e77-42ef-9e2f-a1e4b25902d4"},{"reference":"Coverage/401dcf2d-e13c-4819-ba09-ade8b78c24b3"},{"reference":"Location/e285d2e9-e3ba-4ef2-a67c-8d608894ce05"},{"reference":"Organization/d387c23b-a59f-455a-b703-bce313035005"},{"reference":"Practitioner/179ffbf0-d817-4b65-88bf-bb2971ea9055"}]},"request":{"method":"PUT","url":"MeasureReport/76052754-2079-454c-9199-1a265303fcac"}}]}