{"resourceType":"Bundle","id":"tests-d8271c75-5d30-4a02-9584-1572b0570843-bundle","type":"transaction","entry":[{"resource":{"resourceType":"Encounter","id":"47294e1b-87b6-4430-9411-8c06b66132e2","meta":{"profile":["http://hl7.org/fhir/us/qicore/StructureDefinition/qicore-encounter"]},"status":"finished","class":{"system":"http://terminology.hl7.org/CodeSystem/v3-ActCode","code":"IMP","display":"inpatient encounter"},"type":[{"coding":[{"system":"http://snomed.info/sct","code":"8715000"}]}],"subject":{"reference":"Patient/d8271c75-5d30-4a02-9584-1572b0570843"},"period":{"start":"2026-12-04T08:00:00+00:00","end":"2026-12-30T08:15:00.000+00:00"},"length":{"value":26,"unit":"days"},"location":[{"location":{"reference":"Location/eac5d898-a67c-4034-88d8-430edece0e9a"},"period":{"start":"2026-12-06T05:00:00+00:00","end":"2026-12-28T08:15:00.000+00:00"}}]},"request":{"method":"PUT","url":"Encounter/47294e1b-87b6-4430-9411-8c06b66132e2"}},{"resource":{"resourceType":"Procedure","id":"8e12e3c2-1f0a-411d-a77a-e555204bbfc1","meta":{"profile":["http://hl7.org/fhir/us/qicore/StructureDefinition/qicore-procedure"]},"extension":[{"url":"http://hl7.org/fhir/us/qicore/StructureDefinition/qicore-recorded","valueDateTime":"2013-12-04T13:35:00+00:00"}],"status":"completed","code":{"coding":[{"system":"http://www.cms.gov/Medicare/Coding/ICD10","code":"0T9400Z"}]},"subject":{"reference":"Patient/d8271c75-5d30-4a02-9584-1572b0570843"},"performedPeriod":{"start":"2026-12-06T07:00:00+00:00","end":"2026-12-06T13:00:00.000+00:00"}},"request":{"method":"PUT","url":"Procedure/8e12e3c2-1f0a-411d-a77a-e555204bbfc1"}},{"resource":{"resourceType":"Location","id":"eac5d898-a67c-4034-88d8-430edece0e9a","meta":{"profile":["http://hl7.org/fhir/us/qicore/StructureDefinition/qicore-location"]},"identifier":[{"use":"usual","system":"http://exampleoflocation.com","value":"B1-S.F2"}],"name":"Medical Surgical East, first floor","type":[{"coding":[{"system":"https://www.cdc.gov/nhsn/cdaportal/terminology/codesystem/hsloc.html","code":"1025-6","display":"Trauma Critical Care","userSelected":true}]}]},"request":{"method":"PUT","url":"Location/eac5d898-a67c-4034-88d8-430edece0e9a"}},{"resource":{"resourceType":"MeasureReport","id":"042eab54-8d0c-45dd-a57f-3bb7e0a627a2","meta":{"profile":["http://hl7.org/fhir/us/cqfmeasures/StructureDefinition/test-case-cqfm"]},"contained":[{"resourceType":"Parameters","id":"05f808ca-c176-43e5-8c63-b9ff67302f19-parameters","parameter":[{"name":"subject","valueString":"d8271c75-5d30-4a02-9584-1572b0570843"}]}],"extension":[{"url":"http://hl7.org/fhir/StructureDefinition/cqf-inputParameters","valueReference":{"reference":"#05f808ca-c176-43e5-8c63-b9ff67302f19-parameters"}},{"url":"http://hl7.org/fhir/us/cqfmeasures/StructureDefinition/cqfm-testCaseDescription","valueMarkdown":"UrologicalSurgery on same day of ICUStart\n"}],"modifierExtension":[{"url":"http://hl7.org/fhir/us/cqfmeasures/StructureDefinition/cqfm-isTestCase","valueBoolean":true}],"status":"complete","type":"individual","measure":"https://madie.cms.gov/Measure/CMS190VTEProphylaxisICUFHIR","period":{"start":"2026-01-01","end":"2026-12-31"},"group":[{"id":"Group_1","population":[{"id":"InitialPopulation_1","code":{"coding":[{"system":"http://terminology.hl7.org/CodeSystem/measure-population","code":"initial-population","display":"Initial Population"}]},"count":1},{"id":"Denominator_1","code":{"coding":[{"system":"http://terminology.hl7.org/CodeSystem/measure-population","code":"denominator","display":"Denominator"}]},"count":1},{"id":"DenominatorExclusion_1","code":{"coding":[{"system":"http://terminology.hl7.org/CodeSystem/measure-population","code":"denominator-exclusion","display":"Denominator Exclusion"}]},"count":1},{"id":"Numerator_1","code":{"coding":[{"system":"http://terminology.hl7.org/CodeSystem/measure-population","code":"numerator","display":"Numerator"}]},"count":0},{"id":"DenominatorException_1","code":{"coding":[{"system":"http://terminology.hl7.org/CodeSystem/measure-population","code":"denominator-exception","display":"Denominator Exception"}]},"count":0}],"measureScore":{"value":0.0}}],"evaluatedResource":[{"reference":"Patient/d8271c75-5d30-4a02-9584-1572b0570843"},{"reference":"Encounter/47294e1b-87b6-4430-9411-8c06b66132e2"},{"reference":"Claim/5ca62962b8484628b8de1ec5"},{"reference":"Coverage/1ecd4af7-b3a3-4690-84a6-452fa5706cb7"},{"reference":"Procedure/8e12e3c2-1f0a-411d-a77a-e555204bbfc1"},{"reference":"Location/eac5d898-a67c-4034-88d8-430edece0e9a"},{"reference":"Organization/da4e8f1b-05fc-42aa-bf8e-2e070ddbf5c9"},{"reference":"Practitioner/23ddb094-e854-414a-9feb-0fe0d683cd89"}]},"request":{"method":"PUT","url":"MeasureReport/042eab54-8d0c-45dd-a57f-3bb7e0a627a2"}},{"resource":{"resourceType":"Patient","id":"d8271c75-5d30-4a02-9584-1572b0570843","meta":{"profile":["http://hl7.org/fhir/us/qicore/StructureDefinition/qicore-patient"]},"text":{"status":"generated","div":"<div xmlns=\"http://www.w3.org/1999/xhtml\"><div class=\"hapiHeaderText\">UrologicalSurgeryDayOfICUStart <b>DENEXPASS </b></div><table class=\"hapiPropertyTable\"><tbody><tr><td>Identifier</td><td>9214f043f436048cfea186089d4ffb3f1663d62344799d81208efc969b033c47</td></tr><tr><td>Date of birth</td><td><span>03 March 1974</span></td></tr></tbody></table></div>"},"extension":[{"url":"http://hl7.org/fhir/us/core/StructureDefinition/us-core-race","extension":[{"url":"ombCategory","valueCoding":{"system":"urn:oid:2.16.840.1.113883.6.238","code":"1002-5","display":"American Indian or Alaska Native","userSelected":true}},{"url":"text","valueString":"American Indian or Alaska Native"}]},{"url":"http://hl7.org/fhir/us/core/StructureDefinition/us-core-ethnicity","extension":[{"url":"ombCategory","valueCoding":{"system":"urn:oid:2.16.840.1.113883.6.238","code":"2135-2","display":"Hispanic or Latino","userSelected":true}},{"url":"text","valueString":"Hispanic or Latino"}]}],"identifier":[{"type":{"coding":[{"system":"http://terminology.hl7.org/CodeSystem/v2-0203","code":"MR"}]},"system":"https://bonnie-fhir.healthit.gov/","value":"612e6f6202c62a011f2f1a06"}],"active":true,"name":[{"use":"usual","family":"DENEXPass","given":["UrologicalSurgeryDayOfICUStart"]}],"gender":"male","birthDate":"1975-03-03"},"request":{"method":"PUT","url":"Patient/d8271c75-5d30-4a02-9584-1572b0570843"}},{"resource":{"resourceType":"Coverage","id":"1ecd4af7-b3a3-4690-84a6-452fa5706cb7","status":"active","beneficiary":{"reference":"Patient/d8271c75-5d30-4a02-9584-1572b0570843"},"period":{"start":"1975-03-03T08:00:00+00:00"},"payor":[{"reference":"Organization/da4e8f1b-05fc-42aa-bf8e-2e070ddbf5c9"}]},"request":{"method":"PUT","url":"Coverage/1ecd4af7-b3a3-4690-84a6-452fa5706cb7"}},{"resource":{"resourceType":"Bundle","id":"612e6f6202c62a011f2f1a06","type":"transaction","entry":[{"fullUrl":"https://madie.cms.gov/Patient/d8271c75-5d30-4a02-9584-1572b0570843","resource":{"resourceType":"Patient","id":"d8271c75-5d30-4a02-9584-1572b0570843","meta":{"profile":["http://hl7.org/fhir/us/qicore/StructureDefinition/qicore-patient"]},"text":{"status":"generated","div":"<div xmlns=\"http://www.w3.org/1999/xhtml\"><div class=\"hapiHeaderText\">UrologicalSurgeryDayOfICUStart <b>DENEXPASS </b></div><table class=\"hapiPropertyTable\"><tbody><tr><td>Identifier</td><td>9214f043f436048cfea186089d4ffb3f1663d62344799d81208efc969b033c47</td></tr><tr><td>Date of birth</td><td><span>03 March 1974</span></td></tr></tbody></table></div>"},"extension":[{"url":"http://hl7.org/fhir/us/core/StructureDefinition/us-core-race","extension":[{"url":"ombCategory","valueCoding":{"system":"urn:oid:2.16.840.1.113883.6.238","code":"1002-5","display":"American Indian or Alaska Native","userSelected":true}},{"url":"text","valueString":"American Indian or Alaska Native"}]},{"url":"http://hl7.org/fhir/us/core/StructureDefinition/us-core-ethnicity","extension":[{"url":"ombCategory","valueCoding":{"system":"urn:oid:2.16.840.1.113883.6.238","code":"2135-2","display":"Hispanic or Latino","userSelected":true}},{"url":"text","valueString":"Hispanic or Latino"}]}],"identifier":[{"type":{"coding":[{"system":"http://terminology.hl7.org/CodeSystem/v2-0203","code":"MR"}]},"system":"https://bonnie-fhir.healthit.gov/","value":"612e6f6202c62a011f2f1a06"}],"active":true,"name":[{"use":"usual","family":"DENEXPass","given":["UrologicalSurgeryDayOfICUStart"]}],"gender":"male","birthDate":"1975-03-03"},"request":{"method":"PUT","url":"Patient/d8271c75-5d30-4a02-9584-1572b0570843"}},{"fullUrl":"https://madie.cms.gov/Encounter/47294e1b-87b6-4430-9411-8c06b66132e2","resource":{"resourceType":"Encounter","id":"47294e1b-87b6-4430-9411-8c06b66132e2","meta":{"profile":["http://hl7.org/fhir/us/qicore/StructureDefinition/qicore-encounter"]},"status":"finished","class":{"system":"http://terminology.hl7.org/CodeSystem/v3-ActCode","code":"IMP","display":"inpatient encounter"},"type":[{"coding":[{"system":"http://snomed.info/sct","code":"8715000"}]}],"subject":{"reference":"Patient/d8271c75-5d30-4a02-9584-1572b0570843"},"period":{"start":"2026-12-04T08:00:00+00:00","end":"2026-12-30T08:15:00.000+00:00"},"length":{"value":26,"unit":"days"},"location":[{"location":{"reference":"Location/eac5d898-a67c-4034-88d8-430edece0e9a"},"period":{"start":"2026-12-06T05:00:00+00:00","end":"2026-12-28T08:15:00.000+00:00"}}]},"request":{"method":"PUT","url":"Encounter/47294e1b-87b6-4430-9411-8c06b66132e2"}},{"fullUrl":"https://madie.cms.gov/claim/5ca62962b8484628b8de1ec5","resource":{"resourceType":"Claim","id":"5ca62962b8484628b8de1ec5","meta":{"profile":["http://hl7.org/fhir/us/qicore/StructureDefinition/qicore-claim"]},"status":"active","type":{"coding":[{"system":"http://terminology.hl7.org/CodeSystem/claim-type","code":"institutional"}]},"use":"claim","patient":{"reference":"Patient/d8271c75-5d30-4a02-9584-1572b0570843"},"created":"2026-12-01","provider":{"reference":"Practitioner/23ddb094-e854-414a-9feb-0fe0d683cd89"},"priority":{"coding":[{"system":"http://terminology.hl7.org/CodeSystem/processpriority","code":"normal"}]},"procedure":[{"sequence":1,"type":[{"coding":[{"system":"http://terminology.hl7.org/CodeSystem/ex-procedure-type","code":"primary"}]}],"procedureCodeableConcept":{"coding":[{"system":"http://www.cms.gov/Medicare/Coding/ICD10","code":"0T9400Z"}]}}],"insurance":[{"sequence":1,"focal":true,"coverage":{"reference":"Coverage/1ecd4af7-b3a3-4690-84a6-452fa5706cb7"}}],"item":[{"sequence":1,"procedureSequence":[1],"productOrService":{"coding":[{"system":"http://terminology.hl7.org/CodeSystem/ex-USCLS","code":"99555"}]},"encounter":[{"reference":"Encounter/47294e1b-87b6-4430-9411-8c06b66132e2"}]}]},"request":{"method":"PUT","url":"Claim/5ca62962b8484628b8de1ec5"}},{"fullUrl":"https://madie.cms.gov/Coverage/1ecd4af7-b3a3-4690-84a6-452fa5706cb7","resource":{"resourceType":"Coverage","id":"1ecd4af7-b3a3-4690-84a6-452fa5706cb7","status":"active","beneficiary":{"reference":"Patient/d8271c75-5d30-4a02-9584-1572b0570843"},"period":{"start":"1975-03-03T08:00:00+00:00"},"payor":[{"reference":"Organization/da4e8f1b-05fc-42aa-bf8e-2e070ddbf5c9"}]},"request":{"method":"PUT","url":"Coverage/1ecd4af7-b3a3-4690-84a6-452fa5706cb7"}},{"fullUrl":"https://madie.cms.gov/Procedure/8e12e3c2-1f0a-411d-a77a-e555204bbfc1","resource":{"resourceType":"Procedure","id":"8e12e3c2-1f0a-411d-a77a-e555204bbfc1","meta":{"profile":["http://hl7.org/fhir/us/qicore/StructureDefinition/qicore-procedure"]},"extension":[{"url":"http://hl7.org/fhir/us/qicore/StructureDefinition/qicore-recorded","valueDateTime":"2013-12-04T13:35:00+00:00"}],"status":"completed","code":{"coding":[{"system":"http://www.cms.gov/Medicare/Coding/ICD10","code":"0T9400Z"}]},"subject":{"reference":"Patient/d8271c75-5d30-4a02-9584-1572b0570843"},"performedPeriod":{"start":"2026-12-06T07:00:00+00:00","end":"2026-12-06T13:00:00.000+00:00"}},"request":{"method":"PUT","url":"Procedure/8e12e3c2-1f0a-411d-a77a-e555204bbfc1"}},{"fullUrl":"https://madie.cms.gov/Location/eac5d898-a67c-4034-88d8-430edece0e9a","resource":{"resourceType":"Location","id":"eac5d898-a67c-4034-88d8-430edece0e9a","meta":{"profile":["http://hl7.org/fhir/us/qicore/StructureDefinition/qicore-location"]},"identifier":[{"use":"usual","system":"http://exampleoflocation.com","value":"B1-S.F2"}],"name":"Medical Surgical East, first floor","type":[{"coding":[{"system":"https://www.cdc.gov/nhsn/cdaportal/terminology/codesystem/hsloc.html","code":"1025-6","display":"Trauma Critical Care","userSelected":true}]}]},"request":{"method":"PUT","url":"Location/eac5d898-a67c-4034-88d8-430edece0e9a"}},{"fullUrl":"https://madie.cms.gov/Organization/da4e8f1b-05fc-42aa-bf8e-2e070ddbf5c9","resource":{"resourceType":"Organization","id":"da4e8f1b-05fc-42aa-bf8e-2e070ddbf5c9","meta":{"profile":["http://hl7.org/fhir/us/qicore/StructureDefinition/qicore-organization"]},"identifier":[{"use":"temp","system":"urn:oid:2.16.840.1.113883.4.4","value":"21-3259825"}],"active":true,"type":[{"coding":[{"system":"http://terminology.hl7.org/CodeSystem/organization-type","code":"pay","display":"Payer"}]}],"name":"Blue Cross Blue Shield of Texas","telecom":[{"system":"phone","value":"(+1) 972-766-6900"}],"address":[{"use":"billing","type":"postal","line":["P.O. Box 660044"],"city":"Dallas","state":"TX","postalCode":"75266-0044","country":"USA"}]},"request":{"method":"PUT","url":"Organization/da4e8f1b-05fc-42aa-bf8e-2e070ddbf5c9"}},{"fullUrl":"https://madie.cms.gov/Practitioner/23ddb094-e854-414a-9feb-0fe0d683cd89","resource":{"resourceType":"Practitioner","id":"23ddb094-e854-414a-9feb-0fe0d683cd89","identifier":[{"system":"http://hl7.org/fhir/sid/us-npi","value":"123456"}],"name":[{"family":"Evil","prefix":["Dr"]}]},"request":{"method":"PUT","url":"Practitioner/23ddb094-e854-414a-9feb-0fe0d683cd89"}},{"fullUrl":"https://madie.cms.gov/MeasureReport/042eab54-8d0c-45dd-a57f-3bb7e0a627a2","resource":{"resourceType":"MeasureReport","id":"042eab54-8d0c-45dd-a57f-3bb7e0a627a2","meta":{"profile":["http://hl7.org/fhir/us/cqfmeasures/StructureDefinition/test-case-cqfm"]},"contained":[{"resourceType":"Parameters","id":"05f808ca-c176-43e5-8c63-b9ff67302f19-parameters","parameter":[{"name":"subject","valueString":"d8271c75-5d30-4a02-9584-1572b0570843"}]}],"extension":[{"url":"http://hl7.org/fhir/StructureDefinition/cqf-inputParameters","valueReference":{"reference":"#05f808ca-c176-43e5-8c63-b9ff67302f19-parameters"}},{"url":"http://hl7.org/fhir/us/cqfmeasures/StructureDefinition/cqfm-testCaseDescription","valueMarkdown":"UrologicalSurgery on same day of ICUStart\n"}],"modifierExtension":[{"url":"http://hl7.org/fhir/us/cqfmeasures/StructureDefinition/cqfm-isTestCase","valueBoolean":true}],"status":"complete","type":"individual","measure":"https://madie.cms.gov/Measure/CMS190VTEProphylaxisICUFHIR","period":{"start":"2026-01-01","end":"2026-12-31"},"group":[{"id":"Group_1","population":[{"id":"InitialPopulation_1","code":{"coding":[{"system":"http://terminology.hl7.org/CodeSystem/measure-population","code":"initial-population","display":"Initial Population"}]},"count":1},{"id":"Denominator_1","code":{"coding":[{"system":"http://terminology.hl7.org/CodeSystem/measure-population","code":"denominator","display":"Denominator"}]},"count":1},{"id":"DenominatorExclusion_1","code":{"coding":[{"system":"http://terminology.hl7.org/CodeSystem/measure-population","code":"denominator-exclusion","display":"Denominator Exclusion"}]},"count":1},{"id":"Numerator_1","code":{"coding":[{"system":"http://terminology.hl7.org/CodeSystem/measure-population","code":"numerator","display":"Numerator"}]},"count":0},{"id":"DenominatorException_1","code":{"coding":[{"system":"http://terminology.hl7.org/CodeSystem/measure-population","code":"denominator-exception","display":"Denominator Exception"}]},"count":0}],"measureScore":{"value":0.0}}],"evaluatedResource":[{"reference":"Patient/d8271c75-5d30-4a02-9584-1572b0570843"},{"reference":"Encounter/47294e1b-87b6-4430-9411-8c06b66132e2"},{"reference":"Claim/5ca62962b8484628b8de1ec5"},{"reference":"Coverage/1ecd4af7-b3a3-4690-84a6-452fa5706cb7"},{"reference":"Procedure/8e12e3c2-1f0a-411d-a77a-e555204bbfc1"},{"reference":"Location/eac5d898-a67c-4034-88d8-430edece0e9a"},{"reference":"Organization/da4e8f1b-05fc-42aa-bf8e-2e070ddbf5c9"},{"reference":"Practitioner/23ddb094-e854-414a-9feb-0fe0d683cd89"}]},"request":{"method":"PUT","url":"MeasureReport/042eab54-8d0c-45dd-a57f-3bb7e0a627a2"}}]},"request":{"method":"PUT","url":"Bundle/612e6f6202c62a011f2f1a06"}},{"resource":{"resourceType":"Practitioner","id":"23ddb094-e854-414a-9feb-0fe0d683cd89","identifier":[{"system":"http://hl7.org/fhir/sid/us-npi","value":"123456"}],"name":[{"family":"Evil","prefix":["Dr"]}]},"request":{"method":"PUT","url":"Practitioner/23ddb094-e854-414a-9feb-0fe0d683cd89"}},{"resource":{"resourceType":"Organization","id":"da4e8f1b-05fc-42aa-bf8e-2e070ddbf5c9","meta":{"profile":["http://hl7.org/fhir/us/qicore/StructureDefinition/qicore-organization"]},"identifier":[{"use":"temp","system":"urn:oid:2.16.840.1.113883.4.4","value":"21-3259825"}],"active":true,"type":[{"coding":[{"system":"http://terminology.hl7.org/CodeSystem/organization-type","code":"pay","display":"Payer"}]}],"name":"Blue Cross Blue Shield of Texas","telecom":[{"system":"phone","value":"(+1) 972-766-6900"}],"address":[{"use":"billing","type":"postal","line":["P.O. Box 660044"],"city":"Dallas","state":"TX","postalCode":"75266-0044","country":"USA"}]},"request":{"method":"PUT","url":"Organization/da4e8f1b-05fc-42aa-bf8e-2e070ddbf5c9"}},{"resource":{"resourceType":"Claim","id":"5ca62962b8484628b8de1ec5","meta":{"profile":["http://hl7.org/fhir/us/qicore/StructureDefinition/qicore-claim"]},"status":"active","type":{"coding":[{"system":"http://terminology.hl7.org/CodeSystem/claim-type","code":"institutional"}]},"use":"claim","patient":{"reference":"Patient/d8271c75-5d30-4a02-9584-1572b0570843"},"created":"2026-12-01","provider":{"reference":"Practitioner/23ddb094-e854-414a-9feb-0fe0d683cd89"},"priority":{"coding":[{"system":"http://terminology.hl7.org/CodeSystem/processpriority","code":"normal"}]},"procedure":[{"sequence":1,"type":[{"coding":[{"system":"http://terminology.hl7.org/CodeSystem/ex-procedure-type","code":"primary"}]}],"procedureCodeableConcept":{"coding":[{"system":"http://www.cms.gov/Medicare/Coding/ICD10","code":"0T9400Z"}]}}],"insurance":[{"sequence":1,"focal":true,"coverage":{"reference":"Coverage/1ecd4af7-b3a3-4690-84a6-452fa5706cb7"}}],"item":[{"sequence":1,"procedureSequence":[1],"productOrService":{"coding":[{"system":"http://terminology.hl7.org/CodeSystem/ex-USCLS","code":"99555"}]},"encounter":[{"reference":"Encounter/47294e1b-87b6-4430-9411-8c06b66132e2"}]}]},"request":{"method":"PUT","url":"Claim/5ca62962b8484628b8de1ec5"}}]}