{"resourceType":"Bundle","id":"tests-3d5a301e-9a14-41d1-8d09-dda738cc761e-bundle","type":"transaction","entry":[{"resource":{"resourceType":"Practitioner","id":"a2b34710-4356-4278-a4e9-dc32598993d3","identifier":[{"system":"http://hl7.org/fhir/sid/us-npi","value":"123456"}],"name":[{"family":"Evil","prefix":["Dr"]}]},"request":{"method":"PUT","url":"Practitioner/a2b34710-4356-4278-a4e9-dc32598993d3"}},{"resource":{"resourceType":"Condition","id":"1a1cd2b5-f37f-414c-82f0-0eec832adf37","meta":{"profile":["http://hl7.org/fhir/us/qicore/StructureDefinition/qicore-condition-encounter-diagnosis"]},"category":[{"coding":[{"system":"http://terminology.hl7.org/CodeSystem/condition-category","code":"encounter-diagnosis","display":"Encounter Diagnosis"}]}],"code":{"coding":[{"system":"http://snomed.info/sct","code":"1001000119102","display":"Pulmonary embolism with pulmonary infarction (disorder)","userSelected":true}]},"subject":{"reference":"Patient/3d5a301e-9a14-41d1-8d09-dda738cc761e"},"recordedDate":"2026-09-09T08:00:00.000+00:00"},"request":{"method":"PUT","url":"Condition/1a1cd2b5-f37f-414c-82f0-0eec832adf37"}},{"resource":{"resourceType":"Coverage","id":"cccce4c3-cf03-4001-9e31-0ef4b4c72a2d","status":"active","beneficiary":{"reference":"Patient/3d5a301e-9a14-41d1-8d09-dda738cc761e"},"period":{"start":"1975-03-03T08:00:00.000+00:00"},"payor":[{"reference":"Organization/777d87c6-c0ee-4c4f-9a2f-0388ea2fb489"}]},"request":{"method":"PUT","url":"Coverage/cccce4c3-cf03-4001-9e31-0ef4b4c72a2d"}},{"resource":{"resourceType":"MeasureReport","id":"3005b83e-da7e-4703-a04d-b0550f1aec22","meta":{"profile":["http://hl7.org/fhir/us/cqfmeasures/StructureDefinition/test-case-cqfm"]},"contained":[{"resourceType":"Parameters","id":"8df3353a-6179-4f99-936d-7ad47ad1804f-parameters","parameter":[{"name":"subject","valueString":"3d5a301e-9a14-41d1-8d09-dda738cc761e"}]}],"extension":[{"url":"http://hl7.org/fhir/StructureDefinition/cqf-inputParameters","valueReference":{"reference":"#8df3353a-6179-4f99-936d-7ad47ad1804f-parameters"}},{"url":"http://hl7.org/fhir/us/cqfmeasures/StructureDefinition/cqfm-testCaseDescription","valueMarkdown":"Encounter Dx of VTE\n"}],"modifierExtension":[{"url":"http://hl7.org/fhir/us/cqfmeasures/StructureDefinition/cqfm-isTestCase","valueBoolean":true}],"status":"complete","type":"individual","measure":"https://madie.cms.gov/Measure/CMS190VTEProphylaxisICUFHIR","period":{"start":"2026-01-01","end":"2026-12-31"},"group":[{"id":"Group_1","population":[{"id":"InitialPopulation_1","code":{"coding":[{"system":"http://terminology.hl7.org/CodeSystem/measure-population","code":"initial-population","display":"Initial Population"}]},"count":0},{"id":"Denominator_1","code":{"coding":[{"system":"http://terminology.hl7.org/CodeSystem/measure-population","code":"denominator","display":"Denominator"}]},"count":0},{"id":"DenominatorExclusion_1","code":{"coding":[{"system":"http://terminology.hl7.org/CodeSystem/measure-population","code":"denominator-exclusion","display":"Denominator Exclusion"}]},"count":0},{"id":"Numerator_1","code":{"coding":[{"system":"http://terminology.hl7.org/CodeSystem/measure-population","code":"numerator","display":"Numerator"}]},"count":0},{"id":"DenominatorException_1","code":{"coding":[{"system":"http://terminology.hl7.org/CodeSystem/measure-population","code":"denominator-exception","display":"Denominator Exception"}]},"count":0}],"measureScore":{"value":0.0}}],"evaluatedResource":[{"reference":"Patient/3d5a301e-9a14-41d1-8d09-dda738cc761e"},{"reference":"Encounter/48a4851a-63ae-425d-82f2-c3bccc1aeac0"},{"reference":"Coverage/cccce4c3-cf03-4001-9e31-0ef4b4c72a2d"},{"reference":"Condition/1a1cd2b5-f37f-414c-82f0-0eec832adf37"},{"reference":"Location/d5f1f9b8-46cc-44ea-9236-4c8992e59108"},{"reference":"Organization/777d87c6-c0ee-4c4f-9a2f-0388ea2fb489"},{"reference":"Practitioner/a2b34710-4356-4278-a4e9-dc32598993d3"}]},"request":{"method":"PUT","url":"MeasureReport/3005b83e-da7e-4703-a04d-b0550f1aec22"}},{"resource":{"resourceType":"Encounter","id":"48a4851a-63ae-425d-82f2-c3bccc1aeac0","meta":{"profile":["http://hl7.org/fhir/us/qicore/StructureDefinition/qicore-encounter"]},"status":"finished","class":{"system":"http://terminology.hl7.org/CodeSystem/v3-ActCode","code":"IMP","display":"inpatient encounter"},"type":[{"coding":[{"system":"http://snomed.info/sct","code":"8715000"}]}],"subject":{"reference":"Patient/3d5a301e-9a14-41d1-8d09-dda738cc761e"},"period":{"start":"2026-12-04T08:00:00.000+00:00","end":"2026-12-30T08:15:00.000+00:00"},"length":{"value":26,"unit":"days"},"reasonReference":[{"reference":"Condition/1a1cd2b5-f37f-414c-82f0-0eec832adf37"}],"location":[{"location":{"reference":"Location/d5f1f9b8-46cc-44ea-9236-4c8992e59108"},"period":{"start":"2026-12-06T08:00:00.000+00:00","end":"2026-12-08T08:15:00.000+00:00"}}]},"request":{"method":"PUT","url":"Encounter/48a4851a-63ae-425d-82f2-c3bccc1aeac0"}},{"resource":{"resourceType":"Location","id":"d5f1f9b8-46cc-44ea-9236-4c8992e59108","meta":{"profile":["http://hl7.org/fhir/us/qicore/StructureDefinition/qicore-location"]},"identifier":[{"use":"usual","system":"http://exampleoflocation.com","value":"B1-S.F2"}],"name":"Medical Surgical East, first floor","type":[{"coding":[{"system":"https://www.cdc.gov/nhsn/cdaportal/terminology/codesystem/hsloc.html","code":"1025-6","display":"Trauma Critical Care","userSelected":true}]}]},"request":{"method":"PUT","url":"Location/d5f1f9b8-46cc-44ea-9236-4c8992e59108"}},{"resource":{"resourceType":"Organization","id":"777d87c6-c0ee-4c4f-9a2f-0388ea2fb489","meta":{"profile":["http://hl7.org/fhir/us/qicore/StructureDefinition/qicore-organization"]},"identifier":[{"use":"temp","system":"urn:oid:2.16.840.1.113883.4.4","value":"21-3259825"}],"active":true,"type":[{"coding":[{"system":"http://terminology.hl7.org/CodeSystem/organization-type","code":"pay","display":"Payer"}]}],"name":"Blue Cross Blue Shield of Texas","telecom":[{"system":"phone","value":"(+1) 972-766-6900"}],"address":[{"use":"billing","type":"postal","line":["P.O. Box 660044"],"city":"Dallas","state":"TX","postalCode":"75266-0044","country":"USA"}]},"request":{"method":"PUT","url":"Organization/777d87c6-c0ee-4c4f-9a2f-0388ea2fb489"}},{"resource":{"resourceType":"Bundle","id":"612e6f1402c62a011f2f0ad8","type":"transaction","entry":[{"fullUrl":"https://madie.cms.gov/Patient/3d5a301e-9a14-41d1-8d09-dda738cc761e","resource":{"resourceType":"Patient","id":"3d5a301e-9a14-41d1-8d09-dda738cc761e","meta":{"profile":["http://hl7.org/fhir/us/qicore/StructureDefinition/qicore-patient"]},"text":{"status":"generated","div":"<div xmlns=\"http://www.w3.org/1999/xhtml\"><div class=\"hapiHeaderText\">EncDxObstetrics <b>IPFAIL </b></div><table class=\"hapiPropertyTable\"><tbody><tr><td>Identifier</td><td>73dfd43c47660281c0a5408728e85897</td></tr><tr><td>Date of birth</td><td><span>03 March 1974</span></td></tr></tbody></table></div>"},"extension":[{"url":"http://hl7.org/fhir/us/core/StructureDefinition/us-core-race","extension":[{"url":"ombCategory","valueCoding":{"system":"urn:oid:2.16.840.1.113883.6.238","code":"1002-5","display":"American Indian or Alaska Native","userSelected":true}},{"url":"text","valueString":"American Indian or Alaska Native"}]},{"url":"http://hl7.org/fhir/us/core/StructureDefinition/us-core-ethnicity","extension":[{"url":"ombCategory","valueCoding":{"system":"urn:oid:2.16.840.1.113883.6.238","code":"2186-5","display":"Not Hispanic or Latino","userSelected":true}},{"url":"text","valueString":"Not Hispanic or Latino"}]}],"identifier":[{"type":{"coding":[{"system":"http://terminology.hl7.org/CodeSystem/v2-0203","code":"MR"}]},"system":"https://bonnie-fhir.healthit.gov/","value":"612e6f1402c62a011f2f0ad8"}],"active":true,"name":[{"use":"usual","family":"IPFail","given":["EncDxObstetrics"]}],"gender":"female","birthDate":"1975-03-03"},"request":{"method":"PUT","url":"Patient/3d5a301e-9a14-41d1-8d09-dda738cc761e"}},{"fullUrl":"https://madie.cms.gov/Encounter/48a4851a-63ae-425d-82f2-c3bccc1aeac0","resource":{"resourceType":"Encounter","id":"48a4851a-63ae-425d-82f2-c3bccc1aeac0","meta":{"profile":["http://hl7.org/fhir/us/qicore/StructureDefinition/qicore-encounter"]},"status":"finished","class":{"system":"http://terminology.hl7.org/CodeSystem/v3-ActCode","code":"IMP","display":"inpatient encounter"},"type":[{"coding":[{"system":"http://snomed.info/sct","code":"8715000"}]}],"subject":{"reference":"Patient/3d5a301e-9a14-41d1-8d09-dda738cc761e"},"period":{"start":"2026-12-04T08:00:00.000+00:00","end":"2026-12-30T08:15:00.000+00:00"},"length":{"value":26,"unit":"days"},"reasonReference":[{"reference":"Condition/1a1cd2b5-f37f-414c-82f0-0eec832adf37"}],"location":[{"location":{"reference":"Location/d5f1f9b8-46cc-44ea-9236-4c8992e59108"},"period":{"start":"2026-12-06T08:00:00.000+00:00","end":"2026-12-08T08:15:00.000+00:00"}}]},"request":{"method":"PUT","url":"Encounter/48a4851a-63ae-425d-82f2-c3bccc1aeac0"}},{"fullUrl":"https://madie.cms.gov/Coverage/cccce4c3-cf03-4001-9e31-0ef4b4c72a2d","resource":{"resourceType":"Coverage","id":"cccce4c3-cf03-4001-9e31-0ef4b4c72a2d","status":"active","beneficiary":{"reference":"Patient/3d5a301e-9a14-41d1-8d09-dda738cc761e"},"period":{"start":"1975-03-03T08:00:00.000+00:00"},"payor":[{"reference":"Organization/777d87c6-c0ee-4c4f-9a2f-0388ea2fb489"}]},"request":{"method":"PUT","url":"Coverage/cccce4c3-cf03-4001-9e31-0ef4b4c72a2d"}},{"fullUrl":"https://madie.cms.gov/Condition/1a1cd2b5-f37f-414c-82f0-0eec832adf37","resource":{"resourceType":"Condition","id":"1a1cd2b5-f37f-414c-82f0-0eec832adf37","meta":{"profile":["http://hl7.org/fhir/us/qicore/StructureDefinition/qicore-condition-encounter-diagnosis"]},"category":[{"coding":[{"system":"http://terminology.hl7.org/CodeSystem/condition-category","code":"encounter-diagnosis","display":"Encounter Diagnosis"}]}],"code":{"coding":[{"system":"http://snomed.info/sct","code":"1001000119102","display":"Pulmonary embolism with pulmonary infarction (disorder)","userSelected":true}]},"subject":{"reference":"Patient/3d5a301e-9a14-41d1-8d09-dda738cc761e"},"recordedDate":"2026-09-09T08:00:00.000+00:00"},"request":{"method":"PUT","url":"Condition/1a1cd2b5-f37f-414c-82f0-0eec832adf37"}},{"fullUrl":"https://madie.cms.gov/Location/d5f1f9b8-46cc-44ea-9236-4c8992e59108","resource":{"resourceType":"Location","id":"d5f1f9b8-46cc-44ea-9236-4c8992e59108","meta":{"profile":["http://hl7.org/fhir/us/qicore/StructureDefinition/qicore-location"]},"identifier":[{"use":"usual","system":"http://exampleoflocation.com","value":"B1-S.F2"}],"name":"Medical Surgical East, first floor","type":[{"coding":[{"system":"https://www.cdc.gov/nhsn/cdaportal/terminology/codesystem/hsloc.html","code":"1025-6","display":"Trauma Critical Care","userSelected":true}]}]},"request":{"method":"PUT","url":"Location/d5f1f9b8-46cc-44ea-9236-4c8992e59108"}},{"fullUrl":"https://madie.cms.gov/Organization/777d87c6-c0ee-4c4f-9a2f-0388ea2fb489","resource":{"resourceType":"Organization","id":"777d87c6-c0ee-4c4f-9a2f-0388ea2fb489","meta":{"profile":["http://hl7.org/fhir/us/qicore/StructureDefinition/qicore-organization"]},"identifier":[{"use":"temp","system":"urn:oid:2.16.840.1.113883.4.4","value":"21-3259825"}],"active":true,"type":[{"coding":[{"system":"http://terminology.hl7.org/CodeSystem/organization-type","code":"pay","display":"Payer"}]}],"name":"Blue Cross Blue Shield of Texas","telecom":[{"system":"phone","value":"(+1) 972-766-6900"}],"address":[{"use":"billing","type":"postal","line":["P.O. Box 660044"],"city":"Dallas","state":"TX","postalCode":"75266-0044","country":"USA"}]},"request":{"method":"PUT","url":"Organization/777d87c6-c0ee-4c4f-9a2f-0388ea2fb489"}},{"fullUrl":"https://madie.cms.gov/Practitioner/a2b34710-4356-4278-a4e9-dc32598993d3","resource":{"resourceType":"Practitioner","id":"a2b34710-4356-4278-a4e9-dc32598993d3","identifier":[{"system":"http://hl7.org/fhir/sid/us-npi","value":"123456"}],"name":[{"family":"Evil","prefix":["Dr"]}]},"request":{"method":"PUT","url":"Practitioner/a2b34710-4356-4278-a4e9-dc32598993d3"}},{"fullUrl":"https://madie.cms.gov/MeasureReport/3005b83e-da7e-4703-a04d-b0550f1aec22","resource":{"resourceType":"MeasureReport","id":"3005b83e-da7e-4703-a04d-b0550f1aec22","meta":{"profile":["http://hl7.org/fhir/us/cqfmeasures/StructureDefinition/test-case-cqfm"]},"contained":[{"resourceType":"Parameters","id":"8df3353a-6179-4f99-936d-7ad47ad1804f-parameters","parameter":[{"name":"subject","valueString":"3d5a301e-9a14-41d1-8d09-dda738cc761e"}]}],"extension":[{"url":"http://hl7.org/fhir/StructureDefinition/cqf-inputParameters","valueReference":{"reference":"#8df3353a-6179-4f99-936d-7ad47ad1804f-parameters"}},{"url":"http://hl7.org/fhir/us/cqfmeasures/StructureDefinition/cqfm-testCaseDescription","valueMarkdown":"Encounter Dx of VTE\n"}],"modifierExtension":[{"url":"http://hl7.org/fhir/us/cqfmeasures/StructureDefinition/cqfm-isTestCase","valueBoolean":true}],"status":"complete","type":"individual","measure":"https://madie.cms.gov/Measure/CMS190VTEProphylaxisICUFHIR","period":{"start":"2026-01-01","end":"2026-12-31"},"group":[{"id":"Group_1","population":[{"id":"InitialPopulation_1","code":{"coding":[{"system":"http://terminology.hl7.org/CodeSystem/measure-population","code":"initial-population","display":"Initial Population"}]},"count":0},{"id":"Denominator_1","code":{"coding":[{"system":"http://terminology.hl7.org/CodeSystem/measure-population","code":"denominator","display":"Denominator"}]},"count":0},{"id":"DenominatorExclusion_1","code":{"coding":[{"system":"http://terminology.hl7.org/CodeSystem/measure-population","code":"denominator-exclusion","display":"Denominator Exclusion"}]},"count":0},{"id":"Numerator_1","code":{"coding":[{"system":"http://terminology.hl7.org/CodeSystem/measure-population","code":"numerator","display":"Numerator"}]},"count":0},{"id":"DenominatorException_1","code":{"coding":[{"system":"http://terminology.hl7.org/CodeSystem/measure-population","code":"denominator-exception","display":"Denominator Exception"}]},"count":0}],"measureScore":{"value":0.0}}],"evaluatedResource":[{"reference":"Patient/3d5a301e-9a14-41d1-8d09-dda738cc761e"},{"reference":"Encounter/48a4851a-63ae-425d-82f2-c3bccc1aeac0"},{"reference":"Coverage/cccce4c3-cf03-4001-9e31-0ef4b4c72a2d"},{"reference":"Condition/1a1cd2b5-f37f-414c-82f0-0eec832adf37"},{"reference":"Location/d5f1f9b8-46cc-44ea-9236-4c8992e59108"},{"reference":"Organization/777d87c6-c0ee-4c4f-9a2f-0388ea2fb489"},{"reference":"Practitioner/a2b34710-4356-4278-a4e9-dc32598993d3"}]},"request":{"method":"PUT","url":"MeasureReport/3005b83e-da7e-4703-a04d-b0550f1aec22"}}]},"request":{"method":"PUT","url":"Bundle/612e6f1402c62a011f2f0ad8"}},{"resource":{"resourceType":"Patient","id":"3d5a301e-9a14-41d1-8d09-dda738cc761e","meta":{"profile":["http://hl7.org/fhir/us/qicore/StructureDefinition/qicore-patient"]},"text":{"status":"generated","div":"<div xmlns=\"http://www.w3.org/1999/xhtml\"><div class=\"hapiHeaderText\">EncDxObstetrics <b>IPFAIL </b></div><table class=\"hapiPropertyTable\"><tbody><tr><td>Identifier</td><td>73dfd43c47660281c0a5408728e85897</td></tr><tr><td>Date of birth</td><td><span>03 March 1974</span></td></tr></tbody></table></div>"},"extension":[{"url":"http://hl7.org/fhir/us/core/StructureDefinition/us-core-race","extension":[{"url":"ombCategory","valueCoding":{"system":"urn:oid:2.16.840.1.113883.6.238","code":"1002-5","display":"American Indian or Alaska Native","userSelected":true}},{"url":"text","valueString":"American Indian or Alaska Native"}]},{"url":"http://hl7.org/fhir/us/core/StructureDefinition/us-core-ethnicity","extension":[{"url":"ombCategory","valueCoding":{"system":"urn:oid:2.16.840.1.113883.6.238","code":"2186-5","display":"Not Hispanic or Latino","userSelected":true}},{"url":"text","valueString":"Not Hispanic or Latino"}]}],"identifier":[{"type":{"coding":[{"system":"http://terminology.hl7.org/CodeSystem/v2-0203","code":"MR"}]},"system":"https://bonnie-fhir.healthit.gov/","value":"612e6f1402c62a011f2f0ad8"}],"active":true,"name":[{"use":"usual","family":"IPFail","given":["EncDxObstetrics"]}],"gender":"female","birthDate":"1975-03-03"},"request":{"method":"PUT","url":"Patient/3d5a301e-9a14-41d1-8d09-dda738cc761e"}}]}