{"resourceType":"Bundle","id":"tests-39215b49-af59-45a7-a773-65e8353dfafd-bundle","type":"transaction","entry":[{"resource":{"resourceType":"Encounter","id":"3b613582-95bd-4251-9d87-fc2139a2083b","meta":{"profile":["http://hl7.org/fhir/us/qicore/StructureDefinition/qicore-encounter"]},"status":"finished","class":{"system":"http://terminology.hl7.org/CodeSystem/v3-ActCode","code":"IMP","display":"inpatient encounter"},"type":[{"coding":[{"system":"http://snomed.info/sct","code":"8715000"}]}],"subject":{"reference":"Patient/39215b49-af59-45a7-a773-65e8353dfafd"},"period":{"start":"2026-12-04T08:00:00+00:00","end":"2026-12-30T08:15:00.000+00:00"},"length":{"value":26,"unit":"days"},"reasonReference":[{"reference":"Condition/fb8b25cd-7425-4a80-bdc0-ddd25aba0b48"}],"location":[{"location":{"reference":"Location/32ae4e99-3c81-48ac-8193-8504631cca6c"},"period":{"start":"2026-12-06T08:00:00+00:00","end":"2026-12-08T08:15:00.000+00:00"}}]},"request":{"method":"PUT","url":"Encounter/3b613582-95bd-4251-9d87-fc2139a2083b"}},{"resource":{"resourceType":"Coverage","id":"5fdcde64-73fd-45ef-97bd-ec207d4a3468","status":"active","beneficiary":{"reference":"Patient/39215b49-af59-45a7-a773-65e8353dfafd"},"period":{"start":"1975-03-03T08:00:00+00:00"},"payor":[{"reference":"Organization/b153fda2-52ee-4438-aac8-6426a4886ad7"}]},"request":{"method":"PUT","url":"Coverage/5fdcde64-73fd-45ef-97bd-ec207d4a3468"}},{"resource":{"resourceType":"Organization","id":"b153fda2-52ee-4438-aac8-6426a4886ad7","meta":{"profile":["http://hl7.org/fhir/us/qicore/StructureDefinition/qicore-organization"]},"identifier":[{"use":"temp","system":"urn:oid:2.16.840.1.113883.4.4","value":"21-3259825"}],"active":true,"type":[{"coding":[{"system":"http://terminology.hl7.org/CodeSystem/organization-type","code":"pay","display":"Payer"}]}],"name":"Blue Cross Blue Shield of Texas","telecom":[{"system":"phone","value":"(+1) 972-766-6900"}],"address":[{"use":"billing","type":"postal","line":["P.O. Box 660044"],"city":"Dallas","state":"TX","postalCode":"75266-0044","country":"USA"}]},"request":{"method":"PUT","url":"Organization/b153fda2-52ee-4438-aac8-6426a4886ad7"}},{"resource":{"resourceType":"Patient","id":"39215b49-af59-45a7-a773-65e8353dfafd","meta":{"profile":["http://hl7.org/fhir/us/qicore/StructureDefinition/qicore-patient"]},"text":{"status":"generated","div":"<div xmlns=\"http://www.w3.org/1999/xhtml\"><div class=\"hapiHeaderText\">EncPrinDxObstetrics <b>IPFAIL </b></div><table class=\"hapiPropertyTable\"><tbody><tr><td>Identifier</td><td>73dfd43c47660281c0a5408728e85897</td></tr><tr><td>Date of birth</td><td><span>03 March 1974</span></td></tr></tbody></table></div>"},"extension":[{"url":"http://hl7.org/fhir/us/core/StructureDefinition/us-core-race","extension":[{"url":"ombCategory","valueCoding":{"system":"urn:oid:2.16.840.1.113883.6.238","code":"1002-5","display":"American Indian or Alaska Native","userSelected":true}},{"url":"text","valueString":"American Indian or Alaska Native"}]},{"url":"http://hl7.org/fhir/us/core/StructureDefinition/us-core-ethnicity","extension":[{"url":"ombCategory","valueCoding":{"system":"urn:oid:2.16.840.1.113883.6.238","code":"2186-5","display":"Not Hispanic or Latino","userSelected":true}},{"url":"text","valueString":"Not Hispanic or Latino"}]}],"identifier":[{"type":{"coding":[{"system":"http://terminology.hl7.org/CodeSystem/v2-0203","code":"MR"}]},"system":"https://bonnie-fhir.healthit.gov/","value":"712e6f1402c62a011f2f0ad9"}],"active":true,"name":[{"use":"usual","family":"IPFail","given":["EncPrinDxObstetrics"]}],"gender":"female","birthDate":"1975-03-03"},"request":{"method":"PUT","url":"Patient/39215b49-af59-45a7-a773-65e8353dfafd"}},{"resource":{"resourceType":"Location","id":"32ae4e99-3c81-48ac-8193-8504631cca6c","meta":{"profile":["http://hl7.org/fhir/us/qicore/StructureDefinition/qicore-location"]},"identifier":[{"use":"usual","system":"http://exampleoflocation.com","value":"B1-S.F2"}],"name":"Medical Surgical East, first floor","type":[{"coding":[{"system":"https://www.cdc.gov/nhsn/cdaportal/terminology/codesystem/hsloc.html","code":"1025-6","display":"Trauma Critical Care","userSelected":true}]}]},"request":{"method":"PUT","url":"Location/32ae4e99-3c81-48ac-8193-8504631cca6c"}},{"resource":{"resourceType":"Bundle","id":"712e6f1402c62a011f2f0ad9","type":"transaction","entry":[{"fullUrl":"https://madie.cms.gov/Patient/39215b49-af59-45a7-a773-65e8353dfafd","resource":{"resourceType":"Patient","id":"39215b49-af59-45a7-a773-65e8353dfafd","meta":{"profile":["http://hl7.org/fhir/us/qicore/StructureDefinition/qicore-patient"]},"text":{"status":"generated","div":"<div xmlns=\"http://www.w3.org/1999/xhtml\"><div class=\"hapiHeaderText\">EncPrinDxObstetrics <b>IPFAIL </b></div><table class=\"hapiPropertyTable\"><tbody><tr><td>Identifier</td><td>73dfd43c47660281c0a5408728e85897</td></tr><tr><td>Date of birth</td><td><span>03 March 1974</span></td></tr></tbody></table></div>"},"extension":[{"url":"http://hl7.org/fhir/us/core/StructureDefinition/us-core-race","extension":[{"url":"ombCategory","valueCoding":{"system":"urn:oid:2.16.840.1.113883.6.238","code":"1002-5","display":"American Indian or Alaska Native","userSelected":true}},{"url":"text","valueString":"American Indian or Alaska Native"}]},{"url":"http://hl7.org/fhir/us/core/StructureDefinition/us-core-ethnicity","extension":[{"url":"ombCategory","valueCoding":{"system":"urn:oid:2.16.840.1.113883.6.238","code":"2186-5","display":"Not Hispanic or Latino","userSelected":true}},{"url":"text","valueString":"Not Hispanic or Latino"}]}],"identifier":[{"type":{"coding":[{"system":"http://terminology.hl7.org/CodeSystem/v2-0203","code":"MR"}]},"system":"https://bonnie-fhir.healthit.gov/","value":"712e6f1402c62a011f2f0ad9"}],"active":true,"name":[{"use":"usual","family":"IPFail","given":["EncPrinDxObstetrics"]}],"gender":"female","birthDate":"1975-03-03"},"request":{"method":"PUT","url":"Patient/39215b49-af59-45a7-a773-65e8353dfafd"}},{"fullUrl":"https://madie.cms.gov/Encounter/3b613582-95bd-4251-9d87-fc2139a2083b","resource":{"resourceType":"Encounter","id":"3b613582-95bd-4251-9d87-fc2139a2083b","meta":{"profile":["http://hl7.org/fhir/us/qicore/StructureDefinition/qicore-encounter"]},"status":"finished","class":{"system":"http://terminology.hl7.org/CodeSystem/v3-ActCode","code":"IMP","display":"inpatient encounter"},"type":[{"coding":[{"system":"http://snomed.info/sct","code":"8715000"}]}],"subject":{"reference":"Patient/39215b49-af59-45a7-a773-65e8353dfafd"},"period":{"start":"2026-12-04T08:00:00+00:00","end":"2026-12-30T08:15:00.000+00:00"},"length":{"value":26,"unit":"days"},"reasonReference":[{"reference":"Condition/fb8b25cd-7425-4a80-bdc0-ddd25aba0b48"}],"location":[{"location":{"reference":"Location/32ae4e99-3c81-48ac-8193-8504631cca6c"},"period":{"start":"2026-12-06T08:00:00+00:00","end":"2026-12-08T08:15:00.000+00:00"}}]},"request":{"method":"PUT","url":"Encounter/3b613582-95bd-4251-9d87-fc2139a2083b"}},{"fullUrl":"https://madie.cms.gov/claim/5ca62962b8484628b8de1ec5","resource":{"resourceType":"Claim","id":"5ca62962b8484628b8de1ec5","meta":{"profile":["http://hl7.org/fhir/us/qicore/StructureDefinition/qicore-claim"]},"status":"active","type":{"coding":[{"system":"http://terminology.hl7.org/CodeSystem/claim-type","code":"institutional"}]},"use":"claim","patient":{"reference":"Patient/39215b49-af59-45a7-a773-65e8353dfafd"},"created":"2026-12-01","provider":{"reference":"Practitioner/084872db-2273-43d8-9d01-feaec3cd6e96"},"priority":{"coding":[{"system":"http://terminology.hl7.org/CodeSystem/processpriority","code":"normal"}]},"diagnosis":[{"sequence":1,"diagnosisCodeableConcept":{"coding":[{"system":"http://hl7.org/fhir/sid/icd-10-cm","code":"O99.340"}]},"type":[{"coding":[{"system":"http://terminology.hl7.org/CodeSystem/ex-diagnosistype","code":"principal"}]}]}],"insurance":[{"sequence":1,"focal":true,"coverage":{"reference":"Coverage/5fdcde64-73fd-45ef-97bd-ec207d4a3468"}}],"item":[{"sequence":1,"diagnosisSequence":[1],"productOrService":{"coding":[{"system":"http://terminology.hl7.org/CodeSystem/ex-USCLS","code":"99555"}]},"encounter":[{"reference":"Encounter/3b613582-95bd-4251-9d87-fc2139a2083b"}]}]},"request":{"method":"PUT","url":"Claim/5ca62962b8484628b8de1ec5"}},{"fullUrl":"https://madie.cms.gov/Coverage/5fdcde64-73fd-45ef-97bd-ec207d4a3468","resource":{"resourceType":"Coverage","id":"5fdcde64-73fd-45ef-97bd-ec207d4a3468","status":"active","beneficiary":{"reference":"Patient/39215b49-af59-45a7-a773-65e8353dfafd"},"period":{"start":"1975-03-03T08:00:00+00:00"},"payor":[{"reference":"Organization/b153fda2-52ee-4438-aac8-6426a4886ad7"}]},"request":{"method":"PUT","url":"Coverage/5fdcde64-73fd-45ef-97bd-ec207d4a3468"}},{"fullUrl":"https://madie.cms.gov/Condition/fb8b25cd-7425-4a80-bdc0-ddd25aba0b48","resource":{"resourceType":"Condition","id":"fb8b25cd-7425-4a80-bdc0-ddd25aba0b48","meta":{"profile":["http://hl7.org/fhir/us/qicore/StructureDefinition/qicore-condition-encounter-diagnosis"]},"category":[{"coding":[{"system":"http://terminology.hl7.org/CodeSystem/condition-category","code":"encounter-diagnosis","display":"Encounter Diagnosis"}]}],"code":{"coding":[{"system":"http://hl7.org/fhir/sid/icd-10-cm","code":"O99.340"}]},"subject":{"reference":"Patient/39215b49-af59-45a7-a773-65e8353dfafd"},"recordedDate":"2026-09-09T08:00:00+00:00"},"request":{"method":"PUT","url":"Condition/fb8b25cd-7425-4a80-bdc0-ddd25aba0b48"}},{"fullUrl":"https://madie.cms.gov/Location/32ae4e99-3c81-48ac-8193-8504631cca6c","resource":{"resourceType":"Location","id":"32ae4e99-3c81-48ac-8193-8504631cca6c","meta":{"profile":["http://hl7.org/fhir/us/qicore/StructureDefinition/qicore-location"]},"identifier":[{"use":"usual","system":"http://exampleoflocation.com","value":"B1-S.F2"}],"name":"Medical Surgical East, first floor","type":[{"coding":[{"system":"https://www.cdc.gov/nhsn/cdaportal/terminology/codesystem/hsloc.html","code":"1025-6","display":"Trauma Critical Care","userSelected":true}]}]},"request":{"method":"PUT","url":"Location/32ae4e99-3c81-48ac-8193-8504631cca6c"}},{"fullUrl":"https://madie.cms.gov/Organization/b153fda2-52ee-4438-aac8-6426a4886ad7","resource":{"resourceType":"Organization","id":"b153fda2-52ee-4438-aac8-6426a4886ad7","meta":{"profile":["http://hl7.org/fhir/us/qicore/StructureDefinition/qicore-organization"]},"identifier":[{"use":"temp","system":"urn:oid:2.16.840.1.113883.4.4","value":"21-3259825"}],"active":true,"type":[{"coding":[{"system":"http://terminology.hl7.org/CodeSystem/organization-type","code":"pay","display":"Payer"}]}],"name":"Blue Cross Blue Shield of Texas","telecom":[{"system":"phone","value":"(+1) 972-766-6900"}],"address":[{"use":"billing","type":"postal","line":["P.O. Box 660044"],"city":"Dallas","state":"TX","postalCode":"75266-0044","country":"USA"}]},"request":{"method":"PUT","url":"Organization/b153fda2-52ee-4438-aac8-6426a4886ad7"}},{"fullUrl":"https://madie.cms.gov/Practitioner/084872db-2273-43d8-9d01-feaec3cd6e96","resource":{"resourceType":"Practitioner","id":"084872db-2273-43d8-9d01-feaec3cd6e96","identifier":[{"system":"http://hl7.org/fhir/sid/us-npi","value":"123456"}],"name":[{"family":"Evil","prefix":["Dr"]}]},"request":{"method":"PUT","url":"Practitioner/084872db-2273-43d8-9d01-feaec3cd6e96"}},{"fullUrl":"https://madie.cms.gov/MeasureReport/d6b2a6cb-a2e6-4d25-a093-d41ca78bd67e","resource":{"resourceType":"MeasureReport","id":"d6b2a6cb-a2e6-4d25-a093-d41ca78bd67e","meta":{"profile":["http://hl7.org/fhir/us/cqfmeasures/StructureDefinition/test-case-cqfm"]},"contained":[{"resourceType":"Parameters","id":"fae1fde0-cfa0-4ffd-a2ab-07aae50ea43c-parameters","parameter":[{"name":"subject","valueString":"39215b49-af59-45a7-a773-65e8353dfafd"}]}],"extension":[{"url":"http://hl7.org/fhir/StructureDefinition/cqf-inputParameters","valueReference":{"reference":"#fae1fde0-cfa0-4ffd-a2ab-07aae50ea43c-parameters"}},{"url":"http://hl7.org/fhir/us/cqfmeasures/StructureDefinition/cqfm-testCaseDescription","valueMarkdown":"To test if EncIP PrinDxObstetrics . should be treated as same as Encounter Dx as well\n"}],"modifierExtension":[{"url":"http://hl7.org/fhir/us/cqfmeasures/StructureDefinition/cqfm-isTestCase","valueBoolean":true}],"status":"complete","type":"individual","measure":"https://madie.cms.gov/Measure/CMS190VTEProphylaxisICUFHIR","period":{"start":"2026-01-01","end":"2026-12-31"},"group":[{"id":"Group_1","population":[{"id":"InitialPopulation_1","code":{"coding":[{"system":"http://terminology.hl7.org/CodeSystem/measure-population","code":"initial-population","display":"Initial Population"}]},"count":0},{"id":"Denominator_1","code":{"coding":[{"system":"http://terminology.hl7.org/CodeSystem/measure-population","code":"denominator","display":"Denominator"}]},"count":0},{"id":"DenominatorExclusion_1","code":{"coding":[{"system":"http://terminology.hl7.org/CodeSystem/measure-population","code":"denominator-exclusion","display":"Denominator Exclusion"}]},"count":0},{"id":"Numerator_1","code":{"coding":[{"system":"http://terminology.hl7.org/CodeSystem/measure-population","code":"numerator","display":"Numerator"}]},"count":0},{"id":"DenominatorException_1","code":{"coding":[{"system":"http://terminology.hl7.org/CodeSystem/measure-population","code":"denominator-exception","display":"Denominator Exception"}]},"count":0}],"measureScore":{"value":0.0}}],"evaluatedResource":[{"reference":"Patient/39215b49-af59-45a7-a773-65e8353dfafd"},{"reference":"Encounter/3b613582-95bd-4251-9d87-fc2139a2083b"},{"reference":"Claim/5ca62962b8484628b8de1ec5"},{"reference":"Coverage/5fdcde64-73fd-45ef-97bd-ec207d4a3468"},{"reference":"Condition/fb8b25cd-7425-4a80-bdc0-ddd25aba0b48"},{"reference":"Location/32ae4e99-3c81-48ac-8193-8504631cca6c"},{"reference":"Organization/b153fda2-52ee-4438-aac8-6426a4886ad7"},{"reference":"Practitioner/084872db-2273-43d8-9d01-feaec3cd6e96"}]},"request":{"method":"PUT","url":"MeasureReport/d6b2a6cb-a2e6-4d25-a093-d41ca78bd67e"}}]},"request":{"method":"PUT","url":"Bundle/712e6f1402c62a011f2f0ad9"}},{"resource":{"resourceType":"Practitioner","id":"084872db-2273-43d8-9d01-feaec3cd6e96","identifier":[{"system":"http://hl7.org/fhir/sid/us-npi","value":"123456"}],"name":[{"family":"Evil","prefix":["Dr"]}]},"request":{"method":"PUT","url":"Practitioner/084872db-2273-43d8-9d01-feaec3cd6e96"}},{"resource":{"resourceType":"MeasureReport","id":"d6b2a6cb-a2e6-4d25-a093-d41ca78bd67e","meta":{"profile":["http://hl7.org/fhir/us/cqfmeasures/StructureDefinition/test-case-cqfm"]},"contained":[{"resourceType":"Parameters","id":"fae1fde0-cfa0-4ffd-a2ab-07aae50ea43c-parameters","parameter":[{"name":"subject","valueString":"39215b49-af59-45a7-a773-65e8353dfafd"}]}],"extension":[{"url":"http://hl7.org/fhir/StructureDefinition/cqf-inputParameters","valueReference":{"reference":"#fae1fde0-cfa0-4ffd-a2ab-07aae50ea43c-parameters"}},{"url":"http://hl7.org/fhir/us/cqfmeasures/StructureDefinition/cqfm-testCaseDescription","valueMarkdown":"To test if EncIP PrinDxObstetrics . should be treated as same as Encounter Dx as well\n"}],"modifierExtension":[{"url":"http://hl7.org/fhir/us/cqfmeasures/StructureDefinition/cqfm-isTestCase","valueBoolean":true}],"status":"complete","type":"individual","measure":"https://madie.cms.gov/Measure/CMS190VTEProphylaxisICUFHIR","period":{"start":"2026-01-01","end":"2026-12-31"},"group":[{"id":"Group_1","population":[{"id":"InitialPopulation_1","code":{"coding":[{"system":"http://terminology.hl7.org/CodeSystem/measure-population","code":"initial-population","display":"Initial Population"}]},"count":0},{"id":"Denominator_1","code":{"coding":[{"system":"http://terminology.hl7.org/CodeSystem/measure-population","code":"denominator","display":"Denominator"}]},"count":0},{"id":"DenominatorExclusion_1","code":{"coding":[{"system":"http://terminology.hl7.org/CodeSystem/measure-population","code":"denominator-exclusion","display":"Denominator Exclusion"}]},"count":0},{"id":"Numerator_1","code":{"coding":[{"system":"http://terminology.hl7.org/CodeSystem/measure-population","code":"numerator","display":"Numerator"}]},"count":0},{"id":"DenominatorException_1","code":{"coding":[{"system":"http://terminology.hl7.org/CodeSystem/measure-population","code":"denominator-exception","display":"Denominator Exception"}]},"count":0}],"measureScore":{"value":0.0}}],"evaluatedResource":[{"reference":"Patient/39215b49-af59-45a7-a773-65e8353dfafd"},{"reference":"Encounter/3b613582-95bd-4251-9d87-fc2139a2083b"},{"reference":"Claim/5ca62962b8484628b8de1ec5"},{"reference":"Coverage/5fdcde64-73fd-45ef-97bd-ec207d4a3468"},{"reference":"Condition/fb8b25cd-7425-4a80-bdc0-ddd25aba0b48"},{"reference":"Location/32ae4e99-3c81-48ac-8193-8504631cca6c"},{"reference":"Organization/b153fda2-52ee-4438-aac8-6426a4886ad7"},{"reference":"Practitioner/084872db-2273-43d8-9d01-feaec3cd6e96"}]},"request":{"method":"PUT","url":"MeasureReport/d6b2a6cb-a2e6-4d25-a093-d41ca78bd67e"}},{"resource":{"resourceType":"Condition","id":"fb8b25cd-7425-4a80-bdc0-ddd25aba0b48","meta":{"profile":["http://hl7.org/fhir/us/qicore/StructureDefinition/qicore-condition-encounter-diagnosis"]},"category":[{"coding":[{"system":"http://terminology.hl7.org/CodeSystem/condition-category","code":"encounter-diagnosis","display":"Encounter Diagnosis"}]}],"code":{"coding":[{"system":"http://hl7.org/fhir/sid/icd-10-cm","code":"O99.340"}]},"subject":{"reference":"Patient/39215b49-af59-45a7-a773-65e8353dfafd"},"recordedDate":"2026-09-09T08:00:00+00:00"},"request":{"method":"PUT","url":"Condition/fb8b25cd-7425-4a80-bdc0-ddd25aba0b48"}},{"resource":{"resourceType":"Claim","id":"5ca62962b8484628b8de1ec5","meta":{"profile":["http://hl7.org/fhir/us/qicore/StructureDefinition/qicore-claim"]},"status":"active","type":{"coding":[{"system":"http://terminology.hl7.org/CodeSystem/claim-type","code":"institutional"}]},"use":"claim","patient":{"reference":"Patient/39215b49-af59-45a7-a773-65e8353dfafd"},"created":"2026-12-01","provider":{"reference":"Practitioner/084872db-2273-43d8-9d01-feaec3cd6e96"},"priority":{"coding":[{"system":"http://terminology.hl7.org/CodeSystem/processpriority","code":"normal"}]},"diagnosis":[{"sequence":1,"diagnosisCodeableConcept":{"coding":[{"system":"http://hl7.org/fhir/sid/icd-10-cm","code":"O99.340"}]},"type":[{"coding":[{"system":"http://terminology.hl7.org/CodeSystem/ex-diagnosistype","code":"principal"}]}]}],"insurance":[{"sequence":1,"focal":true,"coverage":{"reference":"Coverage/5fdcde64-73fd-45ef-97bd-ec207d4a3468"}}],"item":[{"sequence":1,"diagnosisSequence":[1],"productOrService":{"coding":[{"system":"http://terminology.hl7.org/CodeSystem/ex-USCLS","code":"99555"}]},"encounter":[{"reference":"Encounter/3b613582-95bd-4251-9d87-fc2139a2083b"}]}]},"request":{"method":"PUT","url":"Claim/5ca62962b8484628b8de1ec5"}}]}