{"resourceType":"Bundle","id":"tests-78462b04-df13-44a5-bb24-729dfbdcfccf-bundle","type":"transaction","entry":[{"resource":{"resourceType":"Encounter","id":"1d69336c-dec1-4347-b571-9bfc2511c595","meta":{"profile":["http://hl7.org/fhir/us/qicore/StructureDefinition/qicore-encounter"]},"status":"finished","class":{"system":"http://terminology.hl7.org/CodeSystem/v3-ActCode","code":"IMP","display":"inpatient encounter"},"type":[{"coding":[{"system":"http://snomed.info/sct","code":"8715000"}]}],"subject":{"reference":"Patient/78462b04-df13-44a5-bb24-729dfbdcfccf"},"period":{"start":"2026-12-04T08:00:00.000+00:00","end":"2026-12-05T18:15:00.000+00:00"},"length":{"value":1.0,"unit":"days"},"location":[{"location":{"reference":"Location/eea102fe-08a5-4225-8bf4-273543e08545"},"period":{"start":"2026-12-04T09:15:00.000+00:00","end":"2026-12-05T00:15:00.000+00:00"}}]},"request":{"method":"PUT","url":"Encounter/1d69336c-dec1-4347-b571-9bfc2511c595"}},{"resource":{"resourceType":"MeasureReport","id":"422ff576-42d3-4759-9f64-bff6a81e1257","meta":{"profile":["http://hl7.org/fhir/us/cqfmeasures/StructureDefinition/test-case-cqfm"]},"contained":[{"resourceType":"Parameters","id":"8c64d111-f4f4-4cec-92d0-3d9ddcc2070e-parameters","parameter":[{"name":"subject","valueString":"78462b04-df13-44a5-bb24-729dfbdcfccf"}]}],"extension":[{"url":"http://hl7.org/fhir/StructureDefinition/cqf-inputParameters","valueReference":{"reference":"#8c64d111-f4f4-4cec-92d0-3d9ddcc2070e-parameters"}},{"url":"http://hl7.org/fhir/us/cqfmeasures/StructureDefinition/cqfm-testCaseDescription","valueMarkdown":"Encounter with ICU stay, but hospital LOS =1 days"}],"modifierExtension":[{"url":"http://hl7.org/fhir/us/cqfmeasures/StructureDefinition/cqfm-isTestCase","valueBoolean":true}],"status":"complete","type":"individual","measure":"https://madie.cms.gov/Measure/CMS190VTEProphylaxisICUFHIR","period":{"start":"2026-01-01","end":"2026-12-31"},"group":[{"id":"Group_1","population":[{"id":"InitialPopulation_1","code":{"coding":[{"system":"http://terminology.hl7.org/CodeSystem/measure-population","code":"initial-population","display":"Initial Population"}]},"count":1},{"id":"Denominator_1","code":{"coding":[{"system":"http://terminology.hl7.org/CodeSystem/measure-population","code":"denominator","display":"Denominator"}]},"count":1},{"id":"DenominatorExclusion_1","code":{"coding":[{"system":"http://terminology.hl7.org/CodeSystem/measure-population","code":"denominator-exclusion","display":"Denominator Exclusion"}]},"count":1},{"id":"Numerator_1","code":{"coding":[{"system":"http://terminology.hl7.org/CodeSystem/measure-population","code":"numerator","display":"Numerator"}]},"count":0},{"id":"DenominatorException_1","code":{"coding":[{"system":"http://terminology.hl7.org/CodeSystem/measure-population","code":"denominator-exception","display":"Denominator Exception"}]},"count":0}],"measureScore":{"value":0.0}}],"evaluatedResource":[{"reference":"Patient/78462b04-df13-44a5-bb24-729dfbdcfccf"},{"reference":"Encounter/1d69336c-dec1-4347-b571-9bfc2511c595"},{"reference":"Coverage/69649c60-8c3b-4f0a-b120-377989039126"},{"reference":"Location/eea102fe-08a5-4225-8bf4-273543e08545"},{"reference":"Organization/cd7bb64c-cd6e-4bfa-91d4-f19da07d6b6c"},{"reference":"Practitioner/b5c9cc64-cf9d-4c8d-baa5-9beb619a68f7"}]},"request":{"method":"PUT","url":"MeasureReport/422ff576-42d3-4759-9f64-bff6a81e1257"}},{"resource":{"resourceType":"Bundle","id":"612e6eb102c62a011f2ef420","type":"transaction","entry":[{"fullUrl":"https://madie.cms.gov/Patient/78462b04-df13-44a5-bb24-729dfbdcfccf","resource":{"resourceType":"Patient","id":"78462b04-df13-44a5-bb24-729dfbdcfccf","meta":{"profile":["http://hl7.org/fhir/us/qicore/StructureDefinition/qicore-patient"]},"text":{"status":"generated","div":"<div xmlns=\"http://www.w3.org/1999/xhtml\"><div class=\"hapiHeaderText\">LOSLT2Days <b>DENEXPASS </b></div><table class=\"hapiPropertyTable\"><tbody><tr><td>Identifier</td><td>89c2e418c9727592f5380d634f63eb21</td></tr><tr><td>Date of birth</td><td><span>03 March 1974</span></td></tr></tbody></table></div>"},"extension":[{"url":"http://hl7.org/fhir/us/core/StructureDefinition/us-core-race","extension":[{"url":"ombCategory","valueCoding":{"system":"urn:oid:2.16.840.1.113883.6.238","code":"1002-5","display":"American Indian or Alaska Native","userSelected":true}},{"url":"text","valueString":"American Indian or Alaska Native"}]},{"url":"http://hl7.org/fhir/us/core/StructureDefinition/us-core-ethnicity","extension":[{"url":"ombCategory","valueCoding":{"system":"urn:oid:2.16.840.1.113883.6.238","code":"2135-2","display":"Hispanic or Latino","userSelected":true}},{"url":"text","valueString":"Hispanic or Latino"}]}],"identifier":[{"type":{"coding":[{"system":"http://terminology.hl7.org/CodeSystem/v2-0203","code":"MR"}]},"system":"https://bonnie-fhir.healthit.gov/","value":"612e6eb102c62a011f2ef420"}],"active":true,"name":[{"use":"usual","family":"DENEXPass","given":["LOSLT2Days"]}],"gender":"female","birthDate":"1975-03-03"},"request":{"method":"PUT","url":"Patient/78462b04-df13-44a5-bb24-729dfbdcfccf"}},{"fullUrl":"https://madie.cms.gov/Encounter/1d69336c-dec1-4347-b571-9bfc2511c595","resource":{"resourceType":"Encounter","id":"1d69336c-dec1-4347-b571-9bfc2511c595","meta":{"profile":["http://hl7.org/fhir/us/qicore/StructureDefinition/qicore-encounter"]},"status":"finished","class":{"system":"http://terminology.hl7.org/CodeSystem/v3-ActCode","code":"IMP","display":"inpatient encounter"},"type":[{"coding":[{"system":"http://snomed.info/sct","code":"8715000"}]}],"subject":{"reference":"Patient/78462b04-df13-44a5-bb24-729dfbdcfccf"},"period":{"start":"2026-12-04T08:00:00.000+00:00","end":"2026-12-05T18:15:00.000+00:00"},"length":{"value":1.0,"unit":"days"},"location":[{"location":{"reference":"Location/eea102fe-08a5-4225-8bf4-273543e08545"},"period":{"start":"2026-12-04T09:15:00.000+00:00","end":"2026-12-05T00:15:00.000+00:00"}}]},"request":{"method":"PUT","url":"Encounter/1d69336c-dec1-4347-b571-9bfc2511c595"}},{"fullUrl":"https://madie.cms.gov/Coverage/69649c60-8c3b-4f0a-b120-377989039126","resource":{"resourceType":"Coverage","id":"69649c60-8c3b-4f0a-b120-377989039126","status":"active","beneficiary":{"reference":"Patient/78462b04-df13-44a5-bb24-729dfbdcfccf"},"period":{"start":"1975-03-03T08:00:00.000+00:00"},"payor":[{"reference":"Organization/cd7bb64c-cd6e-4bfa-91d4-f19da07d6b6c"}]},"request":{"method":"PUT","url":"Coverage/69649c60-8c3b-4f0a-b120-377989039126"}},{"fullUrl":"https://madie.cms.gov/Location/eea102fe-08a5-4225-8bf4-273543e08545","resource":{"resourceType":"Location","id":"eea102fe-08a5-4225-8bf4-273543e08545","meta":{"profile":["http://hl7.org/fhir/us/qicore/StructureDefinition/qicore-location"]},"identifier":[{"use":"usual","system":"http://exampleoflocation.com","value":"B1-S.F2"}],"name":"Medical Surgical East, first floor","type":[{"coding":[{"system":"https://www.cdc.gov/nhsn/cdaportal/terminology/codesystem/hsloc.html","code":"1025-6","display":"Trauma Critical Care","userSelected":true}]}]},"request":{"method":"PUT","url":"Location/eea102fe-08a5-4225-8bf4-273543e08545"}},{"fullUrl":"https://madie.cms.gov/Organization/cd7bb64c-cd6e-4bfa-91d4-f19da07d6b6c","resource":{"resourceType":"Organization","id":"cd7bb64c-cd6e-4bfa-91d4-f19da07d6b6c","meta":{"profile":["http://hl7.org/fhir/us/qicore/StructureDefinition/qicore-organization"]},"identifier":[{"use":"temp","system":"urn:oid:2.16.840.1.113883.4.4","value":"21-3259825"}],"active":true,"type":[{"coding":[{"system":"http://terminology.hl7.org/CodeSystem/organization-type","code":"pay","display":"Payer"}]}],"name":"Blue Cross Blue Shield of Texas","telecom":[{"system":"phone","value":"(+1) 972-766-6900"}],"address":[{"use":"billing","type":"postal","line":["P.O. Box 660044"],"city":"Dallas","state":"TX","postalCode":"75266-0044","country":"USA"}]},"request":{"method":"PUT","url":"Organization/cd7bb64c-cd6e-4bfa-91d4-f19da07d6b6c"}},{"fullUrl":"https://madie.cms.gov/Practitioner/b5c9cc64-cf9d-4c8d-baa5-9beb619a68f7","resource":{"resourceType":"Practitioner","id":"b5c9cc64-cf9d-4c8d-baa5-9beb619a68f7","identifier":[{"system":"http://hl7.org/fhir/sid/us-npi","value":"123456"}],"name":[{"family":"Evil","prefix":["Dr"]}]},"request":{"method":"PUT","url":"Practitioner/b5c9cc64-cf9d-4c8d-baa5-9beb619a68f7"}},{"fullUrl":"https://madie.cms.gov/MeasureReport/422ff576-42d3-4759-9f64-bff6a81e1257","resource":{"resourceType":"MeasureReport","id":"422ff576-42d3-4759-9f64-bff6a81e1257","meta":{"profile":["http://hl7.org/fhir/us/cqfmeasures/StructureDefinition/test-case-cqfm"]},"contained":[{"resourceType":"Parameters","id":"8c64d111-f4f4-4cec-92d0-3d9ddcc2070e-parameters","parameter":[{"name":"subject","valueString":"78462b04-df13-44a5-bb24-729dfbdcfccf"}]}],"extension":[{"url":"http://hl7.org/fhir/StructureDefinition/cqf-inputParameters","valueReference":{"reference":"#8c64d111-f4f4-4cec-92d0-3d9ddcc2070e-parameters"}},{"url":"http://hl7.org/fhir/us/cqfmeasures/StructureDefinition/cqfm-testCaseDescription","valueMarkdown":"Encounter with ICU stay, but hospital LOS =1 days"}],"modifierExtension":[{"url":"http://hl7.org/fhir/us/cqfmeasures/StructureDefinition/cqfm-isTestCase","valueBoolean":true}],"status":"complete","type":"individual","measure":"https://madie.cms.gov/Measure/CMS190VTEProphylaxisICUFHIR","period":{"start":"2026-01-01","end":"2026-12-31"},"group":[{"id":"Group_1","population":[{"id":"InitialPopulation_1","code":{"coding":[{"system":"http://terminology.hl7.org/CodeSystem/measure-population","code":"initial-population","display":"Initial Population"}]},"count":1},{"id":"Denominator_1","code":{"coding":[{"system":"http://terminology.hl7.org/CodeSystem/measure-population","code":"denominator","display":"Denominator"}]},"count":1},{"id":"DenominatorExclusion_1","code":{"coding":[{"system":"http://terminology.hl7.org/CodeSystem/measure-population","code":"denominator-exclusion","display":"Denominator Exclusion"}]},"count":1},{"id":"Numerator_1","code":{"coding":[{"system":"http://terminology.hl7.org/CodeSystem/measure-population","code":"numerator","display":"Numerator"}]},"count":0},{"id":"DenominatorException_1","code":{"coding":[{"system":"http://terminology.hl7.org/CodeSystem/measure-population","code":"denominator-exception","display":"Denominator Exception"}]},"count":0}],"measureScore":{"value":0.0}}],"evaluatedResource":[{"reference":"Patient/78462b04-df13-44a5-bb24-729dfbdcfccf"},{"reference":"Encounter/1d69336c-dec1-4347-b571-9bfc2511c595"},{"reference":"Coverage/69649c60-8c3b-4f0a-b120-377989039126"},{"reference":"Location/eea102fe-08a5-4225-8bf4-273543e08545"},{"reference":"Organization/cd7bb64c-cd6e-4bfa-91d4-f19da07d6b6c"},{"reference":"Practitioner/b5c9cc64-cf9d-4c8d-baa5-9beb619a68f7"}]},"request":{"method":"PUT","url":"MeasureReport/422ff576-42d3-4759-9f64-bff6a81e1257"}}]},"request":{"method":"PUT","url":"Bundle/612e6eb102c62a011f2ef420"}},{"resource":{"resourceType":"Location","id":"eea102fe-08a5-4225-8bf4-273543e08545","meta":{"profile":["http://hl7.org/fhir/us/qicore/StructureDefinition/qicore-location"]},"identifier":[{"use":"usual","system":"http://exampleoflocation.com","value":"B1-S.F2"}],"name":"Medical Surgical East, first floor","type":[{"coding":[{"system":"https://www.cdc.gov/nhsn/cdaportal/terminology/codesystem/hsloc.html","code":"1025-6","display":"Trauma Critical Care","userSelected":true}]}]},"request":{"method":"PUT","url":"Location/eea102fe-08a5-4225-8bf4-273543e08545"}},{"resource":{"resourceType":"Practitioner","id":"b5c9cc64-cf9d-4c8d-baa5-9beb619a68f7","identifier":[{"system":"http://hl7.org/fhir/sid/us-npi","value":"123456"}],"name":[{"family":"Evil","prefix":["Dr"]}]},"request":{"method":"PUT","url":"Practitioner/b5c9cc64-cf9d-4c8d-baa5-9beb619a68f7"}},{"resource":{"resourceType":"Organization","id":"cd7bb64c-cd6e-4bfa-91d4-f19da07d6b6c","meta":{"profile":["http://hl7.org/fhir/us/qicore/StructureDefinition/qicore-organization"]},"identifier":[{"use":"temp","system":"urn:oid:2.16.840.1.113883.4.4","value":"21-3259825"}],"active":true,"type":[{"coding":[{"system":"http://terminology.hl7.org/CodeSystem/organization-type","code":"pay","display":"Payer"}]}],"name":"Blue Cross Blue Shield of Texas","telecom":[{"system":"phone","value":"(+1) 972-766-6900"}],"address":[{"use":"billing","type":"postal","line":["P.O. Box 660044"],"city":"Dallas","state":"TX","postalCode":"75266-0044","country":"USA"}]},"request":{"method":"PUT","url":"Organization/cd7bb64c-cd6e-4bfa-91d4-f19da07d6b6c"}},{"resource":{"resourceType":"Patient","id":"78462b04-df13-44a5-bb24-729dfbdcfccf","meta":{"profile":["http://hl7.org/fhir/us/qicore/StructureDefinition/qicore-patient"]},"text":{"status":"generated","div":"<div xmlns=\"http://www.w3.org/1999/xhtml\"><div class=\"hapiHeaderText\">LOSLT2Days <b>DENEXPASS </b></div><table class=\"hapiPropertyTable\"><tbody><tr><td>Identifier</td><td>89c2e418c9727592f5380d634f63eb21</td></tr><tr><td>Date of birth</td><td><span>03 March 1974</span></td></tr></tbody></table></div>"},"extension":[{"url":"http://hl7.org/fhir/us/core/StructureDefinition/us-core-race","extension":[{"url":"ombCategory","valueCoding":{"system":"urn:oid:2.16.840.1.113883.6.238","code":"1002-5","display":"American Indian or Alaska Native","userSelected":true}},{"url":"text","valueString":"American Indian or Alaska Native"}]},{"url":"http://hl7.org/fhir/us/core/StructureDefinition/us-core-ethnicity","extension":[{"url":"ombCategory","valueCoding":{"system":"urn:oid:2.16.840.1.113883.6.238","code":"2135-2","display":"Hispanic or Latino","userSelected":true}},{"url":"text","valueString":"Hispanic or Latino"}]}],"identifier":[{"type":{"coding":[{"system":"http://terminology.hl7.org/CodeSystem/v2-0203","code":"MR"}]},"system":"https://bonnie-fhir.healthit.gov/","value":"612e6eb102c62a011f2ef420"}],"active":true,"name":[{"use":"usual","family":"DENEXPass","given":["LOSLT2Days"]}],"gender":"female","birthDate":"1975-03-03"},"request":{"method":"PUT","url":"Patient/78462b04-df13-44a5-bb24-729dfbdcfccf"}},{"resource":{"resourceType":"Coverage","id":"69649c60-8c3b-4f0a-b120-377989039126","status":"active","beneficiary":{"reference":"Patient/78462b04-df13-44a5-bb24-729dfbdcfccf"},"period":{"start":"1975-03-03T08:00:00.000+00:00"},"payor":[{"reference":"Organization/cd7bb64c-cd6e-4bfa-91d4-f19da07d6b6c"}]},"request":{"method":"PUT","url":"Coverage/69649c60-8c3b-4f0a-b120-377989039126"}}]}