{"resourceType":"Bundle","id":"tests-2bcbe960-db7d-4088-a574-d771baf0f9c7-bundle","type":"transaction","entry":[{"resource":{"resourceType":"Patient","id":"2bcbe960-db7d-4088-a574-d771baf0f9c7","meta":{"profile":["http://hl7.org/fhir/us/qicore/StructureDefinition/qicore-patient"]},"text":{"status":"generated","div":"<div xmlns=\"http://www.w3.org/1999/xhtml\"><div class=\"hapiHeaderText\">PtRefMOLMWHDayAfterICU<b>NUMERPASS </b></div><table class=\"hapiPropertyTable\"><tbody><tr><td>Identifier</td><td>bec2580a47ed4bf7691b191e0654b2de</td></tr><tr><td>Date of birth</td><td><span>02 January 1974</span></td></tr></tbody></table></div>"},"extension":[{"url":"http://hl7.org/fhir/us/core/StructureDefinition/us-core-race","extension":[{"url":"ombCategory","valueCoding":{"system":"urn:oid:2.16.840.1.113883.6.238","code":"1002-5","display":"American Indian or Alaska Native","userSelected":true}},{"url":"text","valueString":"American Indian or Alaska Native"}]},{"url":"http://hl7.org/fhir/us/core/StructureDefinition/us-core-ethnicity","extension":[{"url":"ombCategory","valueCoding":{"system":"urn:oid:2.16.840.1.113883.6.238","code":"2135-2","display":"Hispanic or Latino","userSelected":true}},{"url":"text","valueString":"Hispanic or Latino"}]}],"identifier":[{"type":{"coding":[{"system":"http://terminology.hl7.org/CodeSystem/v2-0203","code":"MR"}]},"system":"https://bonnie-fhir.healthit.gov/","value":"612e6b2e02c62a011f2ecc92"}],"active":true,"name":[{"use":"usual","family":"NUMERPass","given":["PtRefMOInjXaTaskReject"]}],"gender":"male","birthDate":"1975-01-02"},"request":{"method":"PUT","url":"Patient/2bcbe960-db7d-4088-a574-d771baf0f9c7"}},{"resource":{"resourceType":"Practitioner","id":"48ffdac9-60a6-4523-8ad2-b99c40b9777b","identifier":[{"system":"http://hl7.org/fhir/sid/us-npi","value":"123456"}],"name":[{"family":"Evil","prefix":["Dr"]}]},"request":{"method":"PUT","url":"Practitioner/48ffdac9-60a6-4523-8ad2-b99c40b9777b"}},{"resource":{"resourceType":"Location","id":"2c36abab-7635-470f-aff4-d4340bcd8049","meta":{"profile":["http://hl7.org/fhir/us/qicore/StructureDefinition/qicore-location"]},"identifier":[{"use":"usual","system":"http://exampleoflocation.com","value":"B1-S.F2"}],"name":"Medical Surgical East, first floor","type":[{"coding":[{"system":"https://www.cdc.gov/nhsn/cdaportal/terminology/codesystem/hsloc.html","code":"1025-6","display":"Trauma Critical Care","userSelected":true}]}]},"request":{"method":"PUT","url":"Location/2c36abab-7635-470f-aff4-d4340bcd8049"}},{"resource":{"resourceType":"Organization","id":"b9c93e51-de8b-42cc-b891-d5db82b402d2","meta":{"profile":["http://hl7.org/fhir/us/qicore/StructureDefinition/qicore-organization"]},"identifier":[{"use":"temp","system":"urn:oid:2.16.840.1.113883.4.4","value":"21-3259825"}],"active":true,"type":[{"coding":[{"system":"http://terminology.hl7.org/CodeSystem/organization-type","code":"pay","display":"Payer"}]}],"name":"Blue Cross Blue Shield of Texas","telecom":[{"system":"phone","value":"(+1) 972-766-6900"}],"address":[{"use":"billing","type":"postal","line":["P.O. Box 660044"],"city":"Dallas","state":"TX","postalCode":"75266-0044","country":"USA"}]},"request":{"method":"PUT","url":"Organization/b9c93e51-de8b-42cc-b891-d5db82b402d2"}},{"resource":{"resourceType":"Task","id":"0452cf87-dbc9-4a9b-82eb-deffab67495a","meta":{"profile":["http://hl7.org/fhir/us/qicore/StructureDefinition/qicore-taskrejected"]},"status":"rejected","statusReason":{"coding":[{"system":"http://snomed.info/sct","code":"443390004","display":"Refusal of treatment by patient (situation)","userSelected":true}]},"code":{"coding":[{"system":"http://hl7.org/fhir/CodeSystem/task-code","code":"fulfill"}]},"focus":{"reference":"MedicationRequest/81f737ad-cbb9-4fd8-a152-4b22f674b090"},"executionPeriod":{"start":"2026-11-01T09:00:00Z","end":"2026-11-03T09:00:00.000+00:00"}},"request":{"method":"PUT","url":"Task/0452cf87-dbc9-4a9b-82eb-deffab67495a"}},{"resource":{"resourceType":"Encounter","id":"6b23df4f-b157-4665-a356-50a6e812bb6a","meta":{"profile":["http://hl7.org/fhir/us/qicore/StructureDefinition/qicore-encounter"]},"status":"finished","class":{"system":"http://terminology.hl7.org/CodeSystem/v3-ActCode","code":"IMP","display":"inpatient encounter"},"type":[{"coding":[{"system":"http://snomed.info/sct","code":"8715000"}]}],"subject":{"reference":"Patient/2bcbe960-db7d-4088-a574-d771baf0f9c7"},"period":{"start":"2026-11-01T08:00:00Z","end":"2026-11-26T08:15:00.000+00:00"},"length":{"value":25,"unit":"days"},"location":[{"location":{"reference":"Location/2c36abab-7635-470f-aff4-d4340bcd8049"},"period":{"start":"2026-11-04T09:00:00Z","end":"2026-11-06T08:15:00.000+00:00"}}]},"request":{"method":"PUT","url":"Encounter/6b23df4f-b157-4665-a356-50a6e812bb6a"}},{"resource":{"resourceType":"Bundle","id":"612e6b2e02c62a011f2ecc92","type":"transaction","entry":[{"fullUrl":"https://madie.cms.gov/Patient/2bcbe960-db7d-4088-a574-d771baf0f9c7","resource":{"resourceType":"Patient","id":"2bcbe960-db7d-4088-a574-d771baf0f9c7","meta":{"profile":["http://hl7.org/fhir/us/qicore/StructureDefinition/qicore-patient"]},"text":{"status":"generated","div":"<div xmlns=\"http://www.w3.org/1999/xhtml\"><div class=\"hapiHeaderText\">PtRefMOLMWHDayAfterICU<b>NUMERPASS </b></div><table class=\"hapiPropertyTable\"><tbody><tr><td>Identifier</td><td>bec2580a47ed4bf7691b191e0654b2de</td></tr><tr><td>Date of birth</td><td><span>02 January 1974</span></td></tr></tbody></table></div>"},"extension":[{"url":"http://hl7.org/fhir/us/core/StructureDefinition/us-core-race","extension":[{"url":"ombCategory","valueCoding":{"system":"urn:oid:2.16.840.1.113883.6.238","code":"1002-5","display":"American Indian or Alaska Native","userSelected":true}},{"url":"text","valueString":"American Indian or Alaska Native"}]},{"url":"http://hl7.org/fhir/us/core/StructureDefinition/us-core-ethnicity","extension":[{"url":"ombCategory","valueCoding":{"system":"urn:oid:2.16.840.1.113883.6.238","code":"2135-2","display":"Hispanic or Latino","userSelected":true}},{"url":"text","valueString":"Hispanic or Latino"}]}],"identifier":[{"type":{"coding":[{"system":"http://terminology.hl7.org/CodeSystem/v2-0203","code":"MR"}]},"system":"https://bonnie-fhir.healthit.gov/","value":"612e6b2e02c62a011f2ecc92"}],"active":true,"name":[{"use":"usual","family":"NUMERPass","given":["PtRefMOInjXaTaskReject"]}],"gender":"male","birthDate":"1975-01-02"},"request":{"method":"PUT","url":"Patient/2bcbe960-db7d-4088-a574-d771baf0f9c7"}},{"fullUrl":"https://madie.cms.gov/Encounter/6b23df4f-b157-4665-a356-50a6e812bb6a","resource":{"resourceType":"Encounter","id":"6b23df4f-b157-4665-a356-50a6e812bb6a","meta":{"profile":["http://hl7.org/fhir/us/qicore/StructureDefinition/qicore-encounter"]},"status":"finished","class":{"system":"http://terminology.hl7.org/CodeSystem/v3-ActCode","code":"IMP","display":"inpatient encounter"},"type":[{"coding":[{"system":"http://snomed.info/sct","code":"8715000"}]}],"subject":{"reference":"Patient/2bcbe960-db7d-4088-a574-d771baf0f9c7"},"period":{"start":"2026-11-01T08:00:00Z","end":"2026-11-26T08:15:00.000+00:00"},"length":{"value":25,"unit":"days"},"location":[{"location":{"reference":"Location/2c36abab-7635-470f-aff4-d4340bcd8049"},"period":{"start":"2026-11-04T09:00:00Z","end":"2026-11-06T08:15:00.000+00:00"}}]},"request":{"method":"PUT","url":"Encounter/6b23df4f-b157-4665-a356-50a6e812bb6a"}},{"fullUrl":"https://madie.cms.gov/Coverage/cd989eb1-131a-45cd-93d0-d3db29e75c57","resource":{"resourceType":"Coverage","id":"cd989eb1-131a-45cd-93d0-d3db29e75c57","status":"active","beneficiary":{"reference":"Patient/2bcbe960-db7d-4088-a574-d771baf0f9c7"},"period":{"start":"1975-01-02T08:00:00Z"},"payor":[{"reference":"Organization/b9c93e51-de8b-42cc-b891-d5db82b402d2"}]},"request":{"method":"PUT","url":"Coverage/cd989eb1-131a-45cd-93d0-d3db29e75c57"}},{"fullUrl":"https://madie.cms.gov/MedicationRequest/81f737ad-cbb9-4fd8-a152-4b22f674b090","resource":{"resourceType":"MedicationRequest","id":"81f737ad-cbb9-4fd8-a152-4b22f674b090","meta":{"profile":["http://hl7.org/fhir/us/qicore/StructureDefinition/qicore-medicationrequest"]},"status":"active","intent":"order","category":[{"coding":[{"system":"http://terminology.hl7.org/CodeSystem/medicationrequest-category","code":"inpatient"}]}],"doNotPerform":false,"medicationCodeableConcept":{"coding":[{"system":"http://www.nlm.nih.gov/research/umls/rxnorm","code":"861365"}]},"subject":{"reference":"Patient/2bcbe960-db7d-4088-a574-d771baf0f9c7"},"authoredOn":"2026-11-01T08:00:00Z","requester":{"reference":"Practitioner/123456"},"dosageInstruction":[{"timing":{"repeat":{"boundsPeriod":{"start":"2026-11-03T09:00:00Z"}}}}]},"request":{"method":"PUT","url":"MedicationRequest/81f737ad-cbb9-4fd8-a152-4b22f674b090"}},{"fullUrl":"https://madie.cms.gov/Task/0452cf87-dbc9-4a9b-82eb-deffab67495a","resource":{"resourceType":"Task","id":"0452cf87-dbc9-4a9b-82eb-deffab67495a","meta":{"profile":["http://hl7.org/fhir/us/qicore/StructureDefinition/qicore-taskrejected"]},"status":"rejected","statusReason":{"coding":[{"system":"http://snomed.info/sct","code":"443390004","display":"Refusal of treatment by patient (situation)","userSelected":true}]},"code":{"coding":[{"system":"http://hl7.org/fhir/CodeSystem/task-code","code":"fulfill"}]},"focus":{"reference":"MedicationRequest/81f737ad-cbb9-4fd8-a152-4b22f674b090"},"executionPeriod":{"start":"2026-11-01T09:00:00Z","end":"2026-11-03T09:00:00.000+00:00"}},"request":{"method":"PUT","url":"Task/0452cf87-dbc9-4a9b-82eb-deffab67495a"}},{"fullUrl":"https://madie.cms.gov/Location/2c36abab-7635-470f-aff4-d4340bcd8049","resource":{"resourceType":"Location","id":"2c36abab-7635-470f-aff4-d4340bcd8049","meta":{"profile":["http://hl7.org/fhir/us/qicore/StructureDefinition/qicore-location"]},"identifier":[{"use":"usual","system":"http://exampleoflocation.com","value":"B1-S.F2"}],"name":"Medical Surgical East, first floor","type":[{"coding":[{"system":"https://www.cdc.gov/nhsn/cdaportal/terminology/codesystem/hsloc.html","code":"1025-6","display":"Trauma Critical Care","userSelected":true}]}]},"request":{"method":"PUT","url":"Location/2c36abab-7635-470f-aff4-d4340bcd8049"}},{"fullUrl":"https://madie.cms.gov/Organization/b9c93e51-de8b-42cc-b891-d5db82b402d2","resource":{"resourceType":"Organization","id":"b9c93e51-de8b-42cc-b891-d5db82b402d2","meta":{"profile":["http://hl7.org/fhir/us/qicore/StructureDefinition/qicore-organization"]},"identifier":[{"use":"temp","system":"urn:oid:2.16.840.1.113883.4.4","value":"21-3259825"}],"active":true,"type":[{"coding":[{"system":"http://terminology.hl7.org/CodeSystem/organization-type","code":"pay","display":"Payer"}]}],"name":"Blue Cross Blue Shield of Texas","telecom":[{"system":"phone","value":"(+1) 972-766-6900"}],"address":[{"use":"billing","type":"postal","line":["P.O. Box 660044"],"city":"Dallas","state":"TX","postalCode":"75266-0044","country":"USA"}]},"request":{"method":"PUT","url":"Organization/b9c93e51-de8b-42cc-b891-d5db82b402d2"}},{"fullUrl":"https://madie.cms.gov/Practitioner/48ffdac9-60a6-4523-8ad2-b99c40b9777b","resource":{"resourceType":"Practitioner","id":"48ffdac9-60a6-4523-8ad2-b99c40b9777b","identifier":[{"system":"http://hl7.org/fhir/sid/us-npi","value":"123456"}],"name":[{"family":"Evil","prefix":["Dr"]}]},"request":{"method":"PUT","url":"Practitioner/48ffdac9-60a6-4523-8ad2-b99c40b9777b"}},{"fullUrl":"https://madie.cms.gov/MeasureReport/8cb1acf3-208f-4f80-9c2d-84d1443d6253","resource":{"resourceType":"MeasureReport","id":"8cb1acf3-208f-4f80-9c2d-84d1443d6253","meta":{"profile":["http://hl7.org/fhir/us/cqfmeasures/StructureDefinition/test-case-cqfm"]},"contained":[{"resourceType":"Parameters","id":"a04a07cf-99c4-4614-a995-224e7797d840-parameters","parameter":[{"name":"subject","valueString":"2bcbe960-db7d-4088-a574-d771baf0f9c7"}]}],"extension":[{"url":"http://hl7.org/fhir/StructureDefinition/cqf-inputParameters","valueReference":{"reference":"#a04a07cf-99c4-4614-a995-224e7797d840-parameters"}},{"url":"http://hl7.org/fhir/us/cqfmeasures/StructureDefinition/cqfm-testCaseDescription","valueMarkdown":"Patient refusal for Injectable Xa with Task Rejected"}],"modifierExtension":[{"url":"http://hl7.org/fhir/us/cqfmeasures/StructureDefinition/cqfm-isTestCase","valueBoolean":true}],"status":"complete","type":"individual","measure":"https://madie.cms.gov/Measure/CMS190VTEProphylaxisICUFHIR","period":{"start":"2026-01-01","end":"2026-12-31"},"group":[{"id":"Group_1","population":[{"id":"InitialPopulation_1","code":{"coding":[{"system":"http://terminology.hl7.org/CodeSystem/measure-population","code":"initial-population","display":"Initial Population"}]},"count":1},{"id":"Denominator_1","code":{"coding":[{"system":"http://terminology.hl7.org/CodeSystem/measure-population","code":"denominator","display":"Denominator"}]},"count":1},{"id":"DenominatorExclusion_1","code":{"coding":[{"system":"http://terminology.hl7.org/CodeSystem/measure-population","code":"denominator-exclusion","display":"Denominator Exclusion"}]},"count":0},{"id":"Numerator_1","code":{"coding":[{"system":"http://terminology.hl7.org/CodeSystem/measure-population","code":"numerator","display":"Numerator"}]},"count":1},{"id":"DenominatorException_1","code":{"coding":[{"system":"http://terminology.hl7.org/CodeSystem/measure-population","code":"denominator-exception","display":"Denominator Exception"}]},"count":0}],"measureScore":{"value":0.0}}],"evaluatedResource":[{"reference":"Patient/2bcbe960-db7d-4088-a574-d771baf0f9c7"},{"reference":"Encounter/6b23df4f-b157-4665-a356-50a6e812bb6a"},{"reference":"Coverage/cd989eb1-131a-45cd-93d0-d3db29e75c57"},{"reference":"MedicationRequest/81f737ad-cbb9-4fd8-a152-4b22f674b090"},{"reference":"Task/0452cf87-dbc9-4a9b-82eb-deffab67495a"},{"reference":"Location/2c36abab-7635-470f-aff4-d4340bcd8049"},{"reference":"Organization/b9c93e51-de8b-42cc-b891-d5db82b402d2"},{"reference":"Practitioner/48ffdac9-60a6-4523-8ad2-b99c40b9777b"}]},"request":{"method":"PUT","url":"MeasureReport/8cb1acf3-208f-4f80-9c2d-84d1443d6253"}}]},"request":{"method":"PUT","url":"Bundle/612e6b2e02c62a011f2ecc92"}},{"resource":{"resourceType":"MedicationRequest","id":"81f737ad-cbb9-4fd8-a152-4b22f674b090","meta":{"profile":["http://hl7.org/fhir/us/qicore/StructureDefinition/qicore-medicationrequest"]},"status":"active","intent":"order","category":[{"coding":[{"system":"http://terminology.hl7.org/CodeSystem/medicationrequest-category","code":"inpatient"}]}],"doNotPerform":false,"medicationCodeableConcept":{"coding":[{"system":"http://www.nlm.nih.gov/research/umls/rxnorm","code":"861365"}]},"subject":{"reference":"Patient/2bcbe960-db7d-4088-a574-d771baf0f9c7"},"authoredOn":"2026-11-01T08:00:00Z","requester":{"reference":"Practitioner/123456"},"dosageInstruction":[{"timing":{"repeat":{"boundsPeriod":{"start":"2026-11-03T09:00:00Z"}}}}]},"request":{"method":"PUT","url":"MedicationRequest/81f737ad-cbb9-4fd8-a152-4b22f674b090"}},{"resource":{"resourceType":"Coverage","id":"cd989eb1-131a-45cd-93d0-d3db29e75c57","status":"active","beneficiary":{"reference":"Patient/2bcbe960-db7d-4088-a574-d771baf0f9c7"},"period":{"start":"1975-01-02T08:00:00Z"},"payor":[{"reference":"Organization/b9c93e51-de8b-42cc-b891-d5db82b402d2"}]},"request":{"method":"PUT","url":"Coverage/cd989eb1-131a-45cd-93d0-d3db29e75c57"}},{"resource":{"resourceType":"MeasureReport","id":"8cb1acf3-208f-4f80-9c2d-84d1443d6253","meta":{"profile":["http://hl7.org/fhir/us/cqfmeasures/StructureDefinition/test-case-cqfm"]},"contained":[{"resourceType":"Parameters","id":"a04a07cf-99c4-4614-a995-224e7797d840-parameters","parameter":[{"name":"subject","valueString":"2bcbe960-db7d-4088-a574-d771baf0f9c7"}]}],"extension":[{"url":"http://hl7.org/fhir/StructureDefinition/cqf-inputParameters","valueReference":{"reference":"#a04a07cf-99c4-4614-a995-224e7797d840-parameters"}},{"url":"http://hl7.org/fhir/us/cqfmeasures/StructureDefinition/cqfm-testCaseDescription","valueMarkdown":"Patient refusal for Injectable Xa with Task Rejected"}],"modifierExtension":[{"url":"http://hl7.org/fhir/us/cqfmeasures/StructureDefinition/cqfm-isTestCase","valueBoolean":true}],"status":"complete","type":"individual","measure":"https://madie.cms.gov/Measure/CMS190VTEProphylaxisICUFHIR","period":{"start":"2026-01-01","end":"2026-12-31"},"group":[{"id":"Group_1","population":[{"id":"InitialPopulation_1","code":{"coding":[{"system":"http://terminology.hl7.org/CodeSystem/measure-population","code":"initial-population","display":"Initial Population"}]},"count":1},{"id":"Denominator_1","code":{"coding":[{"system":"http://terminology.hl7.org/CodeSystem/measure-population","code":"denominator","display":"Denominator"}]},"count":1},{"id":"DenominatorExclusion_1","code":{"coding":[{"system":"http://terminology.hl7.org/CodeSystem/measure-population","code":"denominator-exclusion","display":"Denominator Exclusion"}]},"count":0},{"id":"Numerator_1","code":{"coding":[{"system":"http://terminology.hl7.org/CodeSystem/measure-population","code":"numerator","display":"Numerator"}]},"count":1},{"id":"DenominatorException_1","code":{"coding":[{"system":"http://terminology.hl7.org/CodeSystem/measure-population","code":"denominator-exception","display":"Denominator Exception"}]},"count":0}],"measureScore":{"value":0.0}}],"evaluatedResource":[{"reference":"Patient/2bcbe960-db7d-4088-a574-d771baf0f9c7"},{"reference":"Encounter/6b23df4f-b157-4665-a356-50a6e812bb6a"},{"reference":"Coverage/cd989eb1-131a-45cd-93d0-d3db29e75c57"},{"reference":"MedicationRequest/81f737ad-cbb9-4fd8-a152-4b22f674b090"},{"reference":"Task/0452cf87-dbc9-4a9b-82eb-deffab67495a"},{"reference":"Location/2c36abab-7635-470f-aff4-d4340bcd8049"},{"reference":"Organization/b9c93e51-de8b-42cc-b891-d5db82b402d2"},{"reference":"Practitioner/48ffdac9-60a6-4523-8ad2-b99c40b9777b"}]},"request":{"method":"PUT","url":"MeasureReport/8cb1acf3-208f-4f80-9c2d-84d1443d6253"}}]}