{
  "resourceType": "Bundle",
  "id": "612e6b2c02c62a011f2ecb94",
  "type": "transaction",
  "entry": [ {
    "fullUrl": "https://madie.cms.gov/Patient/a3e0cca4-bdb1-4972-b6ca-84841cb66859",
    "resource": {
      "resourceType": "Patient",
      "id": "a3e0cca4-bdb1-4972-b6ca-84841cb66859",
      "meta": {
        "profile": [ "http://hl7.org/fhir/us/qicore/StructureDefinition/qicore-patient" ]
      },
      "text": {
        "status": "generated",
        "div": "<div xmlns=\"http://www.w3.org/1999/xhtml\"><div class=\"hapiHeaderText\">VTE_RiskAssess_DayAfAnes_ProcRvltDT <b>NUMERPASS </b></div><table class=\"hapiPropertyTable\"><tbody><tr><td>Identifier</td><td>c54dbc364ce913dfe300bd0f00b65409</td></tr><tr><td>Date of birth</td><td><span>02 January 1974</span></td></tr></tbody></table></div>"
      },
      "extension": [ {
        "url": "http://hl7.org/fhir/us/core/StructureDefinition/us-core-race",
        "extension": [ {
          "url": "ombCategory",
          "valueCoding": {
            "system": "urn:oid:2.16.840.1.113883.6.238",
            "code": "1002-5",
            "display": "American Indian or Alaska Native",
            "userSelected": true
          }
        }, {
          "url": "text",
          "valueString": "American Indian or Alaska Native"
        } ]
      }, {
        "url": "http://hl7.org/fhir/us/core/StructureDefinition/us-core-ethnicity",
        "extension": [ {
          "url": "ombCategory",
          "valueCoding": {
            "system": "urn:oid:2.16.840.1.113883.6.238",
            "code": "2135-2",
            "display": "Hispanic or Latino",
            "userSelected": true
          }
        }, {
          "url": "text",
          "valueString": "Hispanic or Latino"
        } ]
      } ],
      "identifier": [ {
        "type": {
          "coding": [ {
            "system": "http://terminology.hl7.org/CodeSystem/v2-0203",
            "code": "MR"
          } ]
        },
        "system": "https://bonnie-fhir.healthit.gov/",
        "value": "612e6b2c02c62a011f2ecb94"
      } ],
      "active": true,
      "name": [ {
        "use": "usual",
        "family": "NUMERPass",
        "given": [ "VTERiskAssessDayAfAnesProcRvltDT" ]
      } ],
      "gender": "male",
      "birthDate": "1975-01-02"
    },
    "request": {
      "method": "PUT",
      "url": "Patient/a3e0cca4-bdb1-4972-b6ca-84841cb66859"
    }
  }, {
    "fullUrl": "https://madie.cms.gov/Encounter/032a7de0-de28-4772-9609-6932ded148a9",
    "resource": {
      "resourceType": "Encounter",
      "id": "032a7de0-de28-4772-9609-6932ded148a9",
      "meta": {
        "profile": [ "http://hl7.org/fhir/us/qicore/StructureDefinition/qicore-encounter" ]
      },
      "status": "finished",
      "class": {
        "system": "http://terminology.hl7.org/CodeSystem/v3-ActCode",
        "code": "IMP",
        "display": "inpatient encounter"
      },
      "type": [ {
        "coding": [ {
          "system": "http://snomed.info/sct",
          "code": "8715000"
        } ]
      } ],
      "subject": {
        "reference": "Patient/a3e0cca4-bdb1-4972-b6ca-84841cb66859"
      },
      "period": {
        "start": "2026-11-01T08:00:00.000+00:00",
        "end": "2026-11-26T08:15:00.000+00:00"
      },
      "length": {
        "value": 25,
        "unit": "days"
      }
    },
    "request": {
      "method": "PUT",
      "url": "Encounter/032a7de0-de28-4772-9609-6932ded148a9"
    }
  }, {
    "fullUrl": "https://madie.cms.gov/Observation/edcb1939-9ee3-4512-8367-a49160cd9689",
    "resource": {
      "resourceType": "Observation",
      "id": "edcb1939-9ee3-4512-8367-a49160cd9689",
      "meta": {
        "profile": [ "http://hl7.org/fhir/us/qicore/StructureDefinition/qicore-simple-observation" ]
      },
      "status": "amended",
      "category": [ {
        "coding": [ {
          "system": "http://terminology.hl7.org/CodeSystem/observation-category",
          "code": "exam",
          "display": "exam"
        } ]
      } ],
      "code": {
        "coding": [ {
          "system": "http://loinc.org",
          "code": "72136-5"
        } ]
      },
      "subject": {
        "reference": "Patient/a3e0cca4-bdb1-4972-b6ca-84841cb66859"
      },
      "effectiveDateTime": "2026-11-03T11:00:00.000+00:00",
      "valueCodeableConcept": {
        "coding": [ {
          "system": "http://snomed.info/sct",
          "code": "260362008",
          "display": "Low Risk"
        } ]
      }
    },
    "request": {
      "method": "PUT",
      "url": "Observation/edcb1939-9ee3-4512-8367-a49160cd9689"
    }
  }, {
    "fullUrl": "https://madie.cms.gov/Coverage/e77cb0a7-ef7e-4efe-873e-88dbf46e85b5",
    "resource": {
      "resourceType": "Coverage",
      "id": "e77cb0a7-ef7e-4efe-873e-88dbf46e85b5",
      "status": "active",
      "beneficiary": {
        "reference": "Patient/a3e0cca4-bdb1-4972-b6ca-84841cb66859"
      },
      "period": {
        "start": "1975-01-02T08:00:00.000+00:00"
      },
      "payor": [ {
        "reference": "Organization/93808a2d-f229-4677-9678-9f67384112b1"
      } ]
    },
    "request": {
      "method": "PUT",
      "url": "Coverage/e77cb0a7-ef7e-4efe-873e-88dbf46e85b5"
    }
  }, {
    "fullUrl": "https://madie.cms.gov/Procedure/bbf03380-7e63-4161-b91f-45db05ac6e71",
    "resource": {
      "resourceType": "Procedure",
      "id": "bbf03380-7e63-4161-b91f-45db05ac6e71",
      "meta": {
        "profile": [ "http://hl7.org/fhir/us/qicore/StructureDefinition/qicore-procedure" ]
      },
      "extension": [ {
        "url": "http://hl7.org/fhir/us/qicore/StructureDefinition/qicore-recorded",
        "valueDateTime": "2026-11-03T13:35:00.000+00:00"
      } ],
      "status": "completed",
      "code": {
        "coding": [ {
          "system": "http://snomed.info/sct",
          "code": "18946005"
        } ]
      },
      "subject": {
        "reference": "Patient/a3e0cca4-bdb1-4972-b6ca-84841cb66859"
      },
      "performedPeriod": {
        "end": "2026-11-02T09:15:00.000+00:00"
      }
    },
    "request": {
      "method": "PUT",
      "url": "Procedure/bbf03380-7e63-4161-b91f-45db05ac6e71"
    }
  }, {
    "fullUrl": "https://madie.cms.gov/Organization/93808a2d-f229-4677-9678-9f67384112b1",
    "resource": {
      "resourceType": "Organization",
      "id": "93808a2d-f229-4677-9678-9f67384112b1",
      "meta": {
        "profile": [ "http://hl7.org/fhir/us/qicore/StructureDefinition/qicore-organization" ]
      },
      "identifier": [ {
        "use": "temp",
        "system": "urn:oid:2.16.840.1.113883.4.4",
        "value": "21-3259825"
      } ],
      "active": true,
      "type": [ {
        "coding": [ {
          "system": "http://terminology.hl7.org/CodeSystem/organization-type",
          "code": "pay",
          "display": "Payer"
        } ]
      } ],
      "name": "Blue Cross Blue Shield of Texas",
      "telecom": [ {
        "system": "phone",
        "value": "(+1) 972-766-6900"
      } ],
      "address": [ {
        "use": "billing",
        "type": "postal",
        "line": [ "P.O. Box 660044" ],
        "city": "Dallas",
        "state": "TX",
        "postalCode": "75266-0044",
        "country": "USA"
      } ]
    },
    "request": {
      "method": "PUT",
      "url": "Organization/93808a2d-f229-4677-9678-9f67384112b1"
    }
  }, {
    "fullUrl": "https://madie.cms.gov/Practitioner/712188c4-2acb-4833-85d7-3ab40f245e73",
    "resource": {
      "resourceType": "Practitioner",
      "id": "712188c4-2acb-4833-85d7-3ab40f245e73",
      "identifier": [ {
        "system": "http://hl7.org/fhir/sid/us-npi",
        "value": "123456"
      } ],
      "name": [ {
        "family": "Evil",
        "prefix": [ "Dr" ]
      } ]
    },
    "request": {
      "method": "PUT",
      "url": "Practitioner/712188c4-2acb-4833-85d7-3ab40f245e73"
    }
  }, {
    "fullUrl": "https://madie.cms.gov/MeasureReport/e5e783f9-69b9-4a00-adc7-0bc8b502dbde",
    "resource": {
      "resourceType": "MeasureReport",
      "id": "e5e783f9-69b9-4a00-adc7-0bc8b502dbde",
      "meta": {
        "profile": [ "http://hl7.org/fhir/us/cqfmeasures/StructureDefinition/test-case-cqfm" ]
      },
      "contained": [ {
        "resourceType": "Parameters",
        "id": "a1e74c6f-af94-4b32-9153-f3907d0edd61-parameters",
        "parameter": [ {
          "name": "subject",
          "valueString": "a3e0cca4-bdb1-4972-b6ca-84841cb66859"
        } ]
      } ],
      "extension": [ {
        "url": "http://hl7.org/fhir/StructureDefinition/cqf-inputParameters",
        "valueReference": {
          "reference": "#a1e74c6f-af94-4b32-9153-f3907d0edd61-parameters"
        }
      }, {
        "url": "http://hl7.org/fhir/us/cqfmeasures/StructureDefinition/cqfm-testCaseDescription",
        "valueMarkdown": "risk assessment done  1 day after the end of anesthesia as RevelantDateime, result is low risk\n"
      } ],
      "modifierExtension": [ {
        "url": "http://hl7.org/fhir/us/cqfmeasures/StructureDefinition/cqfm-isTestCase",
        "valueBoolean": true
      } ],
      "status": "complete",
      "type": "individual",
      "measure": "https://madie.cms.gov/Measure/CMS108FHIRVTEProphylaxis",
      "period": {
        "start": "2026-01-01",
        "end": "2026-12-31"
      },
      "group": [ {
        "id": "Group_1",
        "population": [ {
          "id": "InitialPopulation_1",
          "code": {
            "coding": [ {
              "system": "http://terminology.hl7.org/CodeSystem/measure-population",
              "code": "initial-population",
              "display": "Initial Population"
            } ]
          },
          "count": 1
        }, {
          "id": "Denominator_1",
          "code": {
            "coding": [ {
              "system": "http://terminology.hl7.org/CodeSystem/measure-population",
              "code": "denominator",
              "display": "Denominator"
            } ]
          },
          "count": 1
        }, {
          "id": "DenominatorExclusion_1",
          "code": {
            "coding": [ {
              "system": "http://terminology.hl7.org/CodeSystem/measure-population",
              "code": "denominator-exclusion",
              "display": "Denominator Exclusion"
            } ]
          },
          "count": 0
        }, {
          "id": "Numerator_1",
          "code": {
            "coding": [ {
              "system": "http://terminology.hl7.org/CodeSystem/measure-population",
              "code": "numerator",
              "display": "Numerator"
            } ]
          },
          "count": 1
        } ],
        "measureScore": {
          "value": 0.0
        }
      } ],
      "evaluatedResource": [ {
        "reference": "Patient/a3e0cca4-bdb1-4972-b6ca-84841cb66859"
      }, {
        "reference": "Encounter/032a7de0-de28-4772-9609-6932ded148a9"
      }, {
        "reference": "Observation/edcb1939-9ee3-4512-8367-a49160cd9689"
      }, {
        "reference": "Coverage/e77cb0a7-ef7e-4efe-873e-88dbf46e85b5"
      }, {
        "reference": "Procedure/bbf03380-7e63-4161-b91f-45db05ac6e71"
      }, {
        "reference": "Organization/93808a2d-f229-4677-9678-9f67384112b1"
      }, {
        "reference": "Practitioner/712188c4-2acb-4833-85d7-3ab40f245e73"
      } ]
    },
    "request": {
      "method": "PUT",
      "url": "MeasureReport/e5e783f9-69b9-4a00-adc7-0bc8b502dbde"
    }
  } ]
}