{
  "resourceType": "Bundle",
  "id": "OBSERVFail-BothMOsFailDueToFallPOA",
  "type": "transaction",
  "entry": [ {
    "fullUrl": "https://madie.cms.gov/Encounter/55a30091-05f0-47ab-8d10-ab3090408d97",
    "resource": {
      "resourceType": "Encounter",
      "id": "55a30091-05f0-47ab-8d10-ab3090408d97",
      "meta": {
        "profile": [ "http://hl7.org/fhir/us/qicore/StructureDefinition/qicore-encounter" ]
      },
      "status": "finished",
      "class": {
        "system": "http://terminology.hl7.org/CodeSystem/v3-ActCode",
        "code": "IMP",
        "display": "inpatient encounter"
      },
      "type": [ {
        "coding": [ {
          "system": "http://snomed.info/sct",
          "code": "183452005"
        } ]
      } ],
      "subject": {
        "reference": "Patient/4d82afdc-16a1-4f82-849f-10ed8bf9d9a0"
      },
      "period": {
        "start": "2026-11-09T11:00:00.000+00:00",
        "end": "2026-11-12T08:15:00.000+00:00"
      },
      "reasonReference": [ {
        "reference": "Condition/3f07a0af-8a75-4a22-9450-21976e651d3e"
      }, {
        "reference": "Condition/499dabf4-5420-4246-946a-286694f96804"
      } ]
    },
    "request": {
      "method": "PUT",
      "url": "Encounter/55a30091-05f0-47ab-8d10-ab3090408d97"
    }
  }, {
    "fullUrl": "https://madie.cms.gov/Encounter/b0a96730-a61d-4d33-94c5-849f06b215a3",
    "resource": {
      "resourceType": "Encounter",
      "id": "b0a96730-a61d-4d33-94c5-849f06b215a3",
      "meta": {
        "profile": [ "http://hl7.org/fhir/us/qicore/StructureDefinition/qicore-encounter" ]
      },
      "status": "finished",
      "class": {
        "system": "http://terminology.hl7.org/CodeSystem/v3-ActCode",
        "code": "IMP",
        "display": "inpatient encounter"
      },
      "type": [ {
        "coding": [ {
          "system": "http://snomed.info/sct",
          "code": "4525004"
        } ]
      } ],
      "subject": {
        "reference": "Patient/4d82afdc-16a1-4f82-849f-10ed8bf9d9a0"
      },
      "period": {
        "start": "2026-11-09T08:00:00.000+00:00",
        "end": "2026-11-09T10:15:00.000+00:00"
      }
    },
    "request": {
      "method": "PUT",
      "url": "Encounter/b0a96730-a61d-4d33-94c5-849f06b215a3"
    }
  }, {
    "fullUrl": "https://madie.cms.gov/Condition/499dabf4-5420-4246-946a-286694f96804",
    "resource": {
      "resourceType": "Condition",
      "id": "499dabf4-5420-4246-946a-286694f96804",
      "meta": {
        "profile": [ "http://hl7.org/fhir/us/qicore/StructureDefinition/qicore-condition" ]
      },
      "clinicalStatus": {
        "coding": [ {
          "system": "http://terminology.hl7.org/CodeSystem/condition-clinical",
          "code": "active"
        } ]
      },
      "verificationStatus": {
        "coding": [ {
          "system": "http://terminology.hl7.org/CodeSystem/condition-ver-status",
          "code": "confirmed"
        } ]
      },
      "category": [ {
        "coding": [ {
          "system": "http://terminology.hl7.org/CodeSystem/condition-category",
          "code": "encounter-diagnosis",
          "display": "Encounter Diagnosis"
        } ]
      } ],
      "code": {
        "coding": [ {
          "system": "http://snomed.info/sct",
          "code": "56307009"
        } ]
      },
      "subject": {
        "reference": "Patient/4d82afdc-16a1-4f82-849f-10ed8bf9d9a0"
      },
      "encounter": {
        "reference": "Encounter/55a30091-05f0-47ab-8d10-ab3090408d97"
      }
    },
    "request": {
      "method": "PUT",
      "url": "Condition/499dabf4-5420-4246-946a-286694f96804"
    }
  }, {
    "fullUrl": "https://madie.cms.gov/Condition/3f07a0af-8a75-4a22-9450-21976e651d3e",
    "resource": {
      "resourceType": "Condition",
      "id": "3f07a0af-8a75-4a22-9450-21976e651d3e",
      "meta": {
        "profile": [ "http://hl7.org/fhir/us/qicore/StructureDefinition/qicore-condition" ]
      },
      "clinicalStatus": {
        "coding": [ {
          "system": "http://terminology.hl7.org/CodeSystem/condition-clinical",
          "code": "active"
        } ]
      },
      "verificationStatus": {
        "coding": [ {
          "system": "http://terminology.hl7.org/CodeSystem/condition-ver-status",
          "code": "confirmed"
        } ]
      },
      "category": [ {
        "coding": [ {
          "system": "http://terminology.hl7.org/CodeSystem/condition-category",
          "code": "encounter-diagnosis",
          "display": "Encounter Diagnosis"
        } ]
      } ],
      "code": {
        "coding": [ {
          "system": "http://hl7.org/fhir/sid/icd-10-cm",
          "code": "W08.XXXA"
        } ]
      },
      "subject": {
        "reference": "Patient/4d82afdc-16a1-4f82-849f-10ed8bf9d9a0"
      },
      "encounter": {
        "reference": "Encounter/55a30091-05f0-47ab-8d10-ab3090408d97"
      }
    },
    "request": {
      "method": "PUT",
      "url": "Condition/3f07a0af-8a75-4a22-9450-21976e651d3e"
    }
  }, {
    "fullUrl": "https://madie.cms.gov/Patient/4d82afdc-16a1-4f82-849f-10ed8bf9d9a0",
    "resource": {
      "resourceType": "Patient",
      "id": "4d82afdc-16a1-4f82-849f-10ed8bf9d9a0",
      "meta": {
        "profile": [ "http://hl7.org/fhir/us/qicore/StructureDefinition/qicore-patient" ]
      },
      "extension": [ {
        "url": "http://hl7.org/fhir/us/core/StructureDefinition/us-core-race",
        "extension": [ {
          "url": "ombCategory",
          "valueCoding": {
            "system": "urn:oid:2.16.840.1.113883.6.238",
            "code": "2054-5",
            "display": "Black or African American",
            "userSelected": true
          }
        }, {
          "url": "text",
          "valueString": "Black or African American"
        } ]
      }, {
        "url": "http://hl7.org/fhir/us/core/StructureDefinition/us-core-ethnicity",
        "extension": [ {
          "url": "ombCategory",
          "valueCoding": {
            "system": "urn:oid:2.16.840.1.113883.6.238",
            "code": "2186-5",
            "display": "Not Hispanic or Latino",
            "userSelected": true
          }
        }, {
          "url": "text",
          "valueString": "Not Hispanic or Latino"
        } ]
      } ],
      "identifier": [ {
        "type": {
          "coding": [ {
            "system": "http://terminology.hl7.org/CodeSystem/v2-0203",
            "code": "MR"
          } ]
        },
        "system": "https://bonnie-fhir.healthit.gov/",
        "value": "61152a3b98086b7a79cbd7c1"
      } ],
      "active": true,
      "name": [ {
        "use": "usual",
        "family": "OBSERVFail",
        "given": [ "BothMOsFailDueToFallPOA" ]
      } ],
      "gender": "male",
      "birthDate": "1964-12-11"
    },
    "request": {
      "method": "PUT",
      "url": "Patient/4d82afdc-16a1-4f82-849f-10ed8bf9d9a0"
    }
  }, {
    "fullUrl": "https://madie.cms.gov/Claim/a24c4dd3-64c6-4349-8a6c-806865dba33c",
    "resource": {
      "resourceType": "Claim",
      "id": "a24c4dd3-64c6-4349-8a6c-806865dba33c",
      "meta": {
        "profile": [ "http://hl7.org/fhir/us/qicore/StructureDefinition/qicore-claim" ]
      },
      "status": "active",
      "type": {
        "coding": [ {
          "system": "http://terminology.hl7.org/CodeSystem/claim-type",
          "code": "professional",
          "display": "Professional"
        } ]
      },
      "use": "claim",
      "patient": {
        "reference": "Patient/0dfafc1a-cf94-4ca1-becf-c1b843896810"
      },
      "created": "2026-11-12",
      "priority": {
        "coding": [ {
          "system": "http://terminology.hl7.org/CodeSystem/processpriority",
          "code": "normal"
        } ]
      },
      "diagnosis": [ {
        "sequence": 1,
        "diagnosisCodeableConcept": {
          "coding": [ {
            "system": "http://snomed.info/sct",
            "code": "14047009"
          } ]
        },
        "onAdmission": {
          "coding": [ {
            "system": "https://www.cms.gov/Medicare/Medicare-Fee-for-Service-Payment/HospitalAcqCond/Coding",
            "code": "Y"
          } ]
        }
      } ],
      "item": [ {
        "sequence": 1,
        "diagnosisSequence": [ 1, 2 ],
        "encounter": [ {
          "reference": "Encounter/55a30091-05f0-47ab-8d10-ab3090408d97"
        } ]
      } ]
    },
    "request": {
      "method": "PUT",
      "url": "Claim/a24c4dd3-64c6-4349-8a6c-806865dba33c"
    }
  }, {
    "fullUrl": "https://madie.cms.gov/Claim/0bbf951b-27f4-46a1-adc0-61a525ca0347",
    "resource": {
      "resourceType": "Claim",
      "id": "0bbf951b-27f4-46a1-adc0-61a525ca0347",
      "meta": {
        "profile": [ "http://hl7.org/fhir/us/qicore/StructureDefinition/qicore-claim" ]
      },
      "status": "active",
      "type": {
        "coding": [ {
          "system": "http://terminology.hl7.org/CodeSystem/claim-type",
          "code": "professional",
          "display": "Professional"
        } ]
      },
      "use": "claim",
      "patient": {
        "reference": "Patient/972573e8-bd51-4b77-a954-39babec1a055"
      },
      "created": "2026-11-12",
      "priority": {
        "coding": [ {
          "system": "http://terminology.hl7.org/CodeSystem/processpriority",
          "code": "normal"
        } ]
      },
      "diagnosis": [ {
        "sequence": 1,
        "diagnosisCodeableConcept": {
          "coding": [ {
            "system": "http://hl7.org/fhir/sid/icd-10-cm",
            "code": "S01.00XA"
          } ]
        },
        "onAdmission": {
          "coding": [ {
            "system": "https://www.cms.gov/Medicare/Medicare-Fee-for-Service-Payment/HospitalAcqCond/Coding",
            "code": "N"
          } ]
        }
      } ],
      "item": [ {
        "sequence": 1,
        "diagnosisSequence": [ 1, 2 ],
        "encounter": [ {
          "reference": "Encounter/55a30091-05f0-47ab-8d10-ab3090408d97"
        } ]
      } ]
    },
    "request": {
      "method": "PUT",
      "url": "Claim/0bbf951b-27f4-46a1-adc0-61a525ca0347"
    }
  }, {
    "fullUrl": "https://madie.cms.gov/AdverseEvent/9dddd200-a0b1-43f3-a713-0a9983da9480",
    "resource": {
      "resourceType": "AdverseEvent",
      "id": "9dddd200-a0b1-43f3-a713-0a9983da9480",
      "meta": {
        "profile": [ "http://hl7.org/fhir/us/qicore/StructureDefinition/qicore-adverseevent" ]
      },
      "actuality": "actual",
      "event": {
        "coding": [ {
          "system": "http://snomed.info/sct",
          "code": "14047009"
        } ]
      },
      "subject": {
        "reference": "Patient/0dfafc1a-cf94-4ca1-becf-c1b843896810"
      },
      "date": "2026-11-11T08:00:00.000+00:00"
    },
    "request": {
      "method": "PUT",
      "url": "AdverseEvent/9dddd200-a0b1-43f3-a713-0a9983da9480"
    }
  }, {
    "fullUrl": "https://madie.cms.gov/MeasureReport/60c584aa-4271-4485-bf76-ab79f77fd91f",
    "resource": {
      "resourceType": "MeasureReport",
      "id": "60c584aa-4271-4485-bf76-ab79f77fd91f",
      "meta": {
        "profile": [ "http://hl7.org/fhir/us/cqfmeasures/StructureDefinition/test-case-cqfm" ]
      },
      "contained": [ {
        "resourceType": "Parameters",
        "id": "b8c24b7b-7515-44c1-8635-a20fc655fdab-parameters",
        "parameter": [ {
          "name": "subject",
          "valueString": "4d82afdc-16a1-4f82-849f-10ed8bf9d9a0"
        } ]
      } ],
      "extension": [ {
        "url": "http://hl7.org/fhir/StructureDefinition/cqf-inputParameters",
        "valueReference": {
          "reference": "#b8c24b7b-7515-44c1-8635-a20fc655fdab-parameters"
        }
      }, {
        "url": "http://hl7.org/fhir/us/cqfmeasures/StructureDefinition/cqfm-testCaseDescription",
        "valueMarkdown": "Encounter diagnoses include: Fall POA and Moderate injury NPOA. Fall POA meets Denominator so Measure Observations is not counted."
      } ],
      "modifierExtension": [ {
        "url": "http://hl7.org/fhir/us/cqfmeasures/StructureDefinition/cqfm-isTestCase",
        "valueBoolean": true
      } ],
      "status": "complete",
      "type": "individual",
      "measure": "https://madie.cms.gov/Measure/CMS1017FHIRHHFI",
      "period": {
        "start": "2026-01-01",
        "end": "2026-12-31"
      },
      "group": [ {
        "id": "Group_1",
        "population": [ {
          "id": "InitialPopulation_1",
          "code": {
            "coding": [ {
              "system": "http://terminology.hl7.org/CodeSystem/measure-population",
              "code": "initial-population",
              "display": "Initial Population"
            } ]
          },
          "count": 1
        }, {
          "id": "Denominator_1",
          "code": {
            "coding": [ {
              "system": "http://terminology.hl7.org/CodeSystem/measure-population",
              "code": "denominator",
              "display": "Denominator"
            } ]
          },
          "count": 1
        }, {
          "id": "DenominatorExclusion_1",
          "code": {
            "coding": [ {
              "system": "http://terminology.hl7.org/CodeSystem/measure-population",
              "code": "denominator-exclusion",
              "display": "Denominator Exclusion"
            } ]
          },
          "count": 1
        }, {
          "id": "Numerator_1",
          "code": {
            "coding": [ {
              "system": "http://terminology.hl7.org/CodeSystem/measure-population",
              "code": "numerator",
              "display": "Numerator"
            } ]
          },
          "count": 0
        }, {
          "id": "NumeratorExclusion_1",
          "code": {
            "coding": [ {
              "system": "http://terminology.hl7.org/CodeSystem/measure-population",
              "code": "numerator-exclusion",
              "display": "Numerator Exclusion"
            } ]
          },
          "count": 1
        } ],
        "measureScore": {
          "value": 0.0
        }
      } ],
      "evaluatedResource": [ {
        "reference": "Encounter/55a30091-05f0-47ab-8d10-ab3090408d97"
      }, {
        "reference": "Encounter/b0a96730-a61d-4d33-94c5-849f06b215a3"
      }, {
        "reference": "Condition/499dabf4-5420-4246-946a-286694f96804"
      }, {
        "reference": "Condition/3f07a0af-8a75-4a22-9450-21976e651d3e"
      }, {
        "reference": "Patient/4d82afdc-16a1-4f82-849f-10ed8bf9d9a0"
      }, {
        "reference": "Claim/a24c4dd3-64c6-4349-8a6c-806865dba33c"
      }, {
        "reference": "Claim/0bbf951b-27f4-46a1-adc0-61a525ca0347"
      }, {
        "reference": "AdverseEvent/9dddd200-a0b1-43f3-a713-0a9983da9480"
      } ]
    },
    "request": {
      "method": "PUT",
      "url": "MeasureReport/60c584aa-4271-4485-bf76-ab79f77fd91f"
    }
  } ]
}