{
  "resourceType": "Bundle",
  "id": "98116841646686466847",
  "type": "transaction",
  "entry": [ {
    "fullUrl": "https://madie.cms.gov/Patient/491f554e-e897-40c5-ad2b-0983923df4e8",
    "resource": {
      "resourceType": "Patient",
      "id": "491f554e-e897-40c5-ad2b-0983923df4e8",
      "meta": {
        "profile": [ "http://hl7.org/fhir/us/qicore/StructureDefinition/qicore-patient" ]
      },
      "extension": [ {
        "url": "http://hl7.org/fhir/us/core/StructureDefinition/us-core-race",
        "extension": [ {
          "url": "ombCategory",
          "valueCoding": {
            "system": "urn:oid:2.16.840.1.113883.6.238",
            "code": "2106-3",
            "display": "White"
          }
        }, {
          "url": "text",
          "valueString": "White"
        } ]
      }, {
        "url": "http://hl7.org/fhir/us/core/StructureDefinition/us-core-ethnicity",
        "extension": [ {
          "url": "ombCategory",
          "valueCoding": {
            "system": "urn:oid:2.16.840.1.113883.6.238",
            "code": "2186-5",
            "display": "Not Hispanic or Latino"
          }
        }, {
          "url": "text",
          "valueString": "Not Hispanic or Latino"
        } ]
      } ],
      "identifier": [ {
        "type": {
          "coding": [ {
            "system": "http://terminology.hl7.org/CodeSystem/v2-0203",
            "code": "MR"
          } ]
        },
        "system": "https://bonnie-fhir.healthit.gov/",
        "value": "6546841651641616513421"
      } ],
      "name": [ {
        "family": "DENEXPopStrat1Pass",
        "given": [ "HospAmbInMP" ]
      } ],
      "gender": "female",
      "birthDate": "2011-01-01"
    },
    "request": {
      "method": "PUT",
      "url": "Patient/491f554e-e897-40c5-ad2b-0983923df4e8"
    }
  }, {
    "fullUrl": "https://madie.cms.gov/Encounter/a3b1cbf0-6110-4fc1-8b4f-54ee6fe88f9e",
    "resource": {
      "resourceType": "Encounter",
      "id": "a3b1cbf0-6110-4fc1-8b4f-54ee6fe88f9e",
      "meta": {
        "profile": [ "http://hl7.org/fhir/us/qicore/StructureDefinition/qicore-encounter" ]
      },
      "status": "finished",
      "class": {
        "system": "http://terminology.hl7.org/CodeSystem/v3-ActCode",
        "code": "AMB",
        "display": "ambulatory"
      },
      "type": [ {
        "coding": [ {
          "system": "http://www.ama-assn.org/go/cpt",
          "version": "2024",
          "code": "90791"
        } ]
      } ],
      "subject": {
        "reference": "Patient/491f554e-e897-40c5-ad2b-0983923df4e8"
      },
      "period": {
        "start": "2025-02-25T14:30:00+00:00",
        "end": "2025-02-25T14:50:00+00:00"
      },
      "length": {
        "value": 0,
        "unit": "days"
      }
    },
    "request": {
      "method": "PUT",
      "url": "Encounter/a3b1cbf0-6110-4fc1-8b4f-54ee6fe88f9e"
    }
  }, {
    "fullUrl": "https://madie.cms.gov/Observation/38032787-d8a8-4a82-a41c-1a5a77ec85be",
    "resource": {
      "resourceType": "Observation",
      "id": "38032787-d8a8-4a82-a41c-1a5a77ec85be",
      "meta": {
        "profile": [ "http://hl7.org/fhir/us/qicore/StructureDefinition/qicore-observation-screening-assessment" ]
      },
      "status": "final",
      "category": [ {
        "coding": [ {
          "system": "http://terminology.hl7.org/CodeSystem/observation-category",
          "code": "survey",
          "display": "Survey"
        } ]
      } ],
      "code": {
        "coding": [ {
          "system": "http://loinc.org",
          "version": "2.76",
          "code": "44261-6"
        } ]
      },
      "subject": {
        "reference": "Patient/491f554e-e897-40c5-ad2b-0983923df4e8"
      },
      "effectiveDateTime": "2025-02-25T14:35:00+00:00",
      "valueInteger": 10
    },
    "request": {
      "method": "PUT",
      "url": "Observation/38032787-d8a8-4a82-a41c-1a5a77ec85be"
    }
  }, {
    "fullUrl": "https://madie.cms.gov/Observation/db89adaf-bf5f-4aa7-ac3b-530fd2d7e125",
    "resource": {
      "resourceType": "Observation",
      "id": "db89adaf-bf5f-4aa7-ac3b-530fd2d7e125",
      "meta": {
        "profile": [ "http://hl7.org/fhir/us/qicore/StructureDefinition/qicore-observation-screening-assessment" ]
      },
      "status": "final",
      "category": [ {
        "coding": [ {
          "system": "http://terminology.hl7.org/CodeSystem/observation-category",
          "code": "survey",
          "display": "Survey"
        } ]
      } ],
      "code": {
        "coding": [ {
          "system": "http://loinc.org",
          "version": "2.76",
          "code": "44261-6"
        } ]
      },
      "subject": {
        "reference": "Patient/491f554e-e897-40c5-ad2b-0983923df4e8"
      },
      "effectiveDateTime": "2026-02-19T14:30:00+00:00",
      "valueInteger": 3
    },
    "request": {
      "method": "PUT",
      "url": "Observation/db89adaf-bf5f-4aa7-ac3b-530fd2d7e125"
    }
  }, {
    "fullUrl": "https://madie.cms.gov/Condition/2da2fedd-7c90-4b42-bb68-fd67a736628e",
    "resource": {
      "resourceType": "Condition",
      "id": "2da2fedd-7c90-4b42-bb68-fd67a736628e",
      "meta": {
        "profile": [ "http://hl7.org/fhir/us/qicore/StructureDefinition/qicore-condition-problems-health-concerns" ]
      },
      "clinicalStatus": {
        "coding": [ {
          "system": "http://terminology.hl7.org/CodeSystem/condition-clinical",
          "code": "active",
          "display": "active"
        } ]
      },
      "verificationStatus": {
        "coding": [ {
          "system": "http://terminology.hl7.org/CodeSystem/condition-ver-status",
          "code": "confirmed"
        } ]
      },
      "category": [ {
        "coding": [ {
          "system": "http://terminology.hl7.org/CodeSystem/condition-category",
          "code": "problem-list-item",
          "display": "Problem List Item"
        } ]
      } ],
      "code": {
        "coding": [ {
          "system": "http://hl7.org/fhir/sid/icd-10-cm",
          "version": "2024",
          "code": "F32.9"
        } ]
      },
      "subject": {
        "reference": "Patient/491f554e-e897-40c5-ad2b-0983923df4e8"
      },
      "onsetDateTime": "2025-02-25T14:35:00+00:00"
    },
    "request": {
      "method": "PUT",
      "url": "Condition/2da2fedd-7c90-4b42-bb68-fd67a736628e"
    }
  }, {
    "fullUrl": "https://madie.cms.gov/ServiceRequest/26cfa2c9-8b71-4043-8e77-fa3f19bacee5",
    "resource": {
      "resourceType": "ServiceRequest",
      "id": "26cfa2c9-8b71-4043-8e77-fa3f19bacee5",
      "meta": {
        "profile": [ "http://hl7.org/fhir/us/qicore/StructureDefinition/qicore-servicerequest" ]
      },
      "status": "active",
      "intent": "order",
      "code": {
        "coding": [ {
          "system": "http://snomed.info/sct",
          "version": "http://snomed.info/sct/731000124108/version/20240301",
          "code": "385763009",
          "display": "Hospice Care Ambulatory"
        } ]
      },
      "subject": {
        "reference": "http://GoodHealthcare.com/fhir/Patient/46464646"
      },
      "authoredOn": "2026-01-04T08:00:00.000+00:00"
    },
    "request": {
      "method": "PUT",
      "url": "ServiceRequest/26cfa2c9-8b71-4043-8e77-fa3f19bacee5"
    }
  }, {
    "fullUrl": "https://madie.cms.gov/MeasureReport/e7e7e4c3-fb55-4904-a772-46d01263671d",
    "resource": {
      "resourceType": "MeasureReport",
      "id": "e7e7e4c3-fb55-4904-a772-46d01263671d",
      "meta": {
        "profile": [ "http://hl7.org/fhir/us/cqfmeasures/StructureDefinition/test-case-cqfm" ]
      },
      "contained": [ {
        "resourceType": "Parameters",
        "id": "577e54fa-e9ba-4075-9f60-e002e75078df-parameters",
        "parameter": [ {
          "name": "subject",
          "valueString": "491f554e-e897-40c5-ad2b-0983923df4e8"
        } ]
      } ],
      "extension": [ {
        "url": "http://hl7.org/fhir/StructureDefinition/cqf-inputParameters",
        "valueReference": {
          "reference": "#577e54fa-e9ba-4075-9f60-e002e75078df-parameters"
        }
      }, {
        "url": "http://hl7.org/fhir/us/cqfmeasures/StructureDefinition/cqfm-testCaseDescription",
        "valueMarkdown": "Patient is 15 years old and has a Major Depressive Dx and PHQ-9>9 during the denom ID period. Patient has hospice care intervention performed before end of MAP Should be in denominator exclusion for Strat 1. "
      } ],
      "modifierExtension": [ {
        "url": "http://hl7.org/fhir/us/cqfmeasures/StructureDefinition/cqfm-isTestCase",
        "valueBoolean": true
      } ],
      "status": "complete",
      "type": "individual",
      "measure": "https://madie.cms.gov/Measure/CMS159FHIRDepressionRemissionatTwelveMonths",
      "period": {
        "start": "2026-01-01",
        "end": "2026-12-31"
      },
      "group": [ {
        "id": "Group_1",
        "population": [ {
          "id": "InitialPopulation_1",
          "code": {
            "coding": [ {
              "system": "http://terminology.hl7.org/CodeSystem/measure-population",
              "code": "initial-population",
              "display": "Initial Population"
            } ]
          },
          "count": 1
        }, {
          "id": "Denominator_1",
          "code": {
            "coding": [ {
              "system": "http://terminology.hl7.org/CodeSystem/measure-population",
              "code": "denominator",
              "display": "Denominator"
            } ]
          },
          "count": 1
        }, {
          "id": "DenominatorExclusion_1",
          "code": {
            "coding": [ {
              "system": "http://terminology.hl7.org/CodeSystem/measure-population",
              "code": "denominator-exclusion",
              "display": "Denominator Exclusion"
            } ]
          },
          "count": 1
        }, {
          "id": "Numerator_1",
          "code": {
            "coding": [ {
              "system": "http://terminology.hl7.org/CodeSystem/measure-population",
              "code": "numerator",
              "display": "Numerator"
            } ]
          },
          "count": 0
        } ],
        "measureScore": {
          "value": 1.0
        }
      } ],
      "evaluatedResource": [ {
        "reference": "Patient/491f554e-e897-40c5-ad2b-0983923df4e8"
      }, {
        "reference": "Encounter/a3b1cbf0-6110-4fc1-8b4f-54ee6fe88f9e"
      }, {
        "reference": "Observation/38032787-d8a8-4a82-a41c-1a5a77ec85be"
      }, {
        "reference": "Observation/db89adaf-bf5f-4aa7-ac3b-530fd2d7e125"
      }, {
        "reference": "Condition/2da2fedd-7c90-4b42-bb68-fd67a736628e"
      }, {
        "reference": "ServiceRequest/26cfa2c9-8b71-4043-8e77-fa3f19bacee5"
      } ]
    },
    "request": {
      "method": "PUT",
      "url": "MeasureReport/e7e7e4c3-fb55-4904-a772-46d01263671d"
    }
  } ]
}