{
  "resourceType": "Bundle",
  "id": "633b3f9e0968f80122503ccf",
  "type": "transaction",
  "entry": [ {
    "fullUrl": "https://madie.cms.gov/Patient/f556e7de-9a74-4ea8-8a25-ca7ab8b97ef3",
    "resource": {
      "resourceType": "Patient",
      "id": "f556e7de-9a74-4ea8-8a25-ca7ab8b97ef3",
      "meta": {
        "profile": [ "http://hl7.org/fhir/us/qicore/StructureDefinition/qicore-patient" ]
      },
      "text": {
        "status": "generated",
        "div": "<div xmlns=\"http://www.w3.org/1999/xhtml\"><div class=\"hapiHeaderText\">AssPrfDELRsltDtTimeEQIPStartPlus1Min<b>DENOMPASS</b></div><table class=\"hapiPropertyTable\"><tbody><tr><td>Date of birth</td><td><span>01 February 2004</span></td></tr></tbody></table></div>"
      },
      "extension": [ {
        "url": "http://hl7.org/fhir/us/core/StructureDefinition/us-core-race",
        "extension": [ {
          "url": "ombCategory",
          "valueCoding": {
            "system": "urn:oid:2.16.840.1.113883.6.238",
            "code": "1002-5",
            "display": "American Indian or Alaska Native",
            "userSelected": true
          }
        }, {
          "url": "text",
          "valueString": "American Indian or Alaska Native"
        } ]
      }, {
        "url": "http://hl7.org/fhir/us/core/StructureDefinition/us-core-ethnicity",
        "extension": [ {
          "url": "ombCategory",
          "valueCoding": {
            "system": "urn:oid:2.16.840.1.113883.6.238",
            "code": "2135-2",
            "display": "Hispanic or Latino",
            "userSelected": true
          }
        }, {
          "url": "text",
          "valueString": "Hispanic or Latino"
        } ]
      } ],
      "identifier": [ {
        "type": {
          "coding": [ {
            "system": "http://terminology.hl7.org/CodeSystem/v2-0203",
            "code": "MR"
          } ]
        },
        "system": "https://bonnie-fhir.healthit.gov/",
        "value": "633b3f9e0968f80122503ccf"
      } ],
      "active": true,
      "name": [ {
        "use": "usual",
        "family": "DENOMPass",
        "given": [ "AssPrfDELRsltDtTimeEQIPStartPlus1Min" ]
      } ],
      "gender": "female",
      "birthDate": "2005-02-01"
    },
    "request": {
      "method": "PUT",
      "url": "Patient/f556e7de-9a74-4ea8-8a25-ca7ab8b97ef3"
    }
  }, {
    "fullUrl": "https://madie.cms.gov/Observation/64db97c4-9f4d-4732-9cf8-c4912ea9aed0",
    "resource": {
      "resourceType": "Observation",
      "id": "64db97c4-9f4d-4732-9cf8-c4912ea9aed0",
      "meta": {
        "profile": [ "http://hl7.org/fhir/us/qicore/StructureDefinition/qicore-simple-observation" ]
      },
      "status": "final",
      "category": [ {
        "coding": [ {
          "system": "http://terminology.hl7.org/CodeSystem/observation-category",
          "code": "exam",
          "display": "Exam",
          "userSelected": true
        } ]
      } ],
      "code": {
        "coding": [ {
          "system": "http://loinc.org",
          "code": "93857-1"
        } ]
      },
      "subject": {
        "reference": "Patient/f556e7de-9a74-4ea8-8a25-ca7ab8b97ef3"
      },
      "effectiveDateTime": "2026-02-01T08:01:00Z",
      "performer": [ {
        "reference": "Organization/example1",
        "display": "Hendricks Country Hospital"
      } ],
      "valueDateTime": "2026-02-01T08:01:00.000+00:00"
    },
    "request": {
      "method": "PUT",
      "url": "Observation/64db97c4-9f4d-4732-9cf8-c4912ea9aed0"
    }
  }, {
    "fullUrl": "https://madie.cms.gov/Observation/57b948f8-89a4-4ded-b13c-0b8608300e4a",
    "resource": {
      "resourceType": "Observation",
      "id": "57b948f8-89a4-4ded-b13c-0b8608300e4a",
      "meta": {
        "profile": [ "http://hl7.org/fhir/us/qicore/StructureDefinition/qicore-simple-observation" ]
      },
      "status": "final",
      "category": [ {
        "coding": [ {
          "system": "http://terminology.hl7.org/CodeSystem/observation-category",
          "code": "exam",
          "display": "Exam",
          "userSelected": true
        } ]
      } ],
      "code": {
        "coding": [ {
          "system": "http://loinc.org",
          "code": "11778-8"
        } ]
      },
      "subject": {
        "reference": "Patient/f556e7de-9a74-4ea8-8a25-ca7ab8b97ef3"
      },
      "effectiveDateTime": "2026-02-01T08:00:00Z",
      "performer": [ {
        "reference": "Organization/example1",
        "display": "Hendricks Country Hospital"
      } ],
      "valueDateTime": "2026-02-01T08:00:00.000+00:00"
    },
    "request": {
      "method": "PUT",
      "url": "Observation/57b948f8-89a4-4ded-b13c-0b8608300e4a"
    }
  }, {
    "fullUrl": "https://madie.cms.gov/Encounter/913a58c5-9b1d-4c39-9c0f-827e9c316180",
    "resource": {
      "resourceType": "Encounter",
      "id": "913a58c5-9b1d-4c39-9c0f-827e9c316180",
      "meta": {
        "profile": [ "http://hl7.org/fhir/us/qicore/StructureDefinition/qicore-encounter" ]
      },
      "status": "finished",
      "class": {
        "system": "http://terminology.hl7.org/CodeSystem/v3-ActCode",
        "code": "IMP",
        "display": "inpatient encounter"
      },
      "type": [ {
        "coding": [ {
          "system": "http://snomed.info/sct",
          "code": "183452005"
        } ]
      } ],
      "subject": {
        "reference": "Patient/f556e7de-9a74-4ea8-8a25-ca7ab8b97ef3"
      },
      "period": {
        "start": "2026-02-01T08:00:00Z",
        "end": "2026-02-05T08:15:00.000+00:00"
      }
    },
    "request": {
      "method": "PUT",
      "url": "Encounter/913a58c5-9b1d-4c39-9c0f-827e9c316180"
    }
  }, {
    "fullUrl": "https://madie.cms.gov/Procedure/d87f95dd-66df-4305-aa49-3dda72dfa73a",
    "resource": {
      "resourceType": "Procedure",
      "id": "d87f95dd-66df-4305-aa49-3dda72dfa73a",
      "meta": {
        "profile": [ "http://hl7.org/fhir/us/qicore/StructureDefinition/qicore-procedure" ]
      },
      "extension": [ {
        "url": "http://hl7.org/fhir/us/qicore/StructureDefinition/qicore-recorded",
        "valueDateTime": "2014-04-05T13:35:00Z"
      } ],
      "status": "completed",
      "code": {
        "coding": [ {
          "system": "http://snomed.info/sct",
          "code": "10745001"
        } ]
      },
      "subject": {
        "reference": "Patient/f556e7de-9a74-4ea8-8a25-ca7ab8b97ef3"
      },
      "performedPeriod": {
        "start": "2026-02-01T08:00:00Z",
        "end": "2026-02-05T08:15:00.000+00:00"
      }
    },
    "request": {
      "method": "PUT",
      "url": "Procedure/d87f95dd-66df-4305-aa49-3dda72dfa73a"
    }
  }, {
    "fullUrl": "https://madie.cms.gov/Coverage/27c666c1-0521-4399-a578-825c04015d45",
    "resource": {
      "resourceType": "Coverage",
      "id": "27c666c1-0521-4399-a578-825c04015d45",
      "meta": {
        "profile": [ "http://hl7.org/fhir/us/qicore/StructureDefinition/qicore-coverage" ]
      },
      "status": "active",
      "subscriberId": "523435",
      "beneficiary": {
        "reference": "Patient/f556e7de-9a74-4ea8-8a25-ca7ab8b97ef3"
      },
      "relationship": {
        "coding": [ {
          "system": "http://terminology.hl7.org/CodeSystem/subscriber-relationship",
          "code": "self"
        } ]
      },
      "payor": [ {
        "reference": "Organization/a6aa658e-7e82-441a-b699-114730ade9b2"
      } ]
    },
    "request": {
      "method": "PUT",
      "url": "Coverage/27c666c1-0521-4399-a578-825c04015d45"
    }
  }, {
    "fullUrl": "https://madie.cms.gov/Organization/a6aa658e-7e82-441a-b699-114730ade9b2",
    "resource": {
      "resourceType": "Organization",
      "id": "a6aa658e-7e82-441a-b699-114730ade9b2",
      "meta": {
        "profile": [ "http://hl7.org/fhir/us/qicore/StructureDefinition/qicore-organization" ]
      },
      "identifier": [ {
        "use": "temp",
        "system": "urn:oid:2.16.840.1.113883.4.4",
        "value": "21-3259825"
      } ],
      "active": true,
      "type": [ {
        "coding": [ {
          "system": "http://terminology.hl7.org/CodeSystem/organization-type",
          "code": "pay",
          "display": "Payer"
        } ]
      } ],
      "name": "Blue Cross Blue Shield of Texas",
      "telecom": [ {
        "system": "phone",
        "value": "(+1) 972-766-6900"
      } ],
      "address": [ {
        "use": "billing",
        "type": "postal",
        "line": [ "P.O. Box 660044" ],
        "city": "Dallas",
        "state": "TX",
        "postalCode": "75266-0044",
        "country": "USA"
      } ]
    },
    "request": {
      "method": "PUT",
      "url": "Organization/a6aa658e-7e82-441a-b699-114730ade9b2"
    }
  }, {
    "fullUrl": "https://madie.cms.gov/Practitioner/a6b9274f-d5bd-462f-8f5f-b7cd1134e7bb",
    "resource": {
      "resourceType": "Practitioner",
      "id": "a6b9274f-d5bd-462f-8f5f-b7cd1134e7bb",
      "meta": {
        "profile": [ "http://hl7.org/fhir/us/qicore/StructureDefinition/qicore-practitioner" ]
      },
      "identifier": [ {
        "system": "http://hl7.org/fhir/sid/us-npi",
        "value": "1234567890"
      } ],
      "name": [ {
        "family": "Evil",
        "prefix": [ "Dr" ]
      } ]
    },
    "request": {
      "method": "PUT",
      "url": "Practitioner/a6b9274f-d5bd-462f-8f5f-b7cd1134e7bb"
    }
  }, {
    "fullUrl": "https://madie.cms.gov/MeasureReport/a96dd170-16d6-4feb-88d2-02fa736fffb7",
    "resource": {
      "resourceType": "MeasureReport",
      "id": "a96dd170-16d6-4feb-88d2-02fa736fffb7",
      "meta": {
        "profile": [ "http://hl7.org/fhir/us/cqfmeasures/StructureDefinition/test-case-cqfm" ]
      },
      "contained": [ {
        "resourceType": "Parameters",
        "id": "81a2e6c9-884a-4aeb-ae8a-dd6e50a800ca-parameters",
        "parameter": [ {
          "name": "subject",
          "valueString": "f556e7de-9a74-4ea8-8a25-ca7ab8b97ef3"
        } ]
      } ],
      "extension": [ {
        "url": "http://hl7.org/fhir/StructureDefinition/cqf-inputParameters",
        "valueReference": {
          "reference": "#81a2e6c9-884a-4aeb-ae8a-dd6e50a800ca-parameters"
        }
      }, {
        "url": "http://hl7.org/fhir/us/cqfmeasures/StructureDefinition/cqfm-testCaseDescription",
        "valueMarkdown": "\"Result date/Time of delivery (based on assessment performed) is equal to encounter start plus one minute.\"\n"
      } ],
      "modifierExtension": [ {
        "url": "http://hl7.org/fhir/us/cqfmeasures/StructureDefinition/cqfm-isTestCase",
        "valueBoolean": true
      } ],
      "status": "complete",
      "type": "individual",
      "measure": "https://madie.cms.gov/Measure/CMS1028FHIRPCSevereOBComps",
      "period": {
        "start": "2026-01-01",
        "end": "2026-12-31"
      },
      "group": [ {
        "id": "Group_1",
        "population": [ {
          "id": "InitialPopulation_1",
          "code": {
            "coding": [ {
              "system": "http://terminology.hl7.org/CodeSystem/measure-population",
              "code": "initial-population",
              "display": "Initial Population"
            } ]
          },
          "count": 1
        }, {
          "id": "Denominator_1",
          "code": {
            "coding": [ {
              "system": "http://terminology.hl7.org/CodeSystem/measure-population",
              "code": "denominator",
              "display": "Denominator"
            } ]
          },
          "count": 1
        }, {
          "id": "Numerator_1",
          "code": {
            "coding": [ {
              "system": "http://terminology.hl7.org/CodeSystem/measure-population",
              "code": "numerator",
              "display": "Numerator"
            } ]
          },
          "count": 0
        }, {
          "id": "NumeratorExclusion_1",
          "code": {
            "coding": [ {
              "system": "http://terminology.hl7.org/CodeSystem/measure-population",
              "code": "numerator-exclusion",
              "display": "Numerator Exclusion"
            } ]
          },
          "count": 0
        } ],
        "measureScore": {
          "value": 0.0
        }
      }, {
        "id": "Group_2",
        "population": [ {
          "id": "InitialPopulation_2",
          "code": {
            "coding": [ {
              "system": "http://terminology.hl7.org/CodeSystem/measure-population",
              "code": "initial-population",
              "display": "Initial Population"
            } ]
          },
          "count": 1
        }, {
          "id": "Denominator_2",
          "code": {
            "coding": [ {
              "system": "http://terminology.hl7.org/CodeSystem/measure-population",
              "code": "denominator",
              "display": "Denominator"
            } ]
          },
          "count": 1
        }, {
          "id": "Numerator_2",
          "code": {
            "coding": [ {
              "system": "http://terminology.hl7.org/CodeSystem/measure-population",
              "code": "numerator",
              "display": "Numerator"
            } ]
          },
          "count": 0
        }, {
          "id": "NumeratorExclusion_2",
          "code": {
            "coding": [ {
              "system": "http://terminology.hl7.org/CodeSystem/measure-population",
              "code": "numerator-exclusion",
              "display": "Numerator Exclusion"
            } ]
          },
          "count": 0
        } ],
        "measureScore": {
          "value": 0.0
        }
      } ],
      "evaluatedResource": [ {
        "reference": "Patient/f556e7de-9a74-4ea8-8a25-ca7ab8b97ef3"
      }, {
        "reference": "Observation/64db97c4-9f4d-4732-9cf8-c4912ea9aed0"
      }, {
        "reference": "Observation/57b948f8-89a4-4ded-b13c-0b8608300e4a"
      }, {
        "reference": "Encounter/913a58c5-9b1d-4c39-9c0f-827e9c316180"
      }, {
        "reference": "Procedure/d87f95dd-66df-4305-aa49-3dda72dfa73a"
      }, {
        "reference": "Coverage/27c666c1-0521-4399-a578-825c04015d45"
      }, {
        "reference": "Organization/a6aa658e-7e82-441a-b699-114730ade9b2"
      }, {
        "reference": "Practitioner/a6b9274f-d5bd-462f-8f5f-b7cd1134e7bb"
      } ]
    },
    "request": {
      "method": "PUT",
      "url": "MeasureReport/a96dd170-16d6-4feb-88d2-02fa736fffb7"
    }
  } ]
}