{
    "entry": [
        {
            "request": {
                "method": "PUT",
                "url": "Patient/6714818f-8aa6-4673-8c39-fd35e470461c"
            },
            "resource": {
                "identifier": [{
                    "system": "https://bonnie-fhir.healthit.gov/",
                    "type": {"coding": [{
                        "system": "http://terminology.hl7.org/CodeSystem/v2-0203",
                        "code": "MR"
                    }]},
                    "value": "62cc370167cd2f796b838ab4"
                }],
                "extension": [
                    {
                        "extension": [
                            {
                                "valueCoding": {
                                    "system": "urn:oid:2.16.840.1.113883.6.238",
                                    "code": "2076-8",
                                    "userSelected": true,
                                    "display": "Native Hawaiian or Other Pacific Islander"
                                },
                                "url": "ombCategory"
                            },
                            {
                                "valueString": "Native Hawaiian or Other Pacific Islander",
                                "url": "text"
                            }
                        ],
                        "url": "http://hl7.org/fhir/us/core/StructureDefinition/us-core-race"
                    },
                    {
                        "extension": [
                            {
                                "valueCoding": {
                                    "system": "urn:oid:2.16.840.1.113883.6.238",
                                    "code": "2186-5",
                                    "userSelected": true,
                                    "display": "Not Hispanic or Latino"
                                },
                                "url": "ombCategory"
                            },
                            {
                                "valueString": "Not Hispanic or Latino",
                                "url": "text"
                            }
                        ],
                        "url": "http://hl7.org/fhir/us/core/StructureDefinition/us-core-ethnicity"
                    }
                ],
                "gender": "female",
                "meta": {"profile": ["http://hl7.org/fhir/us/qicore/StructureDefinition/qicore-patient"]},
                "name": [{
                    "given": ["2EncsHTNWeightActivityLab"],
                    "family": "NUMERPassX2"
                }],
                "id": "6714818f-8aa6-4673-8c39-fd35e470461c",
                "birthDate": "2006-01-31",
                "resourceType": "Patient"
            },
            "fullUrl": "https://madie.cms.gov/Patient/6714818f-8aa6-4673-8c39-fd35e470461c"
        },
        {
            "request": {
                "method": "PUT",
                "url": "Encounter/bf19873b-d386-4583-a47c-b6a4336a11e0"
            },
            "resource": {
                "period": {
                    "start": "2026-01-01T08:00:00.000+00:00",
                    "end": "2026-01-01T08:30:00.000+00:00"
                },
                "meta": {"profile": ["http://hl7.org/fhir/us/qicore/StructureDefinition/qicore-encounter"]},
                "subject": {"reference": "Patient/6714818f-8aa6-4673-8c39-fd35e470461c"},
                "id": "bf19873b-d386-4583-a47c-b6a4336a11e0",
                "type": [{"coding": [{
                    "system": "http://snomed.info/sct",
                    "code": "103705002",
                    "userSelected": true,
                    "display": "Patient status observation (procedure)",
                    "version": "2022-03"
                }]}],
                "class": {
                    "system": "http://terminology.hl7.org/CodeSystem/v3-ActCode",
                    "code": "AMB",
                    "display": "ambulatory"
                },
                "resourceType": "Encounter",
                "status": "finished"
            },
            "fullUrl": "https://madie.cms.gov/Encounter/bf19873b-d386-4583-a47c-b6a4336a11e0"
        },
        {
            "request": {
                "method": "PUT",
                "url": "Observation/49a879ee-0c7c-42c2-be24-588d62aae82c"
            },
            "resource": {
                "component": [
                    {
                        "code": {"coding": [{
                            "system": "http://loinc.org",
                            "code": "8480-6",
                            "display": "Systolic blood pressure"
                        }]},
                        "valueQuantity": {
                            "unit": "mmHg",
                            "system": "http://unitsofmeasure.org",
                            "code": "mm[Hg]",
                            "value": 130
                        }
                    },
                    {
                        "code": {"coding": [{
                            "system": "http://loinc.org",
                            "code": "8462-4",
                            "display": "Diastolic blood pressure"
                        }]},
                        "valueQuantity": {
                            "unit": "mmHg",
                            "system": "http://unitsofmeasure.org",
                            "code": "mm[Hg]",
                            "value": 80
                        }
                    }
                ],
                "code": {"coding": [{
                    "system": "http://loinc.org",
                    "code": "85354-9",
                    "display": "Blood pressure panel"
                }]},
                "effectiveDateTime": "2026-01-01T08:05:00.000+00:00",
                "meta": {"profile": ["http://hl7.org/fhir/us/core/StructureDefinition/us-core-blood-pressure"]},
                "subject": {"reference": "Patient/6714818f-8aa6-4673-8c39-fd35e470461c"},
                "id": "49a879ee-0c7c-42c2-be24-588d62aae82c",
                "category": [{
                    "coding": [{
                        "system": "http://terminology.hl7.org/CodeSystem/observation-category",
                        "code": "vital-signs",
                        "display": "Vital Signs"
                    }],
                    "text": "Vital Signs"
                }],
                "resourceType": "Observation",
                "status": "final"
            },
            "fullUrl": "https://madie.cms.gov/Observation/49a879ee-0c7c-42c2-be24-588d62aae82c"
        },
        {
            "request": {
                "method": "PUT",
                "url": "ServiceRequest/57a2c0b5-31c9-4e2b-9f28-7dd9fd196fb3"
            },
            "resource": {
                "code": {"coding": [{
                    "system": "http://snomed.info/sct",
                    "code": "183617005",
                    "userSelected": true,
                    "display": "Follow-up 1 day (finding)",
                    "version": "2022-03"
                }]},
                "authoredOn": "2026-01-01T08:25:00.000+00:00",
                "meta": {"profile": ["http://hl7.org/fhir/us/qicore/StructureDefinition/qicore-servicerequest"]},
                "subject": {"reference": "Patient/6714818f-8aa6-4673-8c39-fd35e470461c"},
                "id": "57a2c0b5-31c9-4e2b-9f28-7dd9fd196fb3",
                "intent": "order",
                "resourceType": "ServiceRequest",
                "status": "active"
            },
            "fullUrl": "https://madie.cms.gov/ServiceRequest/57a2c0b5-31c9-4e2b-9f28-7dd9fd196fb3"
        },
        {
            "request": {
                "method": "PUT",
                "url": "ServiceRequest/c43ccb35-b3c5-44f2-9bd2-7635f3be18e2"
            },
            "resource": {
                "code": {"coding": [{
                    "system": "http://snomed.info/sct",
                    "code": "1181000175107",
                    "userSelected": true,
                    "display": "Recommendation to lose weight (procedure)",
                    "version": "2022-03"
                }]},
                "authoredOn": "2026-01-01T08:25:00.000+00:00",
                "meta": {"profile": ["http://hl7.org/fhir/us/qicore/StructureDefinition/qicore-servicerequest"]},
                "subject": {"reference": "Patient/6714818f-8aa6-4673-8c39-fd35e470461c"},
                "id": "c43ccb35-b3c5-44f2-9bd2-7635f3be18e2",
                "intent": "order",
                "resourceType": "ServiceRequest",
                "status": "active"
            },
            "fullUrl": "https://madie.cms.gov/ServiceRequest/c43ccb35-b3c5-44f2-9bd2-7635f3be18e2"
        },
        {
            "request": {
                "method": "PUT",
                "url": "Encounter/039bfcaf-fc0f-468f-b634-89aa5956d1b7"
            },
            "resource": {
                "period": {
                    "start": "2026-12-31T09:00:00.000+00:00",
                    "end": "2026-12-31T09:30:00.000+00:00"
                },
                "meta": {"profile": ["http://hl7.org/fhir/us/qicore/StructureDefinition/qicore-encounter"]},
                "subject": {"reference": "Patient/6714818f-8aa6-4673-8c39-fd35e470461c"},
                "id": "039bfcaf-fc0f-468f-b634-89aa5956d1b7",
                "type": [{"coding": [{
                    "system": "http://snomed.info/sct",
                    "code": "103705002",
                    "userSelected": true,
                    "display": "Patient status observation (procedure)",
                    "version": "2022-03"
                }]}],
                "class": {
                    "system": "http://terminology.hl7.org/CodeSystem/v3-ActCode",
                    "code": "AMB",
                    "display": "ambulatory"
                },
                "resourceType": "Encounter",
                "status": "finished"
            },
            "fullUrl": "https://madie.cms.gov/Encounter/039bfcaf-fc0f-468f-b634-89aa5956d1b7"
        },
        {
            "request": {
                "method": "PUT",
                "url": "Observation/2b2d46fb-6a8a-4213-bc96-4b99c474de49"
            },
            "resource": {
                "component": [
                    {
                        "code": {"coding": [{
                            "system": "http://loinc.org",
                            "code": "8480-6",
                            "display": "Systolic blood pressure"
                        }]},
                        "valueQuantity": {
                            "unit": "mmHg",
                            "system": "http://unitsofmeasure.org",
                            "code": "mm[Hg]",
                            "value": 130
                        }
                    },
                    {
                        "code": {"coding": [{
                            "system": "http://loinc.org",
                            "code": "8462-4",
                            "display": "Diastolic blood pressure"
                        }]},
                        "valueQuantity": {
                            "unit": "mmHg",
                            "system": "http://unitsofmeasure.org",
                            "code": "mm[Hg]",
                            "value": 80
                        }
                    }
                ],
                "code": {"coding": [{
                    "system": "http://loinc.org",
                    "code": "85354-9",
                    "display": "Blood pressure panel"
                }]},
                "effectiveDateTime": "2026-12-31T09:05:00.000+00:00",
                "meta": {"profile": ["http://hl7.org/fhir/us/core/StructureDefinition/us-core-blood-pressure"]},
                "subject": {"reference": "Patient/6714818f-8aa6-4673-8c39-fd35e470461c"},
                "id": "2b2d46fb-6a8a-4213-bc96-4b99c474de49",
                "category": [{
                    "coding": [{
                        "system": "http://terminology.hl7.org/CodeSystem/observation-category",
                        "code": "vital-signs",
                        "display": "Vital Signs"
                    }],
                    "text": "Vital Signs"
                }],
                "resourceType": "Observation",
                "status": "final"
            },
            "fullUrl": "https://madie.cms.gov/Observation/2b2d46fb-6a8a-4213-bc96-4b99c474de49"
        },
        {
            "request": {
                "method": "PUT",
                "url": "ServiceRequest/41fc6d6f-e884-4dd1-8317-1934c006a850"
            },
            "resource": {
                "code": {"coding": [{
                    "system": "http://snomed.info/sct",
                    "code": "183624006",
                    "userSelected": true,
                    "display": "Follow-up 2-3 months (finding)"
                }]},
                "authoredOn": "2026-12-31T09:25:00.000+00:00",
                "meta": {"profile": ["http://hl7.org/fhir/us/qicore/StructureDefinition/qicore-servicerequest"]},
                "subject": {"reference": "Patient/6714818f-8aa6-4673-8c39-fd35e470461c"},
                "id": "41fc6d6f-e884-4dd1-8317-1934c006a850",
                "intent": "order",
                "resourceType": "ServiceRequest",
                "status": "active"
            },
            "fullUrl": "https://madie.cms.gov/ServiceRequest/41fc6d6f-e884-4dd1-8317-1934c006a850"
        },
        {
            "request": {
                "method": "PUT",
                "url": "ServiceRequest/ea280149-cee3-45b6-b037-c6d02022bc15"
            },
            "resource": {
                "code": {"coding": [{
                    "system": "http://snomed.info/sct",
                    "code": "281090004",
                    "userSelected": true,
                    "display": "Recommendation to exercise (procedure)",
                    "version": "2022-03"
                }]},
                "authoredOn": "2026-12-31T09:25:00.000+00:00",
                "meta": {"profile": ["http://hl7.org/fhir/us/qicore/StructureDefinition/qicore-servicerequest"]},
                "subject": {"reference": "Patient/6714818f-8aa6-4673-8c39-fd35e470461c"},
                "id": "ea280149-cee3-45b6-b037-c6d02022bc15",
                "intent": "order",
                "resourceType": "ServiceRequest",
                "status": "active"
            },
            "fullUrl": "https://madie.cms.gov/ServiceRequest/ea280149-cee3-45b6-b037-c6d02022bc15"
        },
        {
            "request": {
                "method": "PUT",
                "url": "ServiceRequest/a9555250-4686-467e-b296-392198a76a81"
            },
            "resource": {
                "code": {"coding": [{
                    "system": "http://loinc.org",
                    "code": "24320-4",
                    "userSelected": true,
                    "display": "Basic metabolic 1998 panel - Serum or Plasma",
                    "version": "2.72"
                }]},
                "authoredOn": "2026-12-31T09:25:00.000+00:00",
                "meta": {"profile": ["http://hl7.org/fhir/us/qicore/StructureDefinition/qicore-servicerequest"]},
                "subject": {"reference": "Patient/6714818f-8aa6-4673-8c39-fd35e470461c"},
                "id": "a9555250-4686-467e-b296-392198a76a81",
                "intent": "order",
                "resourceType": "ServiceRequest",
                "status": "active"
            },
            "fullUrl": "https://madie.cms.gov/ServiceRequest/a9555250-4686-467e-b296-392198a76a81"
        },
        {
            "request": {
                "method": "PUT",
                "url": "Coverage/31bbcd99-fafd-444b-963d-65568d888af5"
            },
            "resource": {
                "payor": [{"reference": "Organization/16574a17-8c6e-40d2-be58-36b01d7e1a00"}],
                "beneficiary": {"reference": "Patient/6714818f-8aa6-4673-8c39-fd35e470461c"},
                "meta": {"profile": ["http://hl7.org/fhir/us/qicore/StructureDefinition/qicore-coverage"]},
                "id": "31bbcd99-fafd-444b-963d-65568d888af5",
                "resourceType": "Coverage",
                "status": "active"
            },
            "fullUrl": "https://madie.cms.gov/Coverage/31bbcd99-fafd-444b-963d-65568d888af5"
        },
        {
            "request": {
                "method": "PUT",
                "url": "Organization/16574a17-8c6e-40d2-be58-36b01d7e1a00"
            },
            "resource": {
                "identifier": [{
                    "system": "urn:oid:2.16.840.1.113883.4.4",
                    "use": "temp",
                    "value": "21-3259825"
                }],
                "address": [{
                    "country": "USA",
                    "city": "Dallas",
                    "use": "billing",
                    "line": ["P.O. Box 660044"],
                    "postalCode": "75266-0044",
                    "state": "TX",
                    "type": "postal"
                }],
                "meta": {"profile": ["http://hl7.org/fhir/us/qicore/StructureDefinition/qicore-organization"]},
                "name": "Blue Cross Blue Shield of Texas",
                "active": true,
                "telecom": [{
                    "system": "phone",
                    "value": "(+1) 972-766-6900"
                }],
                "id": "16574a17-8c6e-40d2-be58-36b01d7e1a00",
                "type": [{"coding": [{
                    "system": "http://terminology.hl7.org/CodeSystem/organization-type",
                    "code": "pay",
                    "display": "Payer"
                }]}],
                "resourceType": "Organization"
            },
            "fullUrl": "https://madie.cms.gov/Organization/16574a17-8c6e-40d2-be58-36b01d7e1a00"
        },
        {
            "request": {
                "method": "PUT",
                "url": "MeasureReport/b968dcd0-550c-4714-b335-e99542333b80"
            },
            "resource": {
                "contained": [{
                    "parameter": [{
                        "valueString": "6714818f-8aa6-4673-8c39-fd35e470461c",
                        "name": "subject"
                    }],
                    "id": "893e0ace-3f98-473c-91d5-6bcfb8d5641d-parameters",
                    "resourceType": "Parameters"
                }],
                "extension": [
                    {
                        "valueReference": {"reference": "#893e0ace-3f98-473c-91d5-6bcfb8d5641d-parameters"},
                        "url": "http://hl7.org/fhir/StructureDefinition/cqf-inputParameters"
                    },
                    {
                        "valueMarkdown": "Age 18+, 1st enc. 01/01 0800- 0830 during MP, bp 130/80, f/u 4 wks, wt reduction recommend.\n\n2nd enc. 12/31  0900 - 0930 during MP,  BP 130/80 ref/u 2-3 wks, recommend exercise. ordered BMP, ",
                        "url": "http://hl7.org/fhir/us/cqfmeasures/StructureDefinition/cqfm-testCaseDescription"
                    }
                ],
                "period": {
                    "start": "2026-01-01",
                    "end": "2026-12-31"
                },
                "measure": "https://madie.cms.gov/Measure/CMS22FHIRPCSBPScreeningFollowUp",
                "meta": {"profile": ["http://hl7.org/fhir/us/cqfmeasures/StructureDefinition/test-case-cqfm"]},
                "modifierExtension": [{
                    "valueBoolean": true,
                    "url": "http://hl7.org/fhir/us/cqfmeasures/StructureDefinition/cqfm-isTestCase"
                }],
                "id": "b968dcd0-550c-4714-b335-e99542333b80",
                "evaluatedResource": [
                    {"reference": "Patient/6714818f-8aa6-4673-8c39-fd35e470461c"},
                    {"reference": "Encounter/bf19873b-d386-4583-a47c-b6a4336a11e0"},
                    {"reference": "Observation/49a879ee-0c7c-42c2-be24-588d62aae82c"},
                    {"reference": "ServiceRequest/57a2c0b5-31c9-4e2b-9f28-7dd9fd196fb3"},
                    {"reference": "ServiceRequest/c43ccb35-b3c5-44f2-9bd2-7635f3be18e2"},
                    {"reference": "Encounter/039bfcaf-fc0f-468f-b634-89aa5956d1b7"},
                    {"reference": "Observation/2b2d46fb-6a8a-4213-bc96-4b99c474de49"},
                    {"reference": "ServiceRequest/41fc6d6f-e884-4dd1-8317-1934c006a850"},
                    {"reference": "ServiceRequest/ea280149-cee3-45b6-b037-c6d02022bc15"},
                    {"reference": "ServiceRequest/a9555250-4686-467e-b296-392198a76a81"},
                    {"reference": "Coverage/31bbcd99-fafd-444b-963d-65568d888af5"},
                    {"reference": "Organization/16574a17-8c6e-40d2-be58-36b01d7e1a00"}
                ],
                "type": "individual",
                "resourceType": "MeasureReport",
                "status": "complete",
                "group": [{
                    "id": "Group_1",
                    "measureScore": {"value": 0},
                    "population": [
                        {
                            "code": {"coding": [{
                                "system": "http://terminology.hl7.org/CodeSystem/measure-population",
                                "code": "initial-population",
                                "display": "Initial Population"
                            }]},
                            "count": 2,
                            "id": "InitialPopulation_1"
                        },
                        {
                            "code": {"coding": [{
                                "system": "http://terminology.hl7.org/CodeSystem/measure-population",
                                "code": "denominator",
                                "display": "Denominator"
                            }]},
                            "count": 2,
                            "id": "Denominator_1"
                        },
                        {
                            "code": {"coding": [{
                                "system": "http://terminology.hl7.org/CodeSystem/measure-population",
                                "code": "denominator-exclusion",
                                "display": "Denominator Exclusion"
                            }]},
                            "count": 0,
                            "id": "DenominatorExclusion_1"
                        },
                        {
                            "code": {"coding": [{
                                "system": "http://terminology.hl7.org/CodeSystem/measure-population",
                                "code": "numerator",
                                "display": "Numerator"
                            }]},
                            "count": 2,
                            "id": "Numerator_1"
                        },
                        {
                            "code": {"coding": [{
                                "system": "http://terminology.hl7.org/CodeSystem/measure-population",
                                "code": "denominator-exception",
                                "display": "Denominator Exception"
                            }]},
                            "count": 0,
                            "id": "DenominatorException_1"
                        }
                    ]
                }]
            },
            "fullUrl": "https://madie.cms.gov/MeasureReport/b968dcd0-550c-4714-b335-e99542333b80"
        }
    ],
    "id": "62cc370167cd2f796b838ab4",
    "type": "transaction",
    "resourceType": "Bundle"
}