{
  "resourceType": "Bundle",
  "id": "612e6b1102c62a011f2ec4c4",
  "type": "transaction",
  "entry": [ {
    "fullUrl": "https://madie.cms.gov/Patient/4b739978-837b-4de8-a137-6388cfce6a5f",
    "resource": {
      "resourceType": "Patient",
      "id": "4b739978-837b-4de8-a137-6388cfce6a5f",
      "meta": {
        "profile": [ "http://hl7.org/fhir/us/qicore/StructureDefinition/qicore-patient" ]
      },
      "text": {
        "status": "generated",
        "div": "<div xmlns=\"http://www.w3.org/1999/xhtml\"><div class=\"hapiHeaderText\">RixDuringED_EDGT1hr1minAdm <b>NUMERFAIL </b></div><table class=\"hapiPropertyTable\"><tbody><tr><td>Identifier</td><td>9ac41bff10ef3353d0742df1f73dc984</td></tr><tr><td>Date of birth</td><td><span>02 January 1974</span></td></tr></tbody></table></div>"
      },
      "extension": [ {
        "url": "http://hl7.org/fhir/us/core/StructureDefinition/us-core-race",
        "extension": [ {
          "url": "ombCategory",
          "valueCoding": {
            "system": "urn:oid:2.16.840.1.113883.6.238",
            "code": "1002-5",
            "display": "American Indian or Alaska Native",
            "userSelected": true
          }
        }, {
          "url": "text",
          "valueString": "American Indian or Alaska Native"
        } ]
      }, {
        "url": "http://hl7.org/fhir/us/core/StructureDefinition/us-core-ethnicity",
        "extension": [ {
          "url": "ombCategory",
          "valueCoding": {
            "system": "urn:oid:2.16.840.1.113883.6.238",
            "code": "2135-2",
            "display": "Hispanic or Latino",
            "userSelected": true
          }
        }, {
          "url": "text",
          "valueString": "Hispanic or Latino"
        } ]
      } ],
      "identifier": [ {
        "type": {
          "coding": [ {
            "system": "http://terminology.hl7.org/CodeSystem/v2-0203",
            "code": "MR"
          } ]
        },
        "system": "https://bonnie-fhir.healthit.gov/",
        "value": "612e6b1102c62a011f2ec4c4"
      } ],
      "active": true,
      "name": [ {
        "use": "usual",
        "family": "NUMERFail",
        "given": [ "RixDuringED_EDGT1hr1minAdm" ]
      } ],
      "gender": "male",
      "birthDate": "1975-01-02"
    },
    "request": {
      "method": "PUT",
      "url": "Patient/4b739978-837b-4de8-a137-6388cfce6a5f"
    }
  }, {
    "fullUrl": "https://madie.cms.gov/Encounter/62c8115f-e337-4b3a-81d6-1f229236f03b",
    "resource": {
      "resourceType": "Encounter",
      "id": "62c8115f-e337-4b3a-81d6-1f229236f03b",
      "meta": {
        "profile": [ "http://hl7.org/fhir/us/qicore/StructureDefinition/qicore-encounter" ]
      },
      "status": "finished",
      "class": {
        "system": "http://terminology.hl7.org/CodeSystem/v3-ActCode",
        "code": "IMP",
        "display": "inpatient encounter"
      },
      "type": [ {
        "coding": [ {
          "system": "http://snomed.info/sct",
          "code": "8715000"
        } ]
      } ],
      "subject": {
        "reference": "Patient/4b739978-837b-4de8-a137-6388cfce6a5f"
      },
      "period": {
        "start": "2026-11-01T08:00:00.000+00:00",
        "end": "2026-11-26T08:15:00.000+00:00"
      },
      "length": {
        "value": 25,
        "unit": "days"
      }
    },
    "request": {
      "method": "PUT",
      "url": "Encounter/62c8115f-e337-4b3a-81d6-1f229236f03b"
    }
  }, {
    "fullUrl": "https://madie.cms.gov/Encounter/670814fb-8d98-4e35-8820-721efcb904dd",
    "resource": {
      "resourceType": "Encounter",
      "id": "670814fb-8d98-4e35-8820-721efcb904dd",
      "meta": {
        "profile": [ "http://hl7.org/fhir/us/qicore/StructureDefinition/qicore-encounter" ]
      },
      "status": "finished",
      "class": {
        "system": "http://terminology.hl7.org/CodeSystem/v3-ActCode",
        "code": "EMER",
        "display": "emergency"
      },
      "type": [ {
        "coding": [ {
          "system": "http://snomed.info/sct",
          "code": "4525004"
        } ]
      } ],
      "subject": {
        "reference": "Patient/4b739978-837b-4de8-a137-6388cfce6a5f"
      },
      "period": {
        "start": "2026-10-31T20:00:00.000+00:00",
        "end": "2026-11-01T06:59:00.000+00:00"
      }
    },
    "request": {
      "method": "PUT",
      "url": "Encounter/670814fb-8d98-4e35-8820-721efcb904dd"
    }
  }, {
    "fullUrl": "https://madie.cms.gov/Coverage/f88adc80-09db-4879-91e8-ec70a6bcc0a0",
    "resource": {
      "resourceType": "Coverage",
      "id": "f88adc80-09db-4879-91e8-ec70a6bcc0a0",
      "status": "active",
      "beneficiary": {
        "reference": "Patient/4b739978-837b-4de8-a137-6388cfce6a5f"
      },
      "period": {
        "start": "1975-01-02T08:00:00.000+00:00"
      },
      "payor": [ {
        "reference": "Organization/8f87f5b1-0b54-44d0-a351-7713ff30de48"
      } ]
    },
    "request": {
      "method": "PUT",
      "url": "Coverage/f88adc80-09db-4879-91e8-ec70a6bcc0a0"
    }
  }, {
    "fullUrl": "https://madie.cms.gov/MedicationAdministration/3b61049d-5d7f-4851-b59f-e61cd46491d9",
    "resource": {
      "resourceType": "MedicationAdministration",
      "id": "3b61049d-5d7f-4851-b59f-e61cd46491d9",
      "meta": {
        "profile": [ "http://hl7.org/fhir/us/qicore/StructureDefinition/qicore-medicationadministration" ]
      },
      "status": "completed",
      "medicationCodeableConcept": {
        "coding": [ {
          "system": "http://www.nlm.nih.gov/research/umls/rxnorm",
          "code": "1114198"
        } ]
      },
      "subject": {
        "reference": "Patient/4b739978-837b-4de8-a137-6388cfce6a5f"
      },
      "effectivePeriod": {
        "start": "2026-10-31T09:00:00.000+00:00",
        "end": "2026-10-31T09:15:00.000+00:00"
      }
    },
    "request": {
      "method": "PUT",
      "url": "MedicationAdministration/3b61049d-5d7f-4851-b59f-e61cd46491d9"
    }
  }, {
    "fullUrl": "https://madie.cms.gov/Organization/8f87f5b1-0b54-44d0-a351-7713ff30de48",
    "resource": {
      "resourceType": "Organization",
      "id": "8f87f5b1-0b54-44d0-a351-7713ff30de48",
      "meta": {
        "profile": [ "http://hl7.org/fhir/us/qicore/StructureDefinition/qicore-organization" ]
      },
      "identifier": [ {
        "use": "temp",
        "system": "urn:oid:2.16.840.1.113883.4.4",
        "value": "21-3259825"
      } ],
      "active": true,
      "type": [ {
        "coding": [ {
          "system": "http://terminology.hl7.org/CodeSystem/organization-type",
          "code": "pay",
          "display": "Payer"
        } ]
      } ],
      "name": "Blue Cross Blue Shield of Texas",
      "telecom": [ {
        "system": "phone",
        "value": "(+1) 972-766-6900"
      } ],
      "address": [ {
        "use": "billing",
        "type": "postal",
        "line": [ "P.O. Box 660044" ],
        "city": "Dallas",
        "state": "TX",
        "postalCode": "75266-0044",
        "country": "USA"
      } ]
    },
    "request": {
      "method": "PUT",
      "url": "Organization/8f87f5b1-0b54-44d0-a351-7713ff30de48"
    }
  }, {
    "fullUrl": "https://madie.cms.gov/Practitioner/2b5e1834-b22c-4bd1-a497-4ed865fe0727",
    "resource": {
      "resourceType": "Practitioner",
      "id": "2b5e1834-b22c-4bd1-a497-4ed865fe0727",
      "identifier": [ {
        "system": "http://hl7.org/fhir/sid/us-npi",
        "value": "123456"
      } ],
      "name": [ {
        "family": "Evil",
        "prefix": [ "Dr" ]
      } ]
    },
    "request": {
      "method": "PUT",
      "url": "Practitioner/2b5e1834-b22c-4bd1-a497-4ed865fe0727"
    }
  }, {
    "fullUrl": "https://madie.cms.gov/MeasureReport/596fa188-e7da-4aff-8295-7c2cfa94e40b",
    "resource": {
      "resourceType": "MeasureReport",
      "id": "596fa188-e7da-4aff-8295-7c2cfa94e40b",
      "meta": {
        "profile": [ "http://hl7.org/fhir/us/cqfmeasures/StructureDefinition/test-case-cqfm" ]
      },
      "contained": [ {
        "resourceType": "Parameters",
        "id": "8d0e9d2d-acbc-40ec-af8b-0683fe0e8682-parameters",
        "parameter": [ {
          "name": "subject",
          "valueString": "4b739978-837b-4de8-a137-6388cfce6a5f"
        } ]
      } ],
      "extension": [ {
        "url": "http://hl7.org/fhir/StructureDefinition/cqf-inputParameters",
        "valueReference": {
          "reference": "#8d0e9d2d-acbc-40ec-af8b-0683fe0e8682-parameters"
        }
      }, {
        "url": "http://hl7.org/fhir/us/cqfmeasures/StructureDefinition/cqfm-testCaseDescription",
        "valueMarkdown": "Rivaroxaban  for VTE Prophylaxis Med Administered during ED which ED >1 hr ends Adm\n"
      } ],
      "modifierExtension": [ {
        "url": "http://hl7.org/fhir/us/cqfmeasures/StructureDefinition/cqfm-isTestCase",
        "valueBoolean": true
      } ],
      "status": "complete",
      "type": "individual",
      "measure": "https://madie.cms.gov/Measure/CMS108FHIRVTEProphylaxis",
      "period": {
        "start": "2026-01-01",
        "end": "2026-12-31"
      },
      "group": [ {
        "id": "Group_1",
        "population": [ {
          "id": "InitialPopulation_1",
          "code": {
            "coding": [ {
              "system": "http://terminology.hl7.org/CodeSystem/measure-population",
              "code": "initial-population",
              "display": "Initial Population"
            } ]
          },
          "count": 1
        }, {
          "id": "Denominator_1",
          "code": {
            "coding": [ {
              "system": "http://terminology.hl7.org/CodeSystem/measure-population",
              "code": "denominator",
              "display": "Denominator"
            } ]
          },
          "count": 1
        }, {
          "id": "DenominatorExclusion_1",
          "code": {
            "coding": [ {
              "system": "http://terminology.hl7.org/CodeSystem/measure-population",
              "code": "denominator-exclusion",
              "display": "Denominator Exclusion"
            } ]
          },
          "count": 0
        }, {
          "id": "Numerator_1",
          "code": {
            "coding": [ {
              "system": "http://terminology.hl7.org/CodeSystem/measure-population",
              "code": "numerator",
              "display": "Numerator"
            } ]
          },
          "count": 0
        } ],
        "measureScore": {
          "value": 0.0
        }
      } ],
      "evaluatedResource": [ {
        "reference": "Patient/4b739978-837b-4de8-a137-6388cfce6a5f"
      }, {
        "reference": "Encounter/62c8115f-e337-4b3a-81d6-1f229236f03b"
      }, {
        "reference": "Encounter/670814fb-8d98-4e35-8820-721efcb904dd"
      }, {
        "reference": "Coverage/f88adc80-09db-4879-91e8-ec70a6bcc0a0"
      }, {
        "reference": "MedicationAdministration/3b61049d-5d7f-4851-b59f-e61cd46491d9"
      }, {
        "reference": "Organization/8f87f5b1-0b54-44d0-a351-7713ff30de48"
      }, {
        "reference": "Practitioner/2b5e1834-b22c-4bd1-a497-4ed865fe0727"
      } ]
    },
    "request": {
      "method": "PUT",
      "url": "MeasureReport/596fa188-e7da-4aff-8295-7c2cfa94e40b"
    }
  } ]
}