{
    "entry": [
        {
            "request": {
                "method": "PUT",
                "url": "Patient/c3f55d79-b10c-4d2b-8699-a7538867159d"
            },
            "resource": {
                "identifier": [{
                    "system": "https://bonnie-fhir.healthit.gov/",
                    "type": {"coding": [{
                        "system": "http://terminology.hl7.org/CodeSystem/v2-0203",
                        "code": "MR"
                    }]},
                    "value": "SecondHighBPECGMedsNonPharm"
                }],
                "extension": [
                    {
                        "extension": [
                            {
                                "valueCoding": {
                                    "system": "urn:oid:2.16.840.1.113883.6.238",
                                    "code": "1002-5",
                                    "userSelected": true,
                                    "display": "American Indian or Alaska Native"
                                },
                                "url": "ombCategory"
                            },
                            {
                                "valueString": "American Indian or Alaska Native",
                                "url": "text"
                            }
                        ],
                        "url": "http://hl7.org/fhir/us/core/StructureDefinition/us-core-race"
                    },
                    {
                        "extension": [
                            {
                                "valueCoding": {
                                    "system": "urn:oid:2.16.840.1.113883.6.238",
                                    "code": "2135-2",
                                    "userSelected": true,
                                    "display": "Hispanic or Latino"
                                },
                                "url": "ombCategory"
                            },
                            {
                                "valueString": "Hispanic or Latino",
                                "url": "text"
                            }
                        ],
                        "url": "http://hl7.org/fhir/us/core/StructureDefinition/us-core-ethnicity"
                    }
                ],
                "gender": "male",
                "meta": {"profile": ["http://hl7.org/fhir/us/qicore/StructureDefinition/qicore-patient"]},
                "name": [{
                    "given": ["SecondHighBPECGMedsNonPharm"],
                    "family": "NUMERPass"
                }],
                "id": "c3f55d79-b10c-4d2b-8699-a7538867159d",
                "birthDate": "1976-12-31",
                "resourceType": "Patient"
            },
            "fullUrl": "https://madie.cms.gov/Patient/c3f55d79-b10c-4d2b-8699-a7538867159d"
        },
        {
            "request": {
                "method": "PUT",
                "url": "Encounter/dbb4d319-8519-46c5-93b8-6d23497fb572"
            },
            "resource": {
                "period": {
                    "start": "2026-01-01T08:00:00.000+00:00",
                    "end": "2026-01-01T08:45:00.000+00:00"
                },
                "meta": {"profile": ["http://hl7.org/fhir/us/qicore/StructureDefinition/qicore-encounter"]},
                "subject": {"reference": "Patient/c3f55d79-b10c-4d2b-8699-a7538867159d"},
                "id": "dbb4d319-8519-46c5-93b8-6d23497fb572",
                "type": [{"coding": [{
                    "system": "http://snomed.info/sct",
                    "code": "103705002",
                    "userSelected": true,
                    "display": "Patient status observation (procedure)",
                    "version": "2022-03"
                }]}],
                "class": {
                    "system": "http://terminology.hl7.org/CodeSystem/v3-ActCode",
                    "code": "AMB",
                    "display": "ambulatory"
                },
                "resourceType": "Encounter",
                "status": "finished"
            },
            "fullUrl": "https://madie.cms.gov/Encounter/dbb4d319-8519-46c5-93b8-6d23497fb572"
        },
        {
            "request": {
                "method": "PUT",
                "url": "ServiceRequest/e23cafae-446c-4254-b67a-9c81c52b2ffe"
            },
            "resource": {
                "code": {"coding": [{
                    "system": "http://snomed.info/sct",
                    "code": "183617005",
                    "userSelected": true,
                    "display": "Follow-up 1 day (finding)",
                    "version": "2022-03"
                }]},
                "authoredOn": "2026-01-01T08:30:00.000+00:00",
                "meta": {"profile": ["http://hl7.org/fhir/us/qicore/StructureDefinition/qicore-servicerequest"]},
                "subject": {"reference": "Patient/c3f55d79-b10c-4d2b-8699-a7538867159d"},
                "id": "e23cafae-446c-4254-b67a-9c81c52b2ffe",
                "intent": "order",
                "resourceType": "ServiceRequest",
                "status": "active"
            },
            "fullUrl": "https://madie.cms.gov/ServiceRequest/e23cafae-446c-4254-b67a-9c81c52b2ffe"
        },
        {
            "request": {
                "method": "PUT",
                "url": "Encounter/7177e69b-03d2-4843-98a9-d881b138835b"
            },
            "resource": {
                "period": {
                    "start": "2026-12-31T10:00:00.000+00:00",
                    "end": "2026-12-31T10:45:00.000+00:00"
                },
                "meta": {"profile": ["http://hl7.org/fhir/us/qicore/StructureDefinition/qicore-encounter"]},
                "subject": {"reference": "Patient/c3f55d79-b10c-4d2b-8699-a7538867159d"},
                "id": "7177e69b-03d2-4843-98a9-d881b138835b",
                "type": [{"coding": [{
                    "system": "http://snomed.info/sct",
                    "code": "103705002",
                    "userSelected": true,
                    "display": "Patient status observation (procedure)",
                    "version": "2022-03"
                }]}],
                "class": {
                    "system": "http://terminology.hl7.org/CodeSystem/v3-ActCode",
                    "code": "AMB",
                    "display": "ambulatory"
                },
                "resourceType": "Encounter",
                "status": "finished"
            },
            "fullUrl": "https://madie.cms.gov/Encounter/7177e69b-03d2-4843-98a9-d881b138835b"
        },
        {
            "request": {
                "method": "PUT",
                "url": "ServiceRequest/288b37fb-3dff-4195-af64-ab09ecb9f6bc"
            },
            "resource": {
                "code": {"coding": [{
                    "system": "http://snomed.info/sct",
                    "code": "183620002",
                    "userSelected": true,
                    "display": "Follow-up 1 week (finding)",
                    "version": "2022-03"
                }]},
                "authoredOn": "2026-12-31T10:10:00.000+00:00",
                "meta": {"profile": ["http://hl7.org/fhir/us/qicore/StructureDefinition/qicore-servicerequest"]},
                "subject": {"reference": "Patient/c3f55d79-b10c-4d2b-8699-a7538867159d"},
                "id": "288b37fb-3dff-4195-af64-ab09ecb9f6bc",
                "intent": "order",
                "resourceType": "ServiceRequest",
                "status": "active"
            },
            "fullUrl": "https://madie.cms.gov/ServiceRequest/288b37fb-3dff-4195-af64-ab09ecb9f6bc"
        },
        {
            "request": {
                "method": "PUT",
                "url": "ServiceRequest/8c20959f-8d15-4e4d-b6f1-69ce9df8ddfc"
            },
            "resource": {
                "code": {"coding": [{
                    "system": "http://snomed.info/sct",
                    "code": "20093000",
                    "userSelected": true,
                    "display": "Alcohol rehabilitation and detoxification (regime/therapy)",
                    "version": "2022-03"
                }]},
                "authoredOn": "2026-01-01T08:30:00.000+00:00",
                "meta": {"profile": ["http://hl7.org/fhir/us/qicore/StructureDefinition/qicore-servicerequest"]},
                "subject": {"reference": "Patient/c3f55d79-b10c-4d2b-8699-a7538867159d"},
                "id": "8c20959f-8d15-4e4d-b6f1-69ce9df8ddfc",
                "intent": "order",
                "resourceType": "ServiceRequest",
                "status": "active"
            },
            "fullUrl": "https://madie.cms.gov/ServiceRequest/8c20959f-8d15-4e4d-b6f1-69ce9df8ddfc"
        },
        {
            "request": {
                "method": "PUT",
                "url": "ServiceRequest/2cb742d5-e09b-4ca4-97ec-2d07b8f7e166"
            },
            "resource": {
                "code": {"coding": [{
                    "system": "http://loinc.org",
                    "code": "34534-8",
                    "userSelected": true,
                    "display": "EKG 12 channel panel"
                }]},
                "authoredOn": "2026-12-31T10:10:00.000+00:00",
                "meta": {"profile": ["http://hl7.org/fhir/us/qicore/StructureDefinition/qicore-servicerequest"]},
                "subject": {"reference": "Patient/c3f55d79-b10c-4d2b-8699-a7538867159d"},
                "id": "2cb742d5-e09b-4ca4-97ec-2d07b8f7e166",
                "intent": "order",
                "resourceType": "ServiceRequest",
                "status": "active"
            },
            "fullUrl": "https://madie.cms.gov/ServiceRequest/2cb742d5-e09b-4ca4-97ec-2d07b8f7e166"
        },
        {
            "request": {
                "method": "PUT",
                "url": "ServiceRequest/8e8ecef9-6554-4914-a313-539e894c18bd"
            },
            "resource": {
                "code": {"coding": [{
                    "system": "http://snomed.info/sct",
                    "code": "313204009",
                    "userSelected": true,
                    "display": "Lifestyle education (procedure)",
                    "version": "2022-03"
                }]},
                "authoredOn": "2026-12-31T10:10:00.000+00:00",
                "meta": {"profile": ["http://hl7.org/fhir/us/qicore/StructureDefinition/qicore-servicerequest"]},
                "subject": {"reference": "Patient/c3f55d79-b10c-4d2b-8699-a7538867159d"},
                "id": "8e8ecef9-6554-4914-a313-539e894c18bd",
                "intent": "order",
                "resourceType": "ServiceRequest",
                "status": "active"
            },
            "fullUrl": "https://madie.cms.gov/ServiceRequest/8e8ecef9-6554-4914-a313-539e894c18bd"
        },
        {
            "request": {
                "method": "PUT",
                "url": "MedicationRequest/1f6e1714-eaee-44cc-b1e3-8ac46a5ba268"
            },
            "resource": {
                "requester": {
                    "reference": "Practitioner/f007",
                    "display": "Patrick Pump"
                },
                "authoredOn": "2026-12-31T10:10:00.000+00:00",
                "meta": {"profile": ["http://hl7.org/fhir/us/qicore/StructureDefinition/qicore-medicationrequest"]},
                "subject": {"reference": "Patient/c3f55d79-b10c-4d2b-8699-a7538867159d"},
                "id": "1f6e1714-eaee-44cc-b1e3-8ac46a5ba268",
                "medicationCodeableConcept": {"coding": [{
                    "system": "http://www.nlm.nih.gov/research/umls/rxnorm",
                    "code": "1000001",
                    "userSelected": true,
                    "display": "amlodipine 5 MG / hydrochlorothiazide 25 MG / olmesartan medoxomil 40 MG Oral Tablet"
                }]},
                "intent": "order",
                "resourceType": "MedicationRequest",
                "status": "active"
            },
            "fullUrl": "https://madie.cms.gov/MedicationRequest/1f6e1714-eaee-44cc-b1e3-8ac46a5ba268"
        },
        {
            "request": {
                "method": "PUT",
                "url": "Observation/3885b8af-be17-4363-9e0d-a7826e3a087f"
            },
            "resource": {
                "component": [
                    {
                        "code": {"coding": [{
                            "system": "http://loinc.org",
                            "code": "8480-6",
                            "display": "Systolic blood pressure"
                        }]},
                        "valueQuantity": {
                            "unit": "mmHg",
                            "system": "http://unitsofmeasure.org",
                            "code": "mm[Hg]",
                            "value": 140
                        }
                    },
                    {
                        "code": {"coding": [{
                            "system": "http://loinc.org",
                            "code": "8462-4",
                            "display": "Diastolic blood pressure"
                        }]},
                        "valueQuantity": {
                            "unit": "mmHg",
                            "system": "http://unitsofmeasure.org",
                            "code": "mm[Hg]",
                            "value": 90
                        }
                    }
                ],
                "code": {"coding": [{
                    "system": "http://loinc.org",
                    "code": "85354-9",
                    "display": "Blood pressure panel"
                }]},
                "effectiveDateTime": "2026-01-01T08:05:00.000+00:00",
                "meta": {"profile": ["http://hl7.org/fhir/us/core/StructureDefinition/us-core-blood-pressure"]},
                "subject": {"reference": "Patient/c3f55d79-b10c-4d2b-8699-a7538867159d"},
                "id": "3885b8af-be17-4363-9e0d-a7826e3a087f",
                "category": [{
                    "coding": [{
                        "system": "http://terminology.hl7.org/CodeSystem/observation-category",
                        "code": "vital-signs",
                        "display": "Vital Signs"
                    }],
                    "text": "Vital Signs"
                }],
                "resourceType": "Observation",
                "status": "final"
            },
            "fullUrl": "https://madie.cms.gov/Observation/3885b8af-be17-4363-9e0d-a7826e3a087f"
        },
        {
            "request": {
                "method": "PUT",
                "url": "Observation/589c4e0f-12c3-476d-84ca-5c65411a951f"
            },
            "resource": {
                "component": [
                    {
                        "code": {"coding": [{
                            "system": "http://loinc.org",
                            "code": "8480-6",
                            "display": "Systolic blood pressure"
                        }]},
                        "valueQuantity": {
                            "unit": "mmHg",
                            "system": "http://unitsofmeasure.org",
                            "code": "mm[Hg]",
                            "value": 160
                        }
                    },
                    {
                        "code": {"coding": [{
                            "system": "http://loinc.org",
                            "code": "8462-4",
                            "display": "Diastolic blood pressure"
                        }]},
                        "valueQuantity": {
                            "unit": "mmHg",
                            "system": "http://unitsofmeasure.org",
                            "code": "mm[Hg]",
                            "value": 90
                        }
                    }
                ],
                "code": {"coding": [{
                    "system": "http://loinc.org",
                    "code": "85354-9",
                    "display": "Blood pressure panel"
                }]},
                "effectiveDateTime": "2026-12-31T10:05:00.000+00:00",
                "meta": {"profile": ["http://hl7.org/fhir/us/core/StructureDefinition/us-core-blood-pressure"]},
                "subject": {"reference": "Patient/c3f55d79-b10c-4d2b-8699-a7538867159d"},
                "id": "589c4e0f-12c3-476d-84ca-5c65411a951f",
                "category": [{
                    "coding": [{
                        "system": "http://terminology.hl7.org/CodeSystem/observation-category",
                        "code": "vital-signs",
                        "display": "Vital Signs"
                    }],
                    "text": "Vital Signs"
                }],
                "resourceType": "Observation",
                "status": "final"
            },
            "fullUrl": "https://madie.cms.gov/Observation/589c4e0f-12c3-476d-84ca-5c65411a951f"
        },
        {
            "request": {
                "method": "PUT",
                "url": "Coverage/3d94aca0-962f-4041-834e-fb69b955a5f1"
            },
            "resource": {
                "payor": [{"reference": "Organization/85331ac8-f2c6-4903-b526-076a4a9b7a2d"}],
                "beneficiary": {"reference": "Patient/c3f55d79-b10c-4d2b-8699-a7538867159d"},
                "meta": {"profile": ["http://hl7.org/fhir/us/qicore/StructureDefinition/qicore-coverage"]},
                "id": "3d94aca0-962f-4041-834e-fb69b955a5f1",
                "resourceType": "Coverage",
                "status": "active"
            },
            "fullUrl": "https://madie.cms.gov/Coverage/3d94aca0-962f-4041-834e-fb69b955a5f1"
        },
        {
            "request": {
                "method": "PUT",
                "url": "Organization/85331ac8-f2c6-4903-b526-076a4a9b7a2d"
            },
            "resource": {
                "identifier": [{
                    "system": "urn:oid:2.16.840.1.113883.4.4",
                    "use": "temp",
                    "value": "21-3259825"
                }],
                "address": [{
                    "country": "USA",
                    "city": "Dallas",
                    "use": "billing",
                    "line": ["P.O. Box 660044"],
                    "postalCode": "75266-0044",
                    "state": "TX",
                    "type": "postal"
                }],
                "meta": {"profile": ["http://hl7.org/fhir/us/qicore/StructureDefinition/qicore-organization"]},
                "name": "Blue Cross Blue Shield of Texas",
                "active": true,
                "telecom": [{
                    "system": "phone",
                    "value": "(+1) 972-766-6900"
                }],
                "id": "85331ac8-f2c6-4903-b526-076a4a9b7a2d",
                "type": [{"coding": [{
                    "system": "http://terminology.hl7.org/CodeSystem/organization-type",
                    "code": "pay",
                    "display": "Payer"
                }]}],
                "resourceType": "Organization"
            },
            "fullUrl": "https://madie.cms.gov/Organization/85331ac8-f2c6-4903-b526-076a4a9b7a2d"
        },
        {
            "request": {
                "method": "PUT",
                "url": "MeasureReport/9636d46e-46ed-447a-80b4-d3d4a87d1e66"
            },
            "resource": {
                "contained": [{
                    "parameter": [{
                        "valueString": "c3f55d79-b10c-4d2b-8699-a7538867159d",
                        "name": "subject"
                    }],
                    "id": "69ceca15-0b5b-4a3e-9b52-bf109c66a8af-parameters",
                    "resourceType": "Parameters"
                }],
                "extension": [
                    {
                        "valueReference": {"reference": "#69ceca15-0b5b-4a3e-9b52-bf109c66a8af-parameters"},
                        "url": "http://hl7.org/fhir/StructureDefinition/cqf-inputParameters"
                    },
                    {
                        "valueMarkdown": "Enc 1/1  0800-0845 during MP, BP 140/90, follow up in 1 day, alcohol consumption for rehab/detox, \n2nd Enc 12/31 @1000-1045 BP 160/90, f/u in 2 -3 mo. EKG, lifestyle changes recommended, medication.\nBoth encounters are expected to pass the numerator",
                        "url": "http://hl7.org/fhir/us/cqfmeasures/StructureDefinition/cqfm-testCaseDescription"
                    }
                ],
                "period": {
                    "start": "2026-01-01",
                    "end": "2026-12-31"
                },
                "measure": "https://madie.cms.gov/Measure/CMS22FHIRPCSBPScreeningFollowUp",
                "meta": {"profile": ["http://hl7.org/fhir/us/cqfmeasures/StructureDefinition/test-case-cqfm"]},
                "modifierExtension": [{
                    "valueBoolean": true,
                    "url": "http://hl7.org/fhir/us/cqfmeasures/StructureDefinition/cqfm-isTestCase"
                }],
                "id": "9636d46e-46ed-447a-80b4-d3d4a87d1e66",
                "evaluatedResource": [
                    {"reference": "Patient/c3f55d79-b10c-4d2b-8699-a7538867159d"},
                    {"reference": "Encounter/dbb4d319-8519-46c5-93b8-6d23497fb572"},
                    {"reference": "ServiceRequest/e23cafae-446c-4254-b67a-9c81c52b2ffe"},
                    {"reference": "Encounter/7177e69b-03d2-4843-98a9-d881b138835b"},
                    {"reference": "ServiceRequest/288b37fb-3dff-4195-af64-ab09ecb9f6bc"},
                    {"reference": "ServiceRequest/8c20959f-8d15-4e4d-b6f1-69ce9df8ddfc"},
                    {"reference": "ServiceRequest/2cb742d5-e09b-4ca4-97ec-2d07b8f7e166"},
                    {"reference": "ServiceRequest/8e8ecef9-6554-4914-a313-539e894c18bd"},
                    {"reference": "MedicationRequest/1f6e1714-eaee-44cc-b1e3-8ac46a5ba268"},
                    {"reference": "Observation/3885b8af-be17-4363-9e0d-a7826e3a087f"},
                    {"reference": "Observation/589c4e0f-12c3-476d-84ca-5c65411a951f"},
                    {"reference": "Coverage/3d94aca0-962f-4041-834e-fb69b955a5f1"},
                    {"reference": "Organization/85331ac8-f2c6-4903-b526-076a4a9b7a2d"}
                ],
                "type": "individual",
                "resourceType": "MeasureReport",
                "status": "complete",
                "group": [{
                    "id": "Group_1",
                    "measureScore": {"value": 0},
                    "population": [
                        {
                            "code": {"coding": [{
                                "system": "http://terminology.hl7.org/CodeSystem/measure-population",
                                "code": "initial-population",
                                "display": "Initial Population"
                            }]},
                            "count": 2,
                            "id": "InitialPopulation_1"
                        },
                        {
                            "code": {"coding": [{
                                "system": "http://terminology.hl7.org/CodeSystem/measure-population",
                                "code": "denominator",
                                "display": "Denominator"
                            }]},
                            "count": 2,
                            "id": "Denominator_1"
                        },
                        {
                            "code": {"coding": [{
                                "system": "http://terminology.hl7.org/CodeSystem/measure-population",
                                "code": "denominator-exclusion",
                                "display": "Denominator Exclusion"
                            }]},
                            "count": 0,
                            "id": "DenominatorExclusion_1"
                        },
                        {
                            "code": {"coding": [{
                                "system": "http://terminology.hl7.org/CodeSystem/measure-population",
                                "code": "numerator",
                                "display": "Numerator"
                            }]},
                            "count": 2,
                            "id": "Numerator_1"
                        },
                        {
                            "code": {"coding": [{
                                "system": "http://terminology.hl7.org/CodeSystem/measure-population",
                                "code": "denominator-exception",
                                "display": "Denominator Exception"
                            }]},
                            "count": 0,
                            "id": "DenominatorException_1"
                        }
                    ]
                }]
            },
            "fullUrl": "https://madie.cms.gov/MeasureReport/9636d46e-46ed-447a-80b4-d3d4a87d1e66"
        }
    ],
    "id": "SecondHighBPECGMedsNonPharm",
    "type": "transaction",
    "resourceType": "Bundle"
}