{
  "resourceType": "Bundle",
  "id": "633c9d040968f8012250fcad",
  "type": "transaction",
  "entry": [ {
    "fullUrl": "https://madie.cms.gov/Patient/fd13e14c-cd97-4e81-9a69-e638b0a1fa58",
    "resource": {
      "resourceType": "Patient",
      "id": "fd13e14c-cd97-4e81-9a69-e638b0a1fa58",
      "meta": {
        "profile": [ "http://hl7.org/fhir/us/qicore/StructureDefinition/qicore-patient" ]
      },
      "text": {
        "status": "generated",
        "div": "<div xmlns=\"http://www.w3.org/1999/xhtml\"><div class=\"hapiHeaderText\">MultipleIPEncounter <b>IPPFAIL </b></div><table class=\"hapiPropertyTable\"><tbody><tr><td>Identifier</td><td>946910ea4598e45468b2565ed3cdbc9e</td></tr><tr><td>Date of birth</td><td><span>01 December 1960</span></td></tr></tbody></table></div>"
      },
      "extension": [ {
        "url": "http://hl7.org/fhir/us/core/StructureDefinition/us-core-race",
        "extension": [ {
          "url": "ombCategory",
          "valueCoding": {
            "system": "urn:oid:2.16.840.1.113883.6.238",
            "code": "1002-5",
            "display": "American Indian or Alaska Native",
            "userSelected": true
          }
        }, {
          "url": "text",
          "valueString": "American Indian or Alaska Native"
        } ]
      }, {
        "url": "http://hl7.org/fhir/us/core/StructureDefinition/us-core-ethnicity",
        "extension": [ {
          "url": "ombCategory",
          "valueCoding": {
            "system": "urn:oid:2.16.840.1.113883.6.238",
            "code": "2135-2",
            "display": "Hispanic or Latino",
            "userSelected": true
          }
        }, {
          "url": "text",
          "valueString": "Hispanic or Latino"
        } ]
      } ],
      "identifier": [ {
        "type": {
          "coding": [ {
            "system": "http://terminology.hl7.org/CodeSystem/v2-0203",
            "code": "MR"
          } ]
        },
        "system": "https://bonnie-fhir.healthit.gov/",
        "value": "633c9d040968f8012250fcad"
      } ],
      "active": true,
      "name": [ {
        "use": "usual",
        "family": "IPPFail",
        "given": [ "MultipleIPEncounter" ]
      } ],
      "gender": "male",
      "birthDate": "1961-12-01"
    },
    "request": {
      "method": "PUT",
      "url": "Patient/fd13e14c-cd97-4e81-9a69-e638b0a1fa58"
    }
  }, {
    "fullUrl": "https://madie.cms.gov/Encounter/f3d1947a-5bf3-440c-af58-7fc01ef8ab29",
    "resource": {
      "resourceType": "Encounter",
      "id": "f3d1947a-5bf3-440c-af58-7fc01ef8ab29",
      "meta": {
        "profile": [ "http://hl7.org/fhir/us/qicore/StructureDefinition/qicore-encounter" ]
      },
      "status": "finished",
      "class": {
        "system": "http://terminology.hl7.org/CodeSystem/v3-ActCode",
        "code": "EMER",
        "display": "emergency"
      },
      "type": [ {
        "coding": [ {
          "system": "http://snomed.info/sct",
          "code": "4525004"
        } ]
      } ],
      "subject": {
        "reference": "Patient/fd13e14c-cd97-4e81-9a69-e638b0a1fa58"
      },
      "period": {
        "start": "2026-02-08T08:00:00Z",
        "end": "2026-02-08T08:15:00.000+00:00"
      },
      "length": {
        "value": 0,
        "unit": "days"
      },
      "reasonReference": [ {
        "reference": "Condition/98960311-1ad4-4685-8296-2d6916322b91"
      } ]
    },
    "request": {
      "method": "PUT",
      "url": "Encounter/f3d1947a-5bf3-440c-af58-7fc01ef8ab29"
    }
  }, {
    "fullUrl": "https://madie.cms.gov/Encounter/37d1e3ab-072c-4936-9e50-1063e2fad3f3",
    "resource": {
      "resourceType": "Encounter",
      "id": "37d1e3ab-072c-4936-9e50-1063e2fad3f3",
      "meta": {
        "profile": [ "http://hl7.org/fhir/us/qicore/StructureDefinition/qicore-encounter" ]
      },
      "status": "finished",
      "class": {
        "system": "http://terminology.hl7.org/CodeSystem/v3-ActCode",
        "code": "IMP",
        "display": "inpatient encounter"
      },
      "type": [ {
        "coding": [ {
          "system": "http://snomed.info/sct",
          "code": "183452005"
        } ]
      } ],
      "subject": {
        "reference": "Patient/fd13e14c-cd97-4e81-9a69-e638b0a1fa58"
      },
      "period": {
        "start": "2026-02-08T08:20:00Z",
        "end": "2026-02-10T08:15:00.000+00:00"
      },
      "reasonReference": [ {
        "reference": "Condition/9d5ee01b-9649-43a7-acbe-c51efc851e1d"
      } ]
    },
    "request": {
      "method": "PUT",
      "url": "Encounter/37d1e3ab-072c-4936-9e50-1063e2fad3f3"
    }
  }, {
    "fullUrl": "https://madie.cms.gov/Encounter/1386c525-fd9a-4e0b-ac03-28ad579a8a54",
    "resource": {
      "resourceType": "Encounter",
      "id": "1386c525-fd9a-4e0b-ac03-28ad579a8a54",
      "meta": {
        "profile": [ "http://hl7.org/fhir/us/qicore/StructureDefinition/qicore-encounter" ]
      },
      "status": "finished",
      "class": {
        "system": "http://terminology.hl7.org/CodeSystem/v3-ActCode",
        "code": "IMP",
        "display": "inpatient encounter"
      },
      "type": [ {
        "coding": [ {
          "system": "http://snomed.info/sct",
          "code": "183452005"
        } ]
      } ],
      "subject": {
        "reference": "Patient/fd13e14c-cd97-4e81-9a69-e638b0a1fa58"
      },
      "period": {
        "start": "2026-02-07T08:00:00Z",
        "end": "2026-02-11T08:15:00.000+00:00"
      }
    },
    "request": {
      "method": "PUT",
      "url": "Encounter/1386c525-fd9a-4e0b-ac03-28ad579a8a54"
    }
  }, {
    "fullUrl": "https://madie.cms.gov/claim/5ca62962b8484628b8de1ec5",
    "resource": {
      "resourceType": "Claim",
      "id": "5ca62962b8484628b8de1ec5",
      "meta": {
        "profile": [ "http://hl7.org/fhir/us/qicore/StructureDefinition/qicore-claim" ]
      },
      "status": "active",
      "type": {
        "coding": [ {
          "system": "http://terminology.hl7.org/CodeSystem/claim-type",
          "code": "institutional"
        } ]
      },
      "use": "claim",
      "patient": {
        "reference": "Patient/d170a0a8-b5ad-4303-b6df-e304dd5f92ad"
      },
      "created": "2026-12-01",
      "provider": {
        "reference": "Practitioner/0ca259a7-e1a0-44dc-9c04-8eeb333c22d0"
      },
      "priority": {
        "coding": [ {
          "system": "http://terminology.hl7.org/CodeSystem/processpriority",
          "code": "normal"
        } ]
      },
      "diagnosis": [ {
        "sequence": 1,
        "diagnosisCodeableConcept": {
          "coding": [ {
            "system": "http://hl7.org/fhir/sid/icd-10-cm",
            "code": "I48.0"
          } ]
        },
        "type": [ {
          "coding": [ {
            "system": "http://terminology.hl7.org/CodeSystem/ex-diagnosistype",
            "code": "principal"
          } ]
        } ]
      } ],
      "insurance": [ {
        "sequence": 1,
        "focal": true,
        "coverage": {
          "reference": "Coverage/5fa041661c76ba66d9959367"
        }
      } ],
      "item": [ {
        "sequence": 1,
        "diagnosisSequence": [ 1 ],
        "productOrService": {
          "coding": [ {
            "system": "http://terminology.hl7.org/CodeSystem/ex-USCLS",
            "code": "99555"
          } ]
        },
        "encounter": [ {
          "reference": "Encounter/f3d1947a-5bf3-440c-af58-7fc01ef8ab29"
        } ]
      } ]
    },
    "request": {
      "method": "PUT",
      "url": "Claim/5ca62962b8484628b8de1ec5"
    }
  }, {
    "fullUrl": "https://madie.cms.gov/Coverage/8d4ba887-3e4c-411a-a065-ddc22abf3a16",
    "resource": {
      "resourceType": "Coverage",
      "id": "8d4ba887-3e4c-411a-a065-ddc22abf3a16",
      "meta": {
        "profile": [ "http://hl7.org/fhir/us/qicore/StructureDefinition/qicore-coverage" ]
      },
      "status": "active",
      "subscriberId": "523435",
      "beneficiary": {
        "reference": "Patient/162a5913-9989-42f2-8d6a-ae460e245e4c"
      },
      "relationship": {
        "coding": [ {
          "system": "http://terminology.hl7.org/CodeSystem/subscriber-relationship",
          "code": "self"
        } ]
      },
      "payor": [ {
        "reference": "Organization/fb6dffe4-397a-4edc-8847-5a091d8f76da"
      } ]
    },
    "request": {
      "method": "PUT",
      "url": "Coverage/8d4ba887-3e4c-411a-a065-ddc22abf3a16"
    }
  }, {
    "fullUrl": "https://madie.cms.gov/Condition/98960311-1ad4-4685-8296-2d6916322b91",
    "resource": {
      "resourceType": "Condition",
      "id": "98960311-1ad4-4685-8296-2d6916322b91",
      "meta": {
        "profile": [ "http://hl7.org/fhir/us/qicore/StructureDefinition/qicore-condition-problems-health-concerns" ]
      },
      "clinicalStatus": {
        "coding": [ {
          "system": "http://terminology.hl7.org/CodeSystem/condition-clinical",
          "code": "active"
        } ]
      },
      "verificationStatus": {
        "coding": [ {
          "system": "http://terminology.hl7.org/CodeSystem/condition-ver-status",
          "code": "confirmed"
        } ]
      },
      "category": [ {
        "coding": [ {
          "system": "http://terminology.hl7.org/CodeSystem/condition-category",
          "code": "encounter-diagnosis",
          "display": "Encounter Diagnosis"
        } ]
      } ],
      "code": {
        "coding": [ {
          "system": "http://snomed.info/sct",
          "version": "2021-09",
          "code": "120041000119109",
          "display": "Atrial fibrillation with rapid ventricular response (disorder)",
          "userSelected": true
        } ]
      },
      "subject": {
        "reference": "Patient/fd13e14c-cd97-4e81-9a69-e638b0a1fa58"
      },
      "recordedDate": "2026-10-13T08:00:00Z"
    },
    "request": {
      "method": "PUT",
      "url": "Condition/98960311-1ad4-4685-8296-2d6916322b91"
    }
  }, {
    "fullUrl": "https://madie.cms.gov/Condition/9d5ee01b-9649-43a7-acbe-c51efc851e1d",
    "resource": {
      "resourceType": "Condition",
      "id": "9d5ee01b-9649-43a7-acbe-c51efc851e1d",
      "meta": {
        "profile": [ "http://hl7.org/fhir/us/qicore/StructureDefinition/qicore-condition-problems-health-concerns" ]
      },
      "clinicalStatus": {
        "coding": [ {
          "system": "http://terminology.hl7.org/CodeSystem/condition-clinical",
          "code": "active"
        } ]
      },
      "verificationStatus": {
        "coding": [ {
          "system": "http://terminology.hl7.org/CodeSystem/condition-ver-status",
          "code": "confirmed"
        } ]
      },
      "category": [ {
        "coding": [ {
          "system": "http://terminology.hl7.org/CodeSystem/condition-category",
          "code": "encounter-diagnosis",
          "display": "Encounter Diagnosis"
        } ]
      } ],
      "code": {
        "coding": [ {
          "system": "http://snomed.info/sct",
          "version": "2021-09",
          "code": "111297002",
          "display": "Nonparalytic stroke (disorder)",
          "userSelected": true
        } ]
      },
      "subject": {
        "reference": "Patient/fd13e14c-cd97-4e81-9a69-e638b0a1fa58"
      },
      "recordedDate": "2026-10-13T08:00:00Z"
    },
    "request": {
      "method": "PUT",
      "url": "Condition/9d5ee01b-9649-43a7-acbe-c51efc851e1d"
    }
  }, {
    "fullUrl": "https://madie.cms.gov/Organization/fb6dffe4-397a-4edc-8847-5a091d8f76da",
    "resource": {
      "resourceType": "Organization",
      "id": "fb6dffe4-397a-4edc-8847-5a091d8f76da",
      "meta": {
        "profile": [ "http://hl7.org/fhir/us/qicore/StructureDefinition/qicore-organization" ]
      },
      "identifier": [ {
        "use": "temp",
        "system": "urn:oid:2.16.840.1.113883.4.4",
        "value": "21-3259825"
      } ],
      "active": true,
      "type": [ {
        "coding": [ {
          "system": "http://terminology.hl7.org/CodeSystem/organization-type",
          "code": "pay",
          "display": "Payer"
        } ]
      } ],
      "name": "Blue Cross Blue Shield of Texas",
      "telecom": [ {
        "system": "phone",
        "value": "(+1) 972-766-6900"
      } ],
      "address": [ {
        "use": "billing",
        "type": "postal",
        "line": [ "P.O. Box 660044" ],
        "city": "Dallas",
        "state": "TX",
        "postalCode": "75266-0044",
        "country": "USA"
      } ]
    },
    "request": {
      "method": "PUT",
      "url": "Organization/fb6dffe4-397a-4edc-8847-5a091d8f76da"
    }
  }, {
    "fullUrl": "https://madie.cms.gov/Practitioner/0ca259a7-e1a0-44dc-9c04-8eeb333c22d0",
    "resource": {
      "resourceType": "Practitioner",
      "id": "0ca259a7-e1a0-44dc-9c04-8eeb333c22d0",
      "meta": {
        "profile": [ "http://hl7.org/fhir/us/qicore/StructureDefinition/qicore-practitioner" ]
      },
      "identifier": [ {
        "system": "http://hl7.org/fhir/sid/us-npi",
        "value": "9999999896"
      } ],
      "name": [ {
        "family": "Evil",
        "prefix": [ "Dr" ]
      } ]
    },
    "request": {
      "method": "PUT",
      "url": "Practitioner/0ca259a7-e1a0-44dc-9c04-8eeb333c22d0"
    }
  }, {
    "fullUrl": "https://madie.cms.gov/MeasureReport/74ac443a-d300-4cb4-9f14-17ed9a2c49c1",
    "resource": {
      "resourceType": "MeasureReport",
      "id": "74ac443a-d300-4cb4-9f14-17ed9a2c49c1",
      "meta": {
        "profile": [ "http://hl7.org/fhir/us/cqfmeasures/StructureDefinition/test-case-cqfm" ]
      },
      "contained": [ {
        "resourceType": "Parameters",
        "id": "2b81f22f-ebe0-46a8-abcc-5d7673add722-parameters",
        "parameter": [ {
          "name": "subject",
          "valueString": "fd13e14c-cd97-4e81-9a69-e638b0a1fa58"
        } ]
      } ],
      "extension": [ {
        "url": "http://hl7.org/fhir/StructureDefinition/cqf-inputParameters",
        "valueReference": {
          "reference": "#2b81f22f-ebe0-46a8-abcc-5d7673add722-parameters"
        }
      }, {
        "url": "http://hl7.org/fhir/us/cqfmeasures/StructureDefinition/cqfm-testCaseDescription",
        "valueMarkdown": "ED visit with Principal Dx = Ischemic Stroke. Inpatient encounter Principal DX=AFIB \n"
      } ],
      "modifierExtension": [ {
        "url": "http://hl7.org/fhir/us/cqfmeasures/StructureDefinition/cqfm-isTestCase",
        "valueBoolean": true
      } ],
      "status": "complete",
      "type": "individual",
      "measure": "https://madie.cms.gov/Measure/CMS71FHIRSTKAnticoagAFFlutter",
      "period": {
        "start": "2026-01-01",
        "end": "2026-12-31"
      },
      "group": [ {
        "id": "Group_1",
        "population": [ {
          "id": "InitialPopulation_1",
          "code": {
            "coding": [ {
              "system": "http://terminology.hl7.org/CodeSystem/measure-population",
              "code": "initial-population",
              "display": "Initial Population"
            } ]
          },
          "count": 0
        }, {
          "id": "Denominator_1",
          "code": {
            "coding": [ {
              "system": "http://terminology.hl7.org/CodeSystem/measure-population",
              "code": "denominator",
              "display": "Denominator"
            } ]
          },
          "count": 0
        }, {
          "id": "DenominatorExclusion_1",
          "code": {
            "coding": [ {
              "system": "http://terminology.hl7.org/CodeSystem/measure-population",
              "code": "denominator-exclusion",
              "display": "Denominator Exclusion"
            } ]
          },
          "count": 0
        }, {
          "id": "Numerator_1",
          "code": {
            "coding": [ {
              "system": "http://terminology.hl7.org/CodeSystem/measure-population",
              "code": "numerator",
              "display": "Numerator"
            } ]
          },
          "count": 0
        }, {
          "id": "DenominatorException_1",
          "code": {
            "coding": [ {
              "system": "http://terminology.hl7.org/CodeSystem/measure-population",
              "code": "denominator-exception",
              "display": "Denominator Exception"
            } ]
          },
          "count": 0
        } ],
        "measureScore": {
          "value": 0.0
        }
      } ],
      "evaluatedResource": [ {
        "reference": "Patient/fd13e14c-cd97-4e81-9a69-e638b0a1fa58"
      }, {
        "reference": "Encounter/f3d1947a-5bf3-440c-af58-7fc01ef8ab29"
      }, {
        "reference": "Encounter/37d1e3ab-072c-4936-9e50-1063e2fad3f3"
      }, {
        "reference": "Encounter/1386c525-fd9a-4e0b-ac03-28ad579a8a54"
      }, {
        "reference": "Claim/5ca62962b8484628b8de1ec5"
      }, {
        "reference": "Coverage/8d4ba887-3e4c-411a-a065-ddc22abf3a16"
      }, {
        "reference": "Condition/98960311-1ad4-4685-8296-2d6916322b91"
      }, {
        "reference": "Condition/9d5ee01b-9649-43a7-acbe-c51efc851e1d"
      }, {
        "reference": "Organization/fb6dffe4-397a-4edc-8847-5a091d8f76da"
      }, {
        "reference": "Practitioner/0ca259a7-e1a0-44dc-9c04-8eeb333c22d0"
      } ]
    },
    "request": {
      "method": "PUT",
      "url": "MeasureReport/74ac443a-d300-4cb4-9f14-17ed9a2c49c1"
    }
  } ]
}