{
  "resourceType": "Bundle",
  "id": "633b3f9e0968f80122503cd9",
  "type": "transaction",
  "entry": [ {
    "fullUrl": "https://madie.cms.gov/Patient/3d4b6868-31ce-42f8-87c1-ab06d851d53f",
    "resource": {
      "resourceType": "Patient",
      "id": "3d4b6868-31ce-42f8-87c1-ab06d851d53f",
      "meta": {
        "profile": [ "http://hl7.org/fhir/us/qicore/StructureDefinition/qicore-patient" ]
      },
      "text": {
        "status": "generated",
        "div": "<div xmlns=\"http://www.w3.org/1999/xhtml\"><div class=\"hapiHeaderText\">DELEncCalEGAEQ19Wks6Days<b>DENOMFAIL</b></div><table class=\"hapiPropertyTable\"><tbody><tr><td>Date of birth</td><td><span>01 February 1958</span></td></tr></tbody></table></div>"
      },
      "extension": [ {
        "url": "http://hl7.org/fhir/us/core/StructureDefinition/us-core-race",
        "extension": [ {
          "url": "ombCategory",
          "valueCoding": {
            "system": "urn:oid:2.16.840.1.113883.6.238",
            "code": "1002-5",
            "display": "American Indian or Alaska Native",
            "userSelected": true
          }
        }, {
          "url": "text",
          "valueString": "American Indian or Alaska Native"
        } ]
      }, {
        "url": "http://hl7.org/fhir/us/core/StructureDefinition/us-core-ethnicity",
        "extension": [ {
          "url": "ombCategory",
          "valueCoding": {
            "system": "urn:oid:2.16.840.1.113883.6.238",
            "code": "2135-2",
            "display": "Hispanic or Latino",
            "userSelected": true
          }
        }, {
          "url": "text",
          "valueString": "Hispanic or Latino"
        } ]
      } ],
      "identifier": [ {
        "type": {
          "coding": [ {
            "system": "http://terminology.hl7.org/CodeSystem/v2-0203",
            "code": "MR"
          } ]
        },
        "system": "https://bonnie-fhir.healthit.gov/",
        "value": "633b3f9e0968f80122503cd9"
      } ],
      "active": true,
      "name": [ {
        "use": "usual",
        "family": "DENOMFail",
        "given": [ "DELEncCalEGAEQ19Wks6Days" ]
      } ],
      "gender": "female",
      "birthDate": "1971-02-01"
    },
    "request": {
      "method": "PUT",
      "url": "Patient/3d4b6868-31ce-42f8-87c1-ab06d851d53f"
    }
  }, {
    "fullUrl": "https://madie.cms.gov/Observation/e926dceb-d5d8-473b-a783-ecd91f8ecb18",
    "resource": {
      "resourceType": "Observation",
      "id": "e926dceb-d5d8-473b-a783-ecd91f8ecb18",
      "meta": {
        "profile": [ "http://hl7.org/fhir/us/qicore/StructureDefinition/qicore-simple-observation" ]
      },
      "status": "final",
      "category": [ {
        "coding": [ {
          "system": "http://terminology.hl7.org/CodeSystem/observation-category",
          "code": "exam",
          "display": "exam",
          "userSelected": true
        } ]
      } ],
      "code": {
        "coding": [ {
          "system": "http://loinc.org",
          "code": "93857-1"
        } ]
      },
      "subject": {
        "reference": "Patient/3d4b6868-31ce-42f8-87c1-ab06d851d53f"
      },
      "effectiveDateTime": "2026-01-15T08:00:00Z",
      "performer": [ {
        "reference": "Organization/example1",
        "display": "Hendricks Country Hospital"
      } ],
      "valueDateTime": "2026-01-15T08:00:00.000+00:00"
    },
    "request": {
      "method": "PUT",
      "url": "Observation/e926dceb-d5d8-473b-a783-ecd91f8ecb18"
    }
  }, {
    "fullUrl": "https://madie.cms.gov/Observation/1e8db144-112e-490b-96f5-224bcd38f612",
    "resource": {
      "resourceType": "Observation",
      "id": "1e8db144-112e-490b-96f5-224bcd38f612",
      "meta": {
        "profile": [ "http://hl7.org/fhir/us/qicore/StructureDefinition/qicore-simple-observation" ]
      },
      "status": "final",
      "category": [ {
        "coding": [ {
          "system": "http://terminology.hl7.org/CodeSystem/observation-category",
          "code": "exam",
          "display": "exam",
          "userSelected": true
        } ]
      } ],
      "code": {
        "coding": [ {
          "system": "http://loinc.org",
          "code": "11778-8"
        } ]
      },
      "subject": {
        "reference": "Patient/3d4b6868-31ce-42f8-87c1-ab06d851d53f"
      },
      "effectiveDateTime": "2026-01-15T08:00:00Z",
      "performer": [ {
        "reference": "Organization/example1",
        "display": "Hendricks Country Hospital"
      } ],
      "valueDateTime": "2026-06-05T08:00:00.000+00:00"
    },
    "request": {
      "method": "PUT",
      "url": "Observation/1e8db144-112e-490b-96f5-224bcd38f612"
    }
  }, {
    "fullUrl": "https://madie.cms.gov/Encounter/7cccf4ed-0cf5-4dae-ba06-ad63c3ed88f7",
    "resource": {
      "resourceType": "Encounter",
      "id": "7cccf4ed-0cf5-4dae-ba06-ad63c3ed88f7",
      "meta": {
        "profile": [ "http://hl7.org/fhir/us/qicore/StructureDefinition/qicore-encounter" ]
      },
      "status": "finished",
      "class": {
        "system": "http://terminology.hl7.org/CodeSystem/v3-ActCode",
        "code": "IMP",
        "display": "inpatient encounter"
      },
      "type": [ {
        "coding": [ {
          "system": "http://snomed.info/sct",
          "code": "183452005"
        } ]
      } ],
      "subject": {
        "reference": "Patient/3d4b6868-31ce-42f8-87c1-ab06d851d53f"
      },
      "period": {
        "start": "2026-01-01T08:00:00Z",
        "end": "2026-02-05T08:15:00.000+00:00"
      }
    },
    "request": {
      "method": "PUT",
      "url": "Encounter/7cccf4ed-0cf5-4dae-ba06-ad63c3ed88f7"
    }
  }, {
    "fullUrl": "https://madie.cms.gov/Coverage/fe8c653c-31ed-4c34-a984-4dd7383d9c54",
    "resource": {
      "resourceType": "Coverage",
      "id": "fe8c653c-31ed-4c34-a984-4dd7383d9c54",
      "status": "active",
      "subscriberId": "523435",
      "beneficiary": {
        "reference": "Patient/3d4b6868-31ce-42f8-87c1-ab06d851d53f"
      },
      "relationship": {
        "coding": [ {
          "system": "http://terminology.hl7.org/CodeSystem/subscriber-relationship",
          "code": "self"
        } ]
      },
      "period": {
        "start": "1959-02-01T08:00:00Z"
      },
      "payor": [ {
        "reference": "Organization/92ea3213-ba2e-42ba-8a30-f41e052eba29"
      } ]
    },
    "request": {
      "method": "PUT",
      "url": "Coverage/fe8c653c-31ed-4c34-a984-4dd7383d9c54"
    }
  }, {
    "fullUrl": "https://madie.cms.gov/Procedure/76e36f42-c906-41cb-a9b7-7485fc59c3eb",
    "resource": {
      "resourceType": "Procedure",
      "id": "76e36f42-c906-41cb-a9b7-7485fc59c3eb",
      "meta": {
        "profile": [ "http://hl7.org/fhir/us/qicore/StructureDefinition/qicore-procedure" ]
      },
      "extension": [ {
        "url": "http://hl7.org/fhir/us/qicore/StructureDefinition/qicore-recorded",
        "valueDateTime": "2014-04-05T13:35:00Z"
      } ],
      "status": "completed",
      "code": {
        "coding": [ {
          "system": "http://snomed.info/sct",
          "code": "10745001"
        } ]
      },
      "subject": {
        "reference": "Patient/3d4b6868-31ce-42f8-87c1-ab06d851d53f"
      },
      "performedPeriod": {
        "start": "2026-01-01T08:00:00Z"
      }
    },
    "request": {
      "method": "PUT",
      "url": "Procedure/76e36f42-c906-41cb-a9b7-7485fc59c3eb"
    }
  }, {
    "fullUrl": "https://madie.cms.gov/Organization/92ea3213-ba2e-42ba-8a30-f41e052eba29",
    "resource": {
      "resourceType": "Organization",
      "id": "92ea3213-ba2e-42ba-8a30-f41e052eba29",
      "meta": {
        "profile": [ "http://hl7.org/fhir/us/qicore/StructureDefinition/qicore-organization" ]
      },
      "identifier": [ {
        "use": "temp",
        "system": "urn:oid:2.16.840.1.113883.4.4",
        "value": "21-3259825"
      } ],
      "active": true,
      "type": [ {
        "coding": [ {
          "system": "http://terminology.hl7.org/CodeSystem/organization-type",
          "code": "pay",
          "display": "Payer"
        } ]
      } ],
      "name": "Blue Cross Blue Shield of Texas",
      "telecom": [ {
        "system": "phone",
        "value": "(+1) 972-766-6900"
      } ],
      "address": [ {
        "use": "billing",
        "type": "postal",
        "line": [ "P.O. Box 660044" ],
        "city": "Dallas",
        "state": "TX",
        "postalCode": "75266-0044",
        "country": "USA"
      } ]
    },
    "request": {
      "method": "PUT",
      "url": "Organization/92ea3213-ba2e-42ba-8a30-f41e052eba29"
    }
  }, {
    "fullUrl": "https://madie.cms.gov/Practitioner/fa96c17a-d031-42c0-bbf0-39f011f0d16b",
    "resource": {
      "resourceType": "Practitioner",
      "id": "fa96c17a-d031-42c0-bbf0-39f011f0d16b",
      "meta": {
        "profile": [ "http://hl7.org/fhir/us/qicore/StructureDefinition/qicore-practitioner" ]
      },
      "identifier": [ {
        "system": "http://hl7.org/fhir/sid/us-npi",
        "value": "1234567890"
      } ],
      "name": [ {
        "family": "Evil",
        "prefix": [ "Dr" ]
      } ]
    },
    "request": {
      "method": "PUT",
      "url": "Practitioner/fa96c17a-d031-42c0-bbf0-39f011f0d16b"
    }
  }, {
    "fullUrl": "https://madie.cms.gov/MeasureReport/6d1209b0-99d6-43ee-bdcc-aaeb7558139c",
    "resource": {
      "resourceType": "MeasureReport",
      "id": "6d1209b0-99d6-43ee-bdcc-aaeb7558139c",
      "meta": {
        "profile": [ "http://hl7.org/fhir/us/cqfmeasures/StructureDefinition/test-case-cqfm" ]
      },
      "contained": [ {
        "resourceType": "Parameters",
        "id": "143e8dc4-29bb-4e35-8287-c9cdf634cf95-parameters",
        "parameter": [ {
          "name": "subject",
          "valueString": "3d4b6868-31ce-42f8-87c1-ab06d851d53f"
        } ]
      } ],
      "extension": [ {
        "url": "http://hl7.org/fhir/StructureDefinition/cqf-inputParameters",
        "valueReference": {
          "reference": "#143e8dc4-29bb-4e35-8287-c9cdf634cf95-parameters"
        }
      }, {
        "url": "http://hl7.org/fhir/us/cqfmeasures/StructureDefinition/cqfm-testCaseDescription",
        "valueMarkdown": "Calculated EGA = 19 weeks and 6 days\n"
      } ],
      "modifierExtension": [ {
        "url": "http://hl7.org/fhir/us/cqfmeasures/StructureDefinition/cqfm-isTestCase",
        "valueBoolean": true
      } ],
      "status": "complete",
      "type": "individual",
      "measure": "https://madie.cms.gov/Measure/CMS1028FHIRPCSevereOBComps",
      "period": {
        "start": "2026-01-01",
        "end": "2026-12-31"
      },
      "group": [ {
        "id": "Group_1",
        "population": [ {
          "id": "InitialPopulation_1",
          "code": {
            "coding": [ {
              "system": "http://terminology.hl7.org/CodeSystem/measure-population",
              "code": "initial-population",
              "display": "Initial Population"
            } ]
          },
          "count": 1
        }, {
          "id": "Denominator_1",
          "code": {
            "coding": [ {
              "system": "http://terminology.hl7.org/CodeSystem/measure-population",
              "code": "denominator",
              "display": "Denominator"
            } ]
          },
          "count": 0
        }, {
          "id": "Numerator_1",
          "code": {
            "coding": [ {
              "system": "http://terminology.hl7.org/CodeSystem/measure-population",
              "code": "numerator",
              "display": "Numerator"
            } ]
          },
          "count": 0
        }, {
          "id": "NumeratorExclusion_1",
          "code": {
            "coding": [ {
              "system": "http://terminology.hl7.org/CodeSystem/measure-population",
              "code": "numerator-exclusion",
              "display": "Numerator Exclusion"
            } ]
          },
          "count": 0
        } ],
        "measureScore": {
          "value": 0.0
        }
      }, {
        "id": "Group_2",
        "population": [ {
          "id": "InitialPopulation_2",
          "code": {
            "coding": [ {
              "system": "http://terminology.hl7.org/CodeSystem/measure-population",
              "code": "initial-population",
              "display": "Initial Population"
            } ]
          },
          "count": 1
        }, {
          "id": "Denominator_2",
          "code": {
            "coding": [ {
              "system": "http://terminology.hl7.org/CodeSystem/measure-population",
              "code": "denominator",
              "display": "Denominator"
            } ]
          },
          "count": 0
        }, {
          "id": "Numerator_2",
          "code": {
            "coding": [ {
              "system": "http://terminology.hl7.org/CodeSystem/measure-population",
              "code": "numerator",
              "display": "Numerator"
            } ]
          },
          "count": 0
        }, {
          "id": "NumeratorExclusion_2",
          "code": {
            "coding": [ {
              "system": "http://terminology.hl7.org/CodeSystem/measure-population",
              "code": "numerator-exclusion",
              "display": "Numerator Exclusion"
            } ]
          },
          "count": 0
        } ],
        "measureScore": {
          "value": 0.0
        }
      } ],
      "evaluatedResource": [ {
        "reference": "Patient/3d4b6868-31ce-42f8-87c1-ab06d851d53f"
      }, {
        "reference": "Observation/e926dceb-d5d8-473b-a783-ecd91f8ecb18"
      }, {
        "reference": "Observation/1e8db144-112e-490b-96f5-224bcd38f612"
      }, {
        "reference": "Encounter/7cccf4ed-0cf5-4dae-ba06-ad63c3ed88f7"
      }, {
        "reference": "Coverage/fe8c653c-31ed-4c34-a984-4dd7383d9c54"
      }, {
        "reference": "Procedure/76e36f42-c906-41cb-a9b7-7485fc59c3eb"
      }, {
        "reference": "Organization/92ea3213-ba2e-42ba-8a30-f41e052eba29"
      }, {
        "reference": "Practitioner/fa96c17a-d031-42c0-bbf0-39f011f0d16b"
      } ]
    },
    "request": {
      "method": "PUT",
      "url": "MeasureReport/6d1209b0-99d6-43ee-bdcc-aaeb7558139c"
    }
  } ]
}