{
  "resourceType": "Bundle",
  "id": "60f82c2f98086b570510e2c3",
  "type": "transaction",
  "entry": [ {
    "fullUrl": "https://madie.cms.gov/Patient/3264d587-3c02-45ff-b989-044fcc30abae",
    "resource": {
      "resourceType": "Patient",
      "id": "3264d587-3c02-45ff-b989-044fcc30abae",
      "meta": {
        "profile": [ "http://hl7.org/fhir/us/qicore/StructureDefinition/qicore-patient" ]
      },
      "text": {
        "status": "generated",
        "div": "<div xmlns=\"http://www.w3.org/1999/xhtml\"><div class=\"hapiHeaderText\">LastEdEnd_LT_1hrB4ObsStartDayAft_ValidObs_INRresultDatetime_EQ1minB4EdStart <b>DENEXCEPASS </b></div><table class=\"hapiPropertyTable\"><tbody><tr><td>Identifier</td><td>41b76b51b736266a481493c3a5fb7fd38292e37262b1577b398913135b70db53</td></tr><tr><td>Date of birth</td><td><span>26 September 1975</span></td></tr></tbody></table></div>"
      },
      "extension": [ {
        "url": "http://hl7.org/fhir/us/core/StructureDefinition/us-core-race",
        "extension": [ {
          "url": "ombCategory",
          "valueCoding": {
            "system": "urn:oid:2.16.840.1.113883.6.238",
            "code": "1002-5",
            "display": "American Indian or Alaska Native",
            "userSelected": true
          }
        }, {
          "url": "text",
          "valueString": "American Indian or Alaska Native"
        } ]
      }, {
        "url": "http://hl7.org/fhir/us/core/StructureDefinition/us-core-ethnicity",
        "extension": [ {
          "url": "ombCategory",
          "valueCoding": {
            "system": "urn:oid:2.16.840.1.113883.6.238",
            "code": "2135-2",
            "display": "Hispanic or Latino",
            "userSelected": true
          }
        }, {
          "url": "text",
          "valueString": "Hispanic or Latino"
        } ]
      } ],
      "identifier": [ {
        "type": {
          "coding": [ {
            "system": "http://terminology.hl7.org/CodeSystem/v2-0203",
            "code": "MR"
          } ]
        },
        "system": "https://bonnie-fhir.healthit.gov/",
        "value": "60f82c2f98086b570510e2c3"
      } ],
      "active": true,
      "name": [ {
        "use": "usual",
        "family": "DENEXCEPass",
        "given": [ "LastEdEnd_LT_1hrB4ObsStartDayAft_ValidObs_INRresultDatetime_EQ1minB4EdStart" ]
      } ],
      "gender": "female",
      "birthDate": "1976-09-26"
    },
    "request": {
      "method": "PUT",
      "url": "Patient/3264d587-3c02-45ff-b989-044fcc30abae"
    }
  }, {
    "fullUrl": "https://madie.cms.gov/Encounter/90fd3bc8-4027-461a-84dd-10c54101ca07",
    "resource": {
      "resourceType": "Encounter",
      "id": "90fd3bc8-4027-461a-84dd-10c54101ca07",
      "meta": {
        "profile": [ "http://hl7.org/fhir/us/qicore/StructureDefinition/qicore-encounter" ]
      },
      "status": "finished",
      "class": {
        "system": "http://terminology.hl7.org/CodeSystem/v3-ActCode",
        "code": "EMER",
        "display": "emergency",
        "userSelected": true
      },
      "type": [ {
        "coding": [ {
          "system": "http://snomed.info/sct",
          "code": "4525004"
        } ]
      } ],
      "subject": {
        "reference": "Patient/3264d587-3c02-45ff-b989-044fcc30abae"
      },
      "period": {
        "start": "2026-10-10T06:15:00Z",
        "end": "2026-10-10T23:59:00.000+00:00"
      },
      "length": {
        "value": 0,
        "unit": "days"
      }
    },
    "request": {
      "method": "PUT",
      "url": "Encounter/90fd3bc8-4027-461a-84dd-10c54101ca07"
    }
  }, {
    "fullUrl": "https://madie.cms.gov/Encounter/7aa92539-d33a-4efd-9ae1-f1a858e6f05f",
    "resource": {
      "resourceType": "Encounter",
      "id": "7aa92539-d33a-4efd-9ae1-f1a858e6f05f",
      "meta": {
        "profile": [ "http://hl7.org/fhir/us/qicore/StructureDefinition/qicore-encounter" ]
      },
      "status": "finished",
      "class": {
        "system": "http://terminology.hl7.org/CodeSystem/v3-ActCode",
        "code": "OBSENC",
        "display": "observation encounter",
        "userSelected": true
      },
      "type": [ {
        "coding": [ {
          "system": "http://snomed.info/sct",
          "code": "448951000124107"
        } ]
      } ],
      "subject": {
        "reference": "Patient/3264d587-3c02-45ff-b989-044fcc30abae"
      },
      "period": {
        "start": "2026-10-11T00:00:00Z",
        "end": "2026-10-11T11:59:00.000+00:00"
      },
      "length": {
        "value": 0,
        "unit": "days"
      }
    },
    "request": {
      "method": "PUT",
      "url": "Encounter/7aa92539-d33a-4efd-9ae1-f1a858e6f05f"
    }
  }, {
    "fullUrl": "https://madie.cms.gov/Encounter/76cb236a-3c6a-45f0-9816-7345e098990e",
    "resource": {
      "resourceType": "Encounter",
      "id": "76cb236a-3c6a-45f0-9816-7345e098990e",
      "meta": {
        "profile": [ "http://hl7.org/fhir/us/qicore/StructureDefinition/qicore-encounter" ]
      },
      "status": "finished",
      "class": {
        "system": "http://terminology.hl7.org/CodeSystem/v3-ActCode",
        "code": "IMP",
        "display": "inpatient encounter",
        "userSelected": true
      },
      "type": [ {
        "coding": [ {
          "system": "http://snomed.info/sct",
          "code": "32485007"
        } ]
      } ],
      "subject": {
        "reference": "Patient/3264d587-3c02-45ff-b989-044fcc30abae"
      },
      "period": {
        "start": "2026-10-11T12:15:00Z",
        "end": "2026-10-15T11:30:00.000+00:00"
      },
      "length": {
        "value": 4,
        "unit": "days"
      },
      "reasonReference": [ {
        "reference": "Condition/d9f911e4-b7fb-4a3b-bf09-f5e218538323"
      } ]
    },
    "request": {
      "method": "PUT",
      "url": "Encounter/76cb236a-3c6a-45f0-9816-7345e098990e"
    }
  }, {
    "fullUrl": "https://madie.cms.gov/claim/5ca62962b8484628b8de1ec5",
    "resource": {
      "resourceType": "Claim",
      "id": "5ca62962b8484628b8de1ec5",
      "meta": {
        "profile": [ "http://hl7.org/fhir/us/qicore/StructureDefinition/qicore-claim" ]
      },
      "status": "active",
      "type": {
        "coding": [ {
          "system": "http://terminology.hl7.org/CodeSystem/claim-type",
          "code": "institutional"
        } ]
      },
      "use": "claim",
      "patient": {
        "reference": "Patient/d170a0a8-b5ad-4303-b6df-e304dd5f92ad"
      },
      "created": "2026-12-01",
      "provider": {
        "reference": "Practitioner/practitioner-123456"
      },
      "priority": {
        "coding": [ {
          "system": "http://terminology.hl7.org/CodeSystem/processpriority",
          "code": "normal"
        } ]
      },
      "diagnosis": [ {
        "sequence": 1,
        "diagnosisCodeableConcept": {
          "coding": [ {
            "system": "http://hl7.org/fhir/sid/icd-10-cm",
            "code": "I63.00"
          } ]
        },
        "type": [ {
          "coding": [ {
            "system": "http://terminology.hl7.org/CodeSystem/ex-diagnosistype",
            "code": "principal"
          } ]
        } ]
      } ],
      "insurance": [ {
        "sequence": 1,
        "focal": true,
        "coverage": {
          "reference": "Coverage/5fa041661c76ba66d9959367"
        }
      } ],
      "item": [ {
        "sequence": 1,
        "diagnosisSequence": [ 1 ],
        "productOrService": {
          "coding": [ {
            "system": "http://terminology.hl7.org/CodeSystem/ex-USCLS",
            "code": "99555"
          } ]
        },
        "encounter": [ {
          "reference": "Encounter/76cb236a-3c6a-45f0-9816-7345e098990e"
        } ]
      } ]
    },
    "request": {
      "method": "PUT",
      "url": "Claim/5ca62962b8484628b8de1ec5"
    }
  }, {
    "fullUrl": "https://madie.cms.gov/Observation/c32d8d00-0651-4c02-b139-a5a4f2e0b240",
    "resource": {
      "resourceType": "Observation",
      "id": "c32d8d00-0651-4c02-b139-a5a4f2e0b240",
      "meta": {
        "profile": [ "http://hl7.org/fhir/us/qicore/StructureDefinition/qicore-observation-lab" ]
      },
      "status": "final",
      "category": [ {
        "coding": [ {
          "system": "http://terminology.hl7.org/CodeSystem/observation-category",
          "code": "laboratory",
          "display": "Laboratory"
        } ]
      } ],
      "code": {
        "coding": [ {
          "system": "http://loinc.org",
          "code": "34714-6"
        } ]
      },
      "subject": {
        "reference": "Patient/3264d587-3c02-45ff-b989-044fcc30abae"
      },
      "effectivePeriod": {
        "start": "2026-10-10T06:15:00Z"
      },
      "issued": "2026-10-10T06:14:00.000+00:00",
      "valueQuantity": {
        "value": 3.6
      }
    },
    "request": {
      "method": "PUT",
      "url": "Observation/c32d8d00-0651-4c02-b139-a5a4f2e0b240"
    }
  }, {
    "fullUrl": "https://madie.cms.gov/Coverage/9678ffa6-4af3-4a6a-96bd-ace95eb5cd64",
    "resource": {
      "resourceType": "Coverage",
      "id": "9678ffa6-4af3-4a6a-96bd-ace95eb5cd64",
      "status": "active",
      "subscriberId": "523435",
      "beneficiary": {
        "reference": "Patient/3264d587-3c02-45ff-b989-044fcc30abae"
      },
      "relationship": {
        "coding": [ {
          "system": "http://terminology.hl7.org/CodeSystem/subscriber-relationship",
          "code": "self"
        } ]
      },
      "period": {
        "start": "1976-09-26T08:00:00Z"
      },
      "payor": [ {
        "reference": "Organization/0b427100-b7c1-4290-9d5a-e2392ea2b398"
      } ]
    },
    "request": {
      "method": "PUT",
      "url": "Coverage/9678ffa6-4af3-4a6a-96bd-ace95eb5cd64"
    }
  }, {
    "fullUrl": "https://madie.cms.gov/Condition/d9f911e4-b7fb-4a3b-bf09-f5e218538323",
    "resource": {
      "resourceType": "Condition",
      "id": "d9f911e4-b7fb-4a3b-bf09-f5e218538323",
      "meta": {
        "profile": [ "http://hl7.org/fhir/us/qicore/StructureDefinition/qicore-condition-encounter-diagnosis" ]
      },
      "clinicalStatus": {
        "coding": [ {
          "system": "http://terminology.hl7.org/CodeSystem/condition-clinical",
          "code": "active"
        } ]
      },
      "verificationStatus": {
        "coding": [ {
          "system": "http://terminology.hl7.org/CodeSystem/condition-ver-status",
          "code": "confirmed"
        } ]
      },
      "category": [ {
        "coding": [ {
          "system": "http://terminology.hl7.org/CodeSystem/condition-category",
          "code": "encounter-diagnosis",
          "display": "Encounter Diagnosis"
        } ]
      } ],
      "code": {
        "coding": [ {
          "system": "http://snomed.info/sct",
          "version": "2020-09",
          "code": "111297002",
          "display": "Nonparalytic stroke (disorder)",
          "userSelected": true
        } ]
      },
      "subject": {
        "reference": "Patient/3264d587-3c02-45ff-b989-044fcc30abae"
      },
      "recordedDate": "2026-08-06T08:00:00Z"
    },
    "request": {
      "method": "PUT",
      "url": "Condition/d9f911e4-b7fb-4a3b-bf09-f5e218538323"
    }
  }, {
    "fullUrl": "https://madie.cms.gov/Organization/0b427100-b7c1-4290-9d5a-e2392ea2b398",
    "resource": {
      "resourceType": "Organization",
      "id": "0b427100-b7c1-4290-9d5a-e2392ea2b398",
      "meta": {
        "profile": [ "http://hl7.org/fhir/us/qicore/StructureDefinition/qicore-organization" ]
      },
      "identifier": [ {
        "use": "temp",
        "system": "urn:oid:2.16.840.1.113883.4.4",
        "value": "21-3259825"
      } ],
      "active": true,
      "type": [ {
        "coding": [ {
          "system": "http://terminology.hl7.org/CodeSystem/organization-type",
          "code": "pay",
          "display": "Payer"
        } ]
      } ],
      "name": "Blue Cross Blue Shield of Texas",
      "telecom": [ {
        "system": "phone",
        "value": "(+1) 972-766-6900"
      } ],
      "address": [ {
        "use": "billing",
        "type": "postal",
        "line": [ "P.O. Box 660044" ],
        "city": "Dallas",
        "state": "TX",
        "postalCode": "75266-0044",
        "country": "USA"
      } ]
    },
    "request": {
      "method": "PUT",
      "url": "Organization/0b427100-b7c1-4290-9d5a-e2392ea2b398"
    }
  }, {
    "fullUrl": "https://madie.cms.gov/MeasureReport/28121533-2191-4e7f-8fb3-2d202ff4ca72",
    "resource": {
      "resourceType": "MeasureReport",
      "id": "28121533-2191-4e7f-8fb3-2d202ff4ca72",
      "meta": {
        "profile": [ "http://hl7.org/fhir/us/cqfmeasures/StructureDefinition/test-case-cqfm" ]
      },
      "contained": [ {
        "resourceType": "Parameters",
        "id": "ea8e4580-a90c-4d42-ba3e-bcc713bcb954-parameters",
        "parameter": [ {
          "name": "subject",
          "valueString": "3264d587-3c02-45ff-b989-044fcc30abae"
        } ]
      } ],
      "extension": [ {
        "url": "http://hl7.org/fhir/StructureDefinition/cqf-inputParameters",
        "valueReference": {
          "reference": "#ea8e4580-a90c-4d42-ba3e-bcc713bcb954-parameters"
        }
      }, {
        "url": "http://hl7.org/fhir/us/cqfmeasures/StructureDefinition/cqfm-testCaseDescription",
        "valueMarkdown": "Patient receives INR of 3.6 1 minute before ED start.  ED less than 1 hour before OBS starts at midnight (day after). Case will pass due to day of.\n"
      } ],
      "modifierExtension": [ {
        "url": "http://hl7.org/fhir/us/cqfmeasures/StructureDefinition/cqfm-isTestCase",
        "valueBoolean": true
      } ],
      "status": "complete",
      "type": "individual",
      "measure": "https://madie.cms.gov/Measure/CMS72FHIRSTKAntithromboticDay2",
      "period": {
        "start": "2026-01-01",
        "end": "2026-12-31"
      },
      "group": [ {
        "id": "Group_1",
        "population": [ {
          "id": "InitialPopulation_1",
          "code": {
            "coding": [ {
              "system": "http://terminology.hl7.org/CodeSystem/measure-population",
              "code": "initial-population",
              "display": "Initial Population"
            } ]
          },
          "count": 1
        }, {
          "id": "Denominator_1",
          "code": {
            "coding": [ {
              "system": "http://terminology.hl7.org/CodeSystem/measure-population",
              "code": "denominator",
              "display": "Denominator"
            } ]
          },
          "count": 1
        }, {
          "id": "DenominatorExclusion_1",
          "code": {
            "coding": [ {
              "system": "http://terminology.hl7.org/CodeSystem/measure-population",
              "code": "denominator-exclusion",
              "display": "Denominator Exclusion"
            } ]
          },
          "count": 0
        }, {
          "id": "Numerator_1",
          "code": {
            "coding": [ {
              "system": "http://terminology.hl7.org/CodeSystem/measure-population",
              "code": "numerator",
              "display": "Numerator"
            } ]
          },
          "count": 0
        }, {
          "id": "DenominatorException_1",
          "code": {
            "coding": [ {
              "system": "http://terminology.hl7.org/CodeSystem/measure-population",
              "code": "denominator-exception",
              "display": "Denominator Exception"
            } ]
          },
          "count": 1
        } ],
        "measureScore": {
          "value": 0.0
        }
      } ],
      "evaluatedResource": [ {
        "reference": "Patient/3264d587-3c02-45ff-b989-044fcc30abae"
      }, {
        "reference": "Encounter/90fd3bc8-4027-461a-84dd-10c54101ca07"
      }, {
        "reference": "Encounter/7aa92539-d33a-4efd-9ae1-f1a858e6f05f"
      }, {
        "reference": "Encounter/76cb236a-3c6a-45f0-9816-7345e098990e"
      }, {
        "reference": "Claim/5ca62962b8484628b8de1ec5"
      }, {
        "reference": "Observation/c32d8d00-0651-4c02-b139-a5a4f2e0b240"
      }, {
        "reference": "Coverage/9678ffa6-4af3-4a6a-96bd-ace95eb5cd64"
      }, {
        "reference": "Condition/d9f911e4-b7fb-4a3b-bf09-f5e218538323"
      }, {
        "reference": "Organization/0b427100-b7c1-4290-9d5a-e2392ea2b398"
      } ]
    },
    "request": {
      "method": "PUT",
      "url": "MeasureReport/28121533-2191-4e7f-8fb3-2d202ff4ca72"
    }
  } ]
}