{
  "resourceType": "Bundle",
  "id": "98116841646686466847",
  "type": "transaction",
  "entry": [ {
    "fullUrl": "https://madie.cms.gov/Patient/aedc0360-4636-4a4e-9617-4bf60c03f767",
    "resource": {
      "resourceType": "Patient",
      "id": "aedc0360-4636-4a4e-9617-4bf60c03f767",
      "meta": {
        "profile": [ "http://hl7.org/fhir/us/qicore/StructureDefinition/qicore-patient" ]
      },
      "extension": [ {
        "url": "http://hl7.org/fhir/us/core/StructureDefinition/us-core-race",
        "extension": [ {
          "url": "ombCategory",
          "valueCoding": {
            "system": "urn:oid:2.16.840.1.113883.6.238",
            "code": "2106-3",
            "display": "White"
          }
        }, {
          "url": "text",
          "valueString": "White"
        } ]
      }, {
        "url": "http://hl7.org/fhir/us/core/StructureDefinition/us-core-ethnicity",
        "extension": [ {
          "url": "ombCategory",
          "valueCoding": {
            "system": "urn:oid:2.16.840.1.113883.6.238",
            "code": "2186-5",
            "display": "Not Hispanic or Latino"
          }
        }, {
          "url": "text",
          "valueString": "Not Hispanic or Latino"
        } ]
      } ],
      "identifier": [ {
        "type": {
          "coding": [ {
            "system": "http://terminology.hl7.org/CodeSystem/v2-0203",
            "code": "MR"
          } ]
        },
        "system": "https://bonnie-fhir.healthit.gov/",
        "value": "56464131316461"
      } ],
      "name": [ {
        "family": "DENEXPopStrat1Pass",
        "given": [ "PalliativeCareProcedure" ]
      } ],
      "gender": "female",
      "birthDate": "2011-01-01"
    },
    "request": {
      "method": "PUT",
      "url": "Patient/aedc0360-4636-4a4e-9617-4bf60c03f767"
    }
  }, {
    "fullUrl": "https://madie.cms.gov/Encounter/0344881e-8011-4b38-a317-a059ce6b56a4",
    "resource": {
      "resourceType": "Encounter",
      "id": "0344881e-8011-4b38-a317-a059ce6b56a4",
      "meta": {
        "profile": [ "http://hl7.org/fhir/us/qicore/StructureDefinition/qicore-encounter" ]
      },
      "status": "finished",
      "class": {
        "system": "http://terminology.hl7.org/CodeSystem/v3-ActCode",
        "code": "AMB",
        "display": "ambulatory"
      },
      "type": [ {
        "coding": [ {
          "system": "http://www.ama-assn.org/go/cpt",
          "version": "2024",
          "code": "90791"
        } ]
      } ],
      "subject": {
        "reference": "Patient/aedc0360-4636-4a4e-9617-4bf60c03f767"
      },
      "period": {
        "start": "2025-02-25T14:30:00+00:00",
        "end": "2025-02-25T14:50:00+00:00"
      },
      "length": {
        "value": 0,
        "unit": "days"
      }
    },
    "request": {
      "method": "PUT",
      "url": "Encounter/0344881e-8011-4b38-a317-a059ce6b56a4"
    }
  }, {
    "fullUrl": "https://madie.cms.gov/Observation/10379f55-cec0-48a9-a075-d8616f372b3c",
    "resource": {
      "resourceType": "Observation",
      "id": "10379f55-cec0-48a9-a075-d8616f372b3c",
      "meta": {
        "profile": [ "http://hl7.org/fhir/us/qicore/StructureDefinition/qicore-observation-screening-assessment" ]
      },
      "status": "final",
      "category": [ {
        "coding": [ {
          "system": "http://terminology.hl7.org/CodeSystem/observation-category",
          "code": "survey",
          "display": "Survey"
        } ]
      } ],
      "code": {
        "coding": [ {
          "system": "http://loinc.org",
          "version": "2.76",
          "code": "44261-6"
        } ]
      },
      "subject": {
        "reference": "Patient/aedc0360-4636-4a4e-9617-4bf60c03f767"
      },
      "effectiveDateTime": "2025-02-25T14:35:00+00:00",
      "valueInteger": 10
    },
    "request": {
      "method": "PUT",
      "url": "Observation/10379f55-cec0-48a9-a075-d8616f372b3c"
    }
  }, {
    "fullUrl": "https://madie.cms.gov/Observation/e74ba35e-ef66-47ec-a36c-9d637ea955fb",
    "resource": {
      "resourceType": "Observation",
      "id": "e74ba35e-ef66-47ec-a36c-9d637ea955fb",
      "meta": {
        "profile": [ "http://hl7.org/fhir/us/qicore/StructureDefinition/qicore-observation-screening-assessment" ]
      },
      "status": "final",
      "category": [ {
        "coding": [ {
          "system": "http://terminology.hl7.org/CodeSystem/observation-category",
          "code": "survey",
          "display": "Survey"
        } ]
      } ],
      "code": {
        "coding": [ {
          "system": "http://loinc.org",
          "version": "2.76",
          "code": "44261-6"
        } ]
      },
      "subject": {
        "reference": "Patient/aedc0360-4636-4a4e-9617-4bf60c03f767"
      },
      "effectiveDateTime": "2026-02-19T14:30:00+00:00",
      "valueInteger": 3
    },
    "request": {
      "method": "PUT",
      "url": "Observation/e74ba35e-ef66-47ec-a36c-9d637ea955fb"
    }
  }, {
    "fullUrl": "https://madie.cms.gov/Condition/73dca948-96c0-4981-bfab-17ab9d30f6c5",
    "resource": {
      "resourceType": "Condition",
      "id": "73dca948-96c0-4981-bfab-17ab9d30f6c5",
      "meta": {
        "profile": [ "http://hl7.org/fhir/us/qicore/StructureDefinition/qicore-condition-problems-health-concerns" ]
      },
      "clinicalStatus": {
        "coding": [ {
          "system": "http://terminology.hl7.org/CodeSystem/condition-clinical",
          "code": "active",
          "display": "active"
        } ]
      },
      "verificationStatus": {
        "coding": [ {
          "system": "http://terminology.hl7.org/CodeSystem/condition-ver-status",
          "code": "confirmed"
        } ]
      },
      "category": [ {
        "coding": [ {
          "system": "http://terminology.hl7.org/CodeSystem/condition-category",
          "code": "problem-list-item",
          "display": "Problem List Item"
        } ]
      } ],
      "code": {
        "coding": [ {
          "system": "http://hl7.org/fhir/sid/icd-10-cm",
          "version": "2024",
          "code": "F32.9",
          "display": "Major Depressive Diagnosis"
        } ]
      },
      "subject": {
        "reference": "Patient/aedc0360-4636-4a4e-9617-4bf60c03f767"
      },
      "onsetDateTime": "2025-02-25T14:35:00+00:00"
    },
    "request": {
      "method": "PUT",
      "url": "Condition/73dca948-96c0-4981-bfab-17ab9d30f6c5"
    }
  }, {
    "fullUrl": "https://madie.cms.gov/Procedure/520ba238-81a0-4846-bbb6-2ced2343fc91",
    "resource": {
      "resourceType": "Procedure",
      "id": "520ba238-81a0-4846-bbb6-2ced2343fc91",
      "meta": {
        "profile": [ "http://hl7.org/fhir/us/qicore/StructureDefinition/qicore-procedure" ]
      },
      "extension": [ {
        "url": "http://hl7.org/fhir/us/qicore/StructureDefinition/qicore-recorded",
        "valueDateTime": "2026-02-05T09:35:00-04:00"
      } ],
      "status": "completed",
      "code": {
        "coding": [ {
          "system": "http://snomed.info/sct",
          "version": "http://snomed.info/sct/731000124108/version/20230901",
          "code": "395669003",
          "display": "Specialist palliative care treatment (regime/therapy)"
        } ],
        "text": "Specialist palliative care treatment (regime/therapy)"
      },
      "subject": {
        "reference": "Patient/aedc0360-4636-4a4e-9617-4bf60c03f767"
      },
      "performedDateTime": "2026-02-05T09:35:00-04:00"
    },
    "request": {
      "method": "PUT",
      "url": "Procedure/520ba238-81a0-4846-bbb6-2ced2343fc91"
    }
  }, {
    "fullUrl": "https://madie.cms.gov/MeasureReport/b7ad2cf4-2097-4485-92ae-174930256316",
    "resource": {
      "resourceType": "MeasureReport",
      "id": "b7ad2cf4-2097-4485-92ae-174930256316",
      "meta": {
        "profile": [ "http://hl7.org/fhir/us/cqfmeasures/StructureDefinition/test-case-cqfm" ]
      },
      "contained": [ {
        "resourceType": "Parameters",
        "id": "abb64bf7-a427-4870-8e33-ea0ad0d655ac-parameters",
        "parameter": [ {
          "name": "subject",
          "valueString": "aedc0360-4636-4a4e-9617-4bf60c03f767"
        } ]
      } ],
      "extension": [ {
        "url": "http://hl7.org/fhir/StructureDefinition/cqf-inputParameters",
        "valueReference": {
          "reference": "#abb64bf7-a427-4870-8e33-ea0ad0d655ac-parameters"
        }
      }, {
        "url": "http://hl7.org/fhir/us/cqfmeasures/StructureDefinition/cqfm-testCaseDescription",
        "valueMarkdown": "Patient is 14 years old and has a Major Depressive Dx and PHQ-9>9 during the denom ID period. Palliative care procedure performed before end of MAP. Note: Stratification Issue."
      } ],
      "modifierExtension": [ {
        "url": "http://hl7.org/fhir/us/cqfmeasures/StructureDefinition/cqfm-isTestCase",
        "valueBoolean": true
      } ],
      "status": "complete",
      "type": "individual",
      "measure": "https://madie.cms.gov/Measure/CMS159FHIRDepressionRemissionatTwelveMonths",
      "period": {
        "start": "2026-01-01",
        "end": "2026-12-31"
      },
      "group": [ {
        "id": "Group_1",
        "population": [ {
          "id": "InitialPopulation_1",
          "code": {
            "coding": [ {
              "system": "http://terminology.hl7.org/CodeSystem/measure-population",
              "code": "initial-population",
              "display": "Initial Population"
            } ]
          },
          "count": 1
        }, {
          "id": "Denominator_1",
          "code": {
            "coding": [ {
              "system": "http://terminology.hl7.org/CodeSystem/measure-population",
              "code": "denominator",
              "display": "Denominator"
            } ]
          },
          "count": 1
        }, {
          "id": "DenominatorExclusion_1",
          "code": {
            "coding": [ {
              "system": "http://terminology.hl7.org/CodeSystem/measure-population",
              "code": "denominator-exclusion",
              "display": "Denominator Exclusion"
            } ]
          },
          "count": 1
        }, {
          "id": "Numerator_1",
          "code": {
            "coding": [ {
              "system": "http://terminology.hl7.org/CodeSystem/measure-population",
              "code": "numerator",
              "display": "Numerator"
            } ]
          },
          "count": 0
        } ],
        "measureScore": {
          "value": 1.0
        }
      } ],
      "evaluatedResource": [ {
        "reference": "Patient/aedc0360-4636-4a4e-9617-4bf60c03f767"
      }, {
        "reference": "Encounter/0344881e-8011-4b38-a317-a059ce6b56a4"
      }, {
        "reference": "Observation/10379f55-cec0-48a9-a075-d8616f372b3c"
      }, {
        "reference": "Observation/e74ba35e-ef66-47ec-a36c-9d637ea955fb"
      }, {
        "reference": "Condition/73dca948-96c0-4981-bfab-17ab9d30f6c5"
      }, {
        "reference": "Procedure/520ba238-81a0-4846-bbb6-2ced2343fc91"
      } ]
    },
    "request": {
      "method": "PUT",
      "url": "MeasureReport/b7ad2cf4-2097-4485-92ae-174930256316"
    }
  } ]
}