{
  "resourceType": "Bundle",
  "id": "tests-IPPFail-Age17StartOfIPHospitalizations-bundle",
  "type": "transaction",
  "entry": [ {
    "fullUrl": "https://madie.cms.gov/Patient/56336dd0-efe8-4251-b599-dd3f47279d6d",
    "resource": {
      "resourceType": "Patient",
      "id": "56336dd0-efe8-4251-b599-dd3f47279d6d",
      "meta": {
        "profile": [ "http://hl7.org/fhir/us/qicore/StructureDefinition/qicore-patient" ]
      },
      "extension": [ {
        "url": "http://hl7.org/fhir/us/core/StructureDefinition/us-core-race",
        "extension": [ {
          "url": "ombCategory",
          "valueCoding": {
            "system": "urn:oid:2.16.840.1.113883.6.238",
            "code": "2028-9",
            "display": "Asian",
            "userSelected": true
          }
        }, {
          "url": "text",
          "valueString": "Asian"
        } ]
      }, {
        "url": "http://hl7.org/fhir/us/core/StructureDefinition/us-core-ethnicity",
        "extension": [ {
          "url": "ombCategory",
          "valueCoding": {
            "system": "urn:oid:2.16.840.1.113883.6.238",
            "code": "2186-5",
            "display": "Not Hispanic or Latino",
            "userSelected": true
          }
        }, {
          "url": "text",
          "valueString": "Not Hispanic or Latino"
        } ]
      } ],
      "identifier": [ {
        "type": {
          "coding": [ {
            "system": "http://terminology.hl7.org/CodeSystem/v2-0203",
            "code": "MR"
          } ]
        },
        "system": "https://bonnie-fhir.healthit.gov/",
        "value": "64121dd40c4b751dfe4ccb64"
      } ],
      "name": [ {
        "family": "IPPFail",
        "given": [ "Age17StartOfIPHospitalizations" ]
      } ],
      "gender": "female",
      "birthDate": "2008-02-01"
    },
    "request": {
      "method": "PUT",
      "url": "Patient/56336dd0-efe8-4251-b599-dd3f47279d6d"
    }
  }, {
    "fullUrl": "https://madie.cms.gov/Encounter/8ac86953-3ac5-4359-bff0-f3b61edd95e6",
    "resource": {
      "resourceType": "Encounter",
      "id": "8ac86953-3ac5-4359-bff0-f3b61edd95e6",
      "meta": {
        "profile": [ "http://hl7.org/fhir/us/qicore/StructureDefinition/qicore-encounter" ]
      },
      "status": "finished",
      "class": {
        "system": "http://terminology.hl7.org/CodeSystem/v3-ActCode",
        "code": "IMP",
        "display": "inpatient encounter"
      },
      "type": [ {
        "coding": [ {
          "system": "http://snomed.info/sct",
          "version": "2022-09",
          "code": "183452005",
          "display": "Emergency hospital admission (procedure)",
          "userSelected": true
        } ]
      } ],
      "subject": {
        "reference": "Patient/56336dd0-efe8-4251-b599-dd3f47279d6d"
      },
      "period": {
        "start": "2026-01-31T08:00:00.000+00:00",
        "end": "2026-02-03T08:15:00.000+00:00"
      }
    },
    "request": {
      "method": "PUT",
      "url": "Encounter/8ac86953-3ac5-4359-bff0-f3b61edd95e6"
    }
  }, {
    "fullUrl": "https://madie.cms.gov/Coverage/7f86dcdd-125b-4251-a4ab-8c7a728235b6",
    "resource": {
      "resourceType": "Coverage",
      "id": "7f86dcdd-125b-4251-a4ab-8c7a728235b6",
      "meta": {
        "profile": [ "http://hl7.org/fhir/us/qicore/StructureDefinition/qicore-coverage" ]
      },
      "identifier": [ {
        "system": "http://benefitsinc.com/certificate",
        "value": "12345"
      } ],
      "status": "active",
      "type": {
        "coding": [ {
          "system": "https://nahdo.org/sopt",
          "code": "59",
          "display": "Other Private Insurance"
        } ]
      },
      "policyHolder": {
        "reference": "Patient/56336dd0-efe8-4251-b599-dd3f47279d6d"
      },
      "subscriber": {
        "reference": "Patient/56336dd0-efe8-4251-b599-dd3f47279d6d"
      },
      "beneficiary": {
        "reference": "Patient/56336dd0-efe8-4251-b599-dd3f47279d6d"
      },
      "dependent": "0",
      "relationship": {
        "coding": [ {
          "system": "http://terminology.hl7.org/CodeSystem/subscriber-relationship",
          "code": "self"
        } ]
      },
      "period": {
        "start": "2026-01-01T06:00:00.000+00:00",
        "end": "2026-12-31T11:06:01.000+00:00"
      },
      "payor": [ {
        "reference": "Organization/Organization-2"
      } ],
      "order": 9
    },
    "request": {
      "method": "PUT",
      "url": "Coverage/7f86dcdd-125b-4251-a4ab-8c7a728235b6"
    }
  }, {
    "fullUrl": "https://madie.cms.gov/MeasureReport/977f5484-9403-43a7-a601-d5ca7c38229f",
    "resource": {
      "resourceType": "MeasureReport",
      "id": "977f5484-9403-43a7-a601-d5ca7c38229f",
      "meta": {
        "profile": [ "http://hl7.org/fhir/us/cqfmeasures/StructureDefinition/test-case-cqfm" ]
      },
      "contained": [ {
        "resourceType": "Parameters",
        "id": "e15f1158-49c7-4c06-b0c6-5ee8c141279a-parameters",
        "parameter": [ {
          "name": "subject",
          "valueString": "56336dd0-efe8-4251-b599-dd3f47279d6d"
        } ]
      } ],
      "extension": [ {
        "url": "http://hl7.org/fhir/StructureDefinition/cqf-inputParameters",
        "valueReference": {
          "reference": "#e15f1158-49c7-4c06-b0c6-5ee8c141279a-parameters"
        }
      }, {
        "url": "http://hl7.org/fhir/us/cqfmeasures/StructureDefinition/cqfm-testCaseDescription",
        "valueMarkdown": "Inpatient encounter during MP.  Age is 17 on day of IP admit, turns 18 day after admit. IPP fails, must be 18 at start of IP stay. "
      } ],
      "modifierExtension": [ {
        "url": "http://hl7.org/fhir/us/cqfmeasures/StructureDefinition/cqfm-isTestCase",
        "valueBoolean": true
      } ],
      "status": "complete",
      "type": "individual",
      "measure": "https://madie.cms.gov/Measure/CMS826FHIRHHPI",
      "period": {
        "start": "2026-01-01",
        "end": "2026-12-31"
      },
      "group": [ {
        "id": "Group_1",
        "population": [ {
          "id": "InitialPopulation_1",
          "code": {
            "coding": [ {
              "system": "http://terminology.hl7.org/CodeSystem/measure-population",
              "code": "initial-population",
              "display": "Initial Population"
            } ]
          },
          "count": 0
        }, {
          "id": "Denominator_1",
          "code": {
            "coding": [ {
              "system": "http://terminology.hl7.org/CodeSystem/measure-population",
              "code": "denominator",
              "display": "Denominator"
            } ]
          },
          "count": 0
        }, {
          "id": "DenominatorExclusion_1",
          "code": {
            "coding": [ {
              "system": "http://terminology.hl7.org/CodeSystem/measure-population",
              "code": "denominator-exclusion",
              "display": "Denominator Exclusion"
            } ]
          },
          "count": 0
        }, {
          "id": "Numerator_1",
          "code": {
            "coding": [ {
              "system": "http://terminology.hl7.org/CodeSystem/measure-population",
              "code": "numerator",
              "display": "Numerator"
            } ]
          },
          "count": 0
        } ],
        "measureScore": {
          "value": 0.0
        }
      } ],
      "evaluatedResource": [ {
        "reference": "Patient/56336dd0-efe8-4251-b599-dd3f47279d6d"
      }, {
        "reference": "Encounter/8ac86953-3ac5-4359-bff0-f3b61edd95e6"
      }, {
        "reference": "Coverage/7f86dcdd-125b-4251-a4ab-8c7a728235b6"
      } ]
    },
    "request": {
      "method": "PUT",
      "url": "MeasureReport/977f5484-9403-43a7-a601-d5ca7c38229f"
    }
  } ]
}