{
  "resourceType": "Bundle",
  "id": "63487c2d0968f8012254015f",
  "type": "transaction",
  "entry": [ {
    "fullUrl": "https://madie.cms.gov/Patient/2d4e497c-bbdd-4ed7-bcb3-6dbe62aca6a4",
    "resource": {
      "resourceType": "Patient",
      "id": "2d4e497c-bbdd-4ed7-bcb3-6dbe62aca6a4",
      "meta": {
        "profile": [ "http://hl7.org/fhir/us/qicore/StructureDefinition/qicore-patient" ]
      },
      "text": {
        "status": "generated",
        "div": "<div xmlns=\"http://www.w3.org/1999/xhtml\"><div class=\"hapiHeaderText\">AssessTerm0RelDateGT42wkB4TimeOfDeliv<b>DENOMFail</b></div><table class=\"hapiPropertyTable\"><tbody><tr><td>Identifier</td><td>89ad8d1292040330b5241fbe20c0a512329eaab9d686cfe4181f04edb3d44583</td></tr><tr><td>Date of birth</td><td><span>14 February 1985</span></td></tr></tbody></table></div>"
      },
      "extension": [ {
        "url": "http://hl7.org/fhir/us/core/StructureDefinition/us-core-race",
        "extension": [ {
          "url": "ombCategory",
          "valueCoding": {
            "system": "urn:oid:2.16.840.1.113883.6.238",
            "code": "1002-5",
            "display": "American Indian or Alaska Native",
            "userSelected": true
          }
        }, {
          "url": "text",
          "valueString": "American Indian or Alaska Native"
        } ]
      }, {
        "url": "http://hl7.org/fhir/us/core/StructureDefinition/us-core-ethnicity",
        "extension": [ {
          "url": "ombCategory",
          "valueCoding": {
            "system": "urn:oid:2.16.840.1.113883.6.238",
            "code": "2135-2",
            "display": "Hispanic or Latino",
            "userSelected": true
          }
        }, {
          "url": "text",
          "valueString": "Hispanic or Latino"
        } ]
      } ],
      "identifier": [ {
        "type": {
          "coding": [ {
            "system": "http://terminology.hl7.org/CodeSystem/v2-0203",
            "code": "MR"
          } ]
        },
        "system": "https://bonnie-fhir.healthit.gov/",
        "value": "63487c2d0968f8012254015f"
      } ],
      "active": true,
      "name": [ {
        "use": "usual",
        "family": "DENOMFail",
        "given": [ "AssessTerm0RelDateGT42wkB4TimeOfDeliv" ]
      } ],
      "gender": "female",
      "birthDate": "1998-02-14"
    },
    "request": {
      "method": "PUT",
      "url": "Patient/2d4e497c-bbdd-4ed7-bcb3-6dbe62aca6a4"
    }
  }, {
    "fullUrl": "https://madie.cms.gov/Observation/42f7a276-33ad-449e-8794-2ec573e812d6",
    "resource": {
      "resourceType": "Observation",
      "id": "42f7a276-33ad-449e-8794-2ec573e812d6",
      "meta": {
        "profile": [ "http://hl7.org/fhir/us/qicore/StructureDefinition/qicore-simple-observation" ]
      },
      "status": "final",
      "category": [ {
        "coding": [ {
          "system": "http://terminology.hl7.org/CodeSystem/observation-category",
          "code": "exam",
          "display": "exam",
          "userSelected": true
        } ]
      } ],
      "code": {
        "coding": [ {
          "system": "http://loinc.org",
          "code": "11639-2"
        } ]
      },
      "subject": {
        "reference": "Patient/2d4e497c-bbdd-4ed7-bcb3-6dbe62aca6a4"
      },
      "effectiveDateTime": "2025-07-19T09:00:00.000+00:00",
      "valueInteger": 0
    },
    "request": {
      "method": "PUT",
      "url": "Observation/42f7a276-33ad-449e-8794-2ec573e812d6"
    }
  }, {
    "fullUrl": "https://madie.cms.gov/Observation/12601007-5a45-4bd0-b670-02af1c74034d",
    "resource": {
      "resourceType": "Observation",
      "id": "12601007-5a45-4bd0-b670-02af1c74034d",
      "meta": {
        "profile": [ "http://hl7.org/fhir/us/qicore/StructureDefinition/qicore-simple-observation" ]
      },
      "status": "final",
      "category": [ {
        "coding": [ {
          "system": "http://terminology.hl7.org/CodeSystem/observation-category",
          "code": "exam",
          "display": "exam",
          "userSelected": true
        } ]
      } ],
      "code": {
        "coding": [ {
          "system": "http://loinc.org",
          "code": "11637-6"
        } ]
      },
      "subject": {
        "reference": "Patient/2d4e497c-bbdd-4ed7-bcb3-6dbe62aca6a4"
      },
      "effectiveDateTime": "2025-09-19T09:00:00.000+00:00",
      "valueInteger": 0
    },
    "request": {
      "method": "PUT",
      "url": "Observation/12601007-5a45-4bd0-b670-02af1c74034d"
    }
  }, {
    "fullUrl": "https://madie.cms.gov/Observation/587965a1-388a-467a-8f78-298dfe95f897",
    "resource": {
      "resourceType": "Observation",
      "id": "587965a1-388a-467a-8f78-298dfe95f897",
      "meta": {
        "profile": [ "http://hl7.org/fhir/us/qicore/StructureDefinition/qicore-simple-observation" ]
      },
      "status": "final",
      "category": [ {
        "coding": [ {
          "system": "http://terminology.hl7.org/CodeSystem/observation-category",
          "code": "exam",
          "display": "exam",
          "userSelected": true
        } ]
      } ],
      "code": {
        "coding": [ {
          "system": "http://loinc.org",
          "code": "11884-4"
        } ]
      },
      "subject": {
        "reference": "Patient/2d4e497c-bbdd-4ed7-bcb3-6dbe62aca6a4"
      },
      "effectiveDateTime": "2026-06-08T20:00:00.000+00:00",
      "valueQuantity": {
        "value": 37,
        "system": "http://unitsofmeasure.org",
        "code": "wk"
      }
    },
    "request": {
      "method": "PUT",
      "url": "Observation/587965a1-388a-467a-8f78-298dfe95f897"
    }
  }, {
    "fullUrl": "https://madie.cms.gov/Observation/b6d6ddd2-db43-4671-920b-dcf625eb8778",
    "resource": {
      "resourceType": "Observation",
      "id": "b6d6ddd2-db43-4671-920b-dcf625eb8778",
      "meta": {
        "profile": [ "http://hl7.org/fhir/us/qicore/StructureDefinition/qicore-simple-observation" ]
      },
      "status": "final",
      "category": [ {
        "coding": [ {
          "system": "http://terminology.hl7.org/CodeSystem/observation-category",
          "code": "exam",
          "display": "exam",
          "userSelected": true
        } ]
      } ],
      "code": {
        "coding": [ {
          "system": "http://loinc.org",
          "code": "93857-1"
        } ]
      },
      "subject": {
        "reference": "Patient/2d4e497c-bbdd-4ed7-bcb3-6dbe62aca6a4"
      },
      "effectiveDateTime": "2026-06-08T20:00:00.000+00:00",
      "valueDateTime": "2026-06-08T20:00:00.000+00:00"
    },
    "request": {
      "method": "PUT",
      "url": "Observation/b6d6ddd2-db43-4671-920b-dcf625eb8778"
    }
  }, {
    "fullUrl": "https://madie.cms.gov/Encounter/6ad80aff-7605-484f-a534-732ef3176bf3",
    "resource": {
      "resourceType": "Encounter",
      "id": "6ad80aff-7605-484f-a534-732ef3176bf3",
      "meta": {
        "profile": [ "http://hl7.org/fhir/us/qicore/StructureDefinition/qicore-encounter" ]
      },
      "status": "finished",
      "class": {
        "system": "http://terminology.hl7.org/CodeSystem/v3-ActCode",
        "code": "IMP",
        "display": "inpatient encounter"
      },
      "type": [ {
        "coding": [ {
          "system": "http://snomed.info/sct",
          "code": "8715000"
        } ]
      } ],
      "subject": {
        "reference": "Patient/2d4e497c-bbdd-4ed7-bcb3-6dbe62aca6a4"
      },
      "period": {
        "start": "2026-06-08T08:00:00.000+00:00",
        "end": "2026-06-10T08:15:00.000+00:00"
      },
      "length": {
        "value": 2,
        "unit": "days"
      },
      "reasonReference": [ {
        "reference": "Condition/56b7695b-7af7-41e3-8fea-166949c40e53"
      } ]
    },
    "request": {
      "method": "PUT",
      "url": "Encounter/6ad80aff-7605-484f-a534-732ef3176bf3"
    }
  }, {
    "fullUrl": "https://madie.cms.gov/Procedure/024cb3b6-9214-44e1-ac65-1cb44684e51f",
    "resource": {
      "resourceType": "Procedure",
      "id": "024cb3b6-9214-44e1-ac65-1cb44684e51f",
      "meta": {
        "profile": [ "http://hl7.org/fhir/us/qicore/StructureDefinition/qicore-procedure" ]
      },
      "extension": [ {
        "url": "http://hl7.org/fhir/us/qicore/StructureDefinition/qicore-recorded",
        "valueDateTime": "2014-04-05T13:35:00.000+00:00"
      } ],
      "status": "completed",
      "code": {
        "coding": [ {
          "system": "http://www.cms.gov/Medicare/Coding/ICD10",
          "code": "10D00Z0"
        }, {
          "system": "http://snomed.info/sct",
          "code": "4504004"
        } ]
      },
      "subject": {
        "reference": "Patient/2d4e497c-bbdd-4ed7-bcb3-6dbe62aca6a4"
      },
      "performedPeriod": {
        "start": "2026-06-08T20:00:00.000+00:00",
        "end": "2026-06-08T20:15:00.000+00:00"
      }
    },
    "request": {
      "method": "PUT",
      "url": "Procedure/024cb3b6-9214-44e1-ac65-1cb44684e51f"
    }
  }, {
    "fullUrl": "https://madie.cms.gov/Condition/56b7695b-7af7-41e3-8fea-166949c40e53",
    "resource": {
      "resourceType": "Condition",
      "id": "56b7695b-7af7-41e3-8fea-166949c40e53",
      "meta": {
        "profile": [ "http://hl7.org/fhir/us/qicore/StructureDefinition/qicore-condition-encounter-diagnosis" ]
      },
      "category": [ {
        "coding": [ {
          "system": "http://terminology.hl7.org/CodeSystem/condition-category",
          "code": "encounter-diagnosis",
          "display": "Encounter Diagnosis"
        } ]
      } ],
      "code": {
        "coding": [ {
          "system": "http://snomed.info/sct",
          "version": "2022-09",
          "code": "169826009",
          "display": "Single live birth from singleton pregnancy (finding)",
          "userSelected": true
        } ]
      },
      "subject": {
        "reference": "Patient/2d4e497c-bbdd-4ed7-bcb3-6dbe62aca6a4"
      },
      "encounter": {
        "reference": "Encounter/6ad80aff-7605-484f-a534-732ef3176bf3"
      },
      "recordedDate": "2026-10-21T08:00:00.000+00:00"
    },
    "request": {
      "method": "PUT",
      "url": "Condition/56b7695b-7af7-41e3-8fea-166949c40e53"
    }
  }, {
    "fullUrl": "https://madie.cms.gov/Coverage/06d17149-2ca8-41d2-a0ba-ce97664baacb",
    "resource": {
      "resourceType": "Coverage",
      "id": "06d17149-2ca8-41d2-a0ba-ce97664baacb",
      "meta": {
        "profile": [ "http://hl7.org/fhir/us/qicore/StructureDefinition/qicore-coverage" ]
      },
      "status": "active",
      "subscriberId": "523435",
      "beneficiary": {
        "reference": "Patient/2d4e497c-bbdd-4ed7-bcb3-6dbe62aca6a4"
      },
      "relationship": {
        "coding": [ {
          "system": "http://terminology.hl7.org/CodeSystem/subscriber-relationship",
          "code": "self"
        } ]
      },
      "payor": [ {
        "reference": "Organization/cedc3acd-090e-4fbf-964e-7b13e83f5ecb"
      } ]
    },
    "request": {
      "method": "PUT",
      "url": "Coverage/06d17149-2ca8-41d2-a0ba-ce97664baacb"
    }
  }, {
    "fullUrl": "https://madie.cms.gov/Organization/cedc3acd-090e-4fbf-964e-7b13e83f5ecb",
    "resource": {
      "resourceType": "Organization",
      "id": "cedc3acd-090e-4fbf-964e-7b13e83f5ecb",
      "meta": {
        "profile": [ "http://hl7.org/fhir/us/qicore/StructureDefinition/qicore-organization" ]
      },
      "identifier": [ {
        "use": "temp",
        "system": "urn:oid:2.16.840.1.113883.4.4",
        "value": "21-3259825"
      } ],
      "active": true,
      "type": [ {
        "coding": [ {
          "system": "http://terminology.hl7.org/CodeSystem/organization-type",
          "code": "pay",
          "display": "Payer"
        } ]
      } ],
      "name": "Blue Cross Blue Shield of Texas",
      "telecom": [ {
        "system": "phone",
        "value": "(+1) 972-766-6900"
      } ],
      "address": [ {
        "use": "billing",
        "type": "postal",
        "line": [ "P.O. Box 660044" ],
        "city": "Dallas",
        "state": "TX",
        "postalCode": "75266-0044",
        "country": "USA"
      } ]
    },
    "request": {
      "method": "PUT",
      "url": "Organization/cedc3acd-090e-4fbf-964e-7b13e83f5ecb"
    }
  }, {
    "fullUrl": "https://madie.cms.gov/Practitioner/480a3ac7-d613-4b2f-a054-432fe09aaa0f",
    "resource": {
      "resourceType": "Practitioner",
      "id": "480a3ac7-d613-4b2f-a054-432fe09aaa0f",
      "meta": {
        "profile": [ "http://hl7.org/fhir/us/qicore/StructureDefinition/qicore-practitioner" ]
      },
      "identifier": [ {
        "system": "http://hl7.org/fhir/sid/us-npi",
        "value": "1234567890"
      } ],
      "name": [ {
        "family": "Evil",
        "prefix": [ "Dr" ]
      } ]
    },
    "request": {
      "method": "PUT",
      "url": "Practitioner/480a3ac7-d613-4b2f-a054-432fe09aaa0f"
    }
  }, {
    "fullUrl": "https://madie.cms.gov/MeasureReport/14224fbf-3ac1-4973-896e-b28730d998b0",
    "resource": {
      "resourceType": "MeasureReport",
      "id": "14224fbf-3ac1-4973-896e-b28730d998b0",
      "meta": {
        "profile": [ "http://hl7.org/fhir/us/cqfmeasures/StructureDefinition/test-case-cqfm" ]
      },
      "contained": [ {
        "resourceType": "Parameters",
        "id": "a18c2aa6-8b1b-4872-9922-0118c9937531-parameters",
        "parameter": [ {
          "name": "subject",
          "valueString": "2d4e497c-bbdd-4ed7-bcb3-6dbe62aca6a4"
        } ]
      } ],
      "extension": [ {
        "url": "http://hl7.org/fhir/StructureDefinition/cqf-inputParameters",
        "valueReference": {
          "reference": "#a18c2aa6-8b1b-4872-9922-0118c9937531-parameters"
        }
      }, {
        "url": "http://hl7.org/fhir/us/cqfmeasures/StructureDefinition/cqfm-testCaseDescription",
        "valueMarkdown": "\"Preterm Births=0, effective date/time < 42weeks prior to Asse delivery\nTerm Newborn=0, effective date/time > 42weeks prior to Asse delivery, DENOM Fail\"\n"
      } ],
      "modifierExtension": [ {
        "url": "http://hl7.org/fhir/us/cqfmeasures/StructureDefinition/cqfm-isTestCase",
        "valueBoolean": true
      } ],
      "status": "complete",
      "type": "individual",
      "measure": "https://madie.cms.gov/Measure/CMS0334FHIRPCCesareanBirth",
      "period": {
        "start": "2026-01-01",
        "end": "2026-12-31"
      },
      "group": [ {
        "id": "Group_1",
        "population": [ {
          "id": "InitialPopulation_1",
          "code": {
            "coding": [ {
              "system": "http://terminology.hl7.org/CodeSystem/measure-population",
              "code": "initial-population",
              "display": "Initial Population"
            } ]
          },
          "count": 1
        }, {
          "id": "Denominator_1",
          "code": {
            "coding": [ {
              "system": "http://terminology.hl7.org/CodeSystem/measure-population",
              "code": "denominator",
              "display": "Denominator"
            } ]
          },
          "count": 0
        }, {
          "id": "DenominatorExclusion_1",
          "code": {
            "coding": [ {
              "system": "http://terminology.hl7.org/CodeSystem/measure-population",
              "code": "denominator-exclusion",
              "display": "Denominator Exclusion"
            } ]
          },
          "count": 0
        }, {
          "id": "Numerator_1",
          "code": {
            "coding": [ {
              "system": "http://terminology.hl7.org/CodeSystem/measure-population",
              "code": "numerator",
              "display": "Numerator"
            } ]
          },
          "count": 0
        } ],
        "measureScore": {
          "value": 0.0
        }
      } ],
      "evaluatedResource": [ {
        "reference": "Patient/2d4e497c-bbdd-4ed7-bcb3-6dbe62aca6a4"
      }, {
        "reference": "Observation/42f7a276-33ad-449e-8794-2ec573e812d6"
      }, {
        "reference": "Observation/12601007-5a45-4bd0-b670-02af1c74034d"
      }, {
        "reference": "Observation/587965a1-388a-467a-8f78-298dfe95f897"
      }, {
        "reference": "Observation/b6d6ddd2-db43-4671-920b-dcf625eb8778"
      }, {
        "reference": "Encounter/6ad80aff-7605-484f-a534-732ef3176bf3"
      }, {
        "reference": "Procedure/024cb3b6-9214-44e1-ac65-1cb44684e51f"
      }, {
        "reference": "Condition/56b7695b-7af7-41e3-8fea-166949c40e53"
      }, {
        "reference": "Coverage/06d17149-2ca8-41d2-a0ba-ce97664baacb"
      }, {
        "reference": "Organization/cedc3acd-090e-4fbf-964e-7b13e83f5ecb"
      }, {
        "reference": "Practitioner/480a3ac7-d613-4b2f-a054-432fe09aaa0f"
      } ]
    },
    "request": {
      "method": "PUT",
      "url": "MeasureReport/14224fbf-3ac1-4973-896e-b28730d998b0"
    }
  } ]
}