{
  "resourceType": "Bundle",
  "id": "633b3f9f0968f80122503cdb",
  "type": "transaction",
  "entry": [ {
    "fullUrl": "https://madie.cms.gov/Patient/d5f10590-7e71-43ec-86c9-b0c73dd78394",
    "resource": {
      "resourceType": "Patient",
      "id": "d5f10590-7e71-43ec-86c9-b0c73dd78394",
      "meta": {
        "profile": [ "http://hl7.org/fhir/us/qicore/StructureDefinition/qicore-patient" ]
      },
      "text": {
        "status": "generated",
        "div": "<div xmlns=\"http://www.w3.org/1999/xhtml\"><div class=\"hapiHeaderText\">BldTxRelvDtTimeDuringEDOBTriageHosp<b>NUMPass</b></div><table class=\"hapiPropertyTable\"><tbody><tr><td>Date of birth</td><td><span>01 February 2004</span></td></tr></tbody></table></div>"
      },
      "extension": [ {
        "url": "http://hl7.org/fhir/us/core/StructureDefinition/us-core-race",
        "extension": [ {
          "url": "ombCategory",
          "valueCoding": {
            "system": "urn:oid:2.16.840.1.113883.6.238",
            "code": "1002-5",
            "display": "American Indian or Alaska Native",
            "userSelected": true
          }
        }, {
          "url": "text",
          "valueString": "American Indian or Alaska Native"
        } ]
      }, {
        "url": "http://hl7.org/fhir/us/core/StructureDefinition/us-core-ethnicity",
        "extension": [ {
          "url": "ombCategory",
          "valueCoding": {
            "system": "urn:oid:2.16.840.1.113883.6.238",
            "code": "2135-2",
            "display": "Hispanic or Latino",
            "userSelected": true
          }
        }, {
          "url": "text",
          "valueString": "Hispanic or Latino"
        } ]
      } ],
      "identifier": [ {
        "type": {
          "coding": [ {
            "system": "http://terminology.hl7.org/CodeSystem/v2-0203",
            "code": "MR"
          } ]
        },
        "system": "https://bonnie-fhir.healthit.gov/",
        "value": "633b3f9f0968f80122503cdb"
      } ],
      "active": true,
      "name": [ {
        "use": "usual",
        "family": "NUMPass",
        "given": [ "BldTxRelvDtTimeDuringEDOBTriageHosp" ]
      } ],
      "gender": "female",
      "birthDate": "2005-02-01"
    },
    "request": {
      "method": "PUT",
      "url": "Patient/d5f10590-7e71-43ec-86c9-b0c73dd78394"
    }
  }, {
    "fullUrl": "https://madie.cms.gov/Observation/e36f47a8-5614-4efb-b82b-10424b189279",
    "resource": {
      "resourceType": "Observation",
      "id": "e36f47a8-5614-4efb-b82b-10424b189279",
      "meta": {
        "profile": [ "http://hl7.org/fhir/us/qicore/StructureDefinition/qicore-simple-observation" ]
      },
      "status": "final",
      "category": [ {
        "coding": [ {
          "system": "http://terminology.hl7.org/CodeSystem/observation-category",
          "code": "exam",
          "display": "exam",
          "userSelected": true
        } ]
      } ],
      "code": {
        "coding": [ {
          "system": "http://loinc.org",
          "code": "93857-1"
        } ]
      },
      "subject": {
        "reference": "Patient/d5f10590-7e71-43ec-86c9-b0c73dd78394"
      },
      "effectiveDateTime": "2026-02-01T08:00:00Z",
      "performer": [ {
        "reference": "Organization/example1",
        "display": "Hendricks Country Hospital"
      } ],
      "valueDateTime": "2026-02-01T08:00:00.000+00:00"
    },
    "request": {
      "method": "PUT",
      "url": "Observation/e36f47a8-5614-4efb-b82b-10424b189279"
    }
  }, {
    "fullUrl": "https://madie.cms.gov/Observation/70cbca66-184f-422c-a0a4-26d8456d7881",
    "resource": {
      "resourceType": "Observation",
      "id": "70cbca66-184f-422c-a0a4-26d8456d7881",
      "meta": {
        "profile": [ "http://hl7.org/fhir/us/qicore/StructureDefinition/qicore-simple-observation" ]
      },
      "status": "final",
      "category": [ {
        "coding": [ {
          "system": "http://terminology.hl7.org/CodeSystem/observation-category",
          "code": "exam",
          "display": "exam",
          "userSelected": true
        } ]
      } ],
      "code": {
        "coding": [ {
          "system": "http://loinc.org",
          "code": "11884-4"
        } ]
      },
      "subject": {
        "reference": "Patient/d5f10590-7e71-43ec-86c9-b0c73dd78394"
      },
      "effectiveDateTime": "2026-02-01T08:00:00Z",
      "performer": [ {
        "reference": "Organization/example1",
        "display": "Hendricks Country Hospital"
      } ],
      "valueQuantity": {
        "value": 20,
        "system": "http://unitsofmeasure.org",
        "code": "wk"
      }
    },
    "request": {
      "method": "PUT",
      "url": "Observation/70cbca66-184f-422c-a0a4-26d8456d7881"
    }
  }, {
    "fullUrl": "https://madie.cms.gov/Observation/bbeabc3a-0ba7-4a75-a644-ab36d5dce905",
    "resource": {
      "resourceType": "Observation",
      "id": "bbeabc3a-0ba7-4a75-a644-ab36d5dce905",
      "meta": {
        "profile": [ "http://hl7.org/fhir/us/qicore/StructureDefinition/qicore-simple-observation" ]
      },
      "status": "final",
      "category": [ {
        "coding": [ {
          "system": "http://terminology.hl7.org/CodeSystem/observation-category",
          "code": "exam",
          "display": "exam",
          "userSelected": true
        } ]
      } ],
      "code": {
        "coding": [ {
          "system": "http://loinc.org",
          "code": "11884-4"
        } ]
      },
      "subject": {
        "reference": "Patient/d5f10590-7e71-43ec-86c9-b0c73dd78394"
      },
      "effectiveDateTime": "2026-02-01T08:01:00Z",
      "performer": [ {
        "reference": "Organization/example1",
        "display": "Hendricks Country Hospital"
      } ]
    },
    "request": {
      "method": "PUT",
      "url": "Observation/bbeabc3a-0ba7-4a75-a644-ab36d5dce905"
    }
  }, {
    "fullUrl": "https://madie.cms.gov/Encounter/0aa3e675-2380-45a3-a4b2-d22a01ee45b4",
    "resource": {
      "resourceType": "Encounter",
      "id": "0aa3e675-2380-45a3-a4b2-d22a01ee45b4",
      "meta": {
        "profile": [ "http://hl7.org/fhir/us/qicore/StructureDefinition/qicore-encounter" ]
      },
      "status": "finished",
      "class": {
        "system": "http://terminology.hl7.org/CodeSystem/v3-ActCode",
        "code": "IMP",
        "display": "inpatient encounter"
      },
      "type": [ {
        "coding": [ {
          "system": "http://snomed.info/sct",
          "code": "183452005"
        } ]
      } ],
      "subject": {
        "reference": "Patient/d5f10590-7e71-43ec-86c9-b0c73dd78394"
      },
      "period": {
        "start": "2026-02-01T08:00:00Z",
        "end": "2026-02-05T08:15:00.000+00:00"
      }
    },
    "request": {
      "method": "PUT",
      "url": "Encounter/0aa3e675-2380-45a3-a4b2-d22a01ee45b4"
    }
  }, {
    "fullUrl": "https://madie.cms.gov/Coverage/9a9719db-6b02-4f4e-8e13-2801518a3287",
    "resource": {
      "resourceType": "Coverage",
      "id": "9a9719db-6b02-4f4e-8e13-2801518a3287",
      "status": "active",
      "subscriberId": "523435",
      "beneficiary": {
        "reference": "Patient/d5f10590-7e71-43ec-86c9-b0c73dd78394"
      },
      "relationship": {
        "coding": [ {
          "system": "http://terminology.hl7.org/CodeSystem/subscriber-relationship",
          "code": "self"
        } ]
      },
      "period": {
        "start": "2005-02-01T08:00:00Z"
      },
      "payor": [ {
        "reference": "Organization/5536b97b-ab0a-43b2-996b-2f59175115ac"
      } ]
    },
    "request": {
      "method": "PUT",
      "url": "Coverage/9a9719db-6b02-4f4e-8e13-2801518a3287"
    }
  }, {
    "fullUrl": "https://madie.cms.gov/Procedure/c04e0a2f-fdd8-479e-b043-88cc0b2a41e2",
    "resource": {
      "resourceType": "Procedure",
      "id": "c04e0a2f-fdd8-479e-b043-88cc0b2a41e2",
      "meta": {
        "profile": [ "http://hl7.org/fhir/us/qicore/StructureDefinition/qicore-procedure" ]
      },
      "extension": [ {
        "url": "http://hl7.org/fhir/us/qicore/StructureDefinition/qicore-recorded",
        "valueDateTime": "2014-04-05T13:35:00Z"
      } ],
      "status": "completed",
      "code": {
        "coding": [ {
          "system": "http://snomed.info/sct",
          "code": "10745001"
        } ]
      },
      "subject": {
        "reference": "Patient/d5f10590-7e71-43ec-86c9-b0c73dd78394"
      },
      "performedPeriod": {
        "start": "2026-02-01T08:00:00Z",
        "end": "2026-02-05T08:15:00.000+00:00"
      }
    },
    "request": {
      "method": "PUT",
      "url": "Procedure/c04e0a2f-fdd8-479e-b043-88cc0b2a41e2"
    }
  }, {
    "fullUrl": "https://madie.cms.gov/Procedure/92d58824-9254-42b1-bc8f-04100fd8cbd7",
    "resource": {
      "resourceType": "Procedure",
      "id": "92d58824-9254-42b1-bc8f-04100fd8cbd7",
      "meta": {
        "profile": [ "http://hl7.org/fhir/us/qicore/StructureDefinition/qicore-procedure" ]
      },
      "extension": [ {
        "url": "http://hl7.org/fhir/us/qicore/StructureDefinition/qicore-recorded",
        "valueDateTime": "2026-02-01T04:01:00Z"
      } ],
      "status": "completed",
      "code": {
        "coding": [ {
          "system": "http://snomed.info/sct",
          "code": "11397000"
        } ]
      },
      "subject": {
        "reference": "Patient/d5f10590-7e71-43ec-86c9-b0c73dd78394"
      },
      "performedPeriod": {
        "start": "2026-02-02T11:59:00Z",
        "end": "2026-02-02T14:00:00.000+00:00"
      }
    },
    "request": {
      "method": "PUT",
      "url": "Procedure/92d58824-9254-42b1-bc8f-04100fd8cbd7"
    }
  }, {
    "fullUrl": "https://madie.cms.gov/Organization/5536b97b-ab0a-43b2-996b-2f59175115ac",
    "resource": {
      "resourceType": "Organization",
      "id": "5536b97b-ab0a-43b2-996b-2f59175115ac",
      "meta": {
        "profile": [ "http://hl7.org/fhir/us/qicore/StructureDefinition/qicore-organization" ]
      },
      "identifier": [ {
        "use": "temp",
        "system": "urn:oid:2.16.840.1.113883.4.4",
        "value": "21-3259825"
      } ],
      "active": true,
      "type": [ {
        "coding": [ {
          "system": "http://terminology.hl7.org/CodeSystem/organization-type",
          "code": "pay",
          "display": "Payer"
        } ]
      } ],
      "name": "Blue Cross Blue Shield of Texas",
      "telecom": [ {
        "system": "phone",
        "value": "(+1) 972-766-6900"
      } ],
      "address": [ {
        "use": "billing",
        "type": "postal",
        "line": [ "P.O. Box 660044" ],
        "city": "Dallas",
        "state": "TX",
        "postalCode": "75266-0044",
        "country": "USA"
      } ]
    },
    "request": {
      "method": "PUT",
      "url": "Organization/5536b97b-ab0a-43b2-996b-2f59175115ac"
    }
  }, {
    "fullUrl": "https://madie.cms.gov/Practitioner/21c50a2b-a256-4559-a6d4-0be3c22c9414",
    "resource": {
      "resourceType": "Practitioner",
      "id": "21c50a2b-a256-4559-a6d4-0be3c22c9414",
      "meta": {
        "profile": [ "http://hl7.org/fhir/us/qicore/StructureDefinition/qicore-practitioner" ]
      },
      "identifier": [ {
        "system": "http://hl7.org/fhir/sid/us-npi",
        "value": "1234567890"
      } ],
      "name": [ {
        "family": "Evil",
        "prefix": [ "Dr" ]
      } ]
    },
    "request": {
      "method": "PUT",
      "url": "Practitioner/21c50a2b-a256-4559-a6d4-0be3c22c9414"
    }
  }, {
    "fullUrl": "https://madie.cms.gov/MeasureReport/b43cf74f-ee34-4bbb-802c-4bc5fd1e7d91",
    "resource": {
      "resourceType": "MeasureReport",
      "id": "b43cf74f-ee34-4bbb-802c-4bc5fd1e7d91",
      "meta": {
        "profile": [ "http://hl7.org/fhir/us/cqfmeasures/StructureDefinition/test-case-cqfm" ]
      },
      "contained": [ {
        "resourceType": "Parameters",
        "id": "818f321f-7c43-49ee-ae6d-7ccbf092b9dc-parameters",
        "parameter": [ {
          "name": "subject",
          "valueString": "d5f10590-7e71-43ec-86c9-b0c73dd78394"
        } ]
      } ],
      "extension": [ {
        "url": "http://hl7.org/fhir/StructureDefinition/cqf-inputParameters",
        "valueReference": {
          "reference": "#818f321f-7c43-49ee-ae6d-7ccbf092b9dc-parameters"
        }
      }, {
        "url": "http://hl7.org/fhir/us/cqfmeasures/StructureDefinition/cqfm-testCaseDescription",
        "valueMarkdown": "Blood Transfusion Relevant Date Time During ED Triage Hosp\n"
      } ],
      "modifierExtension": [ {
        "url": "http://hl7.org/fhir/us/cqfmeasures/StructureDefinition/cqfm-isTestCase",
        "valueBoolean": true
      } ],
      "status": "complete",
      "type": "individual",
      "measure": "https://madie.cms.gov/Measure/CMS1028FHIRPCSevereOBComps",
      "period": {
        "start": "2026-01-01",
        "end": "2026-12-31"
      },
      "group": [ {
        "id": "Group_1",
        "population": [ {
          "id": "InitialPopulation_1",
          "code": {
            "coding": [ {
              "system": "http://terminology.hl7.org/CodeSystem/measure-population",
              "code": "initial-population",
              "display": "Initial Population"
            } ]
          },
          "count": 1
        }, {
          "id": "Denominator_1",
          "code": {
            "coding": [ {
              "system": "http://terminology.hl7.org/CodeSystem/measure-population",
              "code": "denominator",
              "display": "Denominator"
            } ]
          },
          "count": 1
        }, {
          "id": "Numerator_1",
          "code": {
            "coding": [ {
              "system": "http://terminology.hl7.org/CodeSystem/measure-population",
              "code": "numerator",
              "display": "Numerator"
            } ]
          },
          "count": 1
        }, {
          "id": "NumeratorExclusion_1",
          "code": {
            "coding": [ {
              "system": "http://terminology.hl7.org/CodeSystem/measure-population",
              "code": "numerator-exclusion",
              "display": "Numerator Exclusion"
            } ]
          },
          "count": 0
        } ],
        "measureScore": {
          "value": 0.0
        }
      }, {
        "id": "Group_2",
        "population": [ {
          "id": "InitialPopulation_2",
          "code": {
            "coding": [ {
              "system": "http://terminology.hl7.org/CodeSystem/measure-population",
              "code": "initial-population",
              "display": "Initial Population"
            } ]
          },
          "count": 1
        }, {
          "id": "Denominator_2",
          "code": {
            "coding": [ {
              "system": "http://terminology.hl7.org/CodeSystem/measure-population",
              "code": "denominator",
              "display": "Denominator"
            } ]
          },
          "count": 1
        }, {
          "id": "Numerator_2",
          "code": {
            "coding": [ {
              "system": "http://terminology.hl7.org/CodeSystem/measure-population",
              "code": "numerator",
              "display": "Numerator"
            } ]
          },
          "count": 0
        }, {
          "id": "NumeratorExclusion_2",
          "code": {
            "coding": [ {
              "system": "http://terminology.hl7.org/CodeSystem/measure-population",
              "code": "numerator-exclusion",
              "display": "Numerator Exclusion"
            } ]
          },
          "count": 0
        } ],
        "measureScore": {
          "value": 0.0
        }
      } ],
      "evaluatedResource": [ {
        "reference": "Patient/d5f10590-7e71-43ec-86c9-b0c73dd78394"
      }, {
        "reference": "Observation/e36f47a8-5614-4efb-b82b-10424b189279"
      }, {
        "reference": "Observation/70cbca66-184f-422c-a0a4-26d8456d7881"
      }, {
        "reference": "Observation/bbeabc3a-0ba7-4a75-a644-ab36d5dce905"
      }, {
        "reference": "Encounter/0aa3e675-2380-45a3-a4b2-d22a01ee45b4"
      }, {
        "reference": "Coverage/9a9719db-6b02-4f4e-8e13-2801518a3287"
      }, {
        "reference": "Procedure/c04e0a2f-fdd8-479e-b043-88cc0b2a41e2"
      }, {
        "reference": "Procedure/92d58824-9254-42b1-bc8f-04100fd8cbd7"
      }, {
        "reference": "Organization/5536b97b-ab0a-43b2-996b-2f59175115ac"
      }, {
        "reference": "Practitioner/21c50a2b-a256-4559-a6d4-0be3c22c9414"
      } ]
    },
    "request": {
      "method": "PUT",
      "url": "MeasureReport/b43cf74f-ee34-4bbb-802c-4bc5fd1e7d91"
    }
  } ]
}