{
  "resourceType": "Bundle",
  "id": "63487c300968f801225401bc",
  "type": "transaction",
  "entry": [ {
    "fullUrl": "https://madie.cms.gov/Patient/97e8802a-f6a7-4359-a0ff-ce597741ca0f",
    "resource": {
      "resourceType": "Patient",
      "id": "97e8802a-f6a7-4359-a0ff-ce597741ca0f",
      "meta": {
        "profile": [ "http://hl7.org/fhir/us/qicore/StructureDefinition/qicore-patient" ]
      },
      "text": {
        "status": "generated",
        "div": "<div xmlns=\"http://www.w3.org/1999/xhtml\"><div class=\"hapiHeaderText\">AssessPreTermLastMissingResult <b>DENPASS </b></div><table class=\"hapiPropertyTable\"><tbody><tr><td>Identifier</td><td>68ae6e24f0fface97c058e998841dc5fd1e621f11f5d5bc2aeef1a3a248ebc14</td></tr><tr><td>Date of birth</td><td><span>14 February 1985</span></td></tr></tbody></table></div>"
      },
      "extension": [ {
        "url": "http://hl7.org/fhir/us/core/StructureDefinition/us-core-race",
        "extension": [ {
          "url": "ombCategory",
          "valueCoding": {
            "system": "urn:oid:2.16.840.1.113883.6.238",
            "code": "1002-5",
            "display": "American Indian or Alaska Native",
            "userSelected": true
          }
        }, {
          "url": "text",
          "valueString": "American Indian or Alaska Native"
        } ]
      }, {
        "url": "http://hl7.org/fhir/us/core/StructureDefinition/us-core-ethnicity",
        "extension": [ {
          "url": "ombCategory",
          "valueCoding": {
            "system": "urn:oid:2.16.840.1.113883.6.238",
            "code": "2135-2",
            "display": "Hispanic or Latino",
            "userSelected": true
          }
        }, {
          "url": "text",
          "valueString": "Hispanic or Latino"
        } ]
      } ],
      "identifier": [ {
        "type": {
          "coding": [ {
            "system": "http://terminology.hl7.org/CodeSystem/v2-0203",
            "code": "MR"
          } ]
        },
        "system": "https://bonnie-fhir.healthit.gov/",
        "value": "63487c300968f801225401bc"
      } ],
      "active": true,
      "name": [ {
        "use": "usual",
        "family": "DENPass",
        "given": [ "AssessPreTermLastMissingResult" ]
      } ],
      "gender": "female",
      "birthDate": "1998-02-14"
    },
    "request": {
      "method": "PUT",
      "url": "Patient/97e8802a-f6a7-4359-a0ff-ce597741ca0f"
    }
  }, {
    "fullUrl": "https://madie.cms.gov/Observation/5fbbc3f3-316c-4e57-825b-132fa5e161f7",
    "resource": {
      "resourceType": "Observation",
      "id": "5fbbc3f3-316c-4e57-825b-132fa5e161f7",
      "meta": {
        "profile": [ "http://hl7.org/fhir/us/qicore/StructureDefinition/qicore-simple-observation" ]
      },
      "status": "final",
      "category": [ {
        "coding": [ {
          "system": "http://terminology.hl7.org/CodeSystem/observation-category",
          "code": "exam",
          "display": "exam",
          "userSelected": true
        } ]
      } ],
      "code": {
        "coding": [ {
          "system": "http://loinc.org",
          "code": "11639-2"
        } ]
      },
      "subject": {
        "reference": "Patient/97e8802a-f6a7-4359-a0ff-ce597741ca0f"
      },
      "effectiveDateTime": "2025-09-19T09:00:00.000+00:00",
      "valueInteger": 0
    },
    "request": {
      "method": "PUT",
      "url": "Observation/5fbbc3f3-316c-4e57-825b-132fa5e161f7"
    }
  }, {
    "fullUrl": "https://madie.cms.gov/Observation/b9ad066e-5307-4621-b2b9-414d925d1a40",
    "resource": {
      "resourceType": "Observation",
      "id": "b9ad066e-5307-4621-b2b9-414d925d1a40",
      "meta": {
        "profile": [ "http://hl7.org/fhir/us/qicore/StructureDefinition/qicore-simple-observation" ]
      },
      "status": "final",
      "category": [ {
        "coding": [ {
          "system": "http://terminology.hl7.org/CodeSystem/observation-category",
          "code": "exam",
          "display": "exam",
          "userSelected": true
        } ]
      } ],
      "code": {
        "coding": [ {
          "system": "http://loinc.org",
          "code": "11637-6"
        } ]
      },
      "subject": {
        "reference": "Patient/97e8802a-f6a7-4359-a0ff-ce597741ca0f"
      },
      "effectiveDateTime": "2026-06-08T08:00:00.000+00:00",
      "valueInteger": 0
    },
    "request": {
      "method": "PUT",
      "url": "Observation/b9ad066e-5307-4621-b2b9-414d925d1a40"
    }
  }, {
    "fullUrl": "https://madie.cms.gov/Observation/529ae852-4a60-43e8-90ed-aff8f84984fc",
    "resource": {
      "resourceType": "Observation",
      "id": "529ae852-4a60-43e8-90ed-aff8f84984fc",
      "meta": {
        "profile": [ "http://hl7.org/fhir/us/qicore/StructureDefinition/qicore-simple-observation" ]
      },
      "status": "final",
      "category": [ {
        "coding": [ {
          "system": "http://terminology.hl7.org/CodeSystem/observation-category",
          "code": "exam",
          "display": "exam",
          "userSelected": true
        } ]
      } ],
      "code": {
        "coding": [ {
          "system": "http://loinc.org",
          "code": "11884-4"
        } ]
      },
      "subject": {
        "reference": "Patient/97e8802a-f6a7-4359-a0ff-ce597741ca0f"
      },
      "effectiveDateTime": "2026-06-08T20:00:00.000+00:00",
      "valueQuantity": {
        "value": 37,
        "system": "http://unitsofmeasure.org",
        "code": "wk"
      }
    },
    "request": {
      "method": "PUT",
      "url": "Observation/529ae852-4a60-43e8-90ed-aff8f84984fc"
    }
  }, {
    "fullUrl": "https://madie.cms.gov/Observation/aa8be4a6-4c0f-4835-b351-35e23f1ff46b",
    "resource": {
      "resourceType": "Observation",
      "id": "aa8be4a6-4c0f-4835-b351-35e23f1ff46b",
      "meta": {
        "profile": [ "http://hl7.org/fhir/us/qicore/StructureDefinition/qicore-simple-observation" ]
      },
      "status": "final",
      "category": [ {
        "coding": [ {
          "system": "http://terminology.hl7.org/CodeSystem/observation-category",
          "code": "exam",
          "display": "exam",
          "userSelected": true
        } ]
      } ],
      "code": {
        "coding": [ {
          "system": "http://loinc.org",
          "code": "93857-1"
        } ]
      },
      "subject": {
        "reference": "Patient/97e8802a-f6a7-4359-a0ff-ce597741ca0f"
      },
      "effectiveDateTime": "2026-06-08T20:00:00.000+00:00",
      "valueDateTime": "2026-06-08T20:00:00.000+00:00"
    },
    "request": {
      "method": "PUT",
      "url": "Observation/aa8be4a6-4c0f-4835-b351-35e23f1ff46b"
    }
  }, {
    "fullUrl": "https://madie.cms.gov/Observation/909f2948-340b-41ca-9d08-33b749e70f4d",
    "resource": {
      "resourceType": "Observation",
      "id": "909f2948-340b-41ca-9d08-33b749e70f4d",
      "meta": {
        "profile": [ "http://hl7.org/fhir/us/qicore/StructureDefinition/qicore-simple-observation" ]
      },
      "status": "final",
      "category": [ {
        "coding": [ {
          "system": "http://terminology.hl7.org/CodeSystem/observation-category",
          "code": "exam",
          "display": "exam",
          "userSelected": true
        } ]
      } ],
      "code": {
        "coding": [ {
          "system": "http://loinc.org",
          "code": "11637-6"
        } ]
      },
      "subject": {
        "reference": "Patient/97e8802a-f6a7-4359-a0ff-ce597741ca0f"
      }
    },
    "request": {
      "method": "PUT",
      "url": "Observation/909f2948-340b-41ca-9d08-33b749e70f4d"
    }
  }, {
    "fullUrl": "https://madie.cms.gov/Encounter/c041f4c0-79e4-44a9-a3aa-50e501fd850e",
    "resource": {
      "resourceType": "Encounter",
      "id": "c041f4c0-79e4-44a9-a3aa-50e501fd850e",
      "meta": {
        "profile": [ "http://hl7.org/fhir/us/qicore/StructureDefinition/qicore-encounter" ]
      },
      "status": "finished",
      "class": {
        "system": "http://terminology.hl7.org/CodeSystem/v3-ActCode",
        "code": "IMP",
        "display": "inpatient encounter"
      },
      "type": [ {
        "coding": [ {
          "system": "http://snomed.info/sct",
          "code": "8715000"
        } ]
      } ],
      "subject": {
        "reference": "Patient/97e8802a-f6a7-4359-a0ff-ce597741ca0f"
      },
      "period": {
        "start": "2026-06-08T08:00:00.000+00:00",
        "end": "2026-06-10T08:15:00.000+00:00"
      },
      "length": {
        "value": 2,
        "unit": "days"
      },
      "reasonReference": [ {
        "reference": "Condition/1d388d3d-2e2b-4e40-9c99-69ac73b3cc52"
      } ]
    },
    "request": {
      "method": "PUT",
      "url": "Encounter/c041f4c0-79e4-44a9-a3aa-50e501fd850e"
    }
  }, {
    "fullUrl": "https://madie.cms.gov/Coverage/5f5f9e541c76ba674bb033d6",
    "resource": {
      "resourceType": "Coverage",
      "id": "5f5f9e541c76ba674bb033d6",
      "meta": {
        "profile": [ "http://hl7.org/fhir/us/qicore/StructureDefinition/qicore-coverage" ]
      },
      "status": "active",
      "subscriberId": "523435",
      "beneficiary": {
        "reference": "Patient/97e8802a-f6a7-4359-a0ff-ce597741ca0f"
      },
      "relationship": {
        "coding": [ {
          "system": "http://terminology.hl7.org/CodeSystem/subscriber-relationship",
          "code": "self"
        } ]
      },
      "period": {
        "start": "1986-02-14T08:00:00.000+00:00"
      },
      "payor": [ {
        "reference": "Organization/13260a4f-9986-420d-8315-165d32d1c634"
      } ]
    },
    "request": {
      "method": "PUT",
      "url": "Coverage/5f5f9e541c76ba674bb033d6"
    }
  }, {
    "fullUrl": "https://madie.cms.gov/Procedure/e2b10b2d-a46a-42c1-9aa2-9471531f48af",
    "resource": {
      "resourceType": "Procedure",
      "id": "e2b10b2d-a46a-42c1-9aa2-9471531f48af",
      "meta": {
        "profile": [ "http://hl7.org/fhir/us/qicore/StructureDefinition/qicore-procedure" ]
      },
      "extension": [ {
        "url": "http://hl7.org/fhir/us/qicore/StructureDefinition/qicore-recorded",
        "valueDateTime": "2014-04-05T13:35:00.000+00:00"
      } ],
      "status": "completed",
      "code": {
        "coding": [ {
          "system": "http://www.cms.gov/Medicare/Coding/ICD10",
          "code": "10D00Z0"
        } ]
      },
      "subject": {
        "reference": "Patient/97e8802a-f6a7-4359-a0ff-ce597741ca0f"
      },
      "performedPeriod": {
        "start": "2026-06-08T20:00:00.000+00:00",
        "end": "2026-06-08T20:15:00.000+00:00"
      }
    },
    "request": {
      "method": "PUT",
      "url": "Procedure/e2b10b2d-a46a-42c1-9aa2-9471531f48af"
    }
  }, {
    "fullUrl": "https://madie.cms.gov/Condition/1d388d3d-2e2b-4e40-9c99-69ac73b3cc52",
    "resource": {
      "resourceType": "Condition",
      "id": "1d388d3d-2e2b-4e40-9c99-69ac73b3cc52",
      "meta": {
        "profile": [ "http://hl7.org/fhir/us/qicore/StructureDefinition/qicore-condition-encounter-diagnosis" ]
      },
      "category": [ {
        "coding": [ {
          "system": "http://terminology.hl7.org/CodeSystem/condition-category",
          "code": "encounter-diagnosis",
          "display": "Encounter Diagnosis"
        } ]
      } ],
      "code": {
        "coding": [ {
          "system": "http://snomed.info/sct",
          "version": "2022-09",
          "code": "169826009",
          "display": "Single live birth from singleton pregnancy (finding)",
          "userSelected": true
        } ]
      },
      "subject": {
        "reference": "Patient/97e8802a-f6a7-4359-a0ff-ce597741ca0f"
      },
      "encounter": {
        "reference": "Encounter/c041f4c0-79e4-44a9-a3aa-50e501fd850e"
      },
      "recordedDate": "2026-10-20T08:00:00.000+00:00"
    },
    "request": {
      "method": "PUT",
      "url": "Condition/1d388d3d-2e2b-4e40-9c99-69ac73b3cc52"
    }
  }, {
    "fullUrl": "https://madie.cms.gov/Organization/13260a4f-9986-420d-8315-165d32d1c634",
    "resource": {
      "resourceType": "Organization",
      "id": "13260a4f-9986-420d-8315-165d32d1c634",
      "meta": {
        "profile": [ "http://hl7.org/fhir/us/qicore/StructureDefinition/qicore-organization" ]
      },
      "identifier": [ {
        "use": "temp",
        "system": "urn:oid:2.16.840.1.113883.4.4",
        "value": "21-3259825"
      } ],
      "active": true,
      "type": [ {
        "coding": [ {
          "system": "http://terminology.hl7.org/CodeSystem/organization-type",
          "code": "pay",
          "display": "Payer"
        } ]
      } ],
      "name": "Blue Cross Blue Shield of Texas",
      "telecom": [ {
        "system": "phone",
        "value": "(+1) 972-766-6900"
      } ],
      "address": [ {
        "use": "billing",
        "type": "postal",
        "line": [ "P.O. Box 660044" ],
        "city": "Dallas",
        "state": "TX",
        "postalCode": "75266-0044",
        "country": "USA"
      } ]
    },
    "request": {
      "method": "PUT",
      "url": "Organization/13260a4f-9986-420d-8315-165d32d1c634"
    }
  }, {
    "fullUrl": "https://madie.cms.gov/Practitioner/11793eff-485d-459c-a1df-fba08e65f360",
    "resource": {
      "resourceType": "Practitioner",
      "id": "11793eff-485d-459c-a1df-fba08e65f360",
      "meta": {
        "profile": [ "http://hl7.org/fhir/us/qicore/StructureDefinition/qicore-practitioner" ]
      },
      "identifier": [ {
        "system": "http://hl7.org/fhir/sid/us-npi",
        "value": "1234567890"
      } ],
      "name": [ {
        "family": "Evil",
        "prefix": [ "Dr" ]
      } ]
    },
    "request": {
      "method": "PUT",
      "url": "Practitioner/11793eff-485d-459c-a1df-fba08e65f360"
    }
  }, {
    "fullUrl": "https://madie.cms.gov/MeasureReport/6eed2c74-4011-4cb3-8a2e-76eb3b44a13f",
    "resource": {
      "resourceType": "MeasureReport",
      "id": "6eed2c74-4011-4cb3-8a2e-76eb3b44a13f",
      "meta": {
        "profile": [ "http://hl7.org/fhir/us/cqfmeasures/StructureDefinition/test-case-cqfm" ]
      },
      "contained": [ {
        "resourceType": "Parameters",
        "id": "9dc4a7db-23fd-4c71-82c4-c3a3dd612916-parameters",
        "parameter": [ {
          "name": "subject",
          "valueString": "97e8802a-f6a7-4359-a0ff-ce597741ca0f"
        } ]
      } ],
      "extension": [ {
        "url": "http://hl7.org/fhir/StructureDefinition/cqf-inputParameters",
        "valueReference": {
          "reference": "#9dc4a7db-23fd-4c71-82c4-c3a3dd612916-parameters"
        }
      }, {
        "url": "http://hl7.org/fhir/us/cqfmeasures/StructureDefinition/cqfm-testCaseDescription",
        "valueMarkdown": "\"Two Preterm Births, first=0 but last is missing result, relevant date/time before Asse delivery datetime\nTerm Newborn=0, authored < 42weeks prior to Asse delivery\"\n"
      } ],
      "modifierExtension": [ {
        "url": "http://hl7.org/fhir/us/cqfmeasures/StructureDefinition/cqfm-isTestCase",
        "valueBoolean": true
      } ],
      "status": "complete",
      "type": "individual",
      "measure": "https://madie.cms.gov/Measure/CMS0334FHIRPCCesareanBirth",
      "period": {
        "start": "2026-01-01",
        "end": "2026-12-31"
      },
      "group": [ {
        "id": "Group_1",
        "population": [ {
          "id": "InitialPopulation_1",
          "code": {
            "coding": [ {
              "system": "http://terminology.hl7.org/CodeSystem/measure-population",
              "code": "initial-population",
              "display": "Initial Population"
            } ]
          },
          "count": 1
        }, {
          "id": "Denominator_1",
          "code": {
            "coding": [ {
              "system": "http://terminology.hl7.org/CodeSystem/measure-population",
              "code": "denominator",
              "display": "Denominator"
            } ]
          },
          "count": 1
        }, {
          "id": "DenominatorExclusion_1",
          "code": {
            "coding": [ {
              "system": "http://terminology.hl7.org/CodeSystem/measure-population",
              "code": "denominator-exclusion",
              "display": "Denominator Exclusion"
            } ]
          },
          "count": 0
        }, {
          "id": "Numerator_1",
          "code": {
            "coding": [ {
              "system": "http://terminology.hl7.org/CodeSystem/measure-population",
              "code": "numerator",
              "display": "Numerator"
            } ]
          },
          "count": 1
        } ],
        "measureScore": {
          "value": 0.0
        }
      } ],
      "evaluatedResource": [ {
        "reference": "Patient/97e8802a-f6a7-4359-a0ff-ce597741ca0f"
      }, {
        "reference": "Observation/5fbbc3f3-316c-4e57-825b-132fa5e161f7"
      }, {
        "reference": "Observation/b9ad066e-5307-4621-b2b9-414d925d1a40"
      }, {
        "reference": "Observation/529ae852-4a60-43e8-90ed-aff8f84984fc"
      }, {
        "reference": "Observation/aa8be4a6-4c0f-4835-b351-35e23f1ff46b"
      }, {
        "reference": "Observation/909f2948-340b-41ca-9d08-33b749e70f4d"
      }, {
        "reference": "Encounter/c041f4c0-79e4-44a9-a3aa-50e501fd850e"
      }, {
        "reference": "Coverage/5f5f9e541c76ba674bb033d6"
      }, {
        "reference": "Procedure/e2b10b2d-a46a-42c1-9aa2-9471531f48af"
      }, {
        "reference": "Condition/1d388d3d-2e2b-4e40-9c99-69ac73b3cc52"
      }, {
        "reference": "Organization/13260a4f-9986-420d-8315-165d32d1c634"
      }, {
        "reference": "Practitioner/11793eff-485d-459c-a1df-fba08e65f360"
      } ]
    },
    "request": {
      "method": "PUT",
      "url": "MeasureReport/6eed2c74-4011-4cb3-8a2e-76eb3b44a13f"
    }
  } ]
}