{
  "resourceType": "Bundle",
  "id": "62aa60bdc4be4c506d4a534b",
  "type": "transaction",
  "entry": [ {
    "fullUrl": "https://madie.cms.gov/Patient/461fdfab-fcc1-4630-9dae-2ba3a6ab0c25",
    "resource": {
      "resourceType": "Patient",
      "id": "461fdfab-fcc1-4630-9dae-2ba3a6ab0c25",
      "meta": {
        "profile": [ "http://hl7.org/fhir/us/qicore/StructureDefinition/qicore-patient" ]
      },
      "extension": [ {
        "url": "http://hl7.org/fhir/us/core/StructureDefinition/us-core-race",
        "extension": [ {
          "url": "ombCategory",
          "valueCoding": {
            "system": "urn:oid:2.16.840.1.113883.6.238",
            "code": "1002-5",
            "display": "American Indian or Alaska Native",
            "userSelected": true
          }
        }, {
          "url": "text",
          "valueString": "American Indian or Alaska Native"
        }, {
          "url": "detailed",
          "valueCoding": {
            "system": "urn:oid:2.16.840.1.113883.6.238",
            "code": "1653-5",
            "display": "Tohono O'Odham"
          }
        } ]
      }, {
        "url": "http://hl7.org/fhir/us/core/StructureDefinition/us-core-ethnicity",
        "extension": [ {
          "url": "ombCategory",
          "valueCoding": {
            "system": "urn:oid:2.16.840.1.113883.6.238",
            "code": "2186-5",
            "display": "Not Hispanic or Latino",
            "userSelected": true
          }
        }, {
          "url": "text",
          "valueString": "Not Hispanic or Latino"
        }, {
          "url": "detailed",
          "valueCoding": {
            "system": "urn:oid:2.16.840.1.113883.6.238",
            "code": "2153-5",
            "display": "Mexican American Indian"
          }
        } ]
      } ],
      "identifier": [ {
        "type": {
          "coding": [ {
            "system": "http://terminology.hl7.org/CodeSystem/v2-0203",
            "code": "MR"
          } ]
        },
        "system": "https://bonnie-fhir.healthit.gov/",
        "value": "62aa60bdc4be4c506d4a534b"
      } ],
      "name": [ {
        "family": "NUMERPass",
        "given": [ "NormalBMIAt18pt5" ]
      } ],
      "gender": "other",
      "birthDate": "1957-11-07"
    },
    "request": {
      "method": "PUT",
      "url": "Patient/461fdfab-fcc1-4630-9dae-2ba3a6ab0c25"
    }
  }, {
    "fullUrl": "https://madie.cms.gov/Encounter/79991d1f-57e0-4d01-a44a-2a28f0e5d93b",
    "resource": {
      "resourceType": "Encounter",
      "id": "79991d1f-57e0-4d01-a44a-2a28f0e5d93b",
      "meta": {
        "profile": [ "http://hl7.org/fhir/us/qicore/StructureDefinition/qicore-encounter" ]
      },
      "status": "finished",
      "class": {
        "system": "http://terminology.hl7.org/CodeSystem/v3-ActCode",
        "code": "AMB",
        "display": "ambulatory"
      },
      "type": [ {
        "coding": [ {
          "system": "http://snomed.info/sct",
          "version": "2022-03",
          "code": "10197000",
          "display": "Psychiatric interview and evaluation (procedure)",
          "userSelected": true
        } ]
      } ],
      "subject": {
        "reference": "Patient/461fdfab-fcc1-4630-9dae-2ba3a6ab0c25"
      },
      "period": {
        "start": "2026-01-01T00:00:00.000+00:00",
        "end": "2026-01-01T00:30:00.000+00:00"
      }
    },
    "request": {
      "method": "PUT",
      "url": "Encounter/79991d1f-57e0-4d01-a44a-2a28f0e5d93b"
    }
  }, {
    "fullUrl": "https://madie.cms.gov/Observation/92f21807-b7c4-4924-b13a-5aaf19e8a01e",
    "resource": {
      "resourceType": "Observation",
      "id": "92f21807-b7c4-4924-b13a-5aaf19e8a01e",
      "meta": {
        "profile": [ "http://hl7.org/fhir/us/core/StructureDefinition/us-core-bmi" ]
      },
      "status": "final",
      "category": [ {
        "coding": [ {
          "system": "http://terminology.hl7.org/CodeSystem/observation-category",
          "code": "vital-signs",
          "display": "Vital Signs"
        } ]
      } ],
      "code": {
        "coding": [ {
          "system": "http://loinc.org",
          "code": "39156-5",
          "display": "Body mass index (BMI) [Ratio]",
          "userSelected": true
        } ]
      },
      "subject": {
        "reference": "Patient/461fdfab-fcc1-4630-9dae-2ba3a6ab0c25"
      },
      "effectiveDateTime": "2026-01-01T00:30:00.000+00:00",
      "valueQuantity": {
        "value": 18.5,
        "unit": "kg/m2",
        "system": "http://unitsofmeasure.org",
        "code": "kg/m2"
      }
    },
    "request": {
      "method": "PUT",
      "url": "Observation/92f21807-b7c4-4924-b13a-5aaf19e8a01e"
    }
  }, {
    "fullUrl": "https://madie.cms.gov/Coverage/4281c999-be1d-4a10-9499-9c387cb27162",
    "resource": {
      "resourceType": "Coverage",
      "id": "4281c999-be1d-4a10-9499-9c387cb27162",
      "meta": {
        "profile": [ "http://hl7.org/fhir/us/qicore/StructureDefinition/qicore-coverage" ]
      },
      "status": "active",
      "type": {
        "coding": [ {
          "system": "https://nahdo.org/sopt",
          "code": "1",
          "display": "MEDICARE"
        } ]
      },
      "beneficiary": {
        "reference": "Patient/461fdfab-fcc1-4630-9dae-2ba3a6ab0c25"
      },
      "period": {
        "start": "2024-12-31T00:00:00+00:00"
      },
      "payor": [ {
        "reference": "Organization/61fef058-28c6-430a-ac53-b27a7a5d2e24"
      } ]
    },
    "request": {
      "method": "PUT",
      "url": "Coverage/4281c999-be1d-4a10-9499-9c387cb27162"
    }
  }, {
    "fullUrl": "https://madie.cms.gov/Organization/61fef058-28c6-430a-ac53-b27a7a5d2e24",
    "resource": {
      "resourceType": "Organization",
      "id": "61fef058-28c6-430a-ac53-b27a7a5d2e24",
      "meta": {
        "profile": [ "http://hl7.org/fhir/us/qicore/StructureDefinition/qicore-organization" ]
      },
      "identifier": [ {
        "use": "temp",
        "system": "urn:oid:2.16.840.1.113883.4.4",
        "value": "21-3259825"
      } ],
      "active": true,
      "type": [ {
        "coding": [ {
          "system": "http://terminology.hl7.org/CodeSystem/organization-type",
          "code": "pay",
          "display": "Payer"
        } ]
      } ],
      "name": "Blue Cross Blue Shield of Texas",
      "telecom": [ {
        "system": "phone",
        "value": "(+1) 972-766-6900"
      } ],
      "address": [ {
        "use": "billing",
        "type": "postal",
        "line": [ "P.O. Box 660044" ],
        "city": "Dallas",
        "state": "TX",
        "postalCode": "75266-0044",
        "country": "USA"
      } ]
    },
    "request": {
      "method": "PUT",
      "url": "Organization/61fef058-28c6-430a-ac53-b27a7a5d2e24"
    }
  }, {
    "fullUrl": "https://madie.cms.gov/MeasureReport/3d1d4393-5954-4c66-bee4-a6b138903ce7",
    "resource": {
      "resourceType": "MeasureReport",
      "id": "3d1d4393-5954-4c66-bee4-a6b138903ce7",
      "meta": {
        "profile": [ "http://hl7.org/fhir/us/cqfmeasures/StructureDefinition/test-case-cqfm" ]
      },
      "contained": [ {
        "resourceType": "Parameters",
        "id": "5ba8d074-6a77-4fd4-b144-004e43277bd7-parameters",
        "parameter": [ {
          "name": "subject",
          "valueString": "461fdfab-fcc1-4630-9dae-2ba3a6ab0c25"
        } ]
      } ],
      "extension": [ {
        "url": "http://hl7.org/fhir/StructureDefinition/cqf-inputParameters",
        "valueReference": {
          "reference": "#5ba8d074-6a77-4fd4-b144-004e43277bd7-parameters"
        }
      }, {
        "url": "http://hl7.org/fhir/us/cqfmeasures/StructureDefinition/cqfm-testCaseDescription",
        "valueMarkdown": "Enc first day of MP Normal BMI @18.5 kg/m2, no intervention needed. SDE details added\n"
      } ],
      "modifierExtension": [ {
        "url": "http://hl7.org/fhir/us/cqfmeasures/StructureDefinition/cqfm-isTestCase",
        "valueBoolean": true
      } ],
      "status": "complete",
      "type": "individual",
      "measure": "https://madie.cms.gov/Measure/CMS69FHIRPCSBMIScreenAndFollowUp",
      "period": {
        "start": "2026-01-01",
        "end": "2026-12-31"
      },
      "group": [ {
        "id": "Group_1",
        "population": [ {
          "id": "InitialPopulation_1",
          "code": {
            "coding": [ {
              "system": "http://terminology.hl7.org/CodeSystem/measure-population",
              "code": "initial-population",
              "display": "Initial Population"
            } ]
          },
          "count": 1
        }, {
          "id": "Denominator_1",
          "code": {
            "coding": [ {
              "system": "http://terminology.hl7.org/CodeSystem/measure-population",
              "code": "denominator",
              "display": "Denominator"
            } ]
          },
          "count": 1
        }, {
          "id": "DenominatorExclusion_1",
          "code": {
            "coding": [ {
              "system": "http://terminology.hl7.org/CodeSystem/measure-population",
              "code": "denominator-exclusion",
              "display": "Denominator Exclusion"
            } ]
          },
          "count": 0
        }, {
          "id": "Numerator_1",
          "code": {
            "coding": [ {
              "system": "http://terminology.hl7.org/CodeSystem/measure-population",
              "code": "numerator",
              "display": "Numerator"
            } ]
          },
          "count": 1
        }, {
          "id": "DenominatorException_1",
          "code": {
            "coding": [ {
              "system": "http://terminology.hl7.org/CodeSystem/measure-population",
              "code": "denominator-exception",
              "display": "Denominator Exception"
            } ]
          },
          "count": 0
        } ],
        "measureScore": {
          "value": 1.0
        }
      } ],
      "evaluatedResource": [ {
        "reference": "Patient/461fdfab-fcc1-4630-9dae-2ba3a6ab0c25"
      }, {
        "reference": "Encounter/79991d1f-57e0-4d01-a44a-2a28f0e5d93b"
      }, {
        "reference": "Observation/92f21807-b7c4-4924-b13a-5aaf19e8a01e"
      }, {
        "reference": "Coverage/4281c999-be1d-4a10-9499-9c387cb27162"
      }, {
        "reference": "Organization/61fef058-28c6-430a-ac53-b27a7a5d2e24"
      } ]
    },
    "request": {
      "method": "PUT",
      "url": "MeasureReport/3d1d4393-5954-4c66-bee4-a6b138903ce7"
    }
  } ]
}