{
  "resourceType": "Bundle",
  "id": "62fc2137c4f1a6ed8db31c2e",
  "type": "transaction",
  "entry": [ {
    "fullUrl": "https://madie.cms.gov/Patient/88a2b45a-7866-445a-8242-91ec0ebb7646",
    "resource": {
      "resourceType": "Patient",
      "id": "88a2b45a-7866-445a-8242-91ec0ebb7646",
      "meta": {
        "profile": [ "http://hl7.org/fhir/us/qicore/StructureDefinition/qicore-patient" ]
      },
      "extension": [ {
        "url": "http://hl7.org/fhir/us/core/StructureDefinition/us-core-race",
        "extension": [ {
          "url": "ombCategory",
          "valueCoding": {
            "system": "urn:oid:2.16.840.1.113883.6.238",
            "code": "2106-3",
            "display": "White",
            "userSelected": true
          }
        }, {
          "url": "text",
          "valueString": "White"
        } ]
      }, {
        "url": "http://hl7.org/fhir/us/core/StructureDefinition/us-core-ethnicity",
        "extension": [ {
          "url": "ombCategory",
          "valueCoding": {
            "system": "urn:oid:2.16.840.1.113883.6.238",
            "code": "2186-5",
            "display": "Not Hispanic or Latino",
            "userSelected": true
          }
        }, {
          "url": "text",
          "valueString": "Not Hispanic or Latino"
        } ]
      } ],
      "identifier": [ {
        "type": {
          "coding": [ {
            "system": "http://terminology.hl7.org/CodeSystem/v2-0203",
            "code": "MR"
          } ]
        },
        "system": "https://bonnie-fhir.healthit.gov/",
        "value": "62fc2137c4f1a6ed8db31c2e"
      } ],
      "name": [ {
        "family": "DENEXCEPPass",
        "given": [ "MedicalReasonFollowupPlanLowBMI" ]
      } ],
      "gender": "unknown",
      "birthDate": "1957-11-07"
    },
    "request": {
      "method": "PUT",
      "url": "Patient/88a2b45a-7866-445a-8242-91ec0ebb7646"
    }
  }, {
    "fullUrl": "https://madie.cms.gov/Encounter/ba61f29f-facb-4fb5-a87d-7c09b9c3b692",
    "resource": {
      "resourceType": "Encounter",
      "id": "ba61f29f-facb-4fb5-a87d-7c09b9c3b692",
      "meta": {
        "profile": [ "http://hl7.org/fhir/us/qicore/StructureDefinition/qicore-encounter" ]
      },
      "status": "finished",
      "class": {
        "system": "http://terminology.hl7.org/CodeSystem/v3-ActCode",
        "code": "AMB",
        "display": "ambulatory"
      },
      "type": [ {
        "coding": [ {
          "system": "http://snomed.info/sct",
          "version": "2022-03",
          "code": "10197000",
          "display": "Psychiatric interview and evaluation (procedure)",
          "userSelected": true
        } ]
      } ],
      "subject": {
        "reference": "Patient/88a2b45a-7866-445a-8242-91ec0ebb7646"
      },
      "period": {
        "start": "2026-01-01T08:00:00.000+00:00",
        "end": "2026-01-01T08:15:00.000+00:00"
      }
    },
    "request": {
      "method": "PUT",
      "url": "Encounter/ba61f29f-facb-4fb5-a87d-7c09b9c3b692"
    }
  }, {
    "fullUrl": "https://madie.cms.gov/Observation/067392ee-26e2-485e-8ba4-d5de2b903b6f",
    "resource": {
      "resourceType": "Observation",
      "id": "067392ee-26e2-485e-8ba4-d5de2b903b6f",
      "meta": {
        "profile": [ "http://hl7.org/fhir/us/qicore/StructureDefinition/qicore-simple-observation" ]
      },
      "status": "final",
      "category": [ {
        "coding": [ {
          "system": "http://terminology.hl7.org/CodeSystem/observation-category",
          "code": "procedure",
          "display": "Procedure"
        } ]
      } ],
      "code": {
        "coding": [ {
          "system": "http://loinc.org",
          "code": "39156-5",
          "display": "Body mass index (BMI) [Ratio]",
          "userSelected": true
        } ]
      },
      "subject": {
        "reference": "Patient/88a2b45a-7866-445a-8242-91ec0ebb7646"
      },
      "effectiveDateTime": "2026-06-15T08:05:00.000+00:00",
      "valueQuantity": {
        "value": 15.0,
        "unit": "kg/m2"
      }
    },
    "request": {
      "method": "PUT",
      "url": "Observation/067392ee-26e2-485e-8ba4-d5de2b903b6f"
    }
  }, {
    "fullUrl": "https://madie.cms.gov/ServiceRequest/34c4a1c9-68c7-47e9-b033-f24967adb30b",
    "resource": {
      "resourceType": "ServiceRequest",
      "id": "34c4a1c9-68c7-47e9-b033-f24967adb30b",
      "meta": {
        "profile": [ "http://hl7.org/fhir/us/qicore/StructureDefinition/qicore-servicenotrequested" ]
      },
      "extension": [ {
        "url": "http://hl7.org/fhir/us/qicore/StructureDefinition/qicore-doNotPerformReason",
        "valueCodeableConcept": {
          "coding": [ {
            "system": "http://snomed.info/sct",
            "code": "183932001",
            "display": "Procedure contraindicated (situation)",
            "userSelected": true
          } ]
        }
      }, {
        "url": "http://hl7.org/fhir/us/qicore/StructureDefinition/qicore-reasonRefused",
        "valueCodeableConcept": {
          "coding": [ {
            "system": "http://snomed.info/sct",
            "code": "183932001",
            "display": "Procedure contraindicated (situation)",
            "userSelected": true
          } ]
        }
      } ],
      "status": "completed",
      "intent": "order",
      "doNotPerform": true,
      "code": {
        "coding": [ {
          "system": "http://snomed.info/sct",
          "version": "2022-03",
          "code": "182922004",
          "display": "Dietary regime (regime/therapy)",
          "userSelected": true
        } ]
      },
      "subject": {
        "reference": "Patient/88a2b45a-7866-445a-8242-91ec0ebb7646"
      },
      "authoredOn": "2026-01-01T08:00:00.000+00:00",
      "reasonCode": [ {
        "coding": [ {
          "system": "http://snomed.info/sct",
          "code": "183932001",
          "display": "Procedure contraindicated (situation)",
          "userSelected": true
        } ]
      } ]
    },
    "request": {
      "method": "PUT",
      "url": "ServiceRequest/34c4a1c9-68c7-47e9-b033-f24967adb30b"
    }
  }, {
    "fullUrl": "https://madie.cms.gov/Coverage/dd2b7c41-c9b4-46fe-8de8-47290bd01c7c",
    "resource": {
      "resourceType": "Coverage",
      "id": "dd2b7c41-c9b4-46fe-8de8-47290bd01c7c",
      "meta": {
        "profile": [ "http://hl7.org/fhir/us/qicore/StructureDefinition/qicore-coverage" ]
      },
      "status": "active",
      "beneficiary": {
        "reference": "Patient/88a2b45a-7866-445a-8242-91ec0ebb7646"
      },
      "payor": [ {
        "reference": "Organization/8d5cb530-6342-4b2a-8e03-cf21639539ea"
      } ]
    },
    "request": {
      "method": "PUT",
      "url": "Coverage/dd2b7c41-c9b4-46fe-8de8-47290bd01c7c"
    }
  }, {
    "fullUrl": "https://madie.cms.gov/Organization/8d5cb530-6342-4b2a-8e03-cf21639539ea",
    "resource": {
      "resourceType": "Organization",
      "id": "8d5cb530-6342-4b2a-8e03-cf21639539ea",
      "meta": {
        "profile": [ "http://hl7.org/fhir/us/qicore/StructureDefinition/qicore-organization" ]
      },
      "identifier": [ {
        "use": "temp",
        "system": "urn:oid:2.16.840.1.113883.4.4",
        "value": "21-3259825"
      } ],
      "active": true,
      "type": [ {
        "coding": [ {
          "system": "http://terminology.hl7.org/CodeSystem/organization-type",
          "code": "pay",
          "display": "Payer"
        } ]
      } ],
      "name": "Blue Cross Blue Shield of Texas",
      "telecom": [ {
        "system": "phone",
        "value": "(+1) 972-766-6900"
      } ],
      "address": [ {
        "use": "billing",
        "type": "postal",
        "line": [ "P.O. Box 660044" ],
        "city": "Dallas",
        "state": "TX",
        "postalCode": "75266-0044",
        "country": "USA"
      } ]
    },
    "request": {
      "method": "PUT",
      "url": "Organization/8d5cb530-6342-4b2a-8e03-cf21639539ea"
    }
  }, {
    "fullUrl": "https://madie.cms.gov/Practitioner/0d315f05-f615-4d61-bc50-5b6f1e6daf51",
    "resource": {
      "resourceType": "Practitioner",
      "id": "0d315f05-f615-4d61-bc50-5b6f1e6daf51",
      "meta": {
        "profile": [ "http://hl7.org/fhir/us/qicore/StructureDefinition/qicore-practitioner" ]
      },
      "identifier": [ {
        "system": "http://hl7.org/fhir/sid/us-npi",
        "value": "123456"
      } ],
      "name": [ {
        "family": "Evil",
        "prefix": [ "Dr" ]
      } ]
    },
    "request": {
      "method": "PUT",
      "url": "Practitioner/0d315f05-f615-4d61-bc50-5b6f1e6daf51"
    }
  }, {
    "fullUrl": "https://madie.cms.gov/MeasureReport/c3994c6f-8673-4162-bc5d-a56c89535253",
    "resource": {
      "resourceType": "MeasureReport",
      "id": "c3994c6f-8673-4162-bc5d-a56c89535253",
      "meta": {
        "profile": [ "http://hl7.org/fhir/us/cqfmeasures/StructureDefinition/test-case-cqfm" ]
      },
      "contained": [ {
        "resourceType": "Parameters",
        "id": "917c8763-a4cd-4c94-bf55-a072854f8ef6-parameters",
        "parameter": [ {
          "name": "subject",
          "valueString": "88a2b45a-7866-445a-8242-91ec0ebb7646"
        } ]
      } ],
      "extension": [ {
        "url": "http://hl7.org/fhir/StructureDefinition/cqf-inputParameters",
        "valueReference": {
          "reference": "#917c8763-a4cd-4c94-bf55-a072854f8ef6-parameters"
        }
      }, {
        "url": "http://hl7.org/fhir/us/cqfmeasures/StructureDefinition/cqfm-testCaseDescription",
        "valueMarkdown": "Enc first day of MP, BMI in June 15.0 kg/m2, no follow during enc with medical reason"
      } ],
      "modifierExtension": [ {
        "url": "http://hl7.org/fhir/us/cqfmeasures/StructureDefinition/cqfm-isTestCase",
        "valueBoolean": true
      } ],
      "status": "complete",
      "type": "individual",
      "measure": "https://madie.cms.gov/Measure/CMS69FHIRPCSBMIScreenAndFollowUp",
      "period": {
        "start": "2026-01-01",
        "end": "2026-12-31"
      },
      "group": [ {
        "id": "Group_1",
        "population": [ {
          "id": "InitialPopulation_1",
          "code": {
            "coding": [ {
              "system": "http://terminology.hl7.org/CodeSystem/measure-population",
              "code": "initial-population",
              "display": "Initial Population"
            } ]
          },
          "count": 1
        }, {
          "id": "Denominator_1",
          "code": {
            "coding": [ {
              "system": "http://terminology.hl7.org/CodeSystem/measure-population",
              "code": "denominator",
              "display": "Denominator"
            } ]
          },
          "count": 1
        }, {
          "id": "DenominatorExclusion_1",
          "code": {
            "coding": [ {
              "system": "http://terminology.hl7.org/CodeSystem/measure-population",
              "code": "denominator-exclusion",
              "display": "Denominator Exclusion"
            } ]
          },
          "count": 0
        }, {
          "id": "Numerator_1",
          "code": {
            "coding": [ {
              "system": "http://terminology.hl7.org/CodeSystem/measure-population",
              "code": "numerator",
              "display": "Numerator"
            } ]
          },
          "count": 0
        }, {
          "id": "DenominatorException_1",
          "code": {
            "coding": [ {
              "system": "http://terminology.hl7.org/CodeSystem/measure-population",
              "code": "denominator-exception",
              "display": "Denominator Exception"
            } ]
          },
          "count": 1
        } ],
        "measureScore": {
          "value": 1.0
        }
      } ],
      "evaluatedResource": [ {
        "reference": "Patient/88a2b45a-7866-445a-8242-91ec0ebb7646"
      }, {
        "reference": "Encounter/ba61f29f-facb-4fb5-a87d-7c09b9c3b692"
      }, {
        "reference": "Observation/067392ee-26e2-485e-8ba4-d5de2b903b6f"
      }, {
        "reference": "ServiceRequest/34c4a1c9-68c7-47e9-b033-f24967adb30b"
      }, {
        "reference": "Coverage/dd2b7c41-c9b4-46fe-8de8-47290bd01c7c"
      }, {
        "reference": "Organization/8d5cb530-6342-4b2a-8e03-cf21639539ea"
      }, {
        "reference": "Practitioner/0d315f05-f615-4d61-bc50-5b6f1e6daf51"
      } ]
    },
    "request": {
      "method": "PUT",
      "url": "MeasureReport/c3994c6f-8673-4162-bc5d-a56c89535253"
    }
  } ]
}