{"resourceType":"Bundle","id":"tests-405d4940-7ab2-4d26-b55f-3c27e07eba33-bundle","type":"transaction","entry":[{"resource":{"resourceType":"Bundle","id":"62fbf0eebf5132f90ee35d42","type":"transaction","entry":[{"fullUrl":"https://madie.cms.gov/Patient/405d4940-7ab2-4d26-b55f-3c27e07eba33","resource":{"resourceType":"Patient","id":"405d4940-7ab2-4d26-b55f-3c27e07eba33","meta":{"profile":["http://hl7.org/fhir/us/qicore/StructureDefinition/qicore-patient"]},"extension":[{"url":"http://hl7.org/fhir/us/core/StructureDefinition/us-core-race","extension":[{"url":"ombCategory","valueCoding":{"system":"urn:oid:2.16.840.1.113883.6.238","code":"2106-3","display":"White","userSelected":true}},{"url":"text","valueString":"White"}]},{"url":"http://hl7.org/fhir/us/core/StructureDefinition/us-core-ethnicity","extension":[{"url":"ombCategory","valueCoding":{"system":"urn:oid:2.16.840.1.113883.6.238","code":"2186-5","display":"Not Hispanic or Latino","userSelected":true}},{"url":"text","valueString":"Not Hispanic or Latino"}]}],"identifier":[{"type":{"coding":[{"system":"http://terminology.hl7.org/CodeSystem/v2-0203","code":"MR"}]},"system":"https://bonnie-fhir.healthit.gov/","value":"62fbf0eebf5132f90ee35d42"}],"name":[{"family":"NUMERFail","given":["LowBMIAndConditionEndsBeforeInterventionPerformed (1)"]}],"gender":"unknown","birthDate":"1957-11-07"},"request":{"method":"PUT","url":"Patient/405d4940-7ab2-4d26-b55f-3c27e07eba33"}},{"fullUrl":"https://madie.cms.gov/Encounter/41a8d507-ddf0-4f37-9def-66cdd0dccb04","resource":{"resourceType":"Encounter","id":"41a8d507-ddf0-4f37-9def-66cdd0dccb04","meta":{"profile":["http://hl7.org/fhir/us/qicore/StructureDefinition/qicore-encounter"]},"status":"finished","class":{"system":"http://terminology.hl7.org/CodeSystem/v3-ActCode","code":"AMB","display":"ambulatory"},"type":[{"coding":[{"system":"http://snomed.info/sct","version":"2022-03","code":"10197000","display":"Psychiatric interview and evaluation (procedure)","userSelected":true}]}],"subject":{"reference":"Patient/405d4940-7ab2-4d26-b55f-3c27e07eba33"},"period":{"start":"2026-12-31T23:30:00.000+00:00","end":"2026-12-31T23:59:00.000+00:00"}},"request":{"method":"PUT","url":"Encounter/41a8d507-ddf0-4f37-9def-66cdd0dccb04"}},{"fullUrl":"https://madie.cms.gov/Observation/6ae00e97-5e20-45e8-a3bb-1529e1f8ffd7","resource":{"resourceType":"Observation","id":"6ae00e97-5e20-45e8-a3bb-1529e1f8ffd7","meta":{"profile":["http://hl7.org/fhir/us/core/StructureDefinition/us-core-bmi"]},"status":"final","category":[{"coding":[{"system":"http://terminology.hl7.org/CodeSystem/observation-category","code":"vital-signs","display":"Vital Signs"}]}],"code":{"coding":[{"system":"http://loinc.org","code":"39156-5","display":"Body mass index (BMI) [Ratio]","userSelected":true}]},"subject":{"reference":"Patient/405d4940-7ab2-4d26-b55f-3c27e07eba33"},"effectiveDateTime":"2026-12-31T08:05:00.000+00:00","valueQuantity":{"value":15.0,"unit":"kg/m2","system":"http://unitsofmeasure.org","code":"kg/m2"}},"request":{"method":"PUT","url":"Observation/6ae00e97-5e20-45e8-a3bb-1529e1f8ffd7"}},{"fullUrl":"https://madie.cms.gov/Procedure/f691c84f-d631-4d76-aa69-db8bf674b75f","resource":{"resourceType":"Procedure","id":"f691c84f-d631-4d76-aa69-db8bf674b75f","meta":{"profile":["http://hl7.org/fhir/us/qicore/StructureDefinition/qicore-procedure"]},"extension":[{"url":"http://hl7.org/fhir/us/qicore/StructureDefinition/qicore-recorded","valueDateTime":"2026-12-31T23:59:00.000+00:00"}],"status":"completed","code":{"coding":[{"system":"http://snomed.info/sct","version":"2022-03","code":"182922004","display":"Dietary regime (regime/therapy)","userSelected":true}]},"subject":{"reference":"Patient/405d4940-7ab2-4d26-b55f-3c27e07eba33"},"performedDateTime":"2026-12-31T23:59:00.000+00:00"},"request":{"method":"PUT","url":"Procedure/f691c84f-d631-4d76-aa69-db8bf674b75f"}},{"fullUrl":"https://madie.cms.gov/Condition/f4df24bf-a140-49bb-b07e-9352dc034f7c","resource":{"resourceType":"Condition","id":"f4df24bf-a140-49bb-b07e-9352dc034f7c","clinicalStatus":{"coding":[{"system":"http://terminology.hl7.org/CodeSystem/condition-clinical","code":"inactive","display":"inActive","userSelected":true}]},"code":{"coding":[{"system":"http://snomed.info/sct","version":"2022-03","code":"248342006","display":"Underweight (finding)","userSelected":true}]},"subject":{"reference":"Patient/405d4940-7ab2-4d26-b55f-3c27e07eba33"},"abatementPeriod":{"start":"2024-01-01T08:00:00.000+00:00","end":"2026-08-15T23:59:00.000+00:00"}},"request":{"method":"PUT","url":"Condition/f4df24bf-a140-49bb-b07e-9352dc034f7c"}},{"fullUrl":"https://madie.cms.gov/Coverage/978b7723-c685-4a6f-ad76-76f262827640","resource":{"resourceType":"Coverage","id":"978b7723-c685-4a6f-ad76-76f262827640","meta":{"profile":["http://hl7.org/fhir/us/qicore/StructureDefinition/qicore-coverage"]},"status":"active","beneficiary":{"reference":"Patient/405d4940-7ab2-4d26-b55f-3c27e07eba33"},"payor":[{"reference":"Organization/fa53af32-c6c6-4ed0-967c-91b366a9fd27"}]},"request":{"method":"PUT","url":"Coverage/978b7723-c685-4a6f-ad76-76f262827640"}},{"fullUrl":"https://madie.cms.gov/Organization/fa53af32-c6c6-4ed0-967c-91b366a9fd27","resource":{"resourceType":"Organization","id":"fa53af32-c6c6-4ed0-967c-91b366a9fd27","meta":{"profile":["http://hl7.org/fhir/us/qicore/StructureDefinition/qicore-organization"]},"identifier":[{"use":"temp","system":"urn:oid:2.16.840.1.113883.4.4","value":"21-3259825"}],"active":true,"type":[{"coding":[{"system":"http://terminology.hl7.org/CodeSystem/organization-type","code":"pay","display":"Payer"}]}],"name":"Blue Cross Blue Shield of Texas","telecom":[{"system":"phone","value":"(+1) 972-766-6900"}],"address":[{"use":"billing","type":"postal","line":["P.O. Box 660044"],"city":"Dallas","state":"TX","postalCode":"75266-0044","country":"USA"}]},"request":{"method":"PUT","url":"Organization/fa53af32-c6c6-4ed0-967c-91b366a9fd27"}},{"fullUrl":"https://madie.cms.gov/MeasureReport/5bc7866e-c079-43d3-893c-974541cc81ff","resource":{"resourceType":"MeasureReport","id":"5bc7866e-c079-43d3-893c-974541cc81ff","meta":{"profile":["http://hl7.org/fhir/us/cqfmeasures/StructureDefinition/test-case-cqfm"]},"contained":[{"resourceType":"Parameters","id":"9a928471-7cd7-4d0d-a6be-260882bc2a5f-parameters","parameter":[{"name":"subject","valueString":"405d4940-7ab2-4d26-b55f-3c27e07eba33"}]}],"extension":[{"url":"http://hl7.org/fhir/StructureDefinition/cqf-inputParameters","valueReference":{"reference":"#9a928471-7cd7-4d0d-a6be-260882bc2a5f-parameters"}},{"url":"http://hl7.org/fhir/us/cqfmeasures/StructureDefinition/cqfm-testCaseDescription","valueMarkdown":"Low BMI with intervention performed using condition but condition prevalence period ends before the intervention is performed. "}],"modifierExtension":[{"url":"http://hl7.org/fhir/us/cqfmeasures/StructureDefinition/cqfm-isTestCase","valueBoolean":true}],"status":"complete","type":"individual","measure":"https://madie.cms.gov/Measure/CMS69FHIRPCSBMIScreenAndFollowUp","period":{"start":"2026-01-01","end":"2026-12-31"},"group":[{"id":"Group_1","population":[{"id":"InitialPopulation_1","code":{"coding":[{"system":"http://terminology.hl7.org/CodeSystem/measure-population","code":"initial-population","display":"Initial Population"}]},"count":1},{"id":"Denominator_1","code":{"coding":[{"system":"http://terminology.hl7.org/CodeSystem/measure-population","code":"denominator","display":"Denominator"}]},"count":1},{"id":"DenominatorExclusion_1","code":{"coding":[{"system":"http://terminology.hl7.org/CodeSystem/measure-population","code":"denominator-exclusion","display":"Denominator Exclusion"}]},"count":0},{"id":"Numerator_1","code":{"coding":[{"system":"http://terminology.hl7.org/CodeSystem/measure-population","code":"numerator","display":"Numerator"}]},"count":0},{"id":"DenominatorException_1","code":{"coding":[{"system":"http://terminology.hl7.org/CodeSystem/measure-population","code":"denominator-exception","display":"Denominator Exception"}]},"count":0}],"measureScore":{"value":1.0}}],"evaluatedResource":[{"reference":"Patient/405d4940-7ab2-4d26-b55f-3c27e07eba33"},{"reference":"Encounter/41a8d507-ddf0-4f37-9def-66cdd0dccb04"},{"reference":"Observation/6ae00e97-5e20-45e8-a3bb-1529e1f8ffd7"},{"reference":"Procedure/f691c84f-d631-4d76-aa69-db8bf674b75f"},{"reference":"Condition/f4df24bf-a140-49bb-b07e-9352dc034f7c"},{"reference":"Coverage/978b7723-c685-4a6f-ad76-76f262827640"},{"reference":"Organization/fa53af32-c6c6-4ed0-967c-91b366a9fd27"}]},"request":{"method":"PUT","url":"MeasureReport/5bc7866e-c079-43d3-893c-974541cc81ff"}}]},"request":{"method":"PUT","url":"Bundle/62fbf0eebf5132f90ee35d42"}},{"resource":{"resourceType":"Condition","id":"f4df24bf-a140-49bb-b07e-9352dc034f7c","clinicalStatus":{"coding":[{"system":"http://terminology.hl7.org/CodeSystem/condition-clinical","code":"inactive","display":"inActive","userSelected":true}]},"code":{"coding":[{"system":"http://snomed.info/sct","version":"2022-03","code":"248342006","display":"Underweight (finding)","userSelected":true}]},"subject":{"reference":"Patient/405d4940-7ab2-4d26-b55f-3c27e07eba33"},"abatementPeriod":{"start":"2024-01-01T08:00:00.000+00:00","end":"2026-08-15T23:59:00.000+00:00"}},"request":{"method":"PUT","url":"Condition/f4df24bf-a140-49bb-b07e-9352dc034f7c"}},{"resource":{"resourceType":"Coverage","id":"978b7723-c685-4a6f-ad76-76f262827640","meta":{"profile":["http://hl7.org/fhir/us/qicore/StructureDefinition/qicore-coverage"]},"status":"active","beneficiary":{"reference":"Patient/405d4940-7ab2-4d26-b55f-3c27e07eba33"},"payor":[{"reference":"Organization/fa53af32-c6c6-4ed0-967c-91b366a9fd27"}]},"request":{"method":"PUT","url":"Coverage/978b7723-c685-4a6f-ad76-76f262827640"}},{"resource":{"resourceType":"Encounter","id":"41a8d507-ddf0-4f37-9def-66cdd0dccb04","meta":{"profile":["http://hl7.org/fhir/us/qicore/StructureDefinition/qicore-encounter"]},"status":"finished","class":{"system":"http://terminology.hl7.org/CodeSystem/v3-ActCode","code":"AMB","display":"ambulatory"},"type":[{"coding":[{"system":"http://snomed.info/sct","version":"2022-03","code":"10197000","display":"Psychiatric interview and evaluation (procedure)","userSelected":true}]}],"subject":{"reference":"Patient/405d4940-7ab2-4d26-b55f-3c27e07eba33"},"period":{"start":"2026-12-31T23:30:00.000+00:00","end":"2026-12-31T23:59:00.000+00:00"}},"request":{"method":"PUT","url":"Encounter/41a8d507-ddf0-4f37-9def-66cdd0dccb04"}},{"resource":{"resourceType":"MeasureReport","id":"5bc7866e-c079-43d3-893c-974541cc81ff","meta":{"profile":["http://hl7.org/fhir/us/cqfmeasures/StructureDefinition/test-case-cqfm"]},"contained":[{"resourceType":"Parameters","id":"9a928471-7cd7-4d0d-a6be-260882bc2a5f-parameters","parameter":[{"name":"subject","valueString":"405d4940-7ab2-4d26-b55f-3c27e07eba33"}]}],"extension":[{"url":"http://hl7.org/fhir/StructureDefinition/cqf-inputParameters","valueReference":{"reference":"#9a928471-7cd7-4d0d-a6be-260882bc2a5f-parameters"}},{"url":"http://hl7.org/fhir/us/cqfmeasures/StructureDefinition/cqfm-testCaseDescription","valueMarkdown":"Low BMI with intervention performed using condition but condition prevalence period ends before the intervention is performed. "}],"modifierExtension":[{"url":"http://hl7.org/fhir/us/cqfmeasures/StructureDefinition/cqfm-isTestCase","valueBoolean":true}],"status":"complete","type":"individual","measure":"https://madie.cms.gov/Measure/CMS69FHIRPCSBMIScreenAndFollowUp","period":{"start":"2026-01-01","end":"2026-12-31"},"group":[{"id":"Group_1","population":[{"id":"InitialPopulation_1","code":{"coding":[{"system":"http://terminology.hl7.org/CodeSystem/measure-population","code":"initial-population","display":"Initial Population"}]},"count":1},{"id":"Denominator_1","code":{"coding":[{"system":"http://terminology.hl7.org/CodeSystem/measure-population","code":"denominator","display":"Denominator"}]},"count":1},{"id":"DenominatorExclusion_1","code":{"coding":[{"system":"http://terminology.hl7.org/CodeSystem/measure-population","code":"denominator-exclusion","display":"Denominator Exclusion"}]},"count":0},{"id":"Numerator_1","code":{"coding":[{"system":"http://terminology.hl7.org/CodeSystem/measure-population","code":"numerator","display":"Numerator"}]},"count":0},{"id":"DenominatorException_1","code":{"coding":[{"system":"http://terminology.hl7.org/CodeSystem/measure-population","code":"denominator-exception","display":"Denominator Exception"}]},"count":0}],"measureScore":{"value":1.0}}],"evaluatedResource":[{"reference":"Patient/405d4940-7ab2-4d26-b55f-3c27e07eba33"},{"reference":"Encounter/41a8d507-ddf0-4f37-9def-66cdd0dccb04"},{"reference":"Observation/6ae00e97-5e20-45e8-a3bb-1529e1f8ffd7"},{"reference":"Procedure/f691c84f-d631-4d76-aa69-db8bf674b75f"},{"reference":"Condition/f4df24bf-a140-49bb-b07e-9352dc034f7c"},{"reference":"Coverage/978b7723-c685-4a6f-ad76-76f262827640"},{"reference":"Organization/fa53af32-c6c6-4ed0-967c-91b366a9fd27"}]},"request":{"method":"PUT","url":"MeasureReport/5bc7866e-c079-43d3-893c-974541cc81ff"}},{"resource":{"resourceType":"Observation","id":"6ae00e97-5e20-45e8-a3bb-1529e1f8ffd7","meta":{"profile":["http://hl7.org/fhir/us/core/StructureDefinition/us-core-bmi"]},"status":"final","category":[{"coding":[{"system":"http://terminology.hl7.org/CodeSystem/observation-category","code":"vital-signs","display":"Vital Signs"}]}],"code":{"coding":[{"system":"http://loinc.org","code":"39156-5","display":"Body mass index (BMI) [Ratio]","userSelected":true}]},"subject":{"reference":"Patient/405d4940-7ab2-4d26-b55f-3c27e07eba33"},"effectiveDateTime":"2026-12-31T08:05:00.000+00:00","valueQuantity":{"value":15.0,"unit":"kg/m2","system":"http://unitsofmeasure.org","code":"kg/m2"}},"request":{"method":"PUT","url":"Observation/6ae00e97-5e20-45e8-a3bb-1529e1f8ffd7"}},{"resource":{"resourceType":"Organization","id":"fa53af32-c6c6-4ed0-967c-91b366a9fd27","meta":{"profile":["http://hl7.org/fhir/us/qicore/StructureDefinition/qicore-organization"]},"identifier":[{"use":"temp","system":"urn:oid:2.16.840.1.113883.4.4","value":"21-3259825"}],"active":true,"type":[{"coding":[{"system":"http://terminology.hl7.org/CodeSystem/organization-type","code":"pay","display":"Payer"}]}],"name":"Blue Cross Blue Shield of Texas","telecom":[{"system":"phone","value":"(+1) 972-766-6900"}],"address":[{"use":"billing","type":"postal","line":["P.O. Box 660044"],"city":"Dallas","state":"TX","postalCode":"75266-0044","country":"USA"}]},"request":{"method":"PUT","url":"Organization/fa53af32-c6c6-4ed0-967c-91b366a9fd27"}},{"resource":{"resourceType":"Patient","id":"405d4940-7ab2-4d26-b55f-3c27e07eba33","meta":{"profile":["http://hl7.org/fhir/us/qicore/StructureDefinition/qicore-patient"]},"extension":[{"url":"http://hl7.org/fhir/us/core/StructureDefinition/us-core-race","extension":[{"url":"ombCategory","valueCoding":{"system":"urn:oid:2.16.840.1.113883.6.238","code":"2106-3","display":"White","userSelected":true}},{"url":"text","valueString":"White"}]},{"url":"http://hl7.org/fhir/us/core/StructureDefinition/us-core-ethnicity","extension":[{"url":"ombCategory","valueCoding":{"system":"urn:oid:2.16.840.1.113883.6.238","code":"2186-5","display":"Not Hispanic or Latino","userSelected":true}},{"url":"text","valueString":"Not Hispanic or Latino"}]}],"identifier":[{"type":{"coding":[{"system":"http://terminology.hl7.org/CodeSystem/v2-0203","code":"MR"}]},"system":"https://bonnie-fhir.healthit.gov/","value":"62fbf0eebf5132f90ee35d42"}],"name":[{"family":"NUMERFail","given":["LowBMIAndConditionEndsBeforeInterventionPerformed (1)"]}],"gender":"unknown","birthDate":"1957-11-07"},"request":{"method":"PUT","url":"Patient/405d4940-7ab2-4d26-b55f-3c27e07eba33"}},{"resource":{"resourceType":"Procedure","id":"f691c84f-d631-4d76-aa69-db8bf674b75f","meta":{"profile":["http://hl7.org/fhir/us/qicore/StructureDefinition/qicore-procedure"]},"extension":[{"url":"http://hl7.org/fhir/us/qicore/StructureDefinition/qicore-recorded","valueDateTime":"2026-12-31T23:59:00.000+00:00"}],"status":"completed","code":{"coding":[{"system":"http://snomed.info/sct","version":"2022-03","code":"182922004","display":"Dietary regime (regime/therapy)","userSelected":true}]},"subject":{"reference":"Patient/405d4940-7ab2-4d26-b55f-3c27e07eba33"},"performedDateTime":"2026-12-31T23:59:00.000+00:00"},"request":{"method":"PUT","url":"Procedure/f691c84f-d631-4d76-aa69-db8bf674b75f"}}]}