{"resourceType":"Bundle","id":"tests-6553adbf-2a30-4861-97e6-cca7d2274f01-bundle","type":"transaction","entry":[{"resource":{"resourceType":"Bundle","id":"62e17cd8196ae4347989ac2e","type":"transaction","entry":[{"fullUrl":"https://madie.cms.gov/Patient/6553adbf-2a30-4861-97e6-cca7d2274f01","resource":{"resourceType":"Patient","id":"6553adbf-2a30-4861-97e6-cca7d2274f01","meta":{"profile":["http://hl7.org/fhir/us/qicore/StructureDefinition/qicore-patient"]},"extension":[{"url":"http://hl7.org/fhir/us/core/StructureDefinition/us-core-race","extension":[{"url":"ombCategory","valueCoding":{"system":"urn:oid:2.16.840.1.113883.6.238","code":"2106-3","display":"White","userSelected":true}},{"url":"text","valueString":"White"}]},{"url":"http://hl7.org/fhir/us/core/StructureDefinition/us-core-ethnicity","extension":[{"url":"ombCategory","valueCoding":{"system":"urn:oid:2.16.840.1.113883.6.238","code":"2186-5","display":"Not Hispanic or Latino","userSelected":true}},{"url":"text","valueString":"Not Hispanic or Latino"}]}],"identifier":[{"type":{"coding":[{"system":"http://terminology.hl7.org/CodeSystem/v2-0203","code":"MR"}]},"system":"https://bonnie-fhir.healthit.gov/","value":"62e17cd8196ae4347989ac2e"}],"name":[{"family":"DENEXCEPPass","given":["NoFollowUpPlanMedicalReasonMedicationForAboveNormalBMI"]}],"gender":"unknown","birthDate":"1957-11-07"},"request":{"method":"PUT","url":"Patient/6553adbf-2a30-4861-97e6-cca7d2274f01"}},{"fullUrl":"https://madie.cms.gov/Encounter/11fc2aaf-794a-4eea-8797-981c373cecb6","resource":{"resourceType":"Encounter","id":"11fc2aaf-794a-4eea-8797-981c373cecb6","meta":{"profile":["http://hl7.org/fhir/us/qicore/StructureDefinition/qicore-encounter"]},"status":"finished","class":{"system":"http://terminology.hl7.org/CodeSystem/v3-ActCode","code":"AMB","display":"ambulatory"},"type":[{"coding":[{"system":"http://snomed.info/sct","version":"2022-03","code":"10197000","display":"Psychiatric interview and evaluation (procedure)","userSelected":true}]}],"subject":{"reference":"Patient/6553adbf-2a30-4861-97e6-cca7d2274f01"},"period":{"start":"2026-01-01T00:00:00.000+00:00","end":"2026-01-01T00:30:00.000+00:00"}},"request":{"method":"PUT","url":"Encounter/11fc2aaf-794a-4eea-8797-981c373cecb6"}},{"fullUrl":"https://madie.cms.gov/Observation/d3b80ec3-9f7d-4ea2-8849-795d3cc56d25","resource":{"resourceType":"Observation","id":"d3b80ec3-9f7d-4ea2-8849-795d3cc56d25","meta":{"profile":["http://hl7.org/fhir/us/core/StructureDefinition/us-core-bmi"]},"status":"corrected","category":[{"coding":[{"system":"http://terminology.hl7.org/CodeSystem/observation-category","code":"vital-signs","display":"Vital Signs"}]}],"code":{"coding":[{"system":"http://loinc.org","code":"39156-5","display":"Body mass index (BMI) [Ratio]","userSelected":true}]},"subject":{"reference":"Patient/6553adbf-2a30-4861-97e6-cca7d2274f01"},"effectiveDateTime":"2026-01-01T00:30:00.000+00:00","valueQuantity":{"value":25,"unit":"kg/m2","system":"http://unitsofmeasure.org","code":"kg/m2"}},"request":{"method":"PUT","url":"Observation/d3b80ec3-9f7d-4ea2-8849-795d3cc56d25"}},{"fullUrl":"https://madie.cms.gov/MedicationRequest/7c83b982-82a5-4338-8bc9-23eef36a488a","resource":{"resourceType":"MedicationRequest","id":"7c83b982-82a5-4338-8bc9-23eef36a488a","meta":{"profile":["http://hl7.org/fhir/us/qicore/StructureDefinition/qicore-medicationnotrequested"]},"extension":[{"url":"http://hl7.org/fhir/us/qicore/StructureDefinition/qicore-notDoneReason","valueCodeableConcept":{"coding":[{"system":"http://snomed.info/sct","code":"183932001","display":"Procedure contraindicated (situation)","userSelected":true}]}}],"status":"completed","intent":"order","doNotPerform":true,"medicationCodeableConcept":{"coding":[{"system":"http://www.nlm.nih.gov/research/umls/rxnorm","code":"1112982","display":"phentermine hydrochloride 15 MG Disintegrating Oral Tablet","userSelected":true}]},"subject":{"reference":"Patient/6553adbf-2a30-4861-97e6-cca7d2274f01"},"authoredOn":"2026-01-01T00:30:00.000+00:00","requester":{"reference":"Practitioner/f007","display":"Patrick Pump"},"reasonCode":[{"coding":[{"system":"http://snomed.info/sct","code":"183932001","display":"Procedure contraindicated (situation)","userSelected":true}]}]},"request":{"method":"PUT","url":"MedicationRequest/7c83b982-82a5-4338-8bc9-23eef36a488a"}},{"fullUrl":"https://madie.cms.gov/Coverage/390a168e-8b93-4e69-b94e-e98821f8fb1d","resource":{"resourceType":"Coverage","id":"390a168e-8b93-4e69-b94e-e98821f8fb1d","meta":{"profile":["http://hl7.org/fhir/us/qicore/StructureDefinition/qicore-coverage"]},"status":"active","beneficiary":{"reference":"Patient/6553adbf-2a30-4861-97e6-cca7d2274f01"},"payor":[{"reference":"Organization/6ff7a92e-ab91-4497-895a-f7310061f159"}]},"request":{"method":"PUT","url":"Coverage/390a168e-8b93-4e69-b94e-e98821f8fb1d"}},{"fullUrl":"https://madie.cms.gov/Organization/6ff7a92e-ab91-4497-895a-f7310061f159","resource":{"resourceType":"Organization","id":"6ff7a92e-ab91-4497-895a-f7310061f159","meta":{"profile":["http://hl7.org/fhir/us/qicore/StructureDefinition/qicore-organization"]},"identifier":[{"use":"temp","system":"urn:oid:2.16.840.1.113883.4.4","value":"21-3259825"}],"active":true,"type":[{"coding":[{"system":"http://terminology.hl7.org/CodeSystem/organization-type","code":"pay","display":"Payer"}]}],"name":"Blue Cross Blue Shield of Texas","telecom":[{"system":"phone","value":"(+1) 972-766-6900"}],"address":[{"use":"billing","type":"postal","line":["P.O. Box 660044"],"city":"Dallas","state":"TX","postalCode":"75266-0044","country":"USA"}]},"request":{"method":"PUT","url":"Organization/6ff7a92e-ab91-4497-895a-f7310061f159"}},{"fullUrl":"https://madie.cms.gov/MeasureReport/a206ffde-0206-4e6e-8d99-3652dc1e9c80","resource":{"resourceType":"MeasureReport","id":"a206ffde-0206-4e6e-8d99-3652dc1e9c80","meta":{"profile":["http://hl7.org/fhir/us/cqfmeasures/StructureDefinition/test-case-cqfm"]},"contained":[{"resourceType":"Parameters","id":"a00e26f5-b7fb-4f91-b8cd-e2e8ded15308-parameters","parameter":[{"name":"subject","valueString":"6553adbf-2a30-4861-97e6-cca7d2274f01"}]}],"extension":[{"url":"http://hl7.org/fhir/StructureDefinition/cqf-inputParameters","valueReference":{"reference":"#a00e26f5-b7fb-4f91-b8cd-e2e8ded15308-parameters"}},{"url":"http://hl7.org/fhir/us/cqfmeasures/StructureDefinition/cqfm-testCaseDescription","valueMarkdown":"Adult, Enc first 30 minutes of the first day of the MP, BMI result above normal, no f/u plan due to medical reason"}],"modifierExtension":[{"url":"http://hl7.org/fhir/us/cqfmeasures/StructureDefinition/cqfm-isTestCase","valueBoolean":true}],"status":"complete","type":"individual","measure":"https://madie.cms.gov/Measure/CMS69FHIRPCSBMIScreenAndFollowUp","period":{"start":"2026-01-01","end":"2026-12-31"},"group":[{"id":"Group_1","population":[{"id":"InitialPopulation_1","code":{"coding":[{"system":"http://terminology.hl7.org/CodeSystem/measure-population","code":"initial-population","display":"Initial Population"}]},"count":1},{"id":"Denominator_1","code":{"coding":[{"system":"http://terminology.hl7.org/CodeSystem/measure-population","code":"denominator","display":"Denominator"}]},"count":1},{"id":"DenominatorExclusion_1","code":{"coding":[{"system":"http://terminology.hl7.org/CodeSystem/measure-population","code":"denominator-exclusion","display":"Denominator Exclusion"}]},"count":0},{"id":"Numerator_1","code":{"coding":[{"system":"http://terminology.hl7.org/CodeSystem/measure-population","code":"numerator","display":"Numerator"}]},"count":0},{"id":"DenominatorException_1","code":{"coding":[{"system":"http://terminology.hl7.org/CodeSystem/measure-population","code":"denominator-exception","display":"Denominator Exception"}]},"count":1}],"measureScore":{"value":1.0}}],"evaluatedResource":[{"reference":"Patient/6553adbf-2a30-4861-97e6-cca7d2274f01"},{"reference":"Encounter/11fc2aaf-794a-4eea-8797-981c373cecb6"},{"reference":"Observation/d3b80ec3-9f7d-4ea2-8849-795d3cc56d25"},{"reference":"MedicationRequest/7c83b982-82a5-4338-8bc9-23eef36a488a"},{"reference":"Coverage/390a168e-8b93-4e69-b94e-e98821f8fb1d"},{"reference":"Organization/6ff7a92e-ab91-4497-895a-f7310061f159"}]},"request":{"method":"PUT","url":"MeasureReport/a206ffde-0206-4e6e-8d99-3652dc1e9c80"}}]},"request":{"method":"PUT","url":"Bundle/62e17cd8196ae4347989ac2e"}},{"resource":{"resourceType":"Coverage","id":"390a168e-8b93-4e69-b94e-e98821f8fb1d","meta":{"profile":["http://hl7.org/fhir/us/qicore/StructureDefinition/qicore-coverage"]},"status":"active","beneficiary":{"reference":"Patient/6553adbf-2a30-4861-97e6-cca7d2274f01"},"payor":[{"reference":"Organization/6ff7a92e-ab91-4497-895a-f7310061f159"}]},"request":{"method":"PUT","url":"Coverage/390a168e-8b93-4e69-b94e-e98821f8fb1d"}},{"resource":{"resourceType":"Encounter","id":"11fc2aaf-794a-4eea-8797-981c373cecb6","meta":{"profile":["http://hl7.org/fhir/us/qicore/StructureDefinition/qicore-encounter"]},"status":"finished","class":{"system":"http://terminology.hl7.org/CodeSystem/v3-ActCode","code":"AMB","display":"ambulatory"},"type":[{"coding":[{"system":"http://snomed.info/sct","version":"2022-03","code":"10197000","display":"Psychiatric interview and evaluation (procedure)","userSelected":true}]}],"subject":{"reference":"Patient/6553adbf-2a30-4861-97e6-cca7d2274f01"},"period":{"start":"2026-01-01T00:00:00.000+00:00","end":"2026-01-01T00:30:00.000+00:00"}},"request":{"method":"PUT","url":"Encounter/11fc2aaf-794a-4eea-8797-981c373cecb6"}},{"resource":{"resourceType":"MeasureReport","id":"a206ffde-0206-4e6e-8d99-3652dc1e9c80","meta":{"profile":["http://hl7.org/fhir/us/cqfmeasures/StructureDefinition/test-case-cqfm"]},"contained":[{"resourceType":"Parameters","id":"a00e26f5-b7fb-4f91-b8cd-e2e8ded15308-parameters","parameter":[{"name":"subject","valueString":"6553adbf-2a30-4861-97e6-cca7d2274f01"}]}],"extension":[{"url":"http://hl7.org/fhir/StructureDefinition/cqf-inputParameters","valueReference":{"reference":"#a00e26f5-b7fb-4f91-b8cd-e2e8ded15308-parameters"}},{"url":"http://hl7.org/fhir/us/cqfmeasures/StructureDefinition/cqfm-testCaseDescription","valueMarkdown":"Adult, Enc first 30 minutes of the first day of the MP, BMI result above normal, no f/u plan due to medical reason"}],"modifierExtension":[{"url":"http://hl7.org/fhir/us/cqfmeasures/StructureDefinition/cqfm-isTestCase","valueBoolean":true}],"status":"complete","type":"individual","measure":"https://madie.cms.gov/Measure/CMS69FHIRPCSBMIScreenAndFollowUp","period":{"start":"2026-01-01","end":"2026-12-31"},"group":[{"id":"Group_1","population":[{"id":"InitialPopulation_1","code":{"coding":[{"system":"http://terminology.hl7.org/CodeSystem/measure-population","code":"initial-population","display":"Initial Population"}]},"count":1},{"id":"Denominator_1","code":{"coding":[{"system":"http://terminology.hl7.org/CodeSystem/measure-population","code":"denominator","display":"Denominator"}]},"count":1},{"id":"DenominatorExclusion_1","code":{"coding":[{"system":"http://terminology.hl7.org/CodeSystem/measure-population","code":"denominator-exclusion","display":"Denominator Exclusion"}]},"count":0},{"id":"Numerator_1","code":{"coding":[{"system":"http://terminology.hl7.org/CodeSystem/measure-population","code":"numerator","display":"Numerator"}]},"count":0},{"id":"DenominatorException_1","code":{"coding":[{"system":"http://terminology.hl7.org/CodeSystem/measure-population","code":"denominator-exception","display":"Denominator Exception"}]},"count":1}],"measureScore":{"value":1.0}}],"evaluatedResource":[{"reference":"Patient/6553adbf-2a30-4861-97e6-cca7d2274f01"},{"reference":"Encounter/11fc2aaf-794a-4eea-8797-981c373cecb6"},{"reference":"Observation/d3b80ec3-9f7d-4ea2-8849-795d3cc56d25"},{"reference":"MedicationRequest/7c83b982-82a5-4338-8bc9-23eef36a488a"},{"reference":"Coverage/390a168e-8b93-4e69-b94e-e98821f8fb1d"},{"reference":"Organization/6ff7a92e-ab91-4497-895a-f7310061f159"}]},"request":{"method":"PUT","url":"MeasureReport/a206ffde-0206-4e6e-8d99-3652dc1e9c80"}},{"resource":{"resourceType":"MedicationRequest","id":"7c83b982-82a5-4338-8bc9-23eef36a488a","meta":{"profile":["http://hl7.org/fhir/us/qicore/StructureDefinition/qicore-medicationnotrequested"]},"extension":[{"url":"http://hl7.org/fhir/us/qicore/StructureDefinition/qicore-notDoneReason","valueCodeableConcept":{"coding":[{"system":"http://snomed.info/sct","code":"183932001","display":"Procedure contraindicated (situation)","userSelected":true}]}}],"status":"completed","intent":"order","doNotPerform":true,"medicationCodeableConcept":{"coding":[{"system":"http://www.nlm.nih.gov/research/umls/rxnorm","code":"1112982","display":"phentermine hydrochloride 15 MG Disintegrating Oral Tablet","userSelected":true}]},"subject":{"reference":"Patient/6553adbf-2a30-4861-97e6-cca7d2274f01"},"authoredOn":"2026-01-01T00:30:00.000+00:00","requester":{"reference":"Practitioner/f007","display":"Patrick Pump"},"reasonCode":[{"coding":[{"system":"http://snomed.info/sct","code":"183932001","display":"Procedure contraindicated (situation)","userSelected":true}]}]},"request":{"method":"PUT","url":"MedicationRequest/7c83b982-82a5-4338-8bc9-23eef36a488a"}},{"resource":{"resourceType":"Observation","id":"d3b80ec3-9f7d-4ea2-8849-795d3cc56d25","meta":{"profile":["http://hl7.org/fhir/us/core/StructureDefinition/us-core-bmi"]},"status":"corrected","category":[{"coding":[{"system":"http://terminology.hl7.org/CodeSystem/observation-category","code":"vital-signs","display":"Vital Signs"}]}],"code":{"coding":[{"system":"http://loinc.org","code":"39156-5","display":"Body mass index (BMI) [Ratio]","userSelected":true}]},"subject":{"reference":"Patient/6553adbf-2a30-4861-97e6-cca7d2274f01"},"effectiveDateTime":"2026-01-01T00:30:00.000+00:00","valueQuantity":{"value":25,"unit":"kg/m2","system":"http://unitsofmeasure.org","code":"kg/m2"}},"request":{"method":"PUT","url":"Observation/d3b80ec3-9f7d-4ea2-8849-795d3cc56d25"}},{"resource":{"resourceType":"Organization","id":"6ff7a92e-ab91-4497-895a-f7310061f159","meta":{"profile":["http://hl7.org/fhir/us/qicore/StructureDefinition/qicore-organization"]},"identifier":[{"use":"temp","system":"urn:oid:2.16.840.1.113883.4.4","value":"21-3259825"}],"active":true,"type":[{"coding":[{"system":"http://terminology.hl7.org/CodeSystem/organization-type","code":"pay","display":"Payer"}]}],"name":"Blue Cross Blue Shield of Texas","telecom":[{"system":"phone","value":"(+1) 972-766-6900"}],"address":[{"use":"billing","type":"postal","line":["P.O. Box 660044"],"city":"Dallas","state":"TX","postalCode":"75266-0044","country":"USA"}]},"request":{"method":"PUT","url":"Organization/6ff7a92e-ab91-4497-895a-f7310061f159"}},{"resource":{"resourceType":"Patient","id":"6553adbf-2a30-4861-97e6-cca7d2274f01","meta":{"profile":["http://hl7.org/fhir/us/qicore/StructureDefinition/qicore-patient"]},"extension":[{"url":"http://hl7.org/fhir/us/core/StructureDefinition/us-core-race","extension":[{"url":"ombCategory","valueCoding":{"system":"urn:oid:2.16.840.1.113883.6.238","code":"2106-3","display":"White","userSelected":true}},{"url":"text","valueString":"White"}]},{"url":"http://hl7.org/fhir/us/core/StructureDefinition/us-core-ethnicity","extension":[{"url":"ombCategory","valueCoding":{"system":"urn:oid:2.16.840.1.113883.6.238","code":"2186-5","display":"Not Hispanic or Latino","userSelected":true}},{"url":"text","valueString":"Not Hispanic or Latino"}]}],"identifier":[{"type":{"coding":[{"system":"http://terminology.hl7.org/CodeSystem/v2-0203","code":"MR"}]},"system":"https://bonnie-fhir.healthit.gov/","value":"62e17cd8196ae4347989ac2e"}],"name":[{"family":"DENEXCEPPass","given":["NoFollowUpPlanMedicalReasonMedicationForAboveNormalBMI"]}],"gender":"unknown","birthDate":"1957-11-07"},"request":{"method":"PUT","url":"Patient/6553adbf-2a30-4861-97e6-cca7d2274f01"}}]}