{
    "entry": [
        {
            "request": {
                "method": "PUT",
                "url": "Patient/d3cc8712-ba04-4dba-aebd-a772e49e2741"
            },
            "resource": {
                "identifier": [{
                    "system": "https://bonnie-fhir.healthit.gov/",
                    "type": {"coding": [{
                        "system": "http://terminology.hl7.org/CodeSystem/v2-0203",
                        "code": "MR"
                    }]},
                    "value": "62fa88b5e884ee19102758b5"
                }],
                "extension": [
                    {
                        "extension": [
                            {
                                "valueCoding": {
                                    "system": "urn:oid:2.16.840.1.113883.6.238",
                                    "code": "1002-5",
                                    "userSelected": true,
                                    "display": "American Indian or Alaska Native"
                                },
                                "url": "ombCategory"
                            },
                            {
                                "valueString": "American Indian or Alaska Native",
                                "url": "text"
                            }
                        ],
                        "url": "http://hl7.org/fhir/us/core/StructureDefinition/us-core-race"
                    },
                    {
                        "extension": [
                            {
                                "valueCoding": {
                                    "system": "urn:oid:2.16.840.1.113883.6.238",
                                    "code": "2135-2",
                                    "userSelected": true,
                                    "display": "Hispanic or Latino"
                                },
                                "url": "ombCategory"
                            },
                            {
                                "valueString": "Hispanic or Latino",
                                "url": "text"
                            }
                        ],
                        "url": "http://hl7.org/fhir/us/core/StructureDefinition/us-core-ethnicity"
                    }
                ],
                "gender": "male",
                "meta": {"profile": ["http://hl7.org/fhir/us/qicore/StructureDefinition/qicore-patient"]},
                "name": [{
                    "given": ["HypertensionDuringEnc"],
                    "family": "DENEXFail"
                }],
                "id": "d3cc8712-ba04-4dba-aebd-a772e49e2741",
                "birthDate": "2006-06-18",
                "resourceType": "Patient"
            },
            "fullUrl": "https://madie.cms.gov/Patient/d3cc8712-ba04-4dba-aebd-a772e49e2741"
        },
        {
            "request": {
                "method": "PUT",
                "url": "Encounter/5bea9b9a-88fa-4a6c-a62d-0ce72a65fbe8"
            },
            "resource": {
                "period": {
                    "start": "2026-01-01T08:00:00.000+00:00",
                    "end": "2026-01-01T10:00:00.000+00:00"
                },
                "meta": {"profile": ["http://hl7.org/fhir/us/qicore/StructureDefinition/qicore-encounter"]},
                "subject": {"reference": "Patient/d3cc8712-ba04-4dba-aebd-a772e49e2741"},
                "id": "5bea9b9a-88fa-4a6c-a62d-0ce72a65fbe8",
                "type": [{"coding": [{
                    "system": "http://snomed.info/sct",
                    "code": "103705002",
                    "userSelected": true,
                    "display": "Patient status observation (procedure)",
                    "version": "2022-03"
                }]}],
                "class": {
                    "system": "http://terminology.hl7.org/CodeSystem/v3-ActCode",
                    "code": "AMB",
                    "display": "ambulatory"
                },
                "resourceType": "Encounter",
                "status": "finished"
            },
            "fullUrl": "https://madie.cms.gov/Encounter/5bea9b9a-88fa-4a6c-a62d-0ce72a65fbe8"
        },
        {
            "request": {
                "method": "PUT",
                "url": "Condition/b28c04fb-69ec-4d1a-a4ab-676a91c060a2"
            },
            "resource": {
                "code": {"coding": [{
                    "system": "http://snomed.info/sct",
                    "code": "10725009",
                    "userSelected": true,
                    "display": "Benign hypertension (disorder)",
                    "version": "2022-03"
                }]},
                "onsetPeriod": {"start": "2026-01-01T08:15:00.000+00:00"},
                "verificationStatus": {"coding": [{
                    "system": "http://terminology.hl7.org/CodeSystem/condition-ver-status",
                    "code": "confirmed",
                    "userSelected": true,
                    "display": "Confirmed"
                }]},
                "meta": {"profile": ["http://hl7.org/fhir/us/qicore/StructureDefinition/qicore-enounter-diagnosis"]},
                "subject": {"reference": "Patient/d3cc8712-ba04-4dba-aebd-a772e49e2741"},
                "id": "b28c04fb-69ec-4d1a-a4ab-676a91c060a2",
                "clinicalStatus": {"coding": [{
                    "system": "http://terminology.hl7.org/CodeSystem/condition-clinical",
                    "code": "active",
                    "userSelected": true,
                    "display": "active"
                }]},
                "category": [{"coding": [{
                    "system": "http://terminology.hl7.org/CodeSystem/condition-category",
                    "code": "encounter-diagnosis",
                    "display": "Encounter Diagnosis"
                }]}],
                "resourceType": "Condition"
            },
            "fullUrl": "https://madie.cms.gov/Condition/b28c04fb-69ec-4d1a-a4ab-676a91c060a2"
        },
        {
            "request": {
                "method": "PUT",
                "url": "Coverage/2fd781e7-8b35-49ed-b797-c0be5bb4e3ba"
            },
            "resource": {
                "payor": [{"reference": "Organization/cb7d97c9-cedf-4c24-b6b5-c779513cd24a"}],
                "beneficiary": {"reference": "Patient/d3cc8712-ba04-4dba-aebd-a772e49e2741"},
                "meta": {"profile": ["http://hl7.org/fhir/us/qicore/StructureDefinition/qicore-coverage"]},
                "id": "2fd781e7-8b35-49ed-b797-c0be5bb4e3ba",
                "resourceType": "Coverage",
                "status": "active"
            },
            "fullUrl": "https://madie.cms.gov/Coverage/2fd781e7-8b35-49ed-b797-c0be5bb4e3ba"
        },
        {
            "request": {
                "method": "PUT",
                "url": "Organization/cb7d97c9-cedf-4c24-b6b5-c779513cd24a"
            },
            "resource": {
                "identifier": [{
                    "system": "urn:oid:2.16.840.1.113883.4.4",
                    "use": "temp",
                    "value": "21-3259825"
                }],
                "address": [{
                    "country": "USA",
                    "city": "Dallas",
                    "use": "billing",
                    "line": ["P.O. Box 660044"],
                    "postalCode": "75266-0044",
                    "state": "TX",
                    "type": "postal"
                }],
                "meta": {"profile": ["http://hl7.org/fhir/us/qicore/StructureDefinition/qicore-organization"]},
                "name": "Blue Cross Blue Shield of Texas",
                "active": true,
                "telecom": [{
                    "system": "phone",
                    "value": "(+1) 972-766-6900"
                }],
                "id": "cb7d97c9-cedf-4c24-b6b5-c779513cd24a",
                "type": [{"coding": [{
                    "system": "http://terminology.hl7.org/CodeSystem/organization-type",
                    "code": "pay",
                    "display": "Payer"
                }]}],
                "resourceType": "Organization"
            },
            "fullUrl": "https://madie.cms.gov/Organization/cb7d97c9-cedf-4c24-b6b5-c779513cd24a"
        },
        {
            "request": {
                "method": "PUT",
                "url": "Practitioner/1a1a95c5-b781-4deb-9a1c-886ac0842860"
            },
            "resource": {
                "identifier": [{
                    "system": "http://hl7.org/fhir/sid/us-npi",
                    "value": "123456"
                }],
                "meta": {"profile": ["http://hl7.org/fhir/us/qicore/StructureDefinition/qicore-practitioner"]},
                "name": [{
                    "prefix": ["Dr"],
                    "family": "Evil"
                }],
                "id": "1a1a95c5-b781-4deb-9a1c-886ac0842860",
                "resourceType": "Practitioner"
            },
            "fullUrl": "https://madie.cms.gov/Practitioner/1a1a95c5-b781-4deb-9a1c-886ac0842860"
        },
        {
            "request": {
                "method": "PUT",
                "url": "MeasureReport/5d153b4f-ea65-4c90-8954-24d4ee5d97db"
            },
            "resource": {
                "contained": [{
                    "parameter": [{
                        "valueString": "d3cc8712-ba04-4dba-aebd-a772e49e2741",
                        "name": "subject"
                    }],
                    "id": "53556f35-8724-4f1c-ab31-ff945e9ff44b-parameters",
                    "resourceType": "Parameters"
                }],
                "extension": [
                    {
                        "valueReference": {"reference": "#53556f35-8724-4f1c-ab31-ff945e9ff44b-parameters"},
                        "url": "http://hl7.org/fhir/StructureDefinition/cqf-inputParameters"
                    },
                    {
                        "valueMarkdown": "Encounter with BP reading where HTN identified during the encounter (does not overlap before enc).",
                        "url": "http://hl7.org/fhir/us/cqfmeasures/StructureDefinition/cqfm-testCaseDescription"
                    }
                ],
                "period": {
                    "start": "2026-01-01",
                    "end": "2026-12-31"
                },
                "measure": "https://madie.cms.gov/Measure/CMS22FHIRPCSBPScreeningFollowUp",
                "meta": {"profile": ["http://hl7.org/fhir/us/cqfmeasures/StructureDefinition/test-case-cqfm"]},
                "modifierExtension": [{
                    "valueBoolean": true,
                    "url": "http://hl7.org/fhir/us/cqfmeasures/StructureDefinition/cqfm-isTestCase"
                }],
                "id": "5d153b4f-ea65-4c90-8954-24d4ee5d97db",
                "evaluatedResource": [
                    {"reference": "Patient/d3cc8712-ba04-4dba-aebd-a772e49e2741"},
                    {"reference": "Encounter/5bea9b9a-88fa-4a6c-a62d-0ce72a65fbe8"},
                    {"reference": "Condition/b28c04fb-69ec-4d1a-a4ab-676a91c060a2"},
                    {"reference": "Coverage/2fd781e7-8b35-49ed-b797-c0be5bb4e3ba"},
                    {"reference": "Organization/cb7d97c9-cedf-4c24-b6b5-c779513cd24a"},
                    {"reference": "Practitioner/1a1a95c5-b781-4deb-9a1c-886ac0842860"}
                ],
                "type": "individual",
                "resourceType": "MeasureReport",
                "status": "complete",
                "group": [{
                    "id": "Group_1",
                    "measureScore": {"value": 0},
                    "population": [
                        {
                            "code": {"coding": [{
                                "system": "http://terminology.hl7.org/CodeSystem/measure-population",
                                "code": "initial-population",
                                "display": "Initial Population"
                            }]},
                            "count": 1,
                            "id": "InitialPopulation_1"
                        },
                        {
                            "code": {"coding": [{
                                "system": "http://terminology.hl7.org/CodeSystem/measure-population",
                                "code": "denominator",
                                "display": "Denominator"
                            }]},
                            "count": 1,
                            "id": "Denominator_1"
                        },
                        {
                            "code": {"coding": [{
                                "system": "http://terminology.hl7.org/CodeSystem/measure-population",
                                "code": "denominator-exclusion",
                                "display": "Denominator Exclusion"
                            }]},
                            "count": 0,
                            "id": "DenominatorExclusion_1"
                        },
                        {
                            "code": {"coding": [{
                                "system": "http://terminology.hl7.org/CodeSystem/measure-population",
                                "code": "numerator",
                                "display": "Numerator"
                            }]},
                            "count": 0,
                            "id": "Numerator_1"
                        },
                        {
                            "code": {"coding": [{
                                "system": "http://terminology.hl7.org/CodeSystem/measure-population",
                                "code": "denominator-exception",
                                "display": "Denominator Exception"
                            }]},
                            "count": 0,
                            "id": "DenominatorException_1"
                        }
                    ]
                }]
            },
            "fullUrl": "https://madie.cms.gov/MeasureReport/5d153b4f-ea65-4c90-8954-24d4ee5d97db"
        }
    ],
    "id": "62fa88b5e884ee19102758b5",
    "type": "transaction",
    "resourceType": "Bundle"
}