{
  "resourceType": "Bundle",
  "id": "62fa88b5e884ee19102758b5",
  "type": "transaction",
  "entry": [ {
    "fullUrl": "https://madie.cms.gov/Patient/d3cc8712-ba04-4dba-aebd-a772e49e2741",
    "resource": {
      "resourceType": "Patient",
      "id": "d3cc8712-ba04-4dba-aebd-a772e49e2741",
      "meta": {
        "profile": [ "http://hl7.org/fhir/us/qicore/StructureDefinition/qicore-patient" ]
      },
      "extension": [ {
        "url": "http://hl7.org/fhir/us/core/StructureDefinition/us-core-race",
        "extension": [ {
          "url": "ombCategory",
          "valueCoding": {
            "system": "urn:oid:2.16.840.1.113883.6.238",
            "code": "1002-5",
            "display": "American Indian or Alaska Native",
            "userSelected": true
          }
        }, {
          "url": "text",
          "valueString": "American Indian or Alaska Native"
        } ]
      }, {
        "url": "http://hl7.org/fhir/us/core/StructureDefinition/us-core-ethnicity",
        "extension": [ {
          "url": "ombCategory",
          "valueCoding": {
            "system": "urn:oid:2.16.840.1.113883.6.238",
            "code": "2135-2",
            "display": "Hispanic or Latino",
            "userSelected": true
          }
        }, {
          "url": "text",
          "valueString": "Hispanic or Latino"
        } ]
      } ],
      "identifier": [ {
        "type": {
          "coding": [ {
            "system": "http://terminology.hl7.org/CodeSystem/v2-0203",
            "code": "MR"
          } ]
        },
        "system": "https://bonnie-fhir.healthit.gov/",
        "value": "62fa88b5e884ee19102758b5"
      } ],
      "name": [ {
        "family": "DENEXFail",
        "given": [ "HypertensionDuringEnc" ]
      } ],
      "gender": "male",
      "birthDate": "2006-06-18"
    },
    "request": {
      "method": "PUT",
      "url": "Patient/d3cc8712-ba04-4dba-aebd-a772e49e2741"
    }
  }, {
    "fullUrl": "https://madie.cms.gov/Encounter/5bea9b9a-88fa-4a6c-a62d-0ce72a65fbe8",
    "resource": {
      "resourceType": "Encounter",
      "id": "5bea9b9a-88fa-4a6c-a62d-0ce72a65fbe8",
      "meta": {
        "profile": [ "http://hl7.org/fhir/us/qicore/StructureDefinition/qicore-encounter" ]
      },
      "status": "finished",
      "class": {
        "system": "http://terminology.hl7.org/CodeSystem/v3-ActCode",
        "code": "AMB",
        "display": "ambulatory"
      },
      "type": [ {
        "coding": [ {
          "system": "http://snomed.info/sct",
          "version": "2022-03",
          "code": "103705002",
          "display": "Patient status observation (procedure)",
          "userSelected": true
        } ]
      } ],
      "subject": {
        "reference": "Patient/d3cc8712-ba04-4dba-aebd-a772e49e2741"
      },
      "period": {
        "start": "2026-01-01T08:00:00.000+00:00",
        "end": "2026-01-01T10:00:00.000+00:00"
      }
    },
    "request": {
      "method": "PUT",
      "url": "Encounter/5bea9b9a-88fa-4a6c-a62d-0ce72a65fbe8"
    }
  }, {
    "fullUrl": "https://madie.cms.gov/Condition/b28c04fb-69ec-4d1a-a4ab-676a91c060a2",
    "resource": {
      "resourceType": "Condition",
      "id": "b28c04fb-69ec-4d1a-a4ab-676a91c060a2",
      "meta": {
        "profile": [ "http://hl7.org/fhir/us/qicore/StructureDefinition/qicore-enounter-diagnosis" ]
      },
      "clinicalStatus": {
        "coding": [ {
          "system": "http://terminology.hl7.org/CodeSystem/condition-clinical",
          "code": "active",
          "display": "active",
          "userSelected": true
        } ]
      },
      "verificationStatus": {
        "coding": [ {
          "system": "http://terminology.hl7.org/CodeSystem/condition-ver-status",
          "code": "confirmed",
          "display": "Confirmed",
          "userSelected": true
        } ]
      },
      "category": [ {
        "coding": [ {
          "system": "http://terminology.hl7.org/CodeSystem/condition-category",
          "code": "encounter-diagnosis",
          "display": "Encounter Diagnosis"
        } ]
      } ],
      "code": {
        "coding": [ {
          "system": "http://snomed.info/sct",
          "version": "2022-03",
          "code": "10725009",
          "display": "Benign hypertension (disorder)",
          "userSelected": true
        } ]
      },
      "subject": {
        "reference": "Patient/d3cc8712-ba04-4dba-aebd-a772e49e2741"
      },
      "onsetPeriod": {
        "start": "2026-01-01T08:15:00.000+00:00"
      }
    },
    "request": {
      "method": "PUT",
      "url": "Condition/b28c04fb-69ec-4d1a-a4ab-676a91c060a2"
    }
  }, {
    "fullUrl": "https://madie.cms.gov/Coverage/2fd781e7-8b35-49ed-b797-c0be5bb4e3ba",
    "resource": {
      "resourceType": "Coverage",
      "id": "2fd781e7-8b35-49ed-b797-c0be5bb4e3ba",
      "meta": {
        "profile": [ "http://hl7.org/fhir/us/qicore/StructureDefinition/qicore-coverage" ]
      },
      "status": "active",
      "beneficiary": {
        "reference": "Patient/d3cc8712-ba04-4dba-aebd-a772e49e2741"
      },
      "payor": [ {
        "reference": "Organization/cb7d97c9-cedf-4c24-b6b5-c779513cd24a"
      } ]
    },
    "request": {
      "method": "PUT",
      "url": "Coverage/2fd781e7-8b35-49ed-b797-c0be5bb4e3ba"
    }
  }, {
    "fullUrl": "https://madie.cms.gov/Organization/cb7d97c9-cedf-4c24-b6b5-c779513cd24a",
    "resource": {
      "resourceType": "Organization",
      "id": "cb7d97c9-cedf-4c24-b6b5-c779513cd24a",
      "meta": {
        "profile": [ "http://hl7.org/fhir/us/qicore/StructureDefinition/qicore-organization" ]
      },
      "identifier": [ {
        "use": "temp",
        "system": "urn:oid:2.16.840.1.113883.4.4",
        "value": "21-3259825"
      } ],
      "active": true,
      "type": [ {
        "coding": [ {
          "system": "http://terminology.hl7.org/CodeSystem/organization-type",
          "code": "pay",
          "display": "Payer"
        } ]
      } ],
      "name": "Blue Cross Blue Shield of Texas",
      "telecom": [ {
        "system": "phone",
        "value": "(+1) 972-766-6900"
      } ],
      "address": [ {
        "use": "billing",
        "type": "postal",
        "line": [ "P.O. Box 660044" ],
        "city": "Dallas",
        "state": "TX",
        "postalCode": "75266-0044",
        "country": "USA"
      } ]
    },
    "request": {
      "method": "PUT",
      "url": "Organization/cb7d97c9-cedf-4c24-b6b5-c779513cd24a"
    }
  }, {
    "fullUrl": "https://madie.cms.gov/Practitioner/1a1a95c5-b781-4deb-9a1c-886ac0842860",
    "resource": {
      "resourceType": "Practitioner",
      "id": "1a1a95c5-b781-4deb-9a1c-886ac0842860",
      "meta": {
        "profile": [ "http://hl7.org/fhir/us/qicore/StructureDefinition/qicore-practitioner" ]
      },
      "identifier": [ {
        "system": "http://hl7.org/fhir/sid/us-npi",
        "value": "123456"
      } ],
      "name": [ {
        "family": "Evil",
        "prefix": [ "Dr" ]
      } ]
    },
    "request": {
      "method": "PUT",
      "url": "Practitioner/1a1a95c5-b781-4deb-9a1c-886ac0842860"
    }
  }, {
    "fullUrl": "https://madie.cms.gov/MeasureReport/5d153b4f-ea65-4c90-8954-24d4ee5d97db",
    "resource": {
      "resourceType": "MeasureReport",
      "id": "5d153b4f-ea65-4c90-8954-24d4ee5d97db",
      "meta": {
        "profile": [ "http://hl7.org/fhir/us/cqfmeasures/StructureDefinition/test-case-cqfm" ]
      },
      "contained": [ {
        "resourceType": "Parameters",
        "id": "53556f35-8724-4f1c-ab31-ff945e9ff44b-parameters",
        "parameter": [ {
          "name": "subject",
          "valueString": "d3cc8712-ba04-4dba-aebd-a772e49e2741"
        } ]
      } ],
      "extension": [ {
        "url": "http://hl7.org/fhir/StructureDefinition/cqf-inputParameters",
        "valueReference": {
          "reference": "#53556f35-8724-4f1c-ab31-ff945e9ff44b-parameters"
        }
      }, {
        "url": "http://hl7.org/fhir/us/cqfmeasures/StructureDefinition/cqfm-testCaseDescription",
        "valueMarkdown": "Encounter with BP reading where HTN identified during the encounter (does not overlap before enc)."
      } ],
      "modifierExtension": [ {
        "url": "http://hl7.org/fhir/us/cqfmeasures/StructureDefinition/cqfm-isTestCase",
        "valueBoolean": true
      } ],
      "status": "complete",
      "type": "individual",
      "measure": "https://madie.cms.gov/Measure/CMS22FHIRPCSBPScreeningFollowUp",
      "period": {
        "start": "2026-01-01",
        "end": "2026-12-31"
      },
      "group": [ {
        "id": "Group_1",
        "population": [ {
          "id": "InitialPopulation_1",
          "code": {
            "coding": [ {
              "system": "http://terminology.hl7.org/CodeSystem/measure-population",
              "code": "initial-population",
              "display": "Initial Population"
            } ]
          },
          "count": 1
        }, {
          "id": "Denominator_1",
          "code": {
            "coding": [ {
              "system": "http://terminology.hl7.org/CodeSystem/measure-population",
              "code": "denominator",
              "display": "Denominator"
            } ]
          },
          "count": 1
        }, {
          "id": "DenominatorExclusion_1",
          "code": {
            "coding": [ {
              "system": "http://terminology.hl7.org/CodeSystem/measure-population",
              "code": "denominator-exclusion",
              "display": "Denominator Exclusion"
            } ]
          },
          "count": 0
        }, {
          "id": "Numerator_1",
          "code": {
            "coding": [ {
              "system": "http://terminology.hl7.org/CodeSystem/measure-population",
              "code": "numerator",
              "display": "Numerator"
            } ]
          },
          "count": 0
        }, {
          "id": "DenominatorException_1",
          "code": {
            "coding": [ {
              "system": "http://terminology.hl7.org/CodeSystem/measure-population",
              "code": "denominator-exception",
              "display": "Denominator Exception"
            } ]
          },
          "count": 0
        } ],
        "measureScore": {
          "value": 0.0
        }
      } ],
      "evaluatedResource": [ {
        "reference": "Patient/d3cc8712-ba04-4dba-aebd-a772e49e2741"
      }, {
        "reference": "Encounter/5bea9b9a-88fa-4a6c-a62d-0ce72a65fbe8"
      }, {
        "reference": "Condition/b28c04fb-69ec-4d1a-a4ab-676a91c060a2"
      }, {
        "reference": "Coverage/2fd781e7-8b35-49ed-b797-c0be5bb4e3ba"
      }, {
        "reference": "Organization/cb7d97c9-cedf-4c24-b6b5-c779513cd24a"
      }, {
        "reference": "Practitioner/1a1a95c5-b781-4deb-9a1c-886ac0842860"
      } ]
    },
    "request": {
      "method": "PUT",
      "url": "MeasureReport/5d153b4f-ea65-4c90-8954-24d4ee5d97db"
    }
  } ]
}