{
  "resourceType": "Bundle",
  "id": "612e6a7002c62a011f2ea15f",
  "type": "transaction",
  "entry": [ {
    "fullUrl": "https://madie.cms.gov/Patient/d280541b-5f7a-4b19-b82b-c2d933006f52",
    "resource": {
      "resourceType": "Patient",
      "id": "d280541b-5f7a-4b19-b82b-c2d933006f52",
      "meta": {
        "profile": [ "http://hl7.org/fhir/us/qicore/StructureDefinition/qicore-patient" ]
      },
      "text": {
        "status": "generated",
        "div": "<div xmlns=\"http://www.w3.org/1999/xhtml\"><div class=\"hapiHeaderText\">PtRefDOGCS1DayAFAnes <b>NUMERPASS </b></div><table class=\"hapiPropertyTable\"><tbody><tr><td>Identifier</td><td>24fc1ce85ce14557dd4d9eba17df9f17</td></tr><tr><td>Date of birth</td><td><span>02 January 1974</span></td></tr></tbody></table></div>"
      },
      "extension": [ {
        "url": "http://hl7.org/fhir/us/core/StructureDefinition/us-core-race",
        "extension": [ {
          "url": "ombCategory",
          "valueCoding": {
            "system": "urn:oid:2.16.840.1.113883.6.238",
            "code": "1002-5",
            "display": "American Indian or Alaska Native",
            "userSelected": true
          }
        }, {
          "url": "text",
          "valueString": "American Indian or Alaska Native"
        } ]
      }, {
        "url": "http://hl7.org/fhir/us/core/StructureDefinition/us-core-ethnicity",
        "extension": [ {
          "url": "ombCategory",
          "valueCoding": {
            "system": "urn:oid:2.16.840.1.113883.6.238",
            "code": "2135-2",
            "display": "Hispanic or Latino",
            "userSelected": true
          }
        }, {
          "url": "text",
          "valueString": "Hispanic or Latino"
        } ]
      } ],
      "identifier": [ {
        "type": {
          "coding": [ {
            "system": "http://terminology.hl7.org/CodeSystem/v2-0203",
            "code": "MR"
          } ]
        },
        "system": "https://bonnie-fhir.healthit.gov/",
        "value": "612e6a7002c62a011f2ea15f"
      } ],
      "active": true,
      "name": [ {
        "use": "usual",
        "family": "NUMERPass",
        "given": [ "PtRefDOGCS1DayAFAnes" ]
      } ],
      "gender": "male",
      "birthDate": "1975-01-02"
    },
    "request": {
      "method": "PUT",
      "url": "Patient/d280541b-5f7a-4b19-b82b-c2d933006f52"
    }
  }, {
    "fullUrl": "https://madie.cms.gov/Encounter/823b2220-ba40-48a7-a820-2bb93be10747",
    "resource": {
      "resourceType": "Encounter",
      "id": "823b2220-ba40-48a7-a820-2bb93be10747",
      "meta": {
        "profile": [ "http://hl7.org/fhir/us/qicore/StructureDefinition/qicore-encounter" ]
      },
      "status": "finished",
      "class": {
        "system": "http://terminology.hl7.org/CodeSystem/v3-ActCode",
        "code": "IMP",
        "display": "inpatient encounter"
      },
      "type": [ {
        "coding": [ {
          "system": "http://snomed.info/sct",
          "code": "8715000"
        } ]
      } ],
      "subject": {
        "reference": "Patient/d280541b-5f7a-4b19-b82b-c2d933006f52"
      },
      "period": {
        "start": "2026-11-01T08:00:00.000+00:00",
        "end": "2026-11-26T08:15:00.000+00:00"
      },
      "length": {
        "value": 25,
        "unit": "days"
      },
      "location": [ {
        "location": {
          "reference": "Location/d1f26dd6-2685-4247-8033-8bb94ea22694"
        },
        "period": {
          "start": "2026-11-01T09:00:00.000+00:00",
          "end": "2026-11-02T08:15:00.000+00:00"
        }
      } ]
    },
    "request": {
      "method": "PUT",
      "url": "Encounter/823b2220-ba40-48a7-a820-2bb93be10747"
    }
  }, {
    "fullUrl": "https://madie.cms.gov/Coverage/f51e3a72-5602-467d-b522-0fa33ae61923",
    "resource": {
      "resourceType": "Coverage",
      "id": "f51e3a72-5602-467d-b522-0fa33ae61923",
      "status": "active",
      "beneficiary": {
        "reference": "Patient/d280541b-5f7a-4b19-b82b-c2d933006f52"
      },
      "period": {
        "start": "1975-01-02T08:00:00.000+00:00"
      },
      "payor": [ {
        "reference": "Organization/d9ce4b31-04de-4c5d-b869-c128ace39118"
      } ]
    },
    "request": {
      "method": "PUT",
      "url": "Coverage/f51e3a72-5602-467d-b522-0fa33ae61923"
    }
  }, {
    "fullUrl": "https://madie.cms.gov/Procedure/2069e069-ce68-464b-9698-657a1117ed87",
    "resource": {
      "resourceType": "Procedure",
      "id": "2069e069-ce68-464b-9698-657a1117ed87",
      "meta": {
        "profile": [ "http://hl7.org/fhir/us/qicore/StructureDefinition/qicore-procedure" ]
      },
      "extension": [ {
        "url": "http://hl7.org/fhir/us/qicore/StructureDefinition/qicore-recorded",
        "valueDateTime": "2013-11-03T13:35:00.000+00:00"
      } ],
      "status": "completed",
      "code": {
        "coding": [ {
          "system": "http://snomed.info/sct",
          "code": "18946005"
        } ]
      },
      "subject": {
        "reference": "Patient/d280541b-5f7a-4b19-b82b-c2d933006f52"
      },
      "performedPeriod": {
        "start": "2026-11-02T09:00:00.000+00:00",
        "end": "2026-11-02T09:15:00.000+00:00"
      }
    },
    "request": {
      "method": "PUT",
      "url": "Procedure/2069e069-ce68-464b-9698-657a1117ed87"
    }
  }, {
    "fullUrl": "https://madie.cms.gov/ServiceRequest/4602c12a-cc53-4d13-94ec-6c42a461aa78",
    "resource": {
      "resourceType": "ServiceRequest",
      "id": "4602c12a-cc53-4d13-94ec-6c42a461aa78",
      "meta": {
        "profile": [ "http://hl7.org/fhir/us/qicore/StructureDefinition/qicore-servicenotrequested" ]
      },
      "extension": [ {
        "url": "http://hl7.org/fhir/us/qicore/StructureDefinition/qicore-doNotPerformReason",
        "valueCodeableConcept": {
          "coding": [ {
            "system": "http://snomed.info/sct",
            "code": "443390004",
            "display": "Refusal of treatment by patient (situation)"
          } ]
        }
      } ],
      "status": "completed",
      "intent": "order",
      "doNotPerform": true,
      "code": {
        "coding": [ {
          "system": "http://snomed.info/sct",
          "code": "348681001",
          "display": "Graduated compression elastic hosiery (physical object)",
          "userSelected": true
        } ]
      },
      "subject": {
        "reference": "Patient/d280541b-5f7a-4b19-b82b-c2d933006f52"
      },
      "authoredOn": "2026-11-03T11:00:00.000+00:00"
    },
    "request": {
      "method": "PUT",
      "url": "ServiceRequest/4602c12a-cc53-4d13-94ec-6c42a461aa78"
    }
  }, {
    "fullUrl": "https://madie.cms.gov/Location/d1f26dd6-2685-4247-8033-8bb94ea22694",
    "resource": {
      "resourceType": "Location",
      "id": "d1f26dd6-2685-4247-8033-8bb94ea22694",
      "meta": {
        "profile": [ "http://hl7.org/fhir/us/qicore/StructureDefinition/qicore-location" ]
      },
      "identifier": [ {
        "use": "usual",
        "system": "http://exampleoflocation.com",
        "value": "B1-S.F2"
      } ],
      "name": "Medical Surgical East, first floor",
      "type": [ {
        "coding": [ {
          "system": "https://www.cdc.gov/nhsn/cdaportal/terminology/codesystem/hsloc.html",
          "code": "1025-6",
          "display": "Trauma Critical Care",
          "userSelected": true
        } ]
      } ]
    },
    "request": {
      "method": "PUT",
      "url": "Location/d1f26dd6-2685-4247-8033-8bb94ea22694"
    }
  }, {
    "fullUrl": "https://madie.cms.gov/Organization/d9ce4b31-04de-4c5d-b869-c128ace39118",
    "resource": {
      "resourceType": "Organization",
      "id": "d9ce4b31-04de-4c5d-b869-c128ace39118",
      "meta": {
        "profile": [ "http://hl7.org/fhir/us/qicore/StructureDefinition/qicore-organization" ]
      },
      "identifier": [ {
        "use": "temp",
        "system": "urn:oid:2.16.840.1.113883.4.4",
        "value": "21-3259825"
      } ],
      "active": true,
      "type": [ {
        "coding": [ {
          "system": "http://terminology.hl7.org/CodeSystem/organization-type",
          "code": "pay",
          "display": "Payer"
        } ]
      } ],
      "name": "Blue Cross Blue Shield of Texas",
      "telecom": [ {
        "system": "phone",
        "value": "(+1) 972-766-6900"
      } ],
      "address": [ {
        "use": "billing",
        "type": "postal",
        "line": [ "P.O. Box 660044" ],
        "city": "Dallas",
        "state": "TX",
        "postalCode": "75266-0044",
        "country": "USA"
      } ]
    },
    "request": {
      "method": "PUT",
      "url": "Organization/d9ce4b31-04de-4c5d-b869-c128ace39118"
    }
  }, {
    "fullUrl": "https://madie.cms.gov/Practitioner/cf74ec30-a6e5-4ef1-a440-b4b53f1a13d1",
    "resource": {
      "resourceType": "Practitioner",
      "id": "cf74ec30-a6e5-4ef1-a440-b4b53f1a13d1",
      "identifier": [ {
        "system": "http://hl7.org/fhir/sid/us-npi",
        "value": "123456"
      } ],
      "name": [ {
        "family": "Evil",
        "prefix": [ "Dr" ]
      } ]
    },
    "request": {
      "method": "PUT",
      "url": "Practitioner/cf74ec30-a6e5-4ef1-a440-b4b53f1a13d1"
    }
  }, {
    "fullUrl": "https://madie.cms.gov/MeasureReport/22e24ae6-3c70-41bf-b567-efdf9dbfac08",
    "resource": {
      "resourceType": "MeasureReport",
      "id": "22e24ae6-3c70-41bf-b567-efdf9dbfac08",
      "meta": {
        "profile": [ "http://hl7.org/fhir/us/cqfmeasures/StructureDefinition/test-case-cqfm" ]
      },
      "contained": [ {
        "resourceType": "Parameters",
        "id": "4b676f80-7146-4b1b-a11f-54ffaed5a4c5-parameters",
        "parameter": [ {
          "name": "subject",
          "valueString": "d280541b-5f7a-4b19-b82b-c2d933006f52"
        } ]
      } ],
      "extension": [ {
        "url": "http://hl7.org/fhir/StructureDefinition/cqf-inputParameters",
        "valueReference": {
          "reference": "#4b676f80-7146-4b1b-a11f-54ffaed5a4c5-parameters"
        }
      }, {
        "url": "http://hl7.org/fhir/us/cqfmeasures/StructureDefinition/cqfm-testCaseDescription",
        "valueMarkdown": "meets IPP, meets Denominator, GCS ordered not done i day after Anesthesia\n"
      } ],
      "modifierExtension": [ {
        "url": "http://hl7.org/fhir/us/cqfmeasures/StructureDefinition/cqfm-isTestCase",
        "valueBoolean": true
      } ],
      "status": "complete",
      "type": "individual",
      "measure": "https://madie.cms.gov/Measure/CMS190VTEProphylaxisICUFHIR",
      "period": {
        "start": "2026-01-01",
        "end": "2026-12-31"
      },
      "group": [ {
        "id": "Group_1",
        "population": [ {
          "id": "InitialPopulation_1",
          "code": {
            "coding": [ {
              "system": "http://terminology.hl7.org/CodeSystem/measure-population",
              "code": "initial-population",
              "display": "Initial Population"
            } ]
          },
          "count": 1
        }, {
          "id": "Denominator_1",
          "code": {
            "coding": [ {
              "system": "http://terminology.hl7.org/CodeSystem/measure-population",
              "code": "denominator",
              "display": "Denominator"
            } ]
          },
          "count": 1
        }, {
          "id": "DenominatorExclusion_1",
          "code": {
            "coding": [ {
              "system": "http://terminology.hl7.org/CodeSystem/measure-population",
              "code": "denominator-exclusion",
              "display": "Denominator Exclusion"
            } ]
          },
          "count": 0
        }, {
          "id": "Numerator_1",
          "code": {
            "coding": [ {
              "system": "http://terminology.hl7.org/CodeSystem/measure-population",
              "code": "numerator",
              "display": "Numerator"
            } ]
          },
          "count": 1
        }, {
          "id": "DenominatorException_1",
          "code": {
            "coding": [ {
              "system": "http://terminology.hl7.org/CodeSystem/measure-population",
              "code": "denominator-exception",
              "display": "Denominator Exception"
            } ]
          },
          "count": 0
        } ],
        "measureScore": {
          "value": 0.0
        }
      } ],
      "evaluatedResource": [ {
        "reference": "Patient/d280541b-5f7a-4b19-b82b-c2d933006f52"
      }, {
        "reference": "Encounter/823b2220-ba40-48a7-a820-2bb93be10747"
      }, {
        "reference": "Coverage/f51e3a72-5602-467d-b522-0fa33ae61923"
      }, {
        "reference": "Procedure/2069e069-ce68-464b-9698-657a1117ed87"
      }, {
        "reference": "ServiceRequest/4602c12a-cc53-4d13-94ec-6c42a461aa78"
      }, {
        "reference": "Location/d1f26dd6-2685-4247-8033-8bb94ea22694"
      }, {
        "reference": "Organization/d9ce4b31-04de-4c5d-b869-c128ace39118"
      }, {
        "reference": "Practitioner/cf74ec30-a6e5-4ef1-a440-b4b53f1a13d1"
      } ]
    },
    "request": {
      "method": "PUT",
      "url": "MeasureReport/22e24ae6-3c70-41bf-b567-efdf9dbfac08"
    }
  } ]
}