{
  "resourceType": "Bundle",
  "id": "6359776b6aee9629c8298235",
  "type": "transaction",
  "entry": [ {
    "fullUrl": "https://madie.cms.gov/Patient/34de40ad-a4f3-471b-be6d-825e2b4df485",
    "resource": {
      "resourceType": "Patient",
      "id": "34de40ad-a4f3-471b-be6d-825e2b4df485",
      "meta": {
        "profile": [ "http://hl7.org/fhir/us/qicore/StructureDefinition/qicore-patient" ]
      },
      "text": {
        "status": "generated",
        "div": "<div xmlns=\"http://www.w3.org/1999/xhtml\"><div class=\"hapiHeaderText\">2HCT1stisNull2ndIsGood<b>RISKFail</b></div><table class=\"hapiPropertyTable\"><tbody><tr><td>Date of birth</td><td><span>01 February 2004</span></td></tr></tbody></table></div>"
      },
      "extension": [ {
        "url": "http://hl7.org/fhir/us/core/StructureDefinition/us-core-race",
        "extension": [ {
          "url": "ombCategory",
          "valueCoding": {
            "system": "urn:oid:2.16.840.1.113883.6.238",
            "code": "1002-5",
            "display": "American Indian or Alaska Native",
            "userSelected": true
          }
        }, {
          "url": "text",
          "valueString": "American Indian or Alaska Native"
        } ]
      }, {
        "url": "http://hl7.org/fhir/us/core/StructureDefinition/us-core-ethnicity",
        "extension": [ {
          "url": "ombCategory",
          "valueCoding": {
            "system": "urn:oid:2.16.840.1.113883.6.238",
            "code": "2135-2",
            "display": "Hispanic or Latino",
            "userSelected": true
          }
        }, {
          "url": "text",
          "valueString": "Hispanic or Latino"
        } ]
      } ],
      "identifier": [ {
        "type": {
          "coding": [ {
            "system": "http://terminology.hl7.org/CodeSystem/v2-0203",
            "code": "MR"
          } ]
        },
        "system": "https://bonnie-fhir.healthit.gov/",
        "value": "6359776b6aee9629c8298235"
      } ],
      "active": true,
      "name": [ {
        "use": "usual",
        "family": "RISKFail",
        "given": [ "2HCT1stisNull2ndIsGood" ]
      } ],
      "gender": "female",
      "birthDate": "2005-02-01"
    },
    "request": {
      "method": "PUT",
      "url": "Patient/34de40ad-a4f3-471b-be6d-825e2b4df485"
    }
  }, {
    "fullUrl": "https://madie.cms.gov/Observation/45d3a414-c9c4-4cfd-a3d6-18a79f123bce",
    "resource": {
      "resourceType": "Observation",
      "id": "45d3a414-c9c4-4cfd-a3d6-18a79f123bce",
      "meta": {
        "profile": [ "http://hl7.org/fhir/us/qicore/StructureDefinition/qicore-simple-observation" ]
      },
      "status": "final",
      "category": [ {
        "coding": [ {
          "system": "http://terminology.hl7.org/CodeSystem/observation-category",
          "code": "exam",
          "display": "exam",
          "userSelected": true
        } ]
      } ],
      "code": {
        "coding": [ {
          "system": "http://loinc.org",
          "code": "93857-1"
        } ]
      },
      "subject": {
        "reference": "Patient/34de40ad-a4f3-471b-be6d-825e2b4df485"
      },
      "effectiveDateTime": "2026-02-01T08:15:00Z",
      "performer": [ {
        "reference": "Organization/example1",
        "display": "Hendricks Country Hospital"
      } ],
      "valueDateTime": "2026-02-01T08:15:00Z"
    },
    "request": {
      "method": "PUT",
      "url": "Observation/45d3a414-c9c4-4cfd-a3d6-18a79f123bce"
    }
  }, {
    "fullUrl": "https://madie.cms.gov/Condition/416c1a08-2899-4a0b-b81f-7d25ba61a3bc",
    "resource": {
      "resourceType": "Condition",
      "id": "416c1a08-2899-4a0b-b81f-7d25ba61a3bc",
      "meta": {
        "profile": [ "http://hl7.org/fhir/us/qicore/StructureDefinition/qicore-condition-encounter-diagnosis" ]
      },
      "category": [ {
        "coding": [ {
          "system": "http://terminology.hl7.org/CodeSystem/condition-category",
          "code": "encounter-diagnosis",
          "display": "Encounter Diagnosis"
        } ]
      } ],
      "code": {
        "coding": [ {
          "system": "http://hl7.org/fhir/sid/icd-10-cm",
          "version": "2023",
          "code": "Z3A.21",
          "display": "21 weeks gestation",
          "userSelected": true
        } ]
      },
      "subject": {
        "reference": "Patient/34de40ad-a4f3-471b-be6d-825e2b4df485"
      },
      "recordedDate": "2026-10-26T08:00:00Z"
    },
    "request": {
      "method": "PUT",
      "url": "Condition/416c1a08-2899-4a0b-b81f-7d25ba61a3bc"
    }
  }, {
    "fullUrl": "https://madie.cms.gov/Encounter/f0e548d8-0312-4f51-90b0-107e8c681d37",
    "resource": {
      "resourceType": "Encounter",
      "id": "f0e548d8-0312-4f51-90b0-107e8c681d37",
      "meta": {
        "profile": [ "http://hl7.org/fhir/us/qicore/StructureDefinition/qicore-encounter" ]
      },
      "status": "finished",
      "class": {
        "system": "http://terminology.hl7.org/CodeSystem/v3-ActCode",
        "code": "IMP",
        "display": "inpatient encounter"
      },
      "type": [ {
        "coding": [ {
          "system": "http://snomed.info/sct",
          "code": "183452005"
        } ]
      } ],
      "subject": {
        "reference": "Patient/34de40ad-a4f3-471b-be6d-825e2b4df485"
      },
      "period": {
        "start": "2026-02-01T08:00:00Z",
        "end": "2026-02-05T08:15:00Z"
      },
      "reasonReference": [ {
        "reference": "Condition/416c1a08-2899-4a0b-b81f-7d25ba61a3bc"
      } ]
    },
    "request": {
      "method": "PUT",
      "url": "Encounter/f0e548d8-0312-4f51-90b0-107e8c681d37"
    }
  }, {
    "fullUrl": "https://madie.cms.gov/Encounter/a363a9ec-6854-419e-a789-6167a8f6b6e2",
    "resource": {
      "resourceType": "Encounter",
      "id": "a363a9ec-6854-419e-a789-6167a8f6b6e2",
      "meta": {
        "profile": [ "http://hl7.org/fhir/us/qicore/StructureDefinition/qicore-encounter" ]
      },
      "status": "finished",
      "class": {
        "system": "http://terminology.hl7.org/CodeSystem/v3-ActCode",
        "code": "EMER",
        "display": "emergency"
      },
      "type": [ {
        "coding": [ {
          "system": "http://snomed.info/sct",
          "code": "4525004"
        } ]
      } ],
      "subject": {
        "reference": "Patient/34de40ad-a4f3-471b-be6d-825e2b4df485"
      },
      "period": {
        "start": "2026-02-01T07:00:00Z",
        "end": "2026-02-01T07:59:00Z"
      }
    },
    "request": {
      "method": "PUT",
      "url": "Encounter/a363a9ec-6854-419e-a789-6167a8f6b6e2"
    }
  }, {
    "fullUrl": "https://madie.cms.gov/Procedure/d94ac0c0-c2f7-4c49-bc58-66afda6f8f24",
    "resource": {
      "resourceType": "Procedure",
      "id": "d94ac0c0-c2f7-4c49-bc58-66afda6f8f24",
      "meta": {
        "profile": [ "http://hl7.org/fhir/us/qicore/StructureDefinition/qicore-procedure" ]
      },
      "extension": [ {
        "url": "http://hl7.org/fhir/us/qicore/StructureDefinition/qicore-recorded",
        "valueDateTime": "2026-02-04T13:35:00Z"
      } ],
      "status": "completed",
      "code": {
        "coding": [ {
          "system": "http://snomed.info/sct",
          "code": "10745001"
        } ]
      },
      "subject": {
        "reference": "Patient/34de40ad-a4f3-471b-be6d-825e2b4df485"
      },
      "performedPeriod": {
        "start": "2026-02-01T08:00:00Z",
        "end": "2026-02-05T08:15:00Z"
      }
    },
    "request": {
      "method": "PUT",
      "url": "Procedure/d94ac0c0-c2f7-4c49-bc58-66afda6f8f24"
    }
  }, {
    "fullUrl": "https://madie.cms.gov/Observation/285b2d19-6b20-4723-a65d-0506895ca055",
    "resource": {
      "resourceType": "Observation",
      "id": "285b2d19-6b20-4723-a65d-0506895ca055",
      "meta": {
        "profile": [ "http://hl7.org/fhir/us/qicore/StructureDefinition/qicore-observation-lab" ]
      },
      "status": "final",
      "category": [ {
        "coding": [ {
          "system": "http://terminology.hl7.org/CodeSystem/observation-category",
          "code": "laboratory",
          "display": "laboratory",
          "userSelected": true
        } ]
      } ],
      "code": {
        "coding": [ {
          "system": "http://loinc.org",
          "version": "2.73",
          "code": "20570-8",
          "display": "Hematocrit [Volume Fraction] in Blood",
          "userSelected": true
        } ]
      },
      "subject": {
        "reference": "Patient/34de40ad-a4f3-471b-be6d-825e2b4df485"
      },
      "effectiveDateTime": "2026-02-01T08:01:00Z",
      "issued": "2026-02-01T08:01:00Z",
      "valueQuantity": {
        "unit": "%"
      }
    },
    "request": {
      "method": "PUT",
      "url": "Observation/285b2d19-6b20-4723-a65d-0506895ca055"
    }
  }, {
    "fullUrl": "https://madie.cms.gov/Observation/285b2d19-6b20-4723-a65d-0506895ca055-b",
    "resource": {
      "resourceType": "Observation",
      "id": "285b2d19-6b20-4723-a65d-0506895ca055-b",
      "meta": {
        "profile": [ "http://hl7.org/fhir/us/core/StructureDefinition/us-core-observation-lab" ]
      },
      "status": "final",
      "category": [ {
        "coding": [ {
          "system": "http://terminology.hl7.org/CodeSystem/observation-category",
          "code": "laboratory",
          "display": "laboratory",
          "userSelected": true
        } ]
      } ],
      "code": {
        "coding": [ {
          "system": "http://loinc.org",
          "version": "2.73",
          "code": "20570-8",
          "display": "Hematocrit [Volume Fraction] in Blood",
          "userSelected": true
        } ]
      },
      "subject": {
        "reference": "Patient/34de40ad-a4f3-471b-be6d-825e2b4df485"
      },
      "effectiveDateTime": "2026-02-01T08:02:00Z",
      "issued": "2026-02-01T08:02:00Z",
      "valueQuantity": {
        "value": 20,
        "unit": "%"
      }
    },
    "request": {
      "method": "PUT",
      "url": "Observation/285b2d19-6b20-4723-a65d-0506895ca055-b"
    }
  }, {
    "fullUrl": "https://madie.cms.gov/MeasureReport/627cdd79-9947-4998-999d-c51bf0a95466",
    "resource": {
      "resourceType": "MeasureReport",
      "id": "627cdd79-9947-4998-999d-c51bf0a95466",
      "meta": {
        "profile": [ "http://hl7.org/fhir/us/cqfmeasures/StructureDefinition/test-case-cqfm" ]
      },
      "contained": [ {
        "resourceType": "Parameters",
        "id": "b1a41268-e8cb-48d7-997f-311590c8b572-parameters",
        "parameter": [ {
          "name": "subject",
          "valueString": "34de40ad-a4f3-471b-be6d-825e2b4df485"
        } ]
      } ],
      "extension": [ {
        "url": "http://hl7.org/fhir/StructureDefinition/cqf-inputParameters",
        "valueReference": {
          "reference": "#b1a41268-e8cb-48d7-997f-311590c8b572-parameters"
        }
      }, {
        "url": "http://hl7.org/fhir/us/cqfmeasures/StructureDefinition/cqfm-testCaseDescription",
        "valueMarkdown": "2 hematocrits.  1st value is null, 2nd is good."
      } ],
      "modifierExtension": [ {
        "url": "http://hl7.org/fhir/us/cqfmeasures/StructureDefinition/cqfm-isTestCase",
        "valueBoolean": true
      } ],
      "status": "complete",
      "type": "individual",
      "measure": "https://madie.cms.gov/Measure/CMS1028FHIRPCSevereOBComps",
      "period": {
        "start": "2026-01-01",
        "end": "2026-12-31"
      },
      "group": [ {
        "id": "Group_1",
        "population": [ {
          "id": "InitialPopulation_1",
          "code": {
            "coding": [ {
              "system": "http://terminology.hl7.org/CodeSystem/measure-population",
              "code": "initial-population",
              "display": "Initial Population"
            } ]
          },
          "count": 1
        }, {
          "id": "Denominator_1",
          "code": {
            "coding": [ {
              "system": "http://terminology.hl7.org/CodeSystem/measure-population",
              "code": "denominator",
              "display": "Denominator"
            } ]
          },
          "count": 1
        }, {
          "id": "Numerator_1",
          "code": {
            "coding": [ {
              "system": "http://terminology.hl7.org/CodeSystem/measure-population",
              "code": "numerator",
              "display": "Numerator"
            } ]
          },
          "count": 0
        }, {
          "id": "NumeratorExclusion_1",
          "code": {
            "coding": [ {
              "system": "http://terminology.hl7.org/CodeSystem/measure-population",
              "code": "numerator-exclusion",
              "display": "Numerator Exclusion"
            } ]
          },
          "count": 0
        } ],
        "measureScore": {
          "value": 0.0
        }
      }, {
        "id": "Group_2",
        "population": [ {
          "id": "InitialPopulation_2",
          "code": {
            "coding": [ {
              "system": "http://terminology.hl7.org/CodeSystem/measure-population",
              "code": "initial-population",
              "display": "Initial Population"
            } ]
          },
          "count": 1
        }, {
          "id": "Denominator_2",
          "code": {
            "coding": [ {
              "system": "http://terminology.hl7.org/CodeSystem/measure-population",
              "code": "denominator",
              "display": "Denominator"
            } ]
          },
          "count": 1
        }, {
          "id": "Numerator_2",
          "code": {
            "coding": [ {
              "system": "http://terminology.hl7.org/CodeSystem/measure-population",
              "code": "numerator",
              "display": "Numerator"
            } ]
          },
          "count": 0
        }, {
          "id": "NumeratorExclusion_2",
          "code": {
            "coding": [ {
              "system": "http://terminology.hl7.org/CodeSystem/measure-population",
              "code": "numerator-exclusion",
              "display": "Numerator Exclusion"
            } ]
          },
          "count": 0
        } ],
        "measureScore": {
          "value": 0.0
        }
      } ],
      "evaluatedResource": [ {
        "reference": "Patient/34de40ad-a4f3-471b-be6d-825e2b4df485"
      }, {
        "reference": "Observation/45d3a414-c9c4-4cfd-a3d6-18a79f123bce"
      }, {
        "reference": "Condition/416c1a08-2899-4a0b-b81f-7d25ba61a3bc"
      }, {
        "reference": "Encounter/f0e548d8-0312-4f51-90b0-107e8c681d37"
      }, {
        "reference": "Encounter/a363a9ec-6854-419e-a789-6167a8f6b6e2"
      }, {
        "reference": "Procedure/d94ac0c0-c2f7-4c49-bc58-66afda6f8f24"
      }, {
        "reference": "Observation/285b2d19-6b20-4723-a65d-0506895ca055"
      }, {
        "reference": "Observation/285b2d19-6b20-4723-a65d-0506895ca055-b"
      } ]
    },
    "request": {
      "method": "PUT",
      "url": "MeasureReport/627cdd79-9947-4998-999d-c51bf0a95466"
    }
  } ]
}