{
  "resourceType": "Bundle",
  "id": "610965b898086b538055c14b",
  "type": "transaction",
  "entry": [
    {
      "fullUrl": "https://madie.cms.gov/Patient/502b83a5-cd3c-40b0-9dc0-051d6292b33b",
      "resource": {
        "resourceType": "Patient",
        "id": "502b83a5-cd3c-40b0-9dc0-051d6292b33b",
        "meta": {
          "profile": [
            "http://hl7.org/fhir/us/qicore/StructureDefinition/qicore-patient"
          ]
        },
        "text": {
          "status": "generated",
          "div": "<div xmlns=\"http://www.w3.org/1999/xhtml\"><div class=\"hapiHeaderText\">NoHIVDiag <b>DENEXFAIL </b></div><table class=\"hapiPropertyTable\"><tbody><tr><td>Identifier</td><td>8de0ab14b056fcd32f87b213d0f959e9c5ee73f04fd5302ce5e21711fa269223</td></tr><tr><td>Date of birth</td><td><span>31 July 1992</span></td></tr></tbody></table></div>"
        },
        "extension": [
          {
            "url": "http://hl7.org/fhir/us/core/StructureDefinition/us-core-race",
            "extension": [
              {
                "url": "ombCategory",
                "valueCoding": {
                  "system": "urn:oid:2.16.840.1.113883.6.238",
                  "code": "2076-8",
                  "display": "Native Hawaiian or Other Pacific Islander",
                  "userSelected": true
                }
              },
              {
                "url": "text",
                "valueString": "Native Hawaiian or Other Pacific Islander"
              }
            ]
          },
          {
            "url": "http://hl7.org/fhir/us/core/StructureDefinition/us-core-ethnicity",
            "extension": [
              {
                "url": "ombCategory",
                "valueCoding": {
                  "system": "urn:oid:2.16.840.1.113883.6.238",
                  "code": "2135-2",
                  "display": "Hispanic or Latino",
                  "userSelected": true
                }
              },
              {
                "url": "text",
                "valueString": "Hispanic or Latino"
              }
            ]
          }
        ],
        "identifier": [
          {
            "type": {
              "coding": [
                {
                  "system": "http://terminology.hl7.org/CodeSystem/v2-0203",
                  "code": "MR"
                }
              ]
            },
            "system": "https://bonnie-fhir.healthit.gov/",
            "value": "610965b898086b538055c14b"
          }
        ],
        "active": true,
        "name": [
          {
            "use": "usual",
            "family": "DENEXFail",
            "given": [
              "NoHIVDiag"
            ]
          }
        ],
        "gender": "male",
        "birthDate": "1993-07-31"
      },
      "request": {
        "method": "PUT",
        "url": "Patient/502b83a5-cd3c-40b0-9dc0-051d6292b33b"
      }
    },
    {
      "fullUrl": "https://madie.cms.gov/Encounter/8dbae912-6fab-4bd8-bc8e-970fe83dd183",
      "resource": {
        "resourceType": "Encounter",
        "id": "8dbae912-6fab-4bd8-bc8e-970fe83dd183",
        "meta": {
          "profile": [
            "http://hl7.org/fhir/us/qicore/StructureDefinition/qicore-encounter"
          ]
        },
        "status": "finished",
        "class": {
          "system": "http://terminology.hl7.org/CodeSystem/v3-ActCode",
          "code": "AMB",
          "display": "ambulatory",
          "userSelected": true
        },
        "type": [
          {
            "coding": [
              {
                "system": "http://www.ama-assn.org/go/cpt",
                "code": "99395"
              }
            ]
          }
        ],
        "subject": {
          "reference": "Patient/502b83a5-cd3c-40b0-9dc0-051d6292b33b"
        },
        "period": {
          "start": "2025-10-24T08:00:00.000+00:00",
          "end": "2025-10-24T08:15:00.000+00:00"
        }
      },
      "request": {
        "method": "PUT",
        "url": "Encounter/8dbae912-6fab-4bd8-bc8e-970fe83dd183"
      }
    },
    {
      "fullUrl": "https://madie.cms.gov/MeasureReport/e6e99b58-2fa9-4326-ae50-7d736c57bb4d",
      "resource": {
        "resourceType": "MeasureReport",
        "id": "e6e99b58-2fa9-4326-ae50-7d736c57bb4d",
        "meta": {
          "profile": [
            "http://hl7.org/fhir/us/cqfmeasures/StructureDefinition/test-case-cqfm"
          ]
        },
        "contained": [
          {
            "resourceType": "Parameters",
            "id": "cd02d110-0a97-47e2-ae7c-3244e80afd94-parameters",
            "parameter": [
              {
                "name": "subject",
                "valueString": "502b83a5-cd3c-40b0-9dc0-051d6292b33b"
              }
            ]
          }
        ],
        "extension": [
          {
            "url": "http://hl7.org/fhir/us/cqfmeasures/StructureDefinition/cqfm-inputParameters",
            "valueReference": {
              "reference": "#cd02d110-0a97-47e2-ae7c-3244e80afd94-parameters"
            }
          },
          {
            "url": "http://hl7.org/fhir/us/cqfmeasures/StructureDefinition/cqfm-testCaseDescription",
            "valueMarkdown": "Patient 31 at start of MP, qualifying encounter during MP, no HIV diagnosis."
          }
        ],
        "modifierExtension": [
          {
            "url": "http://hl7.org/fhir/us/cqfmeasures/StructureDefinition/cqfm-isTestCase",
            "valueBoolean": true
          }
        ],
        "status": "complete",
        "type": "individual",
        "measure": "https://madie.cms.gov/Measure/HIVScreeningFHIR",
        "period": {
          "start": "2025-01-01",
          "end": "2025-12-31"
        },
        "group": [
          {
            "population": [
              {
                "code": {
                  "coding": [
                    {
                      "system": "http://terminology.hl7.org/CodeSystem/measure-population",
                      "code": "initial-population",
                      "display": "Initial Population"
                    }
                  ]
                },
                "count": 1
              },
              {
                "code": {
                  "coding": [
                    {
                      "system": "http://terminology.hl7.org/CodeSystem/measure-population",
                      "code": "denominator",
                      "display": "Denominator"
                    }
                  ]
                },
                "count": 1
              },
              {
                "code": {
                  "coding": [
                    {
                      "system": "http://terminology.hl7.org/CodeSystem/measure-population",
                      "code": "denominator-exclusion",
                      "display": "Denominator Exclusion"
                    }
                  ]
                },
                "count": 0
              },
              {
                "code": {
                  "coding": [
                    {
                      "system": "http://terminology.hl7.org/CodeSystem/measure-population",
                      "code": "numerator",
                      "display": "Numerator"
                    }
                  ]
                },
                "count": 0
              }
            ]
          }
        ],
        "evaluatedResource": [
          {
            "reference": "Patient/502b83a5-cd3c-40b0-9dc0-051d6292b33b"
          },
          {
            "reference": "Encounter/8dbae912-6fab-4bd8-bc8e-970fe83dd183"
          }
        ]
      },
      "request": {
        "method": "PUT",
        "url": "MeasureReport/e6e99b58-2fa9-4326-ae50-7d736c57bb4d"
      }
    }
  ]
}