{
  "resourceType": "Bundle",
  "id": "610965b998086b538055c15a",
  "type": "transaction",
  "entry": [
    {
      "fullUrl": "https://madie.cms.gov/Patient/a7e2c83c-9c45-428a-ac31-b80a85f0046b",
      "resource": {
        "resourceType": "Patient",
        "id": "a7e2c83c-9c45-428a-ac31-b80a85f0046b",
        "meta": {
          "profile": [
            "http://hl7.org/fhir/us/qicore/StructureDefinition/qicore-patient"
          ]
        },
        "text": {
          "status": "generated",
          "div": "<div xmlns=\"http://www.w3.org/1999/xhtml\"><div class=\"hapiHeaderText\">TwoInvalidEncs <b>IPPFAIL </b></div><table class=\"hapiPropertyTable\"><tbody><tr><td>Identifier</td><td>3f32d52744f86ba776a08958282d8c783d541b6e898e64a7e1df9ffd69c42a02</td></tr><tr><td>Date of birth</td><td><span>31 July 1992</span></td></tr></tbody></table></div>"
        },
        "extension": [
          {
            "url": "http://hl7.org/fhir/us/core/StructureDefinition/us-core-race",
            "extension": [
              {
                "url": "ombCategory",
                "valueCoding": {
                  "system": "urn:oid:2.16.840.1.113883.6.238",
                  "code": "1002-5",
                  "display": "American Indian or Alaska Native",
                  "userSelected": true
                }
              },
              {
                "url": "text",
                "valueString": "American Indian or Alaska Native"
              }
            ]
          },
          {
            "url": "http://hl7.org/fhir/us/core/StructureDefinition/us-core-ethnicity",
            "extension": [
              {
                "url": "ombCategory",
                "valueCoding": {
                  "system": "urn:oid:2.16.840.1.113883.6.238",
                  "code": "2135-2",
                  "display": "Hispanic or Latino",
                  "userSelected": true
                }
              },
              {
                "url": "text",
                "valueString": "Hispanic or Latino"
              }
            ]
          }
        ],
        "identifier": [
          {
            "type": {
              "coding": [
                {
                  "system": "http://terminology.hl7.org/CodeSystem/v2-0203",
                  "code": "MR"
                }
              ]
            },
            "system": "https://bonnie-fhir.healthit.gov/",
            "value": "610965b998086b538055c15a"
          }
        ],
        "active": true,
        "name": [
          {
            "use": "usual",
            "family": "IPPFail",
            "given": [
              "TwoInvalidEncs"
            ]
          }
        ],
        "gender": "female",
        "birthDate": "1993-07-31"
      },
      "request": {
        "method": "PUT",
        "url": "Patient/a7e2c83c-9c45-428a-ac31-b80a85f0046b"
      }
    },
    {
      "fullUrl": "https://madie.cms.gov/Encounter/a078aeae-a264-4f82-9e7c-25cb75316231",
      "resource": {
        "resourceType": "Encounter",
        "id": "a078aeae-a264-4f82-9e7c-25cb75316231",
        "meta": {
          "profile": [
            "http://hl7.org/fhir/us/qicore/StructureDefinition/qicore-encounter"
          ]
        },
        "status": "finished",
        "class": {
          "system": "http://terminology.hl7.org/CodeSystem/v3-ActCode",
          "code": "AMB",
          "display": "ambulatory",
          "userSelected": true
        },
        "type": [
          {
            "coding": [
              {
                "system": "http://www.ama-assn.org/go/cpt",
                "code": "99201"
              }
            ]
          }
        ],
        "subject": {
          "reference": "Patient/a7e2c83c-9c45-428a-ac31-b80a85f0046b"
        }
      },
      "request": {
        "method": "PUT",
        "url": "Encounter/a078aeae-a264-4f82-9e7c-25cb75316231"
      }
    },
    {
      "fullUrl": "https://madie.cms.gov/MeasureReport/4c9b016e-dd25-4c7c-b35e-5600bebc3d82",
      "resource": {
        "resourceType": "MeasureReport",
        "id": "4c9b016e-dd25-4c7c-b35e-5600bebc3d82",
        "meta": {
          "profile": [
            "http://hl7.org/fhir/us/cqfmeasures/StructureDefinition/test-case-cqfm"
          ]
        },
        "contained": [
          {
            "resourceType": "Parameters",
            "id": "06028ea4-eb3c-4ab9-b3a3-35b4c5ce0d12-parameters",
            "parameter": [
              {
                "name": "subject",
                "valueString": "a7e2c83c-9c45-428a-ac31-b80a85f0046b"
              }
            ]
          }
        ],
        "extension": [
          {
            "url": "http://hl7.org/fhir/us/cqfmeasures/StructureDefinition/cqfm-inputParameters",
            "valueReference": {
              "reference": "#06028ea4-eb3c-4ab9-b3a3-35b4c5ce0d12-parameters"
            }
          },
          {
            "url": "http://hl7.org/fhir/us/cqfmeasures/StructureDefinition/cqfm-testCaseDescription",
            "valueMarkdown": "Patient qualifies by age, but encounters are not valid"
          }
        ],
        "modifierExtension": [
          {
            "url": "http://hl7.org/fhir/us/cqfmeasures/StructureDefinition/cqfm-isTestCase",
            "valueBoolean": true
          }
        ],
        "status": "complete",
        "type": "individual",
        "measure": "https://madie.cms.gov/Measure/HIVScreeningFHIR",
        "period": {
          "start": "2025-01-01",
          "end": "2025-12-31"
        },
        "group": [
          {
            "population": [
              {
                "code": {
                  "coding": [
                    {
                      "system": "http://terminology.hl7.org/CodeSystem/measure-population",
                      "code": "initial-population",
                      "display": "Initial Population"
                    }
                  ]
                },
                "count": 0
              },
              {
                "code": {
                  "coding": [
                    {
                      "system": "http://terminology.hl7.org/CodeSystem/measure-population",
                      "code": "denominator",
                      "display": "Denominator"
                    }
                  ]
                },
                "count": 0
              },
              {
                "code": {
                  "coding": [
                    {
                      "system": "http://terminology.hl7.org/CodeSystem/measure-population",
                      "code": "denominator-exclusion",
                      "display": "Denominator Exclusion"
                    }
                  ]
                },
                "count": 0
              },
              {
                "code": {
                  "coding": [
                    {
                      "system": "http://terminology.hl7.org/CodeSystem/measure-population",
                      "code": "numerator",
                      "display": "Numerator"
                    }
                  ]
                },
                "count": 0
              }
            ]
          }
        ],
        "evaluatedResource": [
          {
            "reference": "Patient/a7e2c83c-9c45-428a-ac31-b80a85f0046b"
          },
          {
            "reference": "Encounter/a078aeae-a264-4f82-9e7c-25cb75316231"
          }
        ]
      },
      "request": {
        "method": "PUT",
        "url": "MeasureReport/4c9b016e-dd25-4c7c-b35e-5600bebc3d82"
      }
    }
  ]
}