{
  "resourceType": "Bundle",
  "id": "612e6b0202c62a011f2ec156",
  "type": "transaction",
  "entry": [ {
    "fullUrl": "https://madie.cms.gov/Patient/eb754c68-82c7-48cd-a2f0-26ee1cd92544",
    "resource": {
      "resourceType": "Patient",
      "id": "eb754c68-82c7-48cd-a2f0-26ee1cd92544",
      "meta": {
        "profile": [ "http://hl7.org/fhir/us/qicore/StructureDefinition/qicore-patient" ]
      },
      "text": {
        "status": "generated",
        "div": "<div xmlns=\"http://www.w3.org/1999/xhtml\"><div class=\"hapiHeaderText\">SCIP_HipFxRank1_SMDCT <b>DENEXPASS </b></div><table class=\"hapiPropertyTable\"><tbody><tr><td>Identifier</td><td>66c70c125db369967b4b164e75338304</td></tr><tr><td>Date of birth</td><td><span>01 September 2000</span></td></tr></tbody></table></div>"
      },
      "extension": [ {
        "url": "http://hl7.org/fhir/us/core/StructureDefinition/us-core-race",
        "extension": [ {
          "url": "ombCategory",
          "valueCoding": {
            "system": "urn:oid:2.16.840.1.113883.6.238",
            "code": "1002-5",
            "display": "American Indian or Alaska Native",
            "userSelected": true
          }
        }, {
          "url": "text",
          "valueString": "American Indian or Alaska Native"
        } ]
      }, {
        "url": "http://hl7.org/fhir/us/core/StructureDefinition/us-core-ethnicity",
        "extension": [ {
          "url": "ombCategory",
          "valueCoding": {
            "system": "urn:oid:2.16.840.1.113883.6.238",
            "code": "2135-2",
            "display": "Hispanic or Latino",
            "userSelected": true
          }
        }, {
          "url": "text",
          "valueString": "Hispanic or Latino"
        } ]
      } ],
      "identifier": [ {
        "type": {
          "coding": [ {
            "system": "http://terminology.hl7.org/CodeSystem/v2-0203",
            "code": "MR"
          } ]
        },
        "system": "https://bonnie-fhir.healthit.gov/",
        "value": "612e6b0202c62a011f2ec156"
      } ],
      "active": true,
      "name": [ {
        "use": "usual",
        "family": "DENEXPass ",
        "given": [ "SCIPHipFxRank1SMDCT" ]
      } ],
      "gender": "male",
      "birthDate": "2001-09-01"
    },
    "request": {
      "method": "PUT",
      "url": "Patient/eb754c68-82c7-48cd-a2f0-26ee1cd92544"
    }
  }, {
    "fullUrl": "https://madie.cms.gov/Encounter/51988dc8-bfae-4da3-9d93-3320a5d2ccbd",
    "resource": {
      "resourceType": "Encounter",
      "id": "51988dc8-bfae-4da3-9d93-3320a5d2ccbd",
      "meta": {
        "profile": [ "http://hl7.org/fhir/us/qicore/StructureDefinition/qicore-encounter" ]
      },
      "status": "finished",
      "class": {
        "system": "http://terminology.hl7.org/CodeSystem/v3-ActCode",
        "code": "IMP",
        "display": "inpatient encounter"
      },
      "type": [ {
        "coding": [ {
          "system": "http://snomed.info/sct",
          "code": "183452005"
        } ]
      } ],
      "subject": {
        "reference": "Patient/eb754c68-82c7-48cd-a2f0-26ee1cd92544"
      },
      "period": {
        "start": "2026-09-02T06:00:00.000+00:00",
        "end": "2026-12-31T12:59:00.000+00:00"
      },
      "length": {
        "value": 120,
        "unit": "days"
      }
    },
    "request": {
      "method": "PUT",
      "url": "Encounter/51988dc8-bfae-4da3-9d93-3320a5d2ccbd"
    }
  }, {
    "fullUrl": "https://madie.cms.gov/claim/5ca62962b8484628b8de1ec5",
    "resource": {
      "resourceType": "Claim",
      "id": "5ca62962b8484628b8de1ec5",
      "meta": {
        "profile": [ "http://hl7.org/fhir/us/qicore/StructureDefinition/qicore-claim" ]
      },
      "status": "active",
      "type": {
        "coding": [ {
          "system": "http://terminology.hl7.org/CodeSystem/claim-type",
          "code": "institutional"
        } ]
      },
      "use": "claim",
      "patient": {
        "reference": "Patient/d170a0a8-b5ad-4303-b6df-e304dd5f92ad"
      },
      "created": "2026-12-01",
      "provider": {
        "reference": "Practitioner/68c14f20-ec9e-4b63-80b7-b4a26aca9f06"
      },
      "priority": {
        "coding": [ {
          "system": "http://terminology.hl7.org/CodeSystem/processpriority",
          "code": "normal"
        } ]
      },
      "procedure": [ {
        "sequence": 1,
        "type": [ {
          "coding": [ {
            "system": "http://terminology.hl7.org/CodeSystem/ex-procedure-type",
            "code": "primary"
          } ]
        } ],
        "procedureCodeableConcept": {
          "coding": [ {
            "system": "http://www.cms.gov/Medicare/Coding/ICD10",
            "code": "0SQ90ZZ",
            "display": "Repair Right Hip Joint, Open Approach"
          } ]
        }
      } ],
      "insurance": [ {
        "sequence": 1,
        "focal": true,
        "coverage": {
          "reference": "Coverage/5fa041661c76ba66d9959367"
        }
      } ],
      "item": [ {
        "sequence": 1,
        "procedureSequence": [ 1 ],
        "productOrService": {
          "coding": [ {
            "system": "http://terminology.hl7.org/CodeSystem/ex-USCLS",
            "code": "99555"
          } ]
        },
        "encounter": [ {
          "reference": "Encounter/51988dc8-bfae-4da3-9d93-3320a5d2ccbd"
        } ]
      } ]
    },
    "request": {
      "method": "PUT",
      "url": "Claim/5ca62962b8484628b8de1ec5"
    }
  }, {
    "fullUrl": "https://madie.cms.gov/Coverage/f4fe8c5d-6592-47d3-9278-1b3d49f44f42",
    "resource": {
      "resourceType": "Coverage",
      "id": "f4fe8c5d-6592-47d3-9278-1b3d49f44f42",
      "status": "active",
      "beneficiary": {
        "reference": "Patient/eb754c68-82c7-48cd-a2f0-26ee1cd92544"
      },
      "period": {
        "start": "2001-09-01T08:00:00.000+00:00"
      },
      "payor": [ {
        "reference": "Organization/6cac3bad-c60b-4bec-a639-570eaaa5bc93"
      } ]
    },
    "request": {
      "method": "PUT",
      "url": "Coverage/f4fe8c5d-6592-47d3-9278-1b3d49f44f42"
    }
  }, {
    "fullUrl": "https://madie.cms.gov/Organization/6cac3bad-c60b-4bec-a639-570eaaa5bc93",
    "resource": {
      "resourceType": "Organization",
      "id": "6cac3bad-c60b-4bec-a639-570eaaa5bc93",
      "meta": {
        "profile": [ "http://hl7.org/fhir/us/qicore/StructureDefinition/qicore-organization" ]
      },
      "identifier": [ {
        "use": "temp",
        "system": "urn:oid:2.16.840.1.113883.4.4",
        "value": "21-3259825"
      } ],
      "active": true,
      "type": [ {
        "coding": [ {
          "system": "http://terminology.hl7.org/CodeSystem/organization-type",
          "code": "pay",
          "display": "Payer"
        } ]
      } ],
      "name": "Blue Cross Blue Shield of Texas",
      "telecom": [ {
        "system": "phone",
        "value": "(+1) 972-766-6900"
      } ],
      "address": [ {
        "use": "billing",
        "type": "postal",
        "line": [ "P.O. Box 660044" ],
        "city": "Dallas",
        "state": "TX",
        "postalCode": "75266-0044",
        "country": "USA"
      } ]
    },
    "request": {
      "method": "PUT",
      "url": "Organization/6cac3bad-c60b-4bec-a639-570eaaa5bc93"
    }
  }, {
    "fullUrl": "https://madie.cms.gov/Practitioner/68c14f20-ec9e-4b63-80b7-b4a26aca9f06",
    "resource": {
      "resourceType": "Practitioner",
      "id": "68c14f20-ec9e-4b63-80b7-b4a26aca9f06",
      "meta": {
        "profile": [ "http://hl7.org/fhir/us/qicore/StructureDefinition/qicore-practitioner" ]
      },
      "identifier": [ {
        "system": "http://hl7.org/fhir/sid/us-npi",
        "value": "9999999896"
      } ],
      "name": [ {
        "family": "Evil",
        "prefix": [ "Dr" ]
      } ]
    },
    "request": {
      "method": "PUT",
      "url": "Practitioner/68c14f20-ec9e-4b63-80b7-b4a26aca9f06"
    }
  }, {
    "fullUrl": "https://madie.cms.gov/MeasureReport/0ae0bd59-f201-4ee1-9b2a-ef0f70f9ca7a",
    "resource": {
      "resourceType": "MeasureReport",
      "id": "0ae0bd59-f201-4ee1-9b2a-ef0f70f9ca7a",
      "meta": {
        "profile": [ "http://hl7.org/fhir/us/cqfmeasures/StructureDefinition/test-case-cqfm" ]
      },
      "contained": [ {
        "resourceType": "Parameters",
        "id": "f8827bc8-047d-4497-a75c-ed2eec411ed4-parameters",
        "parameter": [ {
          "name": "subject",
          "valueString": "eb754c68-82c7-48cd-a2f0-26ee1cd92544"
        } ]
      } ],
      "extension": [ {
        "url": "http://hl7.org/fhir/StructureDefinition/cqf-inputParameters",
        "valueReference": {
          "reference": "#f8827bc8-047d-4497-a75c-ed2eec411ed4-parameters"
        }
      }, {
        "url": "http://hl7.org/fhir/us/cqfmeasures/StructureDefinition/cqfm-testCaseDescription",
        "valueMarkdown": "Duplicate case by using SNOMDCT "
      } ],
      "modifierExtension": [ {
        "url": "http://hl7.org/fhir/us/cqfmeasures/StructureDefinition/cqfm-isTestCase",
        "valueBoolean": true
      } ],
      "status": "complete",
      "type": "individual",
      "measure": "https://madie.cms.gov/Measure/CMS108FHIRVTEProphylaxis",
      "period": {
        "start": "2026-01-01",
        "end": "2026-12-31"
      },
      "group": [ {
        "id": "Group_1",
        "population": [ {
          "id": "InitialPopulation_1",
          "code": {
            "coding": [ {
              "system": "http://terminology.hl7.org/CodeSystem/measure-population",
              "code": "initial-population",
              "display": "Initial Population"
            } ]
          },
          "count": 1
        }, {
          "id": "Denominator_1",
          "code": {
            "coding": [ {
              "system": "http://terminology.hl7.org/CodeSystem/measure-population",
              "code": "denominator",
              "display": "Denominator"
            } ]
          },
          "count": 1
        }, {
          "id": "DenominatorExclusion_1",
          "code": {
            "coding": [ {
              "system": "http://terminology.hl7.org/CodeSystem/measure-population",
              "code": "denominator-exclusion",
              "display": "Denominator Exclusion"
            } ]
          },
          "count": 1
        }, {
          "id": "Numerator_1",
          "code": {
            "coding": [ {
              "system": "http://terminology.hl7.org/CodeSystem/measure-population",
              "code": "numerator",
              "display": "Numerator"
            } ]
          },
          "count": 0
        } ],
        "measureScore": {
          "value": 0.0
        }
      } ],
      "evaluatedResource": [ {
        "reference": "Patient/eb754c68-82c7-48cd-a2f0-26ee1cd92544"
      }, {
        "reference": "Encounter/51988dc8-bfae-4da3-9d93-3320a5d2ccbd"
      }, {
        "reference": "Claim/5ca62962b8484628b8de1ec5"
      }, {
        "reference": "Coverage/f4fe8c5d-6592-47d3-9278-1b3d49f44f42"
      }, {
        "reference": "Organization/6cac3bad-c60b-4bec-a639-570eaaa5bc93"
      }, {
        "reference": "Practitioner/68c14f20-ec9e-4b63-80b7-b4a26aca9f06"
      } ]
    },
    "request": {
      "method": "PUT",
      "url": "MeasureReport/0ae0bd59-f201-4ee1-9b2a-ef0f70f9ca7a"
    }
  } ]
}