{
  "resourceType": "Bundle",
  "id": "63487c2f0968f8012254018d",
  "type": "transaction",
  "entry": [ {
    "fullUrl": "https://madie.cms.gov/Patient/2d756eed-2ff2-4147-9380-e25de99dce16",
    "resource": {
      "resourceType": "Patient",
      "id": "2d756eed-2ff2-4147-9380-e25de99dce16",
      "meta": {
        "profile": [ "http://hl7.org/fhir/us/qicore/StructureDefinition/qicore-patient" ]
      },
      "text": {
        "status": "generated",
        "div": "<div xmlns=\"http://www.w3.org/1999/xhtml\"><div class=\"hapiHeaderText\">AssessGARelDtTimeEQTimeOfDeliv <b>DENPASS </b></div><table class=\"hapiPropertyTable\"><tbody><tr><td>Identifier</td><td>5a43feb5ef6790325ae6e24fa7ff46c3f575969de203fb850fa7ba5a88d0a779</td></tr><tr><td>Date of birth</td><td><span>14 February 1985</span></td></tr></tbody></table></div>"
      },
      "extension": [ {
        "url": "http://hl7.org/fhir/us/core/StructureDefinition/us-core-race",
        "extension": [ {
          "url": "ombCategory",
          "valueCoding": {
            "system": "urn:oid:2.16.840.1.113883.6.238",
            "code": "1002-5",
            "display": "American Indian or Alaska Native",
            "userSelected": true
          }
        }, {
          "url": "text",
          "valueString": "American Indian or Alaska Native"
        } ]
      }, {
        "url": "http://hl7.org/fhir/us/core/StructureDefinition/us-core-ethnicity",
        "extension": [ {
          "url": "ombCategory",
          "valueCoding": {
            "system": "urn:oid:2.16.840.1.113883.6.238",
            "code": "2135-2",
            "display": "Hispanic or Latino",
            "userSelected": true
          }
        }, {
          "url": "text",
          "valueString": "Hispanic or Latino"
        } ]
      } ],
      "identifier": [ {
        "type": {
          "coding": [ {
            "system": "http://terminology.hl7.org/CodeSystem/v2-0203",
            "code": "MR"
          } ]
        },
        "system": "https://bonnie-fhir.healthit.gov/",
        "value": "63487c2f0968f8012254018d"
      } ],
      "active": true,
      "name": [ {
        "use": "usual",
        "family": "DENPass",
        "given": [ "AssessGARelDtTimeEQTimeOfDeliv" ]
      } ],
      "gender": "female",
      "birthDate": "1998-02-14"
    },
    "request": {
      "method": "PUT",
      "url": "Patient/2d756eed-2ff2-4147-9380-e25de99dce16"
    }
  }, {
    "fullUrl": "https://madie.cms.gov/Observation/cc5d71f1-8c67-4adc-9a42-98f1a41f2779",
    "resource": {
      "resourceType": "Observation",
      "id": "cc5d71f1-8c67-4adc-9a42-98f1a41f2779",
      "meta": {
        "profile": [ "http://hl7.org/fhir/us/qicore/StructureDefinition/qicore-simple-observation" ]
      },
      "status": "final",
      "category": [ {
        "coding": [ {
          "system": "http://terminology.hl7.org/CodeSystem/observation-category",
          "code": "exam",
          "display": "exam",
          "userSelected": true
        } ]
      } ],
      "code": {
        "coding": [ {
          "system": "http://loinc.org",
          "code": "11996-6"
        } ]
      },
      "subject": {
        "reference": "Patient/2d756eed-2ff2-4147-9380-e25de99dce16"
      },
      "effectiveDateTime": "2026-06-08T08:00:00.000+00:00",
      "valueInteger": 1
    },
    "request": {
      "method": "PUT",
      "url": "Observation/cc5d71f1-8c67-4adc-9a42-98f1a41f2779"
    }
  }, {
    "fullUrl": "https://madie.cms.gov/Observation/3f941747-2756-4f47-b10b-a2f83c30bbe4",
    "resource": {
      "resourceType": "Observation",
      "id": "3f941747-2756-4f47-b10b-a2f83c30bbe4",
      "meta": {
        "profile": [ "http://hl7.org/fhir/us/qicore/StructureDefinition/qicore-simple-observation" ]
      },
      "status": "final",
      "category": [ {
        "coding": [ {
          "system": "http://terminology.hl7.org/CodeSystem/observation-category",
          "code": "exam",
          "display": "exam",
          "userSelected": true
        } ]
      } ],
      "code": {
        "coding": [ {
          "system": "http://loinc.org",
          "code": "11884-4"
        } ]
      },
      "subject": {
        "reference": "Patient/2d756eed-2ff2-4147-9380-e25de99dce16"
      },
      "effectiveDateTime": "2026-06-08T09:15:00.000+00:00",
      "valueQuantity": {
        "value": 37,
        "system": "http://unitsofmeasure.org",
        "code": "wk"
      }
    },
    "request": {
      "method": "PUT",
      "url": "Observation/3f941747-2756-4f47-b10b-a2f83c30bbe4"
    }
  }, {
    "fullUrl": "https://madie.cms.gov/Observation/e5886a09-507c-47a3-9c62-49b356c673d3",
    "resource": {
      "resourceType": "Observation",
      "id": "e5886a09-507c-47a3-9c62-49b356c673d3",
      "meta": {
        "profile": [ "http://hl7.org/fhir/us/qicore/StructureDefinition/qicore-simple-observation" ]
      },
      "status": "final",
      "category": [ {
        "coding": [ {
          "system": "http://terminology.hl7.org/CodeSystem/observation-category",
          "code": "exam",
          "display": "exam",
          "userSelected": true
        } ]
      } ],
      "code": {
        "coding": [ {
          "system": "http://loinc.org",
          "code": "93857-1"
        } ]
      },
      "subject": {
        "reference": "Patient/2d756eed-2ff2-4147-9380-e25de99dce16"
      },
      "effectiveDateTime": "2026-06-08T09:15:00.000+00:00",
      "valueDateTime": "2026-06-08T09:15:00.000+00:00"
    },
    "request": {
      "method": "PUT",
      "url": "Observation/e5886a09-507c-47a3-9c62-49b356c673d3"
    }
  }, {
    "fullUrl": "https://madie.cms.gov/Encounter/fef970e8-1b80-405d-9dd6-589be31bc086",
    "resource": {
      "resourceType": "Encounter",
      "id": "fef970e8-1b80-405d-9dd6-589be31bc086",
      "meta": {
        "profile": [ "http://hl7.org/fhir/us/qicore/StructureDefinition/qicore-encounter" ]
      },
      "status": "finished",
      "class": {
        "system": "http://terminology.hl7.org/CodeSystem/v3-ActCode",
        "code": "IMP",
        "display": "inpatient encounter"
      },
      "type": [ {
        "coding": [ {
          "system": "http://snomed.info/sct",
          "code": "183452005"
        } ]
      } ],
      "subject": {
        "reference": "Patient/2d756eed-2ff2-4147-9380-e25de99dce16"
      },
      "period": {
        "start": "2026-06-08T08:00:00.000+00:00",
        "end": "2026-06-10T08:15:00.000+00:00"
      },
      "length": {
        "value": 2,
        "unit": "days"
      },
      "reasonReference": [ {
        "reference": "Condition/cf53e6d9-1c3d-4359-b257-6c1d824b3329"
      } ]
    },
    "request": {
      "method": "PUT",
      "url": "Encounter/fef970e8-1b80-405d-9dd6-589be31bc086"
    }
  }, {
    "fullUrl": "https://madie.cms.gov/Procedure/b040690b-5eea-4979-9fbc-d1c65c1954d4",
    "resource": {
      "resourceType": "Procedure",
      "id": "b040690b-5eea-4979-9fbc-d1c65c1954d4",
      "meta": {
        "profile": [ "http://hl7.org/fhir/us/qicore/StructureDefinition/qicore-procedure" ]
      },
      "extension": [ {
        "url": "http://hl7.org/fhir/us/qicore/StructureDefinition/qicore-recorded",
        "valueDateTime": "2014-04-05T13:35:00.000+00:00"
      } ],
      "status": "completed",
      "code": {
        "coding": [ {
          "system": "http://www.cms.gov/Medicare/Coding/ICD10",
          "code": "10D00Z0"
        } ]
      },
      "subject": {
        "reference": "Patient/2d756eed-2ff2-4147-9380-e25de99dce16"
      },
      "performedPeriod": {
        "start": "2026-06-08T08:00:00.000+00:00",
        "end": "2026-06-08T09:15:00.000+00:00"
      }
    },
    "request": {
      "method": "PUT",
      "url": "Procedure/b040690b-5eea-4979-9fbc-d1c65c1954d4"
    }
  }, {
    "fullUrl": "https://madie.cms.gov/Condition/cf53e6d9-1c3d-4359-b257-6c1d824b3329",
    "resource": {
      "resourceType": "Condition",
      "id": "cf53e6d9-1c3d-4359-b257-6c1d824b3329",
      "meta": {
        "profile": [ "http://hl7.org/fhir/us/qicore/StructureDefinition/qicore-condition-encounter-diagnosis" ]
      },
      "category": [ {
        "coding": [ {
          "system": "http://terminology.hl7.org/CodeSystem/condition-category",
          "code": "encounter-diagnosis",
          "display": "Encounter Diagnosis"
        } ]
      } ],
      "code": {
        "coding": [ {
          "system": "http://snomed.info/sct",
          "version": "2022-09",
          "code": "169826009",
          "display": "Single live birth from singleton pregnancy (finding)",
          "userSelected": true
        } ]
      },
      "subject": {
        "reference": "Patient/2d756eed-2ff2-4147-9380-e25de99dce16"
      },
      "encounter": {
        "reference": "Encounter/fef970e8-1b80-405d-9dd6-589be31bc086"
      },
      "recordedDate": "2026-10-21T08:00:00.000+00:00"
    },
    "request": {
      "method": "PUT",
      "url": "Condition/cf53e6d9-1c3d-4359-b257-6c1d824b3329"
    }
  }, {
    "fullUrl": "https://madie.cms.gov/Condition/c6e8c1e4-59d5-4756-b8c7-d99760d091c3",
    "resource": {
      "resourceType": "Condition",
      "id": "c6e8c1e4-59d5-4756-b8c7-d99760d091c3",
      "category": [ {
        "coding": [ {
          "system": "http://terminology.hl7.org/CodeSystem/condition-category",
          "code": "encounter-diagnosis",
          "display": "Encounter Diagnosis"
        } ]
      } ],
      "code": {
        "coding": [ {
          "system": "http://snomed.info/sct",
          "version": "2022-09",
          "code": "18559007",
          "display": "Frank breech presentation (finding)",
          "userSelected": true
        } ]
      },
      "subject": {
        "reference": "Patient/2d756eed-2ff2-4147-9380-e25de99dce16"
      },
      "recordedDate": "2026-10-21T08:00:00.000+00:00"
    },
    "request": {
      "method": "PUT",
      "url": "Condition/c6e8c1e4-59d5-4756-b8c7-d99760d091c3"
    }
  }, {
    "fullUrl": "https://madie.cms.gov/Coverage/2c030842-efbd-4f87-afad-c5ba2accf6e9",
    "resource": {
      "resourceType": "Coverage",
      "id": "2c030842-efbd-4f87-afad-c5ba2accf6e9",
      "meta": {
        "profile": [ "http://hl7.org/fhir/us/qicore/StructureDefinition/qicore-coverage" ]
      },
      "status": "active",
      "subscriberId": "523435",
      "beneficiary": {
        "reference": "Patient/2d756eed-2ff2-4147-9380-e25de99dce16"
      },
      "relationship": {
        "coding": [ {
          "system": "http://terminology.hl7.org/CodeSystem/subscriber-relationship",
          "code": "self"
        } ]
      },
      "payor": [ {
        "reference": "Organization/2a8ac78a-92ca-48e7-ab8f-1c9bb133daad"
      } ]
    },
    "request": {
      "method": "PUT",
      "url": "Coverage/2c030842-efbd-4f87-afad-c5ba2accf6e9"
    }
  }, {
    "fullUrl": "https://madie.cms.gov/Organization/2a8ac78a-92ca-48e7-ab8f-1c9bb133daad",
    "resource": {
      "resourceType": "Organization",
      "id": "2a8ac78a-92ca-48e7-ab8f-1c9bb133daad",
      "meta": {
        "profile": [ "http://hl7.org/fhir/us/qicore/StructureDefinition/qicore-organization" ]
      },
      "identifier": [ {
        "use": "temp",
        "system": "urn:oid:2.16.840.1.113883.4.4",
        "value": "21-3259825"
      } ],
      "active": true,
      "type": [ {
        "coding": [ {
          "system": "http://terminology.hl7.org/CodeSystem/organization-type",
          "code": "pay",
          "display": "Payer"
        } ]
      } ],
      "name": "Blue Cross Blue Shield of Texas",
      "telecom": [ {
        "system": "phone",
        "value": "(+1) 972-766-6900"
      } ],
      "address": [ {
        "use": "billing",
        "type": "postal",
        "line": [ "P.O. Box 660044" ],
        "city": "Dallas",
        "state": "TX",
        "postalCode": "75266-0044",
        "country": "USA"
      } ]
    },
    "request": {
      "method": "PUT",
      "url": "Organization/2a8ac78a-92ca-48e7-ab8f-1c9bb133daad"
    }
  }, {
    "fullUrl": "https://madie.cms.gov/Practitioner/53644178-db86-4762-8463-d85954c0efe3",
    "resource": {
      "resourceType": "Practitioner",
      "id": "53644178-db86-4762-8463-d85954c0efe3",
      "meta": {
        "profile": [ "http://hl7.org/fhir/us/qicore/StructureDefinition/qicore-practitioner" ]
      },
      "identifier": [ {
        "system": "http://hl7.org/fhir/sid/us-npi",
        "value": "1234567890"
      } ],
      "name": [ {
        "family": "Evil",
        "prefix": [ "Dr" ]
      } ]
    },
    "request": {
      "method": "PUT",
      "url": "Practitioner/53644178-db86-4762-8463-d85954c0efe3"
    }
  }, {
    "fullUrl": "https://madie.cms.gov/MeasureReport/a73f34c9-6c58-4dcd-982b-4f1b716cbdd9",
    "resource": {
      "resourceType": "MeasureReport",
      "id": "a73f34c9-6c58-4dcd-982b-4f1b716cbdd9",
      "meta": {
        "profile": [ "http://hl7.org/fhir/us/cqfmeasures/StructureDefinition/test-case-cqfm" ]
      },
      "contained": [ {
        "resourceType": "Parameters",
        "id": "3945e1aa-b023-4e09-8490-a9a644d06c71-parameters",
        "parameter": [ {
          "name": "subject",
          "valueString": "2d756eed-2ff2-4147-9380-e25de99dce16"
        } ]
      } ],
      "extension": [ {
        "url": "http://hl7.org/fhir/StructureDefinition/cqf-inputParameters",
        "valueReference": {
          "reference": "#3945e1aa-b023-4e09-8490-a9a644d06c71-parameters"
        }
      }, {
        "url": "http://hl7.org/fhir/us/cqfmeasures/StructureDefinition/cqfm-testCaseDescription",
        "valueMarkdown": "Passes: IP, Pt is 27 years of age,  encounter dx of delivery of singleton, gravida, EGA @ 38 weeks  AsseEGA37 (same day and time) TmDeliver.  Tests \"Gestation37PlusWeeks.authorDatetime 1 day or less on or before TimeOfDelivery.authorDatetime\".\n"
      } ],
      "modifierExtension": [ {
        "url": "http://hl7.org/fhir/us/cqfmeasures/StructureDefinition/cqfm-isTestCase",
        "valueBoolean": true
      } ],
      "status": "complete",
      "type": "individual",
      "measure": "https://madie.cms.gov/Measure/CMS0334FHIRPCCesareanBirth",
      "period": {
        "start": "2026-01-01",
        "end": "2026-12-31"
      },
      "group": [ {
        "id": "Group_1",
        "population": [ {
          "id": "InitialPopulation_1",
          "code": {
            "coding": [ {
              "system": "http://terminology.hl7.org/CodeSystem/measure-population",
              "code": "initial-population",
              "display": "Initial Population"
            } ]
          },
          "count": 1
        }, {
          "id": "Denominator_1",
          "code": {
            "coding": [ {
              "system": "http://terminology.hl7.org/CodeSystem/measure-population",
              "code": "denominator",
              "display": "Denominator"
            } ]
          },
          "count": 1
        }, {
          "id": "DenominatorExclusion_1",
          "code": {
            "coding": [ {
              "system": "http://terminology.hl7.org/CodeSystem/measure-population",
              "code": "denominator-exclusion",
              "display": "Denominator Exclusion"
            } ]
          },
          "count": 0
        }, {
          "id": "Numerator_1",
          "code": {
            "coding": [ {
              "system": "http://terminology.hl7.org/CodeSystem/measure-population",
              "code": "numerator",
              "display": "Numerator"
            } ]
          },
          "count": 1
        } ],
        "measureScore": {
          "value": 0.0
        }
      } ],
      "evaluatedResource": [ {
        "reference": "Patient/2d756eed-2ff2-4147-9380-e25de99dce16"
      }, {
        "reference": "Observation/cc5d71f1-8c67-4adc-9a42-98f1a41f2779"
      }, {
        "reference": "Observation/3f941747-2756-4f47-b10b-a2f83c30bbe4"
      }, {
        "reference": "Observation/e5886a09-507c-47a3-9c62-49b356c673d3"
      }, {
        "reference": "Encounter/fef970e8-1b80-405d-9dd6-589be31bc086"
      }, {
        "reference": "Procedure/b040690b-5eea-4979-9fbc-d1c65c1954d4"
      }, {
        "reference": "Condition/cf53e6d9-1c3d-4359-b257-6c1d824b3329"
      }, {
        "reference": "Condition/c6e8c1e4-59d5-4756-b8c7-d99760d091c3"
      }, {
        "reference": "Coverage/2c030842-efbd-4f87-afad-c5ba2accf6e9"
      }, {
        "reference": "Organization/2a8ac78a-92ca-48e7-ab8f-1c9bb133daad"
      }, {
        "reference": "Practitioner/53644178-db86-4762-8463-d85954c0efe3"
      } ]
    },
    "request": {
      "method": "PUT",
      "url": "MeasureReport/a73f34c9-6c58-4dcd-982b-4f1b716cbdd9"
    }
  } ]
}