{
  "resourceType": "Bundle",
  "id": "63233710414ba67d4e1d1c37",
  "type": "transaction",
  "entry": [ {
    "fullUrl": "https://madie.cms.gov/Patient/c274077a-5842-4b93-afeb-b4cb17d680bb",
    "resource": {
      "resourceType": "Patient",
      "id": "c274077a-5842-4b93-afeb-b4cb17d680bb",
      "meta": {
        "profile": [ "http://hl7.org/fhir/us/qicore/StructureDefinition/qicore-patient" ]
      },
      "extension": [ {
        "url": "http://hl7.org/fhir/us/core/StructureDefinition/us-core-sex",
        "valueCode": "248153007"
      }, {
        "url": "http://hl7.org/fhir/us/core/StructureDefinition/us-core-race",
        "extension": [ {
          "url": "ombCategory",
          "valueCoding": {
            "system": "urn:oid:2.16.840.1.113883.6.238",
            "code": "1002-5",
            "display": "American Indian or Alaska Native",
            "userSelected": true
          }
        }, {
          "url": "text",
          "valueString": "American Indian or Alaska Native"
        } ]
      }, {
        "url": "http://hl7.org/fhir/us/core/StructureDefinition/us-core-ethnicity",
        "extension": [ {
          "url": "ombCategory",
          "valueCoding": {
            "system": "urn:oid:2.16.840.1.113883.6.238",
            "code": "2135-2",
            "display": "Hispanic or Latino",
            "userSelected": true
          }
        }, {
          "url": "text",
          "valueString": "Hispanic or Latino"
        } ]
      } ],
      "identifier": [ {
        "system": "http://hospital.smarthealthit.org",
        "value": "999999999"
      } ],
      "name": [ {
        "family": "IPPFail",
        "given": [ "Age17DayOfEnc" ]
      } ],
      "gender": "male",
      "birthDate": "2008-09-02"
    },
    "request": {
      "method": "PUT",
      "url": "Patient/c274077a-5842-4b93-afeb-b4cb17d680bb"
    }
  }, {
    "fullUrl": "https://madie.cms.gov/Encounter/97029999-b0d4-4563-acd9-a162dc4e1ab7",
    "resource": {
      "resourceType": "Encounter",
      "id": "97029999-b0d4-4563-acd9-a162dc4e1ab7",
      "meta": {
        "profile": [ "http://hl7.org/fhir/us/qicore/StructureDefinition/qicore-encounter" ]
      },
      "status": "finished",
      "class": {
        "system": "http://terminology.hl7.org/CodeSystem/v3-ActCode",
        "code": "IMP",
        "display": "inpatient encounter",
        "userSelected": true
      },
      "type": [ {
        "coding": [ {
          "system": "http://snomed.info/sct",
          "code": "183452005",
          "display": "Emergency hospital admission (procedure)",
          "userSelected": true
        } ]
      } ],
      "subject": {
        "reference": "Patient/c274077a-5842-4b93-afeb-b4cb17d680bb"
      },
      "period": {
        "start": "2026-09-01T08:00:00.000Z",
        "end": "2026-09-03T10:00:00.000Z"
      }
    },
    "request": {
      "method": "PUT",
      "url": "Encounter/97029999-b0d4-4563-acd9-a162dc4e1ab7"
    }
  }, {
    "fullUrl": "https://madie.cms.gov/MedicationRequest/a77b9c9f-a0a9-414c-ba69-951907c2c7bf",
    "resource": {
      "resourceType": "MedicationRequest",
      "id": "a77b9c9f-a0a9-414c-ba69-951907c2c7bf",
      "meta": {
        "profile": [ "http://hl7.org/fhir/us/qicore/StructureDefinition/qicore-medicationrequest" ]
      },
      "status": "active",
      "intent": "order",
      "category": [ {
        "coding": [ {
          "system": "http://terminology.hl7.org/CodeSystem/medicationrequest-category",
          "code": "discharge",
          "display": "Discharge",
          "userSelected": true
        } ]
      } ],
      "doNotPerform": false,
      "medicationCodeableConcept": {
        "coding": [ {
          "system": "http://www.nlm.nih.gov/research/umls/rxnorm",
          "code": "2569573",
          "display": "24 HR lorazepam 2 MG Extended Release Oral Capsule",
          "userSelected": true
        } ]
      },
      "subject": {
        "reference": "Patient/c274077a-5842-4b93-afeb-b4cb17d680bb"
      },
      "authoredOn": "2026-09-03T09:59:00.000Z",
      "requester": {
        "reference": "Practitioner/fd58e83e-3106-47e8-8751-3987d0712e3c"
      }
    },
    "request": {
      "method": "PUT",
      "url": "MedicationRequest/a77b9c9f-a0a9-414c-ba69-951907c2c7bf"
    }
  }, {
    "fullUrl": "https://madie.cms.gov/Practitioner/fd58e83e-3106-47e8-8751-3987d0712e3c",
    "resource": {
      "resourceType": "Practitioner",
      "id": "fd58e83e-3106-47e8-8751-3987d0712e3c",
      "meta": {
        "profile": [ "http://hl7.org/fhir/us/qicore/StructureDefinition/qicore-practitioner" ]
      },
      "identifier": [ {
        "system": "http://hl7.org/fhir/sid/us-npi",
        "value": "9999999896"
      } ],
      "active": true,
      "name": [ {
        "family": "Ramires",
        "given": [ "Alma" ],
        "prefix": [ "Dr" ]
      } ],
      "address": [ {
        "use": "home",
        "line": [ "534 Erewhon St" ],
        "city": "Netherville",
        "state": "IN",
        "postalCode": "46131"
      } ],
      "qualification": [ {
        "identifier": [ {
          "system": "http://goodhealth.org/prIdentifier",
          "value": "12345"
        } ],
        "code": {
          "coding": [ {
            "system": "http://terminology.hl7.org/CodeSystem/v2-0360|2.7",
            "code": "BS",
            "display": "Bachelor of Science"
          } ],
          "text": "Bachelor of Science"
        },
        "period": {
          "start": "1995"
        },
        "issuer": {
          "display": "Example University"
        }
      } ]
    },
    "request": {
      "method": "PUT",
      "url": "Practitioner/fd58e83e-3106-47e8-8751-3987d0712e3c"
    }
  }, {
    "fullUrl": "https://madie.cms.gov/Coverage/93fa8f94-fd25-4faa-b3c1-66537688f3e5",
    "resource": {
      "resourceType": "Coverage",
      "id": "93fa8f94-fd25-4faa-b3c1-66537688f3e5",
      "meta": {
        "profile": [ "http://hl7.org/fhir/us/qicore/StructureDefinition/qicore-coverage" ]
      },
      "identifier": [ {
        "system": "http://benefitsinc.com/memberid",
        "value": "12345"
      } ],
      "status": "active",
      "type": {
        "coding": [ {
          "system": "https://nahdo.org/sopt",
          "code": "59",
          "display": "Other Private Insurance"
        } ]
      },
      "policyHolder": {
        "reference": "Patient/c274077a-5842-4b93-afeb-b4cb17d680bb"
      },
      "subscriberId": "523435",
      "beneficiary": {
        "reference": "Patient/c274077a-5842-4b93-afeb-b4cb17d680bb"
      },
      "dependent": "0",
      "relationship": {
        "coding": [ {
          "system": "http://terminology.hl7.org/CodeSystem/subscriber-relationship",
          "code": "self"
        } ]
      },
      "period": {
        "start": "2024-01-01T06:00:00.000Z"
      },
      "payor": [ {
        "reference": "Organization/1e6d658a-f253-4c2e-a723-330abd697ff1"
      } ]
    },
    "request": {
      "method": "PUT",
      "url": "Coverage/93fa8f94-fd25-4faa-b3c1-66537688f3e5"
    }
  }, {
    "fullUrl": "https://madie.cms.gov/Organization/1e6d658a-f253-4c2e-a723-330abd697ff1",
    "resource": {
      "resourceType": "Organization",
      "id": "1e6d658a-f253-4c2e-a723-330abd697ff1",
      "meta": {
        "profile": [ "http://hl7.org/fhir/us/qicore/StructureDefinition/qicore-organization" ]
      },
      "identifier": [ {
        "use": "temp",
        "system": "urn:oid:2.16.840.1.113883.4.4",
        "value": "21-3259825"
      } ],
      "active": true,
      "type": [ {
        "coding": [ {
          "system": "http://terminology.hl7.org/CodeSystem/organization-type",
          "code": "pay",
          "display": "Payer"
        } ]
      } ],
      "name": "Blue Cross Blue Shield of Texas",
      "telecom": [ {
        "system": "phone",
        "value": "(+1) 972-766-6900"
      } ],
      "address": [ {
        "use": "billing",
        "type": "postal",
        "line": [ "P.O. Box 660044" ],
        "city": "Dallas",
        "state": "TX",
        "postalCode": "75266-0044",
        "country": "USA"
      } ]
    },
    "request": {
      "method": "PUT",
      "url": "Organization/1e6d658a-f253-4c2e-a723-330abd697ff1"
    }
  }, {
    "fullUrl": "https://madie.cms.gov/MeasureReport/a64fddbd-0a76-40f2-837d-f831c7abc870",
    "resource": {
      "resourceType": "MeasureReport",
      "id": "a64fddbd-0a76-40f2-837d-f831c7abc870",
      "meta": {
        "profile": [ "http://hl7.org/fhir/us/cqfmeasures/StructureDefinition/test-case-cqfm" ]
      },
      "contained": [ {
        "resourceType": "Parameters",
        "id": "1b59de70-2081-49d3-b2f2-d6c6bc5bc00b-parameters",
        "parameter": [ {
          "name": "subject",
          "valueString": "c274077a-5842-4b93-afeb-b4cb17d680bb"
        } ]
      } ],
      "extension": [ {
        "url": "http://hl7.org/fhir/StructureDefinition/cqf-inputParameters",
        "valueReference": {
          "reference": "#1b59de70-2081-49d3-b2f2-d6c6bc5bc00b-parameters"
        }
      }, {
        "url": "http://hl7.org/fhir/us/cqfmeasures/StructureDefinition/cqfm-testCaseDescription",
        "valueMarkdown": "Not 18 (09-02) or older at start of encounter (09-01), benzo prescribed on day of discharge"
      } ],
      "modifierExtension": [ {
        "url": "http://hl7.org/fhir/us/cqfmeasures/StructureDefinition/cqfm-isTestCase",
        "valueBoolean": true
      } ],
      "status": "complete",
      "type": "individual",
      "measure": "https://madie.cms.gov/Measure/CMS506FHIRSafeUseofOpioids",
      "period": {
        "start": "2026-01-01",
        "end": "2026-12-31"
      },
      "group": [ {
        "id": "Group_1",
        "population": [ {
          "id": "InitialPopulation_1",
          "code": {
            "coding": [ {
              "system": "http://terminology.hl7.org/CodeSystem/measure-population",
              "code": "initial-population",
              "display": "Initial Population"
            } ]
          },
          "count": 0
        }, {
          "id": "Denominator_1",
          "code": {
            "coding": [ {
              "system": "http://terminology.hl7.org/CodeSystem/measure-population",
              "code": "denominator",
              "display": "Denominator"
            } ]
          },
          "count": 0
        }, {
          "id": "DenominatorExclusion_1",
          "code": {
            "coding": [ {
              "system": "http://terminology.hl7.org/CodeSystem/measure-population",
              "code": "denominator-exclusion",
              "display": "Denominator Exclusion"
            } ]
          },
          "count": 0
        }, {
          "id": "Numerator_1",
          "code": {
            "coding": [ {
              "system": "http://terminology.hl7.org/CodeSystem/measure-population",
              "code": "numerator",
              "display": "Numerator"
            } ]
          },
          "count": 0
        } ],
        "measureScore": {
          "value": 0.0
        }
      } ],
      "evaluatedResource": [ {
        "reference": "Patient/c274077a-5842-4b93-afeb-b4cb17d680bb"
      }, {
        "reference": "Encounter/97029999-b0d4-4563-acd9-a162dc4e1ab7"
      }, {
        "reference": "MedicationRequest/a77b9c9f-a0a9-414c-ba69-951907c2c7bf"
      }, {
        "reference": "Practitioner/fd58e83e-3106-47e8-8751-3987d0712e3c"
      }, {
        "reference": "Coverage/93fa8f94-fd25-4faa-b3c1-66537688f3e5"
      }, {
        "reference": "Organization/1e6d658a-f253-4c2e-a723-330abd697ff1"
      } ]
    },
    "request": {
      "method": "PUT",
      "url": "MeasureReport/a64fddbd-0a76-40f2-837d-f831c7abc870"
    }
  } ]
}