{
  "resourceType": "Bundle",
  "id": "62aa5328c4be4c506d4a533c",
  "type": "transaction",
  "entry": [ {
    "fullUrl": "https://madie.cms.gov/Patient/d318f512-656e-43bf-a409-16b6e24462a9",
    "resource": {
      "resourceType": "Patient",
      "id": "d318f512-656e-43bf-a409-16b6e24462a9",
      "meta": {
        "profile": [ "http://hl7.org/fhir/us/qicore/StructureDefinition/qicore-patient" ]
      },
      "extension": [ {
        "url": "http://hl7.org/fhir/us/core/StructureDefinition/us-core-race",
        "extension": [ {
          "url": "ombCategory",
          "valueCoding": {
            "system": "urn:oid:2.16.840.1.113883.6.238",
            "code": "2028-9",
            "display": "Asian",
            "userSelected": true
          }
        }, {
          "url": "text",
          "valueString": "Asian"
        } ]
      }, {
        "url": "http://hl7.org/fhir/us/core/StructureDefinition/us-core-ethnicity",
        "extension": [ {
          "url": "ombCategory",
          "valueCoding": {
            "system": "urn:oid:2.16.840.1.113883.6.238",
            "code": "2186-5",
            "display": "Not Hispanic or Latino",
            "userSelected": true
          }
        }, {
          "url": "text",
          "valueString": "Not Hispanic or Latino"
        } ]
      } ],
      "identifier": [ {
        "type": {
          "coding": [ {
            "system": "http://terminology.hl7.org/CodeSystem/v2-0203",
            "code": "MR"
          } ]
        },
        "system": "https://bonnie-fhir.healthit.gov/",
        "value": "62aa5328c4be4c506d4a533c"
      } ],
      "name": [ {
        "family": "DENEXPass",
        "given": [ "Pregnant" ]
      } ],
      "gender": "female",
      "birthDate": "2001-01-01"
    },
    "request": {
      "method": "PUT",
      "url": "Patient/d318f512-656e-43bf-a409-16b6e24462a9"
    }
  }, {
    "fullUrl": "https://madie.cms.gov/Encounter/ced602b5-4682-4c58-a0b9-833916173d8b",
    "resource": {
      "resourceType": "Encounter",
      "id": "ced602b5-4682-4c58-a0b9-833916173d8b",
      "meta": {
        "profile": [ "http://hl7.org/fhir/us/qicore/StructureDefinition/qicore-encounter" ]
      },
      "status": "finished",
      "class": {
        "system": "http://terminology.hl7.org/CodeSystem/v3-ActCode",
        "code": "AMB",
        "display": "ambulatory"
      },
      "type": [ {
        "coding": [ {
          "system": "http://snomed.info/sct",
          "version": "2022-03",
          "code": "10197000",
          "display": "Psychiatric interview and evaluation (procedure)",
          "userSelected": true
        } ]
      } ],
      "subject": {
        "reference": "Patient/d318f512-656e-43bf-a409-16b6e24462a9"
      },
      "period": {
        "start": "2026-01-01T00:00:00.000+00:00",
        "end": "2026-01-01T00:30:00.000+00:00"
      }
    },
    "request": {
      "method": "PUT",
      "url": "Encounter/ced602b5-4682-4c58-a0b9-833916173d8b"
    }
  }, {
    "fullUrl": "https://madie.cms.gov/Condition/5c804e0b-eece-490e-af4d-b100e403e136",
    "resource": {
      "resourceType": "Condition",
      "id": "5c804e0b-eece-490e-af4d-b100e403e136",
      "meta": {
        "profile": [ "http://hl7.org/fhir/us/qicore/StructureDefinition/qicore-condition-encounter-diagnosis" ]
      },
      "clinicalStatus": {
        "coding": [ {
          "system": "http://terminology.hl7.org/CodeSystem/condition-clinical",
          "code": "active",
          "display": "active",
          "userSelected": true
        } ]
      },
      "category": [ {
        "coding": [ {
          "system": "http://terminology.hl7.org/CodeSystem/condition-category",
          "code": "encounter-diagnosis",
          "display": "Encounter Diagnosis"
        }, {
          "system": "http://snomed.info/sct",
          "code": "439401001",
          "display": "Diagnosis"
        } ]
      } ],
      "code": {
        "coding": [ {
          "system": "http://snomed.info/sct",
          "version": "2022-03",
          "code": "10231000132102",
          "display": "In-vitro fertilization pregnancy (finding)",
          "userSelected": true
        } ]
      },
      "subject": {
        "reference": "Patient/d318f512-656e-43bf-a409-16b6e24462a9"
      },
      "onsetDateTime": "2026-01-01T00:30:00.000+00:00"
    },
    "request": {
      "method": "PUT",
      "url": "Condition/5c804e0b-eece-490e-af4d-b100e403e136"
    }
  }, {
    "fullUrl": "https://madie.cms.gov/Coverage/c04510c7-ce43-4607-958d-80e3253e8c0c",
    "resource": {
      "resourceType": "Coverage",
      "id": "c04510c7-ce43-4607-958d-80e3253e8c0c",
      "meta": {
        "profile": [ "http://hl7.org/fhir/us/qicore/StructureDefinition/qicore-coverage" ]
      },
      "status": "active",
      "beneficiary": {
        "reference": "Patient/d318f512-656e-43bf-a409-16b6e24462a9"
      },
      "payor": [ {
        "reference": "Organization/f6f9cf4f-829c-41b0-bac5-d98bb5125775"
      } ]
    },
    "request": {
      "method": "PUT",
      "url": "Coverage/c04510c7-ce43-4607-958d-80e3253e8c0c"
    }
  }, {
    "fullUrl": "https://madie.cms.gov/Organization/f6f9cf4f-829c-41b0-bac5-d98bb5125775",
    "resource": {
      "resourceType": "Organization",
      "id": "f6f9cf4f-829c-41b0-bac5-d98bb5125775",
      "meta": {
        "profile": [ "http://hl7.org/fhir/us/qicore/StructureDefinition/qicore-organization" ]
      },
      "identifier": [ {
        "use": "temp",
        "system": "urn:oid:2.16.840.1.113883.4.4",
        "value": "21-3259825"
      } ],
      "active": true,
      "type": [ {
        "coding": [ {
          "system": "http://terminology.hl7.org/CodeSystem/organization-type",
          "code": "pay",
          "display": "Payer"
        } ]
      } ],
      "name": "Blue Cross Blue Shield of Texas",
      "telecom": [ {
        "system": "phone",
        "value": "(+1) 972-766-6900"
      } ],
      "address": [ {
        "use": "billing",
        "type": "postal",
        "line": [ "P.O. Box 660044" ],
        "city": "Dallas",
        "state": "TX",
        "postalCode": "75266-0044",
        "country": "USA"
      } ]
    },
    "request": {
      "method": "PUT",
      "url": "Organization/f6f9cf4f-829c-41b0-bac5-d98bb5125775"
    }
  }, {
    "fullUrl": "https://madie.cms.gov/MeasureReport/21d5935c-cbaa-40c2-95c9-6b49f7262d7d",
    "resource": {
      "resourceType": "MeasureReport",
      "id": "21d5935c-cbaa-40c2-95c9-6b49f7262d7d",
      "meta": {
        "profile": [ "http://hl7.org/fhir/us/cqfmeasures/StructureDefinition/test-case-cqfm" ]
      },
      "contained": [ {
        "resourceType": "Parameters",
        "id": "dfc44616-f834-4c29-9fe6-eb5c64016d38-parameters",
        "parameter": [ {
          "name": "subject",
          "valueString": "d318f512-656e-43bf-a409-16b6e24462a9"
        } ]
      } ],
      "extension": [ {
        "url": "http://hl7.org/fhir/StructureDefinition/cqf-inputParameters",
        "valueReference": {
          "reference": "#dfc44616-f834-4c29-9fe6-eb5c64016d38-parameters"
        }
      }, {
        "url": "http://hl7.org/fhir/us/cqfmeasures/StructureDefinition/cqfm-testCaseDescription",
        "valueMarkdown": "Adult, enc., first 30 minutes of first day  of encounter of MP. Patient is pregnant so is excluded. "
      } ],
      "modifierExtension": [ {
        "url": "http://hl7.org/fhir/us/cqfmeasures/StructureDefinition/cqfm-isTestCase",
        "valueBoolean": true
      } ],
      "status": "complete",
      "type": "individual",
      "measure": "https://madie.cms.gov/Measure/CMS69FHIRPCSBMIScreenAndFollowUp",
      "period": {
        "start": "2026-01-01",
        "end": "2026-12-31"
      },
      "group": [ {
        "id": "Group_1",
        "population": [ {
          "id": "InitialPopulation_1",
          "code": {
            "coding": [ {
              "system": "http://terminology.hl7.org/CodeSystem/measure-population",
              "code": "initial-population",
              "display": "Initial Population"
            } ]
          },
          "count": 1
        }, {
          "id": "Denominator_1",
          "code": {
            "coding": [ {
              "system": "http://terminology.hl7.org/CodeSystem/measure-population",
              "code": "denominator",
              "display": "Denominator"
            } ]
          },
          "count": 1
        }, {
          "id": "DenominatorExclusion_1",
          "code": {
            "coding": [ {
              "system": "http://terminology.hl7.org/CodeSystem/measure-population",
              "code": "denominator-exclusion",
              "display": "Denominator Exclusion"
            } ]
          },
          "count": 1
        }, {
          "id": "Numerator_1",
          "code": {
            "coding": [ {
              "system": "http://terminology.hl7.org/CodeSystem/measure-population",
              "code": "numerator",
              "display": "Numerator"
            } ]
          },
          "count": 0
        }, {
          "id": "DenominatorException_1",
          "code": {
            "coding": [ {
              "system": "http://terminology.hl7.org/CodeSystem/measure-population",
              "code": "denominator-exception",
              "display": "Denominator Exception"
            } ]
          },
          "count": 0
        } ],
        "measureScore": {
          "value": 1.0
        }
      } ],
      "evaluatedResource": [ {
        "reference": "Patient/d318f512-656e-43bf-a409-16b6e24462a9"
      }, {
        "reference": "Encounter/ced602b5-4682-4c58-a0b9-833916173d8b"
      }, {
        "reference": "Condition/5c804e0b-eece-490e-af4d-b100e403e136"
      }, {
        "reference": "Coverage/c04510c7-ce43-4607-958d-80e3253e8c0c"
      }, {
        "reference": "Organization/f6f9cf4f-829c-41b0-bac5-d98bb5125775"
      } ]
    },
    "request": {
      "method": "PUT",
      "url": "MeasureReport/21d5935c-cbaa-40c2-95c9-6b49f7262d7d"
    }
  } ]
}