{
  "resourceType": "Bundle",
  "id": "63594c7a6aee9629c82981df",
  "type": "transaction",
  "entry": [ {
    "fullUrl": "https://madie.cms.gov/Patient/7225dafe-a1f6-4205-94f7-b4c3f413da99",
    "resource": {
      "resourceType": "Patient",
      "id": "7225dafe-a1f6-4205-94f7-b4c3f413da99",
      "meta": {
        "profile": [ "http://hl7.org/fhir/us/qicore/StructureDefinition/qicore-patient" ]
      },
      "text": {
        "status": "generated",
        "div": "<div xmlns=\"http://www.w3.org/1999/xhtml\"><div class=\"hapiHeaderText\">Risk_HIV<b>RISKPass </b></div><table class=\"hapiPropertyTable\"><tbody><tr><td>Date of birth</td><td><span>01 February 2004</span></td></tr></tbody></table></div>"
      },
      "extension": [ {
        "url": "http://hl7.org/fhir/us/core/StructureDefinition/us-core-race",
        "extension": [ {
          "url": "ombCategory",
          "valueCoding": {
            "system": "urn:oid:2.16.840.1.113883.6.238",
            "code": "1002-5",
            "display": "American Indian or Alaska Native",
            "userSelected": true
          }
        }, {
          "url": "text",
          "valueString": "American Indian or Alaska Native"
        } ]
      }, {
        "url": "http://hl7.org/fhir/us/core/StructureDefinition/us-core-ethnicity",
        "extension": [ {
          "url": "ombCategory",
          "valueCoding": {
            "system": "urn:oid:2.16.840.1.113883.6.238",
            "code": "2135-2",
            "display": "Hispanic or Latino",
            "userSelected": true
          }
        }, {
          "url": "text",
          "valueString": "Hispanic or Latino"
        } ]
      } ],
      "identifier": [ {
        "type": {
          "coding": [ {
            "system": "http://terminology.hl7.org/CodeSystem/v2-0203",
            "code": "MR"
          } ]
        },
        "system": "https://bonnie-fhir.healthit.gov/",
        "value": "63594c7a6aee9629c82981df"
      } ],
      "active": true,
      "name": [ {
        "use": "usual",
        "family": "RiskPass",
        "given": [ "RiskHIV" ]
      } ],
      "gender": "female",
      "birthDate": "2005-02-01"
    },
    "request": {
      "method": "PUT",
      "url": "Patient/7225dafe-a1f6-4205-94f7-b4c3f413da99"
    }
  }, {
    "fullUrl": "https://madie.cms.gov/Observation/d592f7e0-e67a-44a7-9fcd-0dcb550c8989",
    "resource": {
      "resourceType": "Observation",
      "id": "d592f7e0-e67a-44a7-9fcd-0dcb550c8989",
      "meta": {
        "profile": [ "http://hl7.org/fhir/us/qicore/StructureDefinition/qicore-simple-observation" ]
      },
      "status": "final",
      "category": [ {
        "coding": [ {
          "system": "http://terminology.hl7.org/CodeSystem/observation-category",
          "code": "exam",
          "display": "exam",
          "userSelected": true
        } ]
      } ],
      "code": {
        "coding": [ {
          "system": "http://loinc.org",
          "code": "93857-1"
        } ]
      },
      "subject": {
        "reference": "Patient/7225dafe-a1f6-4205-94f7-b4c3f413da99"
      },
      "effectiveDateTime": "2026-02-01T08:00:00Z",
      "performer": [ {
        "reference": "Organization/example1",
        "display": "Hendricks Country Hospital"
      } ],
      "valueDateTime": "2026-02-01T08:00:00Z"
    },
    "request": {
      "method": "PUT",
      "url": "Observation/d592f7e0-e67a-44a7-9fcd-0dcb550c8989"
    }
  }, {
    "fullUrl": "https://madie.cms.gov/Observation/a9e3ec80-a843-4a9b-bdb0-721292abc399",
    "resource": {
      "resourceType": "Observation",
      "id": "a9e3ec80-a843-4a9b-bdb0-721292abc399",
      "meta": {
        "profile": [ "http://hl7.org/fhir/us/qicore/StructureDefinition/qicore-simple-observation" ]
      },
      "status": "final",
      "category": [ {
        "coding": [ {
          "system": "http://terminology.hl7.org/CodeSystem/observation-category",
          "code": "exam",
          "display": "exam",
          "userSelected": true
        } ]
      } ],
      "code": {
        "coding": [ {
          "system": "http://loinc.org",
          "code": "11778-8"
        } ]
      },
      "subject": {
        "reference": "Patient/7225dafe-a1f6-4205-94f7-b4c3f413da99"
      },
      "effectiveDateTime": "2026-02-01T08:00:00Z",
      "performer": [ {
        "reference": "Organization/example1",
        "display": "Hendricks Country Hospital"
      } ],
      "valueDateTime": "2026-02-01T00:00:00Z"
    },
    "request": {
      "method": "PUT",
      "url": "Observation/a9e3ec80-a843-4a9b-bdb0-721292abc399"
    }
  }, {
    "fullUrl": "https://madie.cms.gov/Encounter/22fabfe9-9aa1-4177-be9d-7054e75932a4",
    "resource": {
      "resourceType": "Encounter",
      "id": "22fabfe9-9aa1-4177-be9d-7054e75932a4",
      "meta": {
        "profile": [ "http://hl7.org/fhir/us/qicore/StructureDefinition/qicore-encounter" ]
      },
      "status": "finished",
      "class": {
        "system": "http://terminology.hl7.org/CodeSystem/v3-ActCode",
        "code": "IMP",
        "display": "inpatient encounter"
      },
      "type": [ {
        "coding": [ {
          "system": "http://snomed.info/sct",
          "code": "183452005"
        } ]
      } ],
      "subject": {
        "reference": "Patient/7225dafe-a1f6-4205-94f7-b4c3f413da99"
      },
      "period": {
        "start": "2026-02-01T08:00:00Z",
        "end": "2026-02-05T08:15:00Z"
      },
      "diagnosis": [ {
        "extension": [ {
          "url": "http://hl7.org/fhir/us/qicore/StructureDefinition/qicore-encounter-diagnosisPresentOnAdmission",
          "valueCodeableConcept": {
            "coding": [ {
              "system": "https://www.cms.gov/Medicare/Medicare-Fee-for-Service-Payment/HospitalAcqCond/Coding",
              "code": "Y"
            } ]
          }
        } ],
        "condition": {
          "reference": "Condition/4efecfdd-d50d-42d7-af28-8e5f8cdca4ae"
        }
      }, {
        "extension": [ {
          "url": "http://hl7.org/fhir/us/qicore/StructureDefinition/qicore-encounter-diagnosisPresentOnAdmission",
          "valueCodeableConcept": {
            "coding": [ {
              "system": "https://www.cms.gov/Medicare/Medicare-Fee-for-Service-Payment/HospitalAcqCond/Coding",
              "code": "N"
            } ]
          }
        } ],
        "condition": {
          "reference": "Condition/c6ab7bf9-610d-4f1f-a96a-efa62b50e16f"
        }
      } ]
    },
    "request": {
      "method": "PUT",
      "url": "Encounter/22fabfe9-9aa1-4177-be9d-7054e75932a4"
    }
  }, {
    "fullUrl": "https://madie.cms.gov/Procedure/0ed658f7-95c3-4527-832d-dbd1b6966953",
    "resource": {
      "resourceType": "Procedure",
      "id": "0ed658f7-95c3-4527-832d-dbd1b6966953",
      "meta": {
        "profile": [ "http://hl7.org/fhir/us/qicore/StructureDefinition/qicore-procedure" ]
      },
      "extension": [ {
        "url": "http://hl7.org/fhir/us/qicore/StructureDefinition/qicore-recorded",
        "valueDateTime": "2014-04-05T13:35:00Z"
      } ],
      "status": "completed",
      "code": {
        "coding": [ {
          "system": "http://snomed.info/sct",
          "code": "10745001"
        } ]
      },
      "subject": {
        "reference": "Patient/7225dafe-a1f6-4205-94f7-b4c3f413da99"
      },
      "performedDateTime": "2026-02-01T08:00:00Z"
    },
    "request": {
      "method": "PUT",
      "url": "Procedure/0ed658f7-95c3-4527-832d-dbd1b6966953"
    }
  }, {
    "fullUrl": "https://madie.cms.gov/Claim/0d7fba4a-7f57-46de-aa2d-b21e4b2ab258",
    "resource": {
      "resourceType": "Claim",
      "id": "0d7fba4a-7f57-46de-aa2d-b21e4b2ab258",
      "meta": {
        "profile": [ "http://hl7.org/fhir/us/qicore/StructureDefinition/qicore-claim" ]
      },
      "status": "active",
      "type": {
        "coding": [ {
          "system": "http://terminology.hl7.org/CodeSystem/claim-type",
          "code": "institutional",
          "display": "Institutional"
        } ]
      },
      "use": "claim",
      "patient": {
        "reference": "Patient/7225dafe-a1f6-4205-94f7-b4c3f413da99"
      },
      "created": "2026-11-08",
      "provider": {
        "reference": "Practitioner/practitioner-123456"
      },
      "priority": {
        "coding": [ {
          "system": "http://terminology.hl7.org/CodeSystem/processpriority",
          "code": "normal"
        } ]
      },
      "diagnosis": [ {
        "sequence": 1,
        "diagnosisCodeableConcept": {
          "coding": [ {
            "system": "http://hl7.org/fhir/sid/icd-10-cm",
            "code": "B20",
            "display": "HIV"
          } ]
        },
        "type": [ {
          "coding": [ {
            "system": "http://terminology.hl7.org/CodeSystem/ex-diagnosistype",
            "code": "discharge",
            "display": "Discharge Diagnosis"
          } ]
        } ],
        "onAdmission": {
          "coding": [ {
            "system": "https://www.cms.gov/Medicare/Medicare-Fee-for-Service-Payment/HospitalAcqCond/Coding",
            "code": "Y"
          } ]
        }
      }, {
        "sequence": 2,
        "diagnosisCodeableConcept": {
          "coding": [ {
            "system": "http://hl7.org/fhir/sid/icd-10-cm",
            "code": "A32.7",
            "display": "Listerial sepsis"
          } ]
        },
        "type": [ {
          "coding": [ {
            "system": "http://terminology.hl7.org/CodeSystem/ex-diagnosistype",
            "code": "discharge",
            "display": "Discharge Diagnosis"
          } ]
        } ],
        "onAdmission": {
          "coding": [ {
            "system": "https://www.cms.gov/Medicare/Medicare-Fee-for-Service-Payment/HospitalAcqCond/Coding",
            "code": "N"
          } ]
        }
      } ],
      "insurance": [ {
        "sequence": 1,
        "focal": true,
        "coverage": {
          "reference": "Coverage/Coverage-1"
        }
      } ],
      "item": [ {
        "sequence": 1,
        "careTeamSequence": [ 1 ],
        "diagnosisSequence": [ 1 ],
        "productOrService": {
          "coding": [ {
            "system": "http://www.ama-assn.org/go/cpt",
            "code": "99232"
          } ]
        },
        "encounter": [ {
          "reference": "Encounter/22fabfe9-9aa1-4177-be9d-7054e75932a4"
        } ]
      }, {
        "sequence": 2,
        "careTeamSequence": [ 1 ],
        "diagnosisSequence": [ 2 ],
        "productOrService": {
          "coding": [ {
            "system": "http://www.ama-assn.org/go/cpt",
            "code": "99233"
          } ]
        },
        "encounter": [ {
          "reference": "Encounter/22fabfe9-9aa1-4177-be9d-7054e75932a4"
        } ]
      } ],
      "total": {
        "value": 3800,
        "currency": "USD"
      }
    },
    "request": {
      "method": "PUT",
      "url": "Claim/0d7fba4a-7f57-46de-aa2d-b21e4b2ab258"
    }
  }, {
    "fullUrl": "https://madie.cms.gov/Condition/c6ab7bf9-610d-4f1f-a96a-efa62b50e16f",
    "resource": {
      "resourceType": "Condition",
      "id": "c6ab7bf9-610d-4f1f-a96a-efa62b50e16f",
      "meta": {
        "profile": [ "http://hl7.org/fhir/us/qicore/StructureDefinition/qicore-condition-encounter-diagnosis" ]
      },
      "category": [ {
        "coding": [ {
          "system": "http://terminology.hl7.org/CodeSystem/condition-category",
          "code": "encounter-diagnosis",
          "display": "Encounter Diagnosis"
        } ]
      } ],
      "code": {
        "coding": [ {
          "system": "http://hl7.org/fhir/sid/icd-10-cm",
          "version": "2023",
          "code": "A32.7",
          "display": "Listerial sepsis",
          "userSelected": true
        } ]
      },
      "subject": {
        "reference": "Patient/7225dafe-a1f6-4205-94f7-b4c3f413da99"
      },
      "recordedDate": "2026-10-26T08:00:00Z"
    },
    "request": {
      "method": "PUT",
      "url": "Condition/c6ab7bf9-610d-4f1f-a96a-efa62b50e16f"
    }
  }, {
    "fullUrl": "https://madie.cms.gov/Condition/4efecfdd-d50d-42d7-af28-8e5f8cdca4ae",
    "resource": {
      "resourceType": "Condition",
      "id": "4efecfdd-d50d-42d7-af28-8e5f8cdca4ae",
      "meta": {
        "profile": [ "http://hl7.org/fhir/us/qicore/StructureDefinition/qicore-condition-encounter-diagnosis" ]
      },
      "category": [ {
        "coding": [ {
          "system": "http://terminology.hl7.org/CodeSystem/condition-category",
          "code": "encounter-diagnosis",
          "display": "Encounter Diagnosis"
        } ]
      } ],
      "code": {
        "coding": [ {
          "system": "http://hl7.org/fhir/sid/icd-10-cm",
          "version": "2023",
          "code": "B20",
          "display": "HIV",
          "userSelected": true
        } ]
      },
      "subject": {
        "reference": "Patient/7225dafe-a1f6-4205-94f7-b4c3f413da99"
      },
      "recordedDate": "2026-10-26T08:00:00Z"
    },
    "request": {
      "method": "PUT",
      "url": "Condition/4efecfdd-d50d-42d7-af28-8e5f8cdca4ae"
    }
  }, {
    "fullUrl": "https://madie.cms.gov/MeasureReport/dace3d37-f1ad-4c39-9f9e-f4f720795ed0",
    "resource": {
      "resourceType": "MeasureReport",
      "id": "dace3d37-f1ad-4c39-9f9e-f4f720795ed0",
      "meta": {
        "profile": [ "http://hl7.org/fhir/us/cqfmeasures/StructureDefinition/test-case-cqfm" ]
      },
      "contained": [ {
        "resourceType": "Parameters",
        "id": "09a3a674-d7d3-463e-aee7-952e586b6581-parameters",
        "parameter": [ {
          "name": "subject",
          "valueString": "7225dafe-a1f6-4205-94f7-b4c3f413da99"
        } ]
      } ],
      "extension": [ {
        "url": "http://hl7.org/fhir/StructureDefinition/cqf-inputParameters",
        "valueReference": {
          "reference": "#09a3a674-d7d3-463e-aee7-952e586b6581-parameters"
        }
      }, {
        "url": "http://hl7.org/fhir/us/cqfmeasures/StructureDefinition/cqfm-testCaseDescription",
        "valueMarkdown": "Risk variable of HIV\n\n"
      } ],
      "modifierExtension": [ {
        "url": "http://hl7.org/fhir/us/cqfmeasures/StructureDefinition/cqfm-isTestCase",
        "valueBoolean": true
      } ],
      "status": "complete",
      "type": "individual",
      "measure": "https://madie.cms.gov/Measure/CMS1028FHIRPCSevereOBComps",
      "period": {
        "start": "2026-01-01",
        "end": "2026-12-31"
      },
      "group": [ {
        "id": "Group_1",
        "population": [ {
          "id": "InitialPopulation_1",
          "code": {
            "coding": [ {
              "system": "http://terminology.hl7.org/CodeSystem/measure-population",
              "code": "initial-population",
              "display": "Initial Population"
            } ]
          },
          "count": 1
        }, {
          "id": "Denominator_1",
          "code": {
            "coding": [ {
              "system": "http://terminology.hl7.org/CodeSystem/measure-population",
              "code": "denominator",
              "display": "Denominator"
            } ]
          },
          "count": 1
        }, {
          "id": "Numerator_1",
          "code": {
            "coding": [ {
              "system": "http://terminology.hl7.org/CodeSystem/measure-population",
              "code": "numerator",
              "display": "Numerator"
            } ]
          },
          "count": 1
        }, {
          "id": "NumeratorExclusion_1",
          "code": {
            "coding": [ {
              "system": "http://terminology.hl7.org/CodeSystem/measure-population",
              "code": "numerator-exclusion",
              "display": "Numerator Exclusion"
            } ]
          },
          "count": 0
        } ],
        "measureScore": {
          "value": 0.0
        }
      }, {
        "id": "Group_2",
        "population": [ {
          "id": "InitialPopulation_2",
          "code": {
            "coding": [ {
              "system": "http://terminology.hl7.org/CodeSystem/measure-population",
              "code": "initial-population",
              "display": "Initial Population"
            } ]
          },
          "count": 1
        }, {
          "id": "Denominator_2",
          "code": {
            "coding": [ {
              "system": "http://terminology.hl7.org/CodeSystem/measure-population",
              "code": "denominator",
              "display": "Denominator"
            } ]
          },
          "count": 1
        }, {
          "id": "Numerator_2",
          "code": {
            "coding": [ {
              "system": "http://terminology.hl7.org/CodeSystem/measure-population",
              "code": "numerator",
              "display": "Numerator"
            } ]
          },
          "count": 1
        }, {
          "id": "NumeratorExclusion_2",
          "code": {
            "coding": [ {
              "system": "http://terminology.hl7.org/CodeSystem/measure-population",
              "code": "numerator-exclusion",
              "display": "Numerator Exclusion"
            } ]
          },
          "count": 0
        } ],
        "measureScore": {
          "value": 0.0
        }
      } ],
      "evaluatedResource": [ {
        "reference": "Patient/7225dafe-a1f6-4205-94f7-b4c3f413da99"
      }, {
        "reference": "Observation/d592f7e0-e67a-44a7-9fcd-0dcb550c8989"
      }, {
        "reference": "Observation/a9e3ec80-a843-4a9b-bdb0-721292abc399"
      }, {
        "reference": "Encounter/22fabfe9-9aa1-4177-be9d-7054e75932a4"
      }, {
        "reference": "Procedure/0ed658f7-95c3-4527-832d-dbd1b6966953"
      }, {
        "reference": "Claim/0d7fba4a-7f57-46de-aa2d-b21e4b2ab258"
      }, {
        "reference": "Condition/c6ab7bf9-610d-4f1f-a96a-efa62b50e16f"
      }, {
        "reference": "Condition/4efecfdd-d50d-42d7-af28-8e5f8cdca4ae"
      } ]
    },
    "request": {
      "method": "PUT",
      "url": "MeasureReport/dace3d37-f1ad-4c39-9f9e-f4f720795ed0"
    }
  } ]
}