{
  "resourceType": "Bundle",
  "id": "612e6eac02c62a011f2ef380",
  "type": "transaction",
  "entry": [ {
    "fullUrl": "https://madie.cms.gov/Patient/48c37537-acc1-41a7-865e-254194f4cffa",
    "resource": {
      "resourceType": "Patient",
      "id": "48c37537-acc1-41a7-865e-254194f4cffa",
      "meta": {
        "profile": [ "http://hl7.org/fhir/us/qicore/StructureDefinition/qicore-patient" ]
      },
      "text": {
        "status": "generated",
        "div": "<div xmlns=\"http://www.w3.org/1999/xhtml\"><div class=\"hapiHeaderText\">EncB4MP <b>IPFAIL </b></div><table class=\"hapiPropertyTable\"><tbody><tr><td>Identifier</td><td>1971749ced0366ba55946d4deb756887</td></tr><tr><td>Date of birth</td><td><span>03 March 1974</span></td></tr></tbody></table></div>"
      },
      "extension": [ {
        "url": "http://hl7.org/fhir/us/core/StructureDefinition/us-core-race",
        "extension": [ {
          "url": "ombCategory",
          "valueCoding": {
            "system": "urn:oid:2.16.840.1.113883.6.238",
            "code": "1002-5",
            "display": "American Indian or Alaska Native",
            "userSelected": true
          }
        }, {
          "url": "text",
          "valueString": "American Indian or Alaska Native"
        } ]
      }, {
        "url": "http://hl7.org/fhir/us/core/StructureDefinition/us-core-ethnicity",
        "extension": [ {
          "url": "ombCategory",
          "valueCoding": {
            "system": "urn:oid:2.16.840.1.113883.6.238",
            "code": "2186-5",
            "display": "Not Hispanic or Latino",
            "userSelected": true
          }
        }, {
          "url": "text",
          "valueString": "Not Hispanic or Latino"
        } ]
      } ],
      "identifier": [ {
        "type": {
          "coding": [ {
            "system": "http://terminology.hl7.org/CodeSystem/v2-0203",
            "code": "MR"
          } ]
        },
        "system": "https://bonnie-fhir.healthit.gov/",
        "value": "612e6eac02c62a011f2ef380"
      } ],
      "active": true,
      "name": [ {
        "use": "usual",
        "family": "IPFail",
        "given": [ "EncB4MP" ]
      } ],
      "gender": "female",
      "birthDate": "1975-03-03"
    },
    "request": {
      "method": "PUT",
      "url": "Patient/48c37537-acc1-41a7-865e-254194f4cffa"
    }
  }, {
    "fullUrl": "https://madie.cms.gov/Encounter/f0b6d56e-2eb0-49e3-81de-d58a0a60ea19",
    "resource": {
      "resourceType": "Encounter",
      "id": "f0b6d56e-2eb0-49e3-81de-d58a0a60ea19",
      "meta": {
        "profile": [ "http://hl7.org/fhir/us/qicore/StructureDefinition/qicore-encounter" ]
      },
      "status": "finished",
      "class": {
        "system": "http://terminology.hl7.org/CodeSystem/v3-ActCode",
        "code": "IMP",
        "display": "inpatient encounter"
      },
      "type": [ {
        "coding": [ {
          "system": "http://snomed.info/sct",
          "code": "8715000"
        } ]
      } ],
      "subject": {
        "reference": "Patient/48c37537-acc1-41a7-865e-254194f4cffa"
      },
      "period": {
        "start": "2021-12-04T08:00:00.000+00:00",
        "end": "2021-12-30T08:15:00.000+00:00"
      },
      "length": {
        "value": 26.0,
        "unit": "days"
      }
    },
    "request": {
      "method": "PUT",
      "url": "Encounter/f0b6d56e-2eb0-49e3-81de-d58a0a60ea19"
    }
  }, {
    "fullUrl": "https://madie.cms.gov/Coverage/a5bc1ea8-9f11-4e84-810a-1c2b6d0b46ea",
    "resource": {
      "resourceType": "Coverage",
      "id": "a5bc1ea8-9f11-4e84-810a-1c2b6d0b46ea",
      "status": "active",
      "beneficiary": {
        "reference": "Patient/48c37537-acc1-41a7-865e-254194f4cffa"
      },
      "period": {
        "start": "1975-03-03T08:00:00.000+00:00"
      },
      "payor": [ {
        "reference": "Organization/9af3e4de-3000-4f14-9e15-f5d0371586e5"
      } ]
    },
    "request": {
      "method": "PUT",
      "url": "Coverage/a5bc1ea8-9f11-4e84-810a-1c2b6d0b46ea"
    }
  }, {
    "fullUrl": "https://madie.cms.gov/Condition/c3a1b238-2edb-45cf-9831-acfd6eb8e1bc",
    "resource": {
      "resourceType": "Condition",
      "id": "c3a1b238-2edb-45cf-9831-acfd6eb8e1bc",
      "category": [ {
        "coding": [ {
          "system": "http://terminology.hl7.org/CodeSystem/condition-category",
          "code": "problem-list-item",
          "display": "Problem List Item"
        } ]
      } ],
      "code": {
        "coding": [ {
          "system": "http://hl7.org/fhir/sid/icd-10-cm",
          "code": "I26.09"
        }, {
          "system": "http://hl7.org/fhir/sid/icd-9-cm",
          "code": "415.11"
        }, {
          "system": "http://snomed.info/sct",
          "code": "132251000119101"
        } ]
      },
      "subject": {
        "reference": "Patient/48c37537-acc1-41a7-865e-254194f4cffa"
      },
      "onsetPeriod": {
        "start": "2026-10-04T08:00:00.000+00:00",
        "end": "2026-10-05T08:15:00.000+00:00"
      }
    },
    "request": {
      "method": "PUT",
      "url": "Condition/c3a1b238-2edb-45cf-9831-acfd6eb8e1bc"
    }
  }, {
    "fullUrl": "https://madie.cms.gov/Organization/9af3e4de-3000-4f14-9e15-f5d0371586e5",
    "resource": {
      "resourceType": "Organization",
      "id": "9af3e4de-3000-4f14-9e15-f5d0371586e5",
      "meta": {
        "profile": [ "http://hl7.org/fhir/us/qicore/StructureDefinition/qicore-organization" ]
      },
      "identifier": [ {
        "use": "temp",
        "system": "urn:oid:2.16.840.1.113883.4.4",
        "value": "21-3259825"
      } ],
      "active": true,
      "type": [ {
        "coding": [ {
          "system": "http://terminology.hl7.org/CodeSystem/organization-type",
          "code": "pay",
          "display": "Payer"
        } ]
      } ],
      "name": "Blue Cross Blue Shield of Texas",
      "telecom": [ {
        "system": "phone",
        "value": "(+1) 972-766-6900"
      } ],
      "address": [ {
        "use": "billing",
        "type": "postal",
        "line": [ "P.O. Box 660044" ],
        "city": "Dallas",
        "state": "TX",
        "postalCode": "75266-0044",
        "country": "USA"
      } ]
    },
    "request": {
      "method": "PUT",
      "url": "Organization/9af3e4de-3000-4f14-9e15-f5d0371586e5"
    }
  }, {
    "fullUrl": "https://madie.cms.gov/Practitioner/f816c4c4-974e-444c-a041-191cbb2783a2",
    "resource": {
      "resourceType": "Practitioner",
      "id": "f816c4c4-974e-444c-a041-191cbb2783a2",
      "identifier": [ {
        "system": "http://hl7.org/fhir/sid/us-npi",
        "value": "123456"
      } ],
      "name": [ {
        "family": "Evil",
        "prefix": [ "Dr" ]
      } ]
    },
    "request": {
      "method": "PUT",
      "url": "Practitioner/f816c4c4-974e-444c-a041-191cbb2783a2"
    }
  }, {
    "fullUrl": "https://madie.cms.gov/MeasureReport/05d141e6-b5ea-4537-bc49-9350a2696c96",
    "resource": {
      "resourceType": "MeasureReport",
      "id": "05d141e6-b5ea-4537-bc49-9350a2696c96",
      "meta": {
        "profile": [ "http://hl7.org/fhir/us/cqfmeasures/StructureDefinition/test-case-cqfm" ]
      },
      "contained": [ {
        "resourceType": "Parameters",
        "id": "cbfbdfa7-bc07-4fff-a819-113964a64b56-parameters",
        "parameter": [ {
          "name": "subject",
          "valueString": "48c37537-acc1-41a7-865e-254194f4cffa"
        } ]
      } ],
      "extension": [ {
        "url": "http://hl7.org/fhir/StructureDefinition/cqf-inputParameters",
        "valueReference": {
          "reference": "#cbfbdfa7-bc07-4fff-a819-113964a64b56-parameters"
        }
      }, {
        "url": "http://hl7.org/fhir/us/cqfmeasures/StructureDefinition/cqfm-testCaseDescription",
        "valueMarkdown": "encounter before MP\n"
      } ],
      "modifierExtension": [ {
        "url": "http://hl7.org/fhir/us/cqfmeasures/StructureDefinition/cqfm-isTestCase",
        "valueBoolean": true
      } ],
      "status": "complete",
      "type": "individual",
      "measure": "https://madie.cms.gov/Measure/CMS190VTEProphylaxisICUFHIR",
      "period": {
        "start": "2026-01-01",
        "end": "2026-12-31"
      },
      "group": [ {
        "id": "Group_1",
        "population": [ {
          "id": "InitialPopulation_1",
          "code": {
            "coding": [ {
              "system": "http://terminology.hl7.org/CodeSystem/measure-population",
              "code": "initial-population",
              "display": "Initial Population"
            } ]
          },
          "count": 0
        }, {
          "id": "Denominator_1",
          "code": {
            "coding": [ {
              "system": "http://terminology.hl7.org/CodeSystem/measure-population",
              "code": "denominator",
              "display": "Denominator"
            } ]
          },
          "count": 0
        }, {
          "id": "DenominatorExclusion_1",
          "code": {
            "coding": [ {
              "system": "http://terminology.hl7.org/CodeSystem/measure-population",
              "code": "denominator-exclusion",
              "display": "Denominator Exclusion"
            } ]
          },
          "count": 0
        }, {
          "id": "Numerator_1",
          "code": {
            "coding": [ {
              "system": "http://terminology.hl7.org/CodeSystem/measure-population",
              "code": "numerator",
              "display": "Numerator"
            } ]
          },
          "count": 0
        }, {
          "id": "DenominatorException_1",
          "code": {
            "coding": [ {
              "system": "http://terminology.hl7.org/CodeSystem/measure-population",
              "code": "denominator-exception",
              "display": "Denominator Exception"
            } ]
          },
          "count": 0
        } ],
        "measureScore": {
          "value": 0.0
        }
      } ],
      "evaluatedResource": [ {
        "reference": "Patient/48c37537-acc1-41a7-865e-254194f4cffa"
      }, {
        "reference": "Encounter/f0b6d56e-2eb0-49e3-81de-d58a0a60ea19"
      }, {
        "reference": "Coverage/a5bc1ea8-9f11-4e84-810a-1c2b6d0b46ea"
      }, {
        "reference": "Condition/c3a1b238-2edb-45cf-9831-acfd6eb8e1bc"
      }, {
        "reference": "Organization/9af3e4de-3000-4f14-9e15-f5d0371586e5"
      }, {
        "reference": "Practitioner/f816c4c4-974e-444c-a041-191cbb2783a2"
      } ]
    },
    "request": {
      "method": "PUT",
      "url": "MeasureReport/05d141e6-b5ea-4537-bc49-9350a2696c96"
    }
  } ]
}