{
  "resourceType": "Bundle",
  "id": "62ec2386ea03a4ebacd6a073",
  "type": "transaction",
  "entry": [ {
    "fullUrl": "https://madie.cms.gov/Patient/f254d721-854c-4b26-9d14-e6052c341501",
    "resource": {
      "resourceType": "Patient",
      "id": "f254d721-854c-4b26-9d14-e6052c341501",
      "meta": {
        "profile": [ "http://hl7.org/fhir/us/qicore/StructureDefinition/qicore-patient" ]
      },
      "extension": [ {
        "url": "http://hl7.org/fhir/us/core/StructureDefinition/us-core-race",
        "extension": [ {
          "url": "ombCategory",
          "valueCoding": {
            "system": "urn:oid:2.16.840.1.113883.6.238",
            "code": "1002-5",
            "display": "American Indian or Alaska Native",
            "userSelected": true
          }
        }, {
          "url": "text",
          "valueString": "American Indian or Alaska Native"
        } ]
      }, {
        "url": "http://hl7.org/fhir/us/core/StructureDefinition/us-core-ethnicity",
        "extension": [ {
          "url": "ombCategory",
          "valueCoding": {
            "system": "urn:oid:2.16.840.1.113883.6.238",
            "code": "2135-2",
            "display": "Hispanic or Latino",
            "userSelected": true
          }
        }, {
          "url": "text",
          "valueString": "Hispanic or Latino"
        } ]
      } ],
      "identifier": [ {
        "type": {
          "coding": [ {
            "system": "http://terminology.hl7.org/CodeSystem/v2-0203",
            "code": "MR"
          } ]
        },
        "system": "https://bonnie-fhir.healthit.gov/",
        "value": "62ec2386ea03a4ebacd6a073"
      } ],
      "name": [ {
        "family": "IPPDenomFail",
        "given": [ "NoQualifyingEnc" ]
      } ],
      "gender": "male",
      "birthDate": "2008-01-01"
    },
    "request": {
      "method": "PUT",
      "url": "Patient/f254d721-854c-4b26-9d14-e6052c341501"
    }
  }, {
    "fullUrl": "https://madie.cms.gov/Coverage/1b4e78ba-5eee-4e37-b59d-6bb6b73184bb",
    "resource": {
      "resourceType": "Coverage",
      "id": "1b4e78ba-5eee-4e37-b59d-6bb6b73184bb",
      "meta": {
        "profile": [ "http://hl7.org/fhir/us/qicore/StructureDefinition/qicore-coverage" ]
      },
      "status": "active",
      "beneficiary": {
        "reference": "Patient/f254d721-854c-4b26-9d14-e6052c341501"
      },
      "payor": [ {
        "reference": "Organization/de666416-fd7d-4a70-b757-346c66068110"
      } ]
    },
    "request": {
      "method": "PUT",
      "url": "Coverage/1b4e78ba-5eee-4e37-b59d-6bb6b73184bb"
    }
  }, {
    "fullUrl": "https://madie.cms.gov/Organization/de666416-fd7d-4a70-b757-346c66068110",
    "resource": {
      "resourceType": "Organization",
      "id": "de666416-fd7d-4a70-b757-346c66068110",
      "meta": {
        "profile": [ "http://hl7.org/fhir/us/qicore/StructureDefinition/qicore-organization" ]
      },
      "identifier": [ {
        "use": "temp",
        "system": "urn:oid:2.16.840.1.113883.4.4",
        "value": "21-3259825"
      } ],
      "active": true,
      "type": [ {
        "coding": [ {
          "system": "http://terminology.hl7.org/CodeSystem/organization-type",
          "code": "pay",
          "display": "Payer"
        } ]
      } ],
      "name": "Blue Cross Blue Shield of Texas",
      "telecom": [ {
        "system": "phone",
        "value": "(+1) 972-766-6900"
      } ],
      "address": [ {
        "use": "billing",
        "type": "postal",
        "line": [ "P.O. Box 660044" ],
        "city": "Dallas",
        "state": "TX",
        "postalCode": "75266-0044",
        "country": "USA"
      } ]
    },
    "request": {
      "method": "PUT",
      "url": "Organization/de666416-fd7d-4a70-b757-346c66068110"
    }
  }, {
    "fullUrl": "https://madie.cms.gov/Practitioner/bb2edb35-782f-4a44-9ddb-254dbae24cdb",
    "resource": {
      "resourceType": "Practitioner",
      "id": "bb2edb35-782f-4a44-9ddb-254dbae24cdb",
      "meta": {
        "profile": [ "http://hl7.org/fhir/us/qicore/StructureDefinition/qicore-practitioner" ]
      },
      "identifier": [ {
        "system": "http://hl7.org/fhir/sid/us-npi",
        "value": "123456"
      } ],
      "name": [ {
        "family": "Evil",
        "prefix": [ "Dr" ]
      } ]
    },
    "request": {
      "method": "PUT",
      "url": "Practitioner/bb2edb35-782f-4a44-9ddb-254dbae24cdb"
    }
  }, {
    "fullUrl": "https://madie.cms.gov/MeasureReport/3351969f-2df8-4545-89a8-bdffbd4169a6",
    "resource": {
      "resourceType": "MeasureReport",
      "id": "3351969f-2df8-4545-89a8-bdffbd4169a6",
      "meta": {
        "profile": [ "http://hl7.org/fhir/us/cqfmeasures/StructureDefinition/test-case-cqfm" ]
      },
      "contained": [ {
        "resourceType": "Parameters",
        "id": "b4054d89-edef-4f29-9730-0444add5ded9-parameters",
        "parameter": [ {
          "name": "subject",
          "valueString": "f254d721-854c-4b26-9d14-e6052c341501"
        } ]
      } ],
      "extension": [ {
        "url": "http://hl7.org/fhir/StructureDefinition/cqf-inputParameters",
        "valueReference": {
          "reference": "#b4054d89-edef-4f29-9730-0444add5ded9-parameters"
        }
      }, {
        "url": "http://hl7.org/fhir/us/cqfmeasures/StructureDefinition/cqfm-testCaseDescription",
        "valueMarkdown": "No Qualifying encounter  "
      } ],
      "modifierExtension": [ {
        "url": "http://hl7.org/fhir/us/cqfmeasures/StructureDefinition/cqfm-isTestCase",
        "valueBoolean": true
      } ],
      "status": "complete",
      "type": "individual",
      "measure": "https://madie.cms.gov/Measure/CMS68FHIRDocumentationofCurrentMedications",
      "period": {
        "start": "2026-01-01",
        "end": "2026-12-31"
      },
      "group": [ {
        "id": "Group_1",
        "population": [ {
          "id": "InitialPopulation_1",
          "code": {
            "coding": [ {
              "system": "http://terminology.hl7.org/CodeSystem/measure-population",
              "code": "initial-population",
              "display": "Initial Population"
            } ]
          },
          "count": 0
        }, {
          "id": "Denominator_1",
          "code": {
            "coding": [ {
              "system": "http://terminology.hl7.org/CodeSystem/measure-population",
              "code": "denominator",
              "display": "Denominator"
            } ]
          },
          "count": 0
        }, {
          "id": "Numerator_1",
          "code": {
            "coding": [ {
              "system": "http://terminology.hl7.org/CodeSystem/measure-population",
              "code": "numerator",
              "display": "Numerator"
            } ]
          },
          "count": 0
        }, {
          "id": "DenominatorException_1",
          "code": {
            "coding": [ {
              "system": "http://terminology.hl7.org/CodeSystem/measure-population",
              "code": "denominator-exception",
              "display": "Denominator Exception"
            } ]
          },
          "count": 0
        } ],
        "measureScore": {
          "value": 0.0
        }
      } ],
      "evaluatedResource": [ {
        "reference": "Patient/f254d721-854c-4b26-9d14-e6052c341501"
      }, {
        "reference": "Coverage/1b4e78ba-5eee-4e37-b59d-6bb6b73184bb"
      }, {
        "reference": "Organization/de666416-fd7d-4a70-b757-346c66068110"
      }, {
        "reference": "Practitioner/bb2edb35-782f-4a44-9ddb-254dbae24cdb"
      } ]
    },
    "request": {
      "method": "PUT",
      "url": "MeasureReport/3351969f-2df8-4545-89a8-bdffbd4169a6"
    }
  } ]
}