{"resourceType":"Bundle","id":"tests-14943c8d-1551-4449-b244-f3381a6f4e28-bundle","type":"transaction","entry":[{"resource":{"resourceType":"Bundle","id":"62ec2954ea03a4ebacd6a07d","type":"transaction","entry":[{"fullUrl":"https://madie.cms.gov/Patient/14943c8d-1551-4449-b244-f3381a6f4e28","resource":{"resourceType":"Patient","id":"14943c8d-1551-4449-b244-f3381a6f4e28","meta":{"profile":["http://hl7.org/fhir/us/qicore/StructureDefinition/qicore-patient"]},"extension":[{"url":"http://hl7.org/fhir/us/core/StructureDefinition/us-core-race","extension":[{"url":"ombCategory","valueCoding":{"system":"urn:oid:2.16.840.1.113883.6.238","code":"2054-5","display":"Black or African American","userSelected":true}},{"url":"text","valueString":"Black or African American"}]},{"url":"http://hl7.org/fhir/us/core/StructureDefinition/us-core-ethnicity","extension":[{"url":"ombCategory","valueCoding":{"system":"urn:oid:2.16.840.1.113883.6.238","code":"2186-5","display":"Not Hispanic or Latino","userSelected":true}},{"url":"text","valueString":"Not Hispanic or Latino"}]},{"url":"http://hl7.org/fhir/us/core/StructureDefinition/us-core-sex","valueCode":"248152002"}],"identifier":[{"type":{"coding":[{"system":"http://terminology.hl7.org/CodeSystem/v2-0203","code":"MR"}]},"system":"https://bonnie-fhir.healthit.gov/","value":"62ec2954ea03a4ebacd6a07d"}],"name":[{"family":"IPPDenomFail","given":["Encounter1MinAfterMPEnds"]}],"gender":"female","birthDate":"2008-01-02"},"request":{"method":"PUT","url":"Patient/14943c8d-1551-4449-b244-f3381a6f4e28"}},{"fullUrl":"https://madie.cms.gov/Encounter/565ceb86-6c1e-498b-8445-04f93c9ccf95","resource":{"resourceType":"Encounter","id":"565ceb86-6c1e-498b-8445-04f93c9ccf95","meta":{"profile":["http://hl7.org/fhir/us/qicore/StructureDefinition/qicore-encounter"]},"status":"finished","class":{"system":"http://terminology.hl7.org/CodeSystem/v3-ActCode","code":"IMP","display":"inpatient encounter"},"type":[{"coding":[{"system":"http://snomed.info/sct","version":"2022-03","code":"10197000","display":"Psychiatric interview and evaluation (procedure)","userSelected":true}]}],"subject":{"reference":"Patient/14943c8d-1551-4449-b244-f3381a6f4e28"},"period":{"start":"2027-01-01T00:01:00.000+00:00","end":"2027-01-02T08:15:00.000+00:00"}},"request":{"method":"PUT","url":"Encounter/565ceb86-6c1e-498b-8445-04f93c9ccf95"}},{"fullUrl":"https://madie.cms.gov/MeasureReport/4c41467e-0a1b-40bf-9dc9-77fce21f75e6","resource":{"resourceType":"MeasureReport","id":"4c41467e-0a1b-40bf-9dc9-77fce21f75e6","meta":{"profile":["http://hl7.org/fhir/us/cqfmeasures/StructureDefinition/test-case-cqfm"]},"contained":[{"resourceType":"Parameters","id":"b9ba3099-3e9d-41ce-8c6e-3090db469a68-parameters","parameter":[{"name":"subject","valueString":"14943c8d-1551-4449-b244-f3381a6f4e28"}]}],"extension":[{"url":"http://hl7.org/fhir/StructureDefinition/cqf-inputParameters","valueReference":{"reference":"#b9ba3099-3e9d-41ce-8c6e-3090db469a68-parameters"}},{"url":"http://hl7.org/fhir/us/cqfmeasures/StructureDefinition/cqfm-testCaseDescription","valueMarkdown":"Encounter outside MP - 1 min after MP ends"}],"modifierExtension":[{"url":"http://hl7.org/fhir/us/cqfmeasures/StructureDefinition/cqfm-isTestCase","valueBoolean":true}],"status":"complete","type":"individual","measure":"https://madie.cms.gov/Measure/CMS68FHIRDocumentationofCurrentMedications","period":{"start":"2026-01-01","end":"2026-12-31"},"group":[{"id":"Group_1","population":[{"id":"InitialPopulation_1","code":{"coding":[{"system":"http://terminology.hl7.org/CodeSystem/measure-population","code":"initial-population","display":"Initial Population"}]},"count":0},{"id":"Denominator_1","code":{"coding":[{"system":"http://terminology.hl7.org/CodeSystem/measure-population","code":"denominator","display":"Denominator"}]},"count":0},{"id":"Numerator_1","code":{"coding":[{"system":"http://terminology.hl7.org/CodeSystem/measure-population","code":"numerator","display":"Numerator"}]},"count":0},{"id":"DenominatorException_1","code":{"coding":[{"system":"http://terminology.hl7.org/CodeSystem/measure-population","code":"denominator-exception","display":"Denominator Exception"}]},"count":0}],"measureScore":{"value":0.0}}],"evaluatedResource":[{"reference":"Patient/14943c8d-1551-4449-b244-f3381a6f4e28"},{"reference":"Encounter/565ceb86-6c1e-498b-8445-04f93c9ccf95"}]},"request":{"method":"PUT","url":"MeasureReport/4c41467e-0a1b-40bf-9dc9-77fce21f75e6"}}]},"request":{"method":"PUT","url":"Bundle/62ec2954ea03a4ebacd6a07d"}},{"resource":{"resourceType":"Encounter","id":"565ceb86-6c1e-498b-8445-04f93c9ccf95","meta":{"profile":["http://hl7.org/fhir/us/qicore/StructureDefinition/qicore-encounter"]},"status":"finished","class":{"system":"http://terminology.hl7.org/CodeSystem/v3-ActCode","code":"IMP","display":"inpatient encounter"},"type":[{"coding":[{"system":"http://snomed.info/sct","version":"2022-03","code":"10197000","display":"Psychiatric interview and evaluation (procedure)","userSelected":true}]}],"subject":{"reference":"Patient/14943c8d-1551-4449-b244-f3381a6f4e28"},"period":{"start":"2027-01-01T00:01:00.000+00:00","end":"2027-01-02T08:15:00.000+00:00"}},"request":{"method":"PUT","url":"Encounter/565ceb86-6c1e-498b-8445-04f93c9ccf95"}},{"resource":{"resourceType":"MeasureReport","id":"4c41467e-0a1b-40bf-9dc9-77fce21f75e6","meta":{"profile":["http://hl7.org/fhir/us/cqfmeasures/StructureDefinition/test-case-cqfm"]},"contained":[{"resourceType":"Parameters","id":"b9ba3099-3e9d-41ce-8c6e-3090db469a68-parameters","parameter":[{"name":"subject","valueString":"14943c8d-1551-4449-b244-f3381a6f4e28"}]}],"extension":[{"url":"http://hl7.org/fhir/StructureDefinition/cqf-inputParameters","valueReference":{"reference":"#b9ba3099-3e9d-41ce-8c6e-3090db469a68-parameters"}},{"url":"http://hl7.org/fhir/us/cqfmeasures/StructureDefinition/cqfm-testCaseDescription","valueMarkdown":"Encounter outside MP - 1 min after MP ends"}],"modifierExtension":[{"url":"http://hl7.org/fhir/us/cqfmeasures/StructureDefinition/cqfm-isTestCase","valueBoolean":true}],"status":"complete","type":"individual","measure":"https://madie.cms.gov/Measure/CMS68FHIRDocumentationofCurrentMedications","period":{"start":"2026-01-01","end":"2026-12-31"},"group":[{"id":"Group_1","population":[{"id":"InitialPopulation_1","code":{"coding":[{"system":"http://terminology.hl7.org/CodeSystem/measure-population","code":"initial-population","display":"Initial Population"}]},"count":0},{"id":"Denominator_1","code":{"coding":[{"system":"http://terminology.hl7.org/CodeSystem/measure-population","code":"denominator","display":"Denominator"}]},"count":0},{"id":"Numerator_1","code":{"coding":[{"system":"http://terminology.hl7.org/CodeSystem/measure-population","code":"numerator","display":"Numerator"}]},"count":0},{"id":"DenominatorException_1","code":{"coding":[{"system":"http://terminology.hl7.org/CodeSystem/measure-population","code":"denominator-exception","display":"Denominator Exception"}]},"count":0}],"measureScore":{"value":0.0}}],"evaluatedResource":[{"reference":"Patient/14943c8d-1551-4449-b244-f3381a6f4e28"},{"reference":"Encounter/565ceb86-6c1e-498b-8445-04f93c9ccf95"}]},"request":{"method":"PUT","url":"MeasureReport/4c41467e-0a1b-40bf-9dc9-77fce21f75e6"}},{"resource":{"resourceType":"Patient","id":"14943c8d-1551-4449-b244-f3381a6f4e28","meta":{"profile":["http://hl7.org/fhir/us/qicore/StructureDefinition/qicore-patient"]},"extension":[{"url":"http://hl7.org/fhir/us/core/StructureDefinition/us-core-race","extension":[{"url":"ombCategory","valueCoding":{"system":"urn:oid:2.16.840.1.113883.6.238","code":"2054-5","display":"Black or African American","userSelected":true}},{"url":"text","valueString":"Black or African American"}]},{"url":"http://hl7.org/fhir/us/core/StructureDefinition/us-core-ethnicity","extension":[{"url":"ombCategory","valueCoding":{"system":"urn:oid:2.16.840.1.113883.6.238","code":"2186-5","display":"Not Hispanic or Latino","userSelected":true}},{"url":"text","valueString":"Not Hispanic or Latino"}]},{"url":"http://hl7.org/fhir/us/core/StructureDefinition/us-core-sex","valueCode":"248152002"}],"identifier":[{"type":{"coding":[{"system":"http://terminology.hl7.org/CodeSystem/v2-0203","code":"MR"}]},"system":"https://bonnie-fhir.healthit.gov/","value":"62ec2954ea03a4ebacd6a07d"}],"name":[{"family":"IPPDenomFail","given":["Encounter1MinAfterMPEnds"]}],"gender":"female","birthDate":"2008-01-02"},"request":{"method":"PUT","url":"Patient/14943c8d-1551-4449-b244-f3381a6f4e28"}}]}