{"resourceType":"Bundle","id":"tests-0111c1a9-1590-40d6-8023-0e3bd45d493e-bundle","type":"transaction","entry":[{"resource":{"resourceType":"Bundle","id":"62ec2643ea03a4ebacd6a077","type":"transaction","entry":[{"fullUrl":"https://madie.cms.gov/Patient/0111c1a9-1590-40d6-8023-0e3bd45d493e","resource":{"resourceType":"Patient","id":"0111c1a9-1590-40d6-8023-0e3bd45d493e","meta":{"profile":["http://hl7.org/fhir/us/qicore/StructureDefinition/qicore-patient"]},"extension":[{"url":"http://hl7.org/fhir/us/core/StructureDefinition/us-core-race","extension":[{"url":"ombCategory","valueCoding":{"system":"urn:oid:2.16.840.1.113883.6.238","code":"1002-5","display":"American Indian or Alaska Native","userSelected":true}},{"url":"text","valueString":"American Indian or Alaska Native"}]},{"url":"http://hl7.org/fhir/us/core/StructureDefinition/us-core-ethnicity","extension":[{"url":"ombCategory","valueCoding":{"system":"urn:oid:2.16.840.1.113883.6.238","code":"2186-5","display":"Not Hispanic or Latino","userSelected":true}},{"url":"text","valueString":"Not Hispanic or Latino"}]}],"identifier":[{"type":{"coding":[{"system":"http://terminology.hl7.org/CodeSystem/v2-0203","code":"MR"}]},"system":"https://bonnie-fhir.healthit.gov/","value":"62ec2643ea03a4ebacd6a077"}],"name":[{"family":"IPPDenomFail","given":["EncAfterMP"]}],"gender":"female","birthDate":"1990-12-31"},"request":{"method":"PUT","url":"Patient/0111c1a9-1590-40d6-8023-0e3bd45d493e"}},{"fullUrl":"https://madie.cms.gov/Encounter/0b17f2b0-3c8d-4c41-a720-af4b3ae9a605","resource":{"resourceType":"Encounter","id":"0b17f2b0-3c8d-4c41-a720-af4b3ae9a605","meta":{"profile":["http://hl7.org/fhir/us/qicore/StructureDefinition/qicore-encounter"]},"status":"finished","class":{"system":"http://terminology.hl7.org/CodeSystem/v3-ActCode","code":"IMP","display":"inpatient encounter"},"type":[{"coding":[{"system":"http://snomed.info/sct","version":"2022-03","code":"10197000","display":"Psychiatric interview and evaluation (procedure)","userSelected":true}]}],"subject":{"reference":"Patient/0111c1a9-1590-40d6-8023-0e3bd45d493e"},"period":{"start":"2027-01-01T00:10:00.000+00:00","end":"2027-01-01T00:15:00.000+00:00"}},"request":{"method":"PUT","url":"Encounter/0b17f2b0-3c8d-4c41-a720-af4b3ae9a605"}},{"fullUrl":"https://madie.cms.gov/MeasureReport/08ca716b-7dee-439c-be34-436ee034ea94","resource":{"resourceType":"MeasureReport","id":"08ca716b-7dee-439c-be34-436ee034ea94","meta":{"profile":["http://hl7.org/fhir/us/cqfmeasures/StructureDefinition/test-case-cqfm"]},"contained":[{"resourceType":"Parameters","id":"baff7df1-885d-4123-aaf3-a6fb07df38e6-parameters","parameter":[{"name":"subject","valueString":"0111c1a9-1590-40d6-8023-0e3bd45d493e"}]}],"extension":[{"url":"http://hl7.org/fhir/StructureDefinition/cqf-inputParameters","valueReference":{"reference":"#baff7df1-885d-4123-aaf3-a6fb07df38e6-parameters"}},{"url":"http://hl7.org/fhir/us/cqfmeasures/StructureDefinition/cqfm-testCaseDescription","valueMarkdown":"Qualifying encounter status finished after MP"}],"modifierExtension":[{"url":"http://hl7.org/fhir/us/cqfmeasures/StructureDefinition/cqfm-isTestCase","valueBoolean":true}],"status":"complete","type":"individual","measure":"https://madie.cms.gov/Measure/CMS68FHIRDocumentationofCurrentMedications","period":{"start":"2026-01-01","end":"2026-12-31"},"group":[{"id":"Group_1","population":[{"id":"InitialPopulation_1","code":{"coding":[{"system":"http://terminology.hl7.org/CodeSystem/measure-population","code":"initial-population","display":"Initial Population"}]},"count":0},{"id":"Denominator_1","code":{"coding":[{"system":"http://terminology.hl7.org/CodeSystem/measure-population","code":"denominator","display":"Denominator"}]},"count":0},{"id":"Numerator_1","code":{"coding":[{"system":"http://terminology.hl7.org/CodeSystem/measure-population","code":"numerator","display":"Numerator"}]},"count":0},{"id":"DenominatorException_1","code":{"coding":[{"system":"http://terminology.hl7.org/CodeSystem/measure-population","code":"denominator-exception","display":"Denominator Exception"}]},"count":0}],"measureScore":{"value":0.0}}],"evaluatedResource":[{"reference":"Patient/0111c1a9-1590-40d6-8023-0e3bd45d493e"},{"reference":"Encounter/0b17f2b0-3c8d-4c41-a720-af4b3ae9a605"}]},"request":{"method":"PUT","url":"MeasureReport/08ca716b-7dee-439c-be34-436ee034ea94"}}]},"request":{"method":"PUT","url":"Bundle/62ec2643ea03a4ebacd6a077"}},{"resource":{"resourceType":"Patient","id":"0111c1a9-1590-40d6-8023-0e3bd45d493e","meta":{"profile":["http://hl7.org/fhir/us/qicore/StructureDefinition/qicore-patient"]},"extension":[{"url":"http://hl7.org/fhir/us/core/StructureDefinition/us-core-race","extension":[{"url":"ombCategory","valueCoding":{"system":"urn:oid:2.16.840.1.113883.6.238","code":"1002-5","display":"American Indian or Alaska Native","userSelected":true}},{"url":"text","valueString":"American Indian or Alaska Native"}]},{"url":"http://hl7.org/fhir/us/core/StructureDefinition/us-core-ethnicity","extension":[{"url":"ombCategory","valueCoding":{"system":"urn:oid:2.16.840.1.113883.6.238","code":"2186-5","display":"Not Hispanic or Latino","userSelected":true}},{"url":"text","valueString":"Not Hispanic or Latino"}]}],"identifier":[{"type":{"coding":[{"system":"http://terminology.hl7.org/CodeSystem/v2-0203","code":"MR"}]},"system":"https://bonnie-fhir.healthit.gov/","value":"62ec2643ea03a4ebacd6a077"}],"name":[{"family":"IPPDenomFail","given":["EncAfterMP"]}],"gender":"female","birthDate":"1990-12-31"},"request":{"method":"PUT","url":"Patient/0111c1a9-1590-40d6-8023-0e3bd45d493e"}},{"resource":{"resourceType":"Encounter","id":"0b17f2b0-3c8d-4c41-a720-af4b3ae9a605","meta":{"profile":["http://hl7.org/fhir/us/qicore/StructureDefinition/qicore-encounter"]},"status":"finished","class":{"system":"http://terminology.hl7.org/CodeSystem/v3-ActCode","code":"IMP","display":"inpatient encounter"},"type":[{"coding":[{"system":"http://snomed.info/sct","version":"2022-03","code":"10197000","display":"Psychiatric interview and evaluation (procedure)","userSelected":true}]}],"subject":{"reference":"Patient/0111c1a9-1590-40d6-8023-0e3bd45d493e"},"period":{"start":"2027-01-01T00:10:00.000+00:00","end":"2027-01-01T00:15:00.000+00:00"}},"request":{"method":"PUT","url":"Encounter/0b17f2b0-3c8d-4c41-a720-af4b3ae9a605"}},{"resource":{"resourceType":"MeasureReport","id":"08ca716b-7dee-439c-be34-436ee034ea94","meta":{"profile":["http://hl7.org/fhir/us/cqfmeasures/StructureDefinition/test-case-cqfm"]},"contained":[{"resourceType":"Parameters","id":"baff7df1-885d-4123-aaf3-a6fb07df38e6-parameters","parameter":[{"name":"subject","valueString":"0111c1a9-1590-40d6-8023-0e3bd45d493e"}]}],"extension":[{"url":"http://hl7.org/fhir/StructureDefinition/cqf-inputParameters","valueReference":{"reference":"#baff7df1-885d-4123-aaf3-a6fb07df38e6-parameters"}},{"url":"http://hl7.org/fhir/us/cqfmeasures/StructureDefinition/cqfm-testCaseDescription","valueMarkdown":"Qualifying encounter status finished after MP"}],"modifierExtension":[{"url":"http://hl7.org/fhir/us/cqfmeasures/StructureDefinition/cqfm-isTestCase","valueBoolean":true}],"status":"complete","type":"individual","measure":"https://madie.cms.gov/Measure/CMS68FHIRDocumentationofCurrentMedications","period":{"start":"2026-01-01","end":"2026-12-31"},"group":[{"id":"Group_1","population":[{"id":"InitialPopulation_1","code":{"coding":[{"system":"http://terminology.hl7.org/CodeSystem/measure-population","code":"initial-population","display":"Initial Population"}]},"count":0},{"id":"Denominator_1","code":{"coding":[{"system":"http://terminology.hl7.org/CodeSystem/measure-population","code":"denominator","display":"Denominator"}]},"count":0},{"id":"Numerator_1","code":{"coding":[{"system":"http://terminology.hl7.org/CodeSystem/measure-population","code":"numerator","display":"Numerator"}]},"count":0},{"id":"DenominatorException_1","code":{"coding":[{"system":"http://terminology.hl7.org/CodeSystem/measure-population","code":"denominator-exception","display":"Denominator Exception"}]},"count":0}],"measureScore":{"value":0.0}}],"evaluatedResource":[{"reference":"Patient/0111c1a9-1590-40d6-8023-0e3bd45d493e"},{"reference":"Encounter/0b17f2b0-3c8d-4c41-a720-af4b3ae9a605"}]},"request":{"method":"PUT","url":"MeasureReport/08ca716b-7dee-439c-be34-436ee034ea94"}}]}