{"resourceType":"Bundle","id":"tests-1e954801-6437-4abc-8fb8-d36b5b5b97d8-bundle","type":"transaction","entry":[{"fullUrl":"Condition/2898e729-46e2-43b9-a935-72a23d09a37f","resource":{"resourceType":"Condition","id":"2898e729-46e2-43b9-a935-72a23d09a37f","meta":{"profile":["http://hl7.org/fhir/us/qicore/StructureDefinition/qicore-condition-encounter-diagnosis"]},"clinicalStatus":{"coding":[{"system":"http://terminology.hl7.org/CodeSystem/condition-clinical","code":"active"}]},"category":[{"coding":[{"system":"http://terminology.hl7.org/CodeSystem/condition-category","code":"encounter-diagnosis","display":"Encounter Diagnosis"}]}],"code":{"coding":[{"system":"http://snomed.info/sct","code":"102781000119107","display":"Sensory neuropathy due to type 1 diabetes mellitus (disorder)"}]},"subject":{"reference":"Patient/1e954801-6437-4abc-8fb8-d36b5b5b97d8"},"onsetDateTime":"2026-01-01T23:59:00Z"},"request":{"method":"PUT","url":"Condition/2898e729-46e2-43b9-a935-72a23d09a37f"}},{"fullUrl":"Encounter/07555460-75d9-43b6-b0c0-7295bb9926a2","resource":{"resourceType":"Encounter","id":"07555460-75d9-43b6-b0c0-7295bb9926a2","meta":{"profile":["http://hl7.org/fhir/us/qicore/StructureDefinition/qicore-encounter"]},"status":"finished","class":{"system":"http://terminology.hl7.org/CodeSystem/v3-ActCode","code":"AMB","display":"ambulatory"},"type":[{"coding":[{"system":"http://www.cms.gov/Medicare/Coding/HCPCSReleaseCodeSets","code":"G0271","display":"Medical nutrition therapy, reassessment and subsequent intervention(s) following second referral in same year for change in diagnosis, medical condition, or treatment regimen (including additional hours needed for renal disease), group (2 or more individuals), each 30 minutes"}]}],"subject":{"reference":"Patient/1e954801-6437-4abc-8fb8-d36b5b5b97d8"},"period":{"start":"2026-01-01T00:00:00Z","end":"2026-01-01T00:15:00Z"}},"request":{"method":"PUT","url":"Encounter/07555460-75d9-43b6-b0c0-7295bb9926a2"}},{"fullUrl":"Bundle/Patient-IPPass-MedicalNutritionTherapy","resource":{"resourceType":"Bundle","id":"Patient-IPPass-MedicalNutritionTherapy","type":"transaction","entry":[{"fullUrl":"https://madie.cms.gov/Patient/1e954801-6437-4abc-8fb8-d36b5b5b97d8","resource":{"resourceType":"Patient","id":"1e954801-6437-4abc-8fb8-d36b5b5b97d8","meta":{"profile":["http://hl7.org/fhir/us/qicore/StructureDefinition/qicore-patient"]},"extension":[{"url":"http://hl7.org/fhir/us/core/StructureDefinition/us-core-race","extension":[{"url":"ombCategory","valueCoding":{"system":"urn:oid:2.16.840.1.113883.6.238","code":"2028-9","display":"Asian"}},{"url":"text","valueString":"Asian"}]},{"url":"http://hl7.org/fhir/us/core/StructureDefinition/us-core-ethnicity","extension":[{"url":"ombCategory","valueCoding":{"system":"urn:oid:2.16.840.1.113883.6.238","code":"2135-2","display":"Hispanic or Latino"}},{"url":"text","valueString":"Hispanic or Latino"}]}],"identifier":[{"system":"http://hospital.smarthealthit.org","value":"999999995"}],"name":[{"family":"Bertha","given":["Betty"]}],"gender":"female","birthDate":"2008-01-01"},"request":{"method":"PUT","url":"Patient/1e954801-6437-4abc-8fb8-d36b5b5b97d8"}},{"fullUrl":"https://madie.cms.gov/Encounter/07555460-75d9-43b6-b0c0-7295bb9926a2","resource":{"resourceType":"Encounter","id":"07555460-75d9-43b6-b0c0-7295bb9926a2","meta":{"profile":["http://hl7.org/fhir/us/qicore/StructureDefinition/qicore-encounter"]},"status":"finished","class":{"system":"http://terminology.hl7.org/CodeSystem/v3-ActCode","code":"AMB","display":"ambulatory"},"type":[{"coding":[{"system":"http://www.cms.gov/Medicare/Coding/HCPCSReleaseCodeSets","code":"G0271","display":"Medical nutrition therapy, reassessment and subsequent intervention(s) following second referral in same year for change in diagnosis, medical condition, or treatment regimen (including additional hours needed for renal disease), group (2 or more individuals), each 30 minutes"}]}],"subject":{"reference":"Patient/1e954801-6437-4abc-8fb8-d36b5b5b97d8"},"period":{"start":"2026-01-01T00:00:00Z","end":"2026-01-01T00:15:00Z"}},"request":{"method":"PUT","url":"Encounter/07555460-75d9-43b6-b0c0-7295bb9926a2"}},{"fullUrl":"https://madie.cms.gov/Condition/2898e729-46e2-43b9-a935-72a23d09a37f","resource":{"resourceType":"Condition","id":"2898e729-46e2-43b9-a935-72a23d09a37f","meta":{"profile":["http://hl7.org/fhir/us/qicore/StructureDefinition/qicore-condition-encounter-diagnosis"]},"clinicalStatus":{"coding":[{"system":"http://terminology.hl7.org/CodeSystem/condition-clinical","code":"active"}]},"category":[{"coding":[{"system":"http://terminology.hl7.org/CodeSystem/condition-category","code":"encounter-diagnosis","display":"Encounter Diagnosis"}]}],"code":{"coding":[{"system":"http://snomed.info/sct","code":"102781000119107","display":"Sensory neuropathy due to type 1 diabetes mellitus (disorder)"}]},"subject":{"reference":"Patient/1e954801-6437-4abc-8fb8-d36b5b5b97d8"},"onsetDateTime":"2026-01-01T23:59:00Z"},"request":{"method":"PUT","url":"Condition/2898e729-46e2-43b9-a935-72a23d09a37f"}},{"fullUrl":"https://madie.cms.gov/MeasureReport/dd2cc323-1f39-4d6c-977a-2ae6b7ec7dd5","resource":{"resourceType":"MeasureReport","id":"dd2cc323-1f39-4d6c-977a-2ae6b7ec7dd5","meta":{"profile":["http://hl7.org/fhir/us/cqfmeasures/StructureDefinition/test-case-cqfm"]},"contained":[{"resourceType":"Parameters","id":"983cbdbc-ce88-4d57-b492-f22e5165cf31-parameters","parameter":[{"name":"subject","valueString":"1e954801-6437-4abc-8fb8-d36b5b5b97d8"}]}],"extension":[{"url":"http://hl7.org/fhir/StructureDefinition/cqf-inputParameters","valueReference":{"reference":"#983cbdbc-ce88-4d57-b492-f22e5165cf31-parameters"}},{"url":"http://hl7.org/fhir/us/cqfmeasures/StructureDefinition/cqfm-testCaseDescription","valueMarkdown":"Encounter is medical nutrition therapy, reassessment/subsequent intervention(s) after 2nd referral same year for dx change, med condition, or treatment regimen (incl. additional hrs. needed for renal disease), group (2+ individuals), each 30 minutes"}],"modifierExtension":[{"url":"http://hl7.org/fhir/us/cqfmeasures/StructureDefinition/cqfm-isTestCase","valueBoolean":true}],"status":"complete","type":"individual","measure":"https://madie.cms.gov/Measure/CMS122FHIRDiabetesAssessGreaterThan9Percent","period":{"start":"2026-01-01","end":"2026-12-31"},"group":[{"id":"Group_1","population":[{"id":"InitialPopulation_1","code":{"coding":[{"system":"http://terminology.hl7.org/CodeSystem/measure-population","code":"initial-population","display":"Initial Population"}]},"count":1},{"id":"Denominator_1","code":{"coding":[{"system":"http://terminology.hl7.org/CodeSystem/measure-population","code":"denominator","display":"Denominator"}]},"count":1},{"id":"DenominatorExclusion_1","code":{"coding":[{"system":"http://terminology.hl7.org/CodeSystem/measure-population","code":"denominator-exclusion","display":"Denominator Exclusion"}]},"count":0},{"id":"Numerator_1","code":{"coding":[{"system":"http://terminology.hl7.org/CodeSystem/measure-population","code":"numerator","display":"Numerator"}]},"count":1}],"measureScore":{"value":1.0}}],"evaluatedResource":[{"reference":"Patient/1e954801-6437-4abc-8fb8-d36b5b5b97d8"},{"reference":"Encounter/07555460-75d9-43b6-b0c0-7295bb9926a2"},{"reference":"Condition/2898e729-46e2-43b9-a935-72a23d09a37f"}]},"request":{"method":"PUT","url":"MeasureReport/dd2cc323-1f39-4d6c-977a-2ae6b7ec7dd5"}}]},"request":{"method":"PUT","url":"Bundle/Patient-IPPass-MedicalNutritionTherapy"}},{"fullUrl":"Patient/1e954801-6437-4abc-8fb8-d36b5b5b97d8","resource":{"resourceType":"Patient","id":"1e954801-6437-4abc-8fb8-d36b5b5b97d8","meta":{"profile":["http://hl7.org/fhir/us/qicore/StructureDefinition/qicore-patient"]},"extension":[{"url":"http://hl7.org/fhir/us/core/StructureDefinition/us-core-race","extension":[{"url":"ombCategory","valueCoding":{"system":"urn:oid:2.16.840.1.113883.6.238","code":"2028-9","display":"Asian"}},{"url":"text","valueString":"Asian"}]},{"url":"http://hl7.org/fhir/us/core/StructureDefinition/us-core-ethnicity","extension":[{"url":"ombCategory","valueCoding":{"system":"urn:oid:2.16.840.1.113883.6.238","code":"2135-2","display":"Hispanic or Latino"}},{"url":"text","valueString":"Hispanic or Latino"}]}],"identifier":[{"system":"http://hospital.smarthealthit.org","value":"999999995"}],"name":[{"family":"Bertha","given":["Betty"]}],"gender":"female","birthDate":"2008-01-01"},"request":{"method":"PUT","url":"Patient/1e954801-6437-4abc-8fb8-d36b5b5b97d8"}},{"fullUrl":"MeasureReport/dd2cc323-1f39-4d6c-977a-2ae6b7ec7dd5","resource":{"resourceType":"MeasureReport","id":"dd2cc323-1f39-4d6c-977a-2ae6b7ec7dd5","meta":{"profile":["http://hl7.org/fhir/us/cqfmeasures/StructureDefinition/test-case-cqfm"]},"contained":[{"resourceType":"Parameters","id":"983cbdbc-ce88-4d57-b492-f22e5165cf31-parameters","parameter":[{"name":"subject","valueString":"1e954801-6437-4abc-8fb8-d36b5b5b97d8"}]}],"extension":[{"url":"http://hl7.org/fhir/StructureDefinition/cqf-inputParameters","valueReference":{"reference":"#983cbdbc-ce88-4d57-b492-f22e5165cf31-parameters"}},{"url":"http://hl7.org/fhir/us/cqfmeasures/StructureDefinition/cqfm-testCaseDescription","valueMarkdown":"Encounter is medical nutrition therapy, reassessment/subsequent intervention(s) after 2nd referral same year for dx change, med condition, or treatment regimen (incl. additional hrs. needed for renal disease), group (2+ individuals), each 30 minutes"}],"modifierExtension":[{"url":"http://hl7.org/fhir/us/cqfmeasures/StructureDefinition/cqfm-isTestCase","valueBoolean":true}],"status":"complete","type":"individual","measure":"https://madie.cms.gov/Measure/CMS122FHIRDiabetesAssessGreaterThan9Percent","period":{"start":"2026-01-01","end":"2026-12-31"},"group":[{"id":"Group_1","population":[{"id":"InitialPopulation_1","code":{"coding":[{"system":"http://terminology.hl7.org/CodeSystem/measure-population","code":"initial-population","display":"Initial Population"}]},"count":1},{"id":"Denominator_1","code":{"coding":[{"system":"http://terminology.hl7.org/CodeSystem/measure-population","code":"denominator","display":"Denominator"}]},"count":1},{"id":"DenominatorExclusion_1","code":{"coding":[{"system":"http://terminology.hl7.org/CodeSystem/measure-population","code":"denominator-exclusion","display":"Denominator Exclusion"}]},"count":0},{"id":"Numerator_1","code":{"coding":[{"system":"http://terminology.hl7.org/CodeSystem/measure-population","code":"numerator","display":"Numerator"}]},"count":1}],"measureScore":{"value":1.0}}],"evaluatedResource":[{"reference":"Patient/1e954801-6437-4abc-8fb8-d36b5b5b97d8"},{"reference":"Encounter/07555460-75d9-43b6-b0c0-7295bb9926a2"},{"reference":"Condition/2898e729-46e2-43b9-a935-72a23d09a37f"}]},"request":{"method":"PUT","url":"MeasureReport/dd2cc323-1f39-4d6c-977a-2ae6b7ec7dd5"}}]}