{"resourceType":"Bundle","id":"tests-63ae0b9f-2636-4bf3-85ef-4ff20bdb09de-bundle","type":"transaction","entry":[{"fullUrl":"Bundle/Patient-25-DENEXPass-PalliativeCareDiagnosisDuringMP","resource":{"resourceType":"Bundle","id":"Patient-25-DENEXPass-PalliativeCareDiagnosisDuringMP","type":"transaction","entry":[{"fullUrl":"https://madie.cms.gov/Patient/63ae0b9f-2636-4bf3-85ef-4ff20bdb09de","resource":{"resourceType":"Patient","id":"63ae0b9f-2636-4bf3-85ef-4ff20bdb09de","meta":{"profile":["http://hl7.org/fhir/us/qicore/StructureDefinition/qicore-patient"]},"extension":[{"url":"http://hl7.org/fhir/us/core/StructureDefinition/us-core-race","extension":[{"url":"ombCategory","valueCoding":{"system":"urn:oid:2.16.840.1.113883.6.238","code":"2028-9","display":"Asian"}},{"url":"text","valueString":"Asian"}]},{"url":"http://hl7.org/fhir/us/core/StructureDefinition/us-core-ethnicity","extension":[{"url":"ombCategory","valueCoding":{"system":"urn:oid:2.16.840.1.113883.6.238","code":"2135-2","display":"Hispanic or Latino"}},{"url":"text","valueString":"Hispanic or Latino"}]}],"identifier":[{"system":"http://hospital.smarthealthit.org","value":"999999995"}],"name":[{"family":"Bertha","given":["Betty"]}],"gender":"female","birthDate":"2007-01-01"},"request":{"method":"PUT","url":"Patient/63ae0b9f-2636-4bf3-85ef-4ff20bdb09de"}},{"fullUrl":"https://madie.cms.gov/Encounter/e42cbf1d-7899-4edf-a528-103866527ded","resource":{"resourceType":"Encounter","id":"e42cbf1d-7899-4edf-a528-103866527ded","meta":{"profile":["http://hl7.org/fhir/us/qicore/StructureDefinition/qicore-encounter"]},"status":"finished","class":{"system":"http://terminology.hl7.org/CodeSystem/v3-ActCode","code":"AMB","display":"ambulatory"},"type":[{"coding":[{"system":"http://snomed.info/sct","code":"185460008","display":"Home visit request by patient (procedure)"}]}],"subject":{"reference":"Patient/63ae0b9f-2636-4bf3-85ef-4ff20bdb09de"},"period":{"start":"2026-01-01T00:00:00.000+00:00","end":"2026-01-01T00:15:00.000+00:00"}},"request":{"method":"PUT","url":"Encounter/e42cbf1d-7899-4edf-a528-103866527ded"}},{"fullUrl":"https://madie.cms.gov/Condition/948bb24e-5c52-4a32-ae2a-60ba181cc973","resource":{"resourceType":"Condition","id":"948bb24e-5c52-4a32-ae2a-60ba181cc973","meta":{"profile":["http://hl7.org/fhir/us/qicore/StructureDefinition/qicore-condition-encounter-diagnosis"]},"clinicalStatus":{"coding":[{"system":"http://terminology.hl7.org/CodeSystem/condition-clinical","code":"active"}]},"category":[{"coding":[{"system":"http://terminology.hl7.org/CodeSystem/condition-category","code":"encounter-diagnosis","display":"Encounter Diagnosis"}]}],"code":{"coding":[{"system":"http://snomed.info/sct","code":"102781000119107","display":"Sensory neuropathy due to type 1 diabetes mellitus (disorder)"}]},"subject":{"reference":"Patient/63ae0b9f-2636-4bf3-85ef-4ff20bdb09de"},"onsetDateTime":"2026-01-01T23:59:00.000+00:00"},"request":{"method":"PUT","url":"Condition/948bb24e-5c52-4a32-ae2a-60ba181cc973"}},{"fullUrl":"https://madie.cms.gov/Condition/895e10a1-9591-4f36-87d4-0df47c0a6d50","resource":{"resourceType":"Condition","id":"895e10a1-9591-4f36-87d4-0df47c0a6d50","meta":{"profile":["http://hl7.org/fhir/us/qicore/StructureDefinition/qicore-condition-encounter-diagnosis"]},"clinicalStatus":{"coding":[{"system":"http://terminology.hl7.org/CodeSystem/condition-clinical","code":"active"}]},"category":[{"coding":[{"system":"http://terminology.hl7.org/CodeSystem/condition-category","code":"encounter-diagnosis","display":"Encounter Diagnosis"}]}],"code":{"coding":[{"system":"http://snomed.info/sct","code":"441874000","display":"Seen by palliative care service (finding)"}]},"subject":{"reference":"Patient/63ae0b9f-2636-4bf3-85ef-4ff20bdb09de"},"onsetDateTime":"2026-12-31T23:59:59.000+00:00"},"request":{"method":"PUT","url":"Condition/895e10a1-9591-4f36-87d4-0df47c0a6d50"}},{"fullUrl":"https://madie.cms.gov/MeasureReport/27df9eae-69ce-4534-aceb-7295913671bc","resource":{"resourceType":"MeasureReport","id":"27df9eae-69ce-4534-aceb-7295913671bc","meta":{"profile":["http://hl7.org/fhir/us/cqfmeasures/StructureDefinition/test-case-cqfm"]},"contained":[{"resourceType":"Parameters","id":"57364b3b-ecc4-4c11-8172-9e12865959e0-parameters","parameter":[{"name":"subject","valueString":"63ae0b9f-2636-4bf3-85ef-4ff20bdb09de"}]}],"extension":[{"url":"http://hl7.org/fhir/StructureDefinition/cqf-inputParameters","valueReference":{"reference":"#57364b3b-ecc4-4c11-8172-9e12865959e0-parameters"}},{"url":"http://hl7.org/fhir/us/cqfmeasures/StructureDefinition/cqfm-testCaseDescription","valueMarkdown":"Palliative care diagnosis during the MP"}],"modifierExtension":[{"url":"http://hl7.org/fhir/us/cqfmeasures/StructureDefinition/cqfm-isTestCase","valueBoolean":true}],"status":"complete","type":"individual","measure":"https://madie.cms.gov/Measure/CMS122FHIRDiabetesAssessGreaterThan9Percent","period":{"start":"2026-01-01","end":"2026-12-31"},"group":[{"id":"Group_1","population":[{"id":"InitialPopulation_1","code":{"coding":[{"system":"http://terminology.hl7.org/CodeSystem/measure-population","code":"initial-population","display":"Initial Population"}]},"count":1},{"id":"Denominator_1","code":{"coding":[{"system":"http://terminology.hl7.org/CodeSystem/measure-population","code":"denominator","display":"Denominator"}]},"count":1},{"id":"DenominatorExclusion_1","code":{"coding":[{"system":"http://terminology.hl7.org/CodeSystem/measure-population","code":"denominator-exclusion","display":"Denominator Exclusion"}]},"count":1},{"id":"Numerator_1","code":{"coding":[{"system":"http://terminology.hl7.org/CodeSystem/measure-population","code":"numerator","display":"Numerator"}]},"count":0}],"measureScore":{"value":1.0}}],"evaluatedResource":[{"reference":"Patient/63ae0b9f-2636-4bf3-85ef-4ff20bdb09de"},{"reference":"Encounter/e42cbf1d-7899-4edf-a528-103866527ded"},{"reference":"Condition/948bb24e-5c52-4a32-ae2a-60ba181cc973"},{"reference":"Condition/895e10a1-9591-4f36-87d4-0df47c0a6d50"}]},"request":{"method":"PUT","url":"MeasureReport/27df9eae-69ce-4534-aceb-7295913671bc"}}]},"request":{"method":"PUT","url":"Bundle/Patient-25-DENEXPass-PalliativeCareDiagnosisDuringMP"}},{"fullUrl":"Encounter/e42cbf1d-7899-4edf-a528-103866527ded","resource":{"resourceType":"Encounter","id":"e42cbf1d-7899-4edf-a528-103866527ded","meta":{"profile":["http://hl7.org/fhir/us/qicore/StructureDefinition/qicore-encounter"]},"status":"finished","class":{"system":"http://terminology.hl7.org/CodeSystem/v3-ActCode","code":"AMB","display":"ambulatory"},"type":[{"coding":[{"system":"http://snomed.info/sct","code":"185460008","display":"Home visit request by patient (procedure)"}]}],"subject":{"reference":"Patient/63ae0b9f-2636-4bf3-85ef-4ff20bdb09de"},"period":{"start":"2026-01-01T00:00:00.000+00:00","end":"2026-01-01T00:15:00.000+00:00"}},"request":{"method":"PUT","url":"Encounter/e42cbf1d-7899-4edf-a528-103866527ded"}},{"fullUrl":"Patient/63ae0b9f-2636-4bf3-85ef-4ff20bdb09de","resource":{"resourceType":"Patient","id":"63ae0b9f-2636-4bf3-85ef-4ff20bdb09de","meta":{"profile":["http://hl7.org/fhir/us/qicore/StructureDefinition/qicore-patient"]},"extension":[{"url":"http://hl7.org/fhir/us/core/StructureDefinition/us-core-race","extension":[{"url":"ombCategory","valueCoding":{"system":"urn:oid:2.16.840.1.113883.6.238","code":"2028-9","display":"Asian"}},{"url":"text","valueString":"Asian"}]},{"url":"http://hl7.org/fhir/us/core/StructureDefinition/us-core-ethnicity","extension":[{"url":"ombCategory","valueCoding":{"system":"urn:oid:2.16.840.1.113883.6.238","code":"2135-2","display":"Hispanic or Latino"}},{"url":"text","valueString":"Hispanic or Latino"}]}],"identifier":[{"system":"http://hospital.smarthealthit.org","value":"999999995"}],"name":[{"family":"Bertha","given":["Betty"]}],"gender":"female","birthDate":"2007-01-01"},"request":{"method":"PUT","url":"Patient/63ae0b9f-2636-4bf3-85ef-4ff20bdb09de"}},{"fullUrl":"Condition/948bb24e-5c52-4a32-ae2a-60ba181cc973","resource":{"resourceType":"Condition","id":"948bb24e-5c52-4a32-ae2a-60ba181cc973","meta":{"profile":["http://hl7.org/fhir/us/qicore/StructureDefinition/qicore-condition-encounter-diagnosis"]},"clinicalStatus":{"coding":[{"system":"http://terminology.hl7.org/CodeSystem/condition-clinical","code":"active"}]},"category":[{"coding":[{"system":"http://terminology.hl7.org/CodeSystem/condition-category","code":"encounter-diagnosis","display":"Encounter Diagnosis"}]}],"code":{"coding":[{"system":"http://snomed.info/sct","code":"102781000119107","display":"Sensory neuropathy due to type 1 diabetes mellitus (disorder)"}]},"subject":{"reference":"Patient/63ae0b9f-2636-4bf3-85ef-4ff20bdb09de"},"onsetDateTime":"2026-01-01T23:59:00.000+00:00"},"request":{"method":"PUT","url":"Condition/948bb24e-5c52-4a32-ae2a-60ba181cc973"}},{"fullUrl":"MeasureReport/27df9eae-69ce-4534-aceb-7295913671bc","resource":{"resourceType":"MeasureReport","id":"27df9eae-69ce-4534-aceb-7295913671bc","meta":{"profile":["http://hl7.org/fhir/us/cqfmeasures/StructureDefinition/test-case-cqfm"]},"contained":[{"resourceType":"Parameters","id":"57364b3b-ecc4-4c11-8172-9e12865959e0-parameters","parameter":[{"name":"subject","valueString":"63ae0b9f-2636-4bf3-85ef-4ff20bdb09de"}]}],"extension":[{"url":"http://hl7.org/fhir/StructureDefinition/cqf-inputParameters","valueReference":{"reference":"#57364b3b-ecc4-4c11-8172-9e12865959e0-parameters"}},{"url":"http://hl7.org/fhir/us/cqfmeasures/StructureDefinition/cqfm-testCaseDescription","valueMarkdown":"Palliative care diagnosis during the MP"}],"modifierExtension":[{"url":"http://hl7.org/fhir/us/cqfmeasures/StructureDefinition/cqfm-isTestCase","valueBoolean":true}],"status":"complete","type":"individual","measure":"https://madie.cms.gov/Measure/CMS122FHIRDiabetesAssessGreaterThan9Percent","period":{"start":"2026-01-01","end":"2026-12-31"},"group":[{"id":"Group_1","population":[{"id":"InitialPopulation_1","code":{"coding":[{"system":"http://terminology.hl7.org/CodeSystem/measure-population","code":"initial-population","display":"Initial Population"}]},"count":1},{"id":"Denominator_1","code":{"coding":[{"system":"http://terminology.hl7.org/CodeSystem/measure-population","code":"denominator","display":"Denominator"}]},"count":1},{"id":"DenominatorExclusion_1","code":{"coding":[{"system":"http://terminology.hl7.org/CodeSystem/measure-population","code":"denominator-exclusion","display":"Denominator Exclusion"}]},"count":1},{"id":"Numerator_1","code":{"coding":[{"system":"http://terminology.hl7.org/CodeSystem/measure-population","code":"numerator","display":"Numerator"}]},"count":0}],"measureScore":{"value":1.0}}],"evaluatedResource":[{"reference":"Patient/63ae0b9f-2636-4bf3-85ef-4ff20bdb09de"},{"reference":"Encounter/e42cbf1d-7899-4edf-a528-103866527ded"},{"reference":"Condition/948bb24e-5c52-4a32-ae2a-60ba181cc973"},{"reference":"Condition/895e10a1-9591-4f36-87d4-0df47c0a6d50"}]},"request":{"method":"PUT","url":"MeasureReport/27df9eae-69ce-4534-aceb-7295913671bc"}},{"fullUrl":"Condition/895e10a1-9591-4f36-87d4-0df47c0a6d50","resource":{"resourceType":"Condition","id":"895e10a1-9591-4f36-87d4-0df47c0a6d50","meta":{"profile":["http://hl7.org/fhir/us/qicore/StructureDefinition/qicore-condition-encounter-diagnosis"]},"clinicalStatus":{"coding":[{"system":"http://terminology.hl7.org/CodeSystem/condition-clinical","code":"active"}]},"category":[{"coding":[{"system":"http://terminology.hl7.org/CodeSystem/condition-category","code":"encounter-diagnosis","display":"Encounter Diagnosis"}]}],"code":{"coding":[{"system":"http://snomed.info/sct","code":"441874000","display":"Seen by palliative care service (finding)"}]},"subject":{"reference":"Patient/63ae0b9f-2636-4bf3-85ef-4ff20bdb09de"},"onsetDateTime":"2026-12-31T23:59:59.000+00:00"},"request":{"method":"PUT","url":"Condition/895e10a1-9591-4f36-87d4-0df47c0a6d50"}}]}