{"resourceType":"Bundle","id":"tests-f4eeba51-a6fc-4ffd-bd62-49fd1c375f01-bundle","type":"transaction","entry":[{"fullUrl":"Observation/034dadea-f82b-48ce-adf4-aabda1a2fa97","resource":{"resourceType":"Observation","id":"034dadea-f82b-48ce-adf4-aabda1a2fa97","meta":{"profile":["http://hl7.org/fhir/us/qicore/StructureDefinition/qicore-observation-screening-assessment"]},"status":"final","category":[{"coding":[{"system":"http://terminology.hl7.org/CodeSystem/observation-category","code":"survey"}]}],"code":{"coding":[{"system":"http://loinc.org","code":"71007-9","display":"Functional Assessment of Chronic Illness Therapy - Palliative Care Questionnaire (FACIT-Pal)"}]},"subject":{"reference":"Patient/f4eeba51-a6fc-4ffd-bd62-49fd1c375f01"},"effectivePeriod":{"start":"2025-12-31T00:00:00.000+00:00","end":"2026-01-01T00:00:00.000+00:00"},"valueCodeableConcept":{"coding":[{"system":"http://snomed.info/sct","code":"373066001","display":"Yes (qualifier value)"}]}},"request":{"method":"PUT","url":"Observation/034dadea-f82b-48ce-adf4-aabda1a2fa97"}},{"fullUrl":"Condition/420e43f3-60d6-4af4-aa87-a00a4931ddd3","resource":{"resourceType":"Condition","id":"420e43f3-60d6-4af4-aa87-a00a4931ddd3","meta":{"profile":["http://hl7.org/fhir/us/qicore/StructureDefinition/qicore-condition-encounter-diagnosis"]},"clinicalStatus":{"coding":[{"system":"http://terminology.hl7.org/CodeSystem/condition-clinical","code":"active"}]},"category":[{"coding":[{"system":"http://terminology.hl7.org/CodeSystem/condition-category","code":"encounter-diagnosis","display":"Encounter Diagnosis"}]}],"code":{"coding":[{"system":"http://snomed.info/sct","code":"102781000119107","display":"Sensory neuropathy due to type 1 diabetes mellitus (disorder)"}]},"subject":{"reference":"Patient/f4eeba51-a6fc-4ffd-bd62-49fd1c375f01"},"onsetDateTime":"2026-01-01T23:59:00.000+00:00"},"request":{"method":"PUT","url":"Condition/420e43f3-60d6-4af4-aa87-a00a4931ddd3"}},{"fullUrl":"Patient/f4eeba51-a6fc-4ffd-bd62-49fd1c375f01","resource":{"resourceType":"Patient","id":"f4eeba51-a6fc-4ffd-bd62-49fd1c375f01","meta":{"profile":["http://hl7.org/fhir/us/qicore/StructureDefinition/qicore-patient"]},"extension":[{"url":"http://hl7.org/fhir/us/core/StructureDefinition/us-core-race","extension":[{"url":"ombCategory","valueCoding":{"system":"urn:oid:2.16.840.1.113883.6.238","code":"2028-9","display":"Asian"}},{"url":"text","valueString":"Asian"}]},{"url":"http://hl7.org/fhir/us/core/StructureDefinition/us-core-ethnicity","extension":[{"url":"ombCategory","valueCoding":{"system":"urn:oid:2.16.840.1.113883.6.238","code":"2135-2","display":"Hispanic or Latino"}},{"url":"text","valueString":"Hispanic or Latino"}]}],"identifier":[{"system":"http://hospital.smarthealthit.org","value":"999999995"}],"name":[{"family":"Bertha","given":["Betty"]}],"gender":"female","birthDate":"2007-01-01"},"request":{"method":"PUT","url":"Patient/f4eeba51-a6fc-4ffd-bd62-49fd1c375f01"}},{"fullUrl":"MeasureReport/aea97023-217c-4bce-9e23-de10feda3762","resource":{"resourceType":"MeasureReport","id":"aea97023-217c-4bce-9e23-de10feda3762","meta":{"profile":["http://hl7.org/fhir/us/cqfmeasures/StructureDefinition/test-case-cqfm"]},"contained":[{"resourceType":"Parameters","id":"0b6c06af-edd0-495f-afba-87873eec1555-parameters","parameter":[{"name":"subject","valueString":"f4eeba51-a6fc-4ffd-bd62-49fd1c375f01"}]}],"extension":[{"url":"http://hl7.org/fhir/StructureDefinition/cqf-inputParameters","valueReference":{"reference":"#0b6c06af-edd0-495f-afba-87873eec1555-parameters"}},{"url":"http://hl7.org/fhir/us/cqfmeasures/StructureDefinition/cqfm-testCaseDescription","valueMarkdown":"Palliative care survey overlap before the MP"}],"modifierExtension":[{"url":"http://hl7.org/fhir/us/cqfmeasures/StructureDefinition/cqfm-isTestCase","valueBoolean":true}],"status":"complete","type":"individual","measure":"https://madie.cms.gov/Measure/CMS122FHIRDiabetesAssessGreaterThan9Percent","period":{"start":"2026-01-01","end":"2026-12-31"},"group":[{"id":"Group_1","population":[{"id":"InitialPopulation_1","code":{"coding":[{"system":"http://terminology.hl7.org/CodeSystem/measure-population","code":"initial-population","display":"Initial Population"}]},"count":1},{"id":"Denominator_1","code":{"coding":[{"system":"http://terminology.hl7.org/CodeSystem/measure-population","code":"denominator","display":"Denominator"}]},"count":1},{"id":"DenominatorExclusion_1","code":{"coding":[{"system":"http://terminology.hl7.org/CodeSystem/measure-population","code":"denominator-exclusion","display":"Denominator Exclusion"}]},"count":1},{"id":"Numerator_1","code":{"coding":[{"system":"http://terminology.hl7.org/CodeSystem/measure-population","code":"numerator","display":"Numerator"}]},"count":0}],"measureScore":{"value":1.0}}],"evaluatedResource":[{"reference":"Patient/f4eeba51-a6fc-4ffd-bd62-49fd1c375f01"},{"reference":"Encounter/4a5049bb-b0f5-44ab-a3d0-b0c3be27ef6d"},{"reference":"Condition/420e43f3-60d6-4af4-aa87-a00a4931ddd3"},{"reference":"Observation/034dadea-f82b-48ce-adf4-aabda1a2fa97"}]},"request":{"method":"PUT","url":"MeasureReport/aea97023-217c-4bce-9e23-de10feda3762"}},{"fullUrl":"Encounter/4a5049bb-b0f5-44ab-a3d0-b0c3be27ef6d","resource":{"resourceType":"Encounter","id":"4a5049bb-b0f5-44ab-a3d0-b0c3be27ef6d","meta":{"profile":["http://hl7.org/fhir/us/qicore/StructureDefinition/qicore-encounter"]},"status":"finished","class":{"system":"http://terminology.hl7.org/CodeSystem/v3-ActCode","code":"AMB","display":"ambulatory"},"type":[{"coding":[{"system":"http://snomed.info/sct","code":"185460008","display":"Home visit request by patient (procedure)"}]}],"subject":{"reference":"Patient/f4eeba51-a6fc-4ffd-bd62-49fd1c375f01"},"period":{"start":"2026-01-01T00:00:00.000+00:00","end":"2026-01-01T00:15:00.000+00:00"}},"request":{"method":"PUT","url":"Encounter/4a5049bb-b0f5-44ab-a3d0-b0c3be27ef6d"}},{"fullUrl":"Bundle/Patient-27-DENEXPass-PalliativeCareSurveyOverlapsB4MP","resource":{"resourceType":"Bundle","id":"Patient-27-DENEXPass-PalliativeCareSurveyOverlapsB4MP","type":"transaction","entry":[{"fullUrl":"https://madie.cms.gov/Patient/f4eeba51-a6fc-4ffd-bd62-49fd1c375f01","resource":{"resourceType":"Patient","id":"f4eeba51-a6fc-4ffd-bd62-49fd1c375f01","meta":{"profile":["http://hl7.org/fhir/us/qicore/StructureDefinition/qicore-patient"]},"extension":[{"url":"http://hl7.org/fhir/us/core/StructureDefinition/us-core-race","extension":[{"url":"ombCategory","valueCoding":{"system":"urn:oid:2.16.840.1.113883.6.238","code":"2028-9","display":"Asian"}},{"url":"text","valueString":"Asian"}]},{"url":"http://hl7.org/fhir/us/core/StructureDefinition/us-core-ethnicity","extension":[{"url":"ombCategory","valueCoding":{"system":"urn:oid:2.16.840.1.113883.6.238","code":"2135-2","display":"Hispanic or Latino"}},{"url":"text","valueString":"Hispanic or Latino"}]}],"identifier":[{"system":"http://hospital.smarthealthit.org","value":"999999995"}],"name":[{"family":"Bertha","given":["Betty"]}],"gender":"female","birthDate":"2007-01-01"},"request":{"method":"PUT","url":"Patient/f4eeba51-a6fc-4ffd-bd62-49fd1c375f01"}},{"fullUrl":"https://madie.cms.gov/Encounter/4a5049bb-b0f5-44ab-a3d0-b0c3be27ef6d","resource":{"resourceType":"Encounter","id":"4a5049bb-b0f5-44ab-a3d0-b0c3be27ef6d","meta":{"profile":["http://hl7.org/fhir/us/qicore/StructureDefinition/qicore-encounter"]},"status":"finished","class":{"system":"http://terminology.hl7.org/CodeSystem/v3-ActCode","code":"AMB","display":"ambulatory"},"type":[{"coding":[{"system":"http://snomed.info/sct","code":"185460008","display":"Home visit request by patient (procedure)"}]}],"subject":{"reference":"Patient/f4eeba51-a6fc-4ffd-bd62-49fd1c375f01"},"period":{"start":"2026-01-01T00:00:00.000+00:00","end":"2026-01-01T00:15:00.000+00:00"}},"request":{"method":"PUT","url":"Encounter/4a5049bb-b0f5-44ab-a3d0-b0c3be27ef6d"}},{"fullUrl":"https://madie.cms.gov/Condition/420e43f3-60d6-4af4-aa87-a00a4931ddd3","resource":{"resourceType":"Condition","id":"420e43f3-60d6-4af4-aa87-a00a4931ddd3","meta":{"profile":["http://hl7.org/fhir/us/qicore/StructureDefinition/qicore-condition-encounter-diagnosis"]},"clinicalStatus":{"coding":[{"system":"http://terminology.hl7.org/CodeSystem/condition-clinical","code":"active"}]},"category":[{"coding":[{"system":"http://terminology.hl7.org/CodeSystem/condition-category","code":"encounter-diagnosis","display":"Encounter Diagnosis"}]}],"code":{"coding":[{"system":"http://snomed.info/sct","code":"102781000119107","display":"Sensory neuropathy due to type 1 diabetes mellitus (disorder)"}]},"subject":{"reference":"Patient/f4eeba51-a6fc-4ffd-bd62-49fd1c375f01"},"onsetDateTime":"2026-01-01T23:59:00.000+00:00"},"request":{"method":"PUT","url":"Condition/420e43f3-60d6-4af4-aa87-a00a4931ddd3"}},{"fullUrl":"https://madie.cms.gov/Observation/034dadea-f82b-48ce-adf4-aabda1a2fa97","resource":{"resourceType":"Observation","id":"034dadea-f82b-48ce-adf4-aabda1a2fa97","meta":{"profile":["http://hl7.org/fhir/us/qicore/StructureDefinition/qicore-observation-screening-assessment"]},"status":"final","category":[{"coding":[{"system":"http://terminology.hl7.org/CodeSystem/observation-category","code":"survey"}]}],"code":{"coding":[{"system":"http://loinc.org","code":"71007-9","display":"Functional Assessment of Chronic Illness Therapy - Palliative Care Questionnaire (FACIT-Pal)"}]},"subject":{"reference":"Patient/f4eeba51-a6fc-4ffd-bd62-49fd1c375f01"},"effectivePeriod":{"start":"2025-12-31T00:00:00.000+00:00","end":"2026-01-01T00:00:00.000+00:00"},"valueCodeableConcept":{"coding":[{"system":"http://snomed.info/sct","code":"373066001","display":"Yes (qualifier value)"}]}},"request":{"method":"PUT","url":"Observation/034dadea-f82b-48ce-adf4-aabda1a2fa97"}},{"fullUrl":"https://madie.cms.gov/MeasureReport/aea97023-217c-4bce-9e23-de10feda3762","resource":{"resourceType":"MeasureReport","id":"aea97023-217c-4bce-9e23-de10feda3762","meta":{"profile":["http://hl7.org/fhir/us/cqfmeasures/StructureDefinition/test-case-cqfm"]},"contained":[{"resourceType":"Parameters","id":"0b6c06af-edd0-495f-afba-87873eec1555-parameters","parameter":[{"name":"subject","valueString":"f4eeba51-a6fc-4ffd-bd62-49fd1c375f01"}]}],"extension":[{"url":"http://hl7.org/fhir/StructureDefinition/cqf-inputParameters","valueReference":{"reference":"#0b6c06af-edd0-495f-afba-87873eec1555-parameters"}},{"url":"http://hl7.org/fhir/us/cqfmeasures/StructureDefinition/cqfm-testCaseDescription","valueMarkdown":"Palliative care survey overlap before the MP"}],"modifierExtension":[{"url":"http://hl7.org/fhir/us/cqfmeasures/StructureDefinition/cqfm-isTestCase","valueBoolean":true}],"status":"complete","type":"individual","measure":"https://madie.cms.gov/Measure/CMS122FHIRDiabetesAssessGreaterThan9Percent","period":{"start":"2026-01-01","end":"2026-12-31"},"group":[{"id":"Group_1","population":[{"id":"InitialPopulation_1","code":{"coding":[{"system":"http://terminology.hl7.org/CodeSystem/measure-population","code":"initial-population","display":"Initial Population"}]},"count":1},{"id":"Denominator_1","code":{"coding":[{"system":"http://terminology.hl7.org/CodeSystem/measure-population","code":"denominator","display":"Denominator"}]},"count":1},{"id":"DenominatorExclusion_1","code":{"coding":[{"system":"http://terminology.hl7.org/CodeSystem/measure-population","code":"denominator-exclusion","display":"Denominator Exclusion"}]},"count":1},{"id":"Numerator_1","code":{"coding":[{"system":"http://terminology.hl7.org/CodeSystem/measure-population","code":"numerator","display":"Numerator"}]},"count":0}],"measureScore":{"value":1.0}}],"evaluatedResource":[{"reference":"Patient/f4eeba51-a6fc-4ffd-bd62-49fd1c375f01"},{"reference":"Encounter/4a5049bb-b0f5-44ab-a3d0-b0c3be27ef6d"},{"reference":"Condition/420e43f3-60d6-4af4-aa87-a00a4931ddd3"},{"reference":"Observation/034dadea-f82b-48ce-adf4-aabda1a2fa97"}]},"request":{"method":"PUT","url":"MeasureReport/aea97023-217c-4bce-9e23-de10feda3762"}}]},"request":{"method":"PUT","url":"Bundle/Patient-27-DENEXPass-PalliativeCareSurveyOverlapsB4MP"}}]}