{"resourceType":"Bundle","id":"tests-98735c81-5c91-4709-9392-558ac6d40b6c-bundle","type":"transaction","entry":[{"fullUrl":"Condition/83361d8e-0198-40a3-8873-97b4afbcc715","resource":{"resourceType":"Condition","id":"83361d8e-0198-40a3-8873-97b4afbcc715","meta":{"profile":["http://hl7.org/fhir/us/qicore/StructureDefinition/qicore-condition-encounter-diagnosis"]},"clinicalStatus":{"coding":[{"system":"http://terminology.hl7.org/CodeSystem/condition-clinical","code":"active"}]},"category":[{"coding":[{"system":"http://terminology.hl7.org/CodeSystem/condition-category","code":"encounter-diagnosis","display":"Encounter Diagnosis"}]}],"code":{"coding":[{"system":"http://snomed.info/sct","code":"102781000119107","display":"Sensory neuropathy due to type 1 diabetes mellitus (disorder)"}]},"subject":{"reference":"Patient/98735c81-5c91-4709-9392-558ac6d40b6c"},"onsetDateTime":"2026-01-01T23:59:00.000+00:00"},"request":{"method":"PUT","url":"Condition/83361d8e-0198-40a3-8873-97b4afbcc715"}},{"fullUrl":"Patient/98735c81-5c91-4709-9392-558ac6d40b6c","resource":{"resourceType":"Patient","id":"98735c81-5c91-4709-9392-558ac6d40b6c","meta":{"profile":["http://hl7.org/fhir/us/qicore/StructureDefinition/qicore-patient"]},"extension":[{"url":"http://hl7.org/fhir/us/core/StructureDefinition/us-core-race","extension":[{"url":"ombCategory","valueCoding":{"system":"urn:oid:2.16.840.1.113883.6.238","code":"2028-9","display":"Asian"}},{"url":"text","valueString":"Asian"}]},{"url":"http://hl7.org/fhir/us/core/StructureDefinition/us-core-ethnicity","extension":[{"url":"ombCategory","valueCoding":{"system":"urn:oid:2.16.840.1.113883.6.238","code":"2135-2","display":"Hispanic or Latino"}},{"url":"text","valueString":"Hispanic or Latino"}]}],"identifier":[{"system":"http://hospital.smarthealthit.org","value":"999999995"}],"name":[{"family":"Bertha","given":["Betty"]}],"gender":"female","birthDate":"1958-12-31"},"request":{"method":"PUT","url":"Patient/98735c81-5c91-4709-9392-558ac6d40b6c"}},{"fullUrl":"MeasureReport/a4333fef-07ed-4f9e-9590-9d54bd73c3e4","resource":{"resourceType":"MeasureReport","id":"a4333fef-07ed-4f9e-9590-9d54bd73c3e4","meta":{"profile":["http://hl7.org/fhir/us/cqfmeasures/StructureDefinition/test-case-cqfm"]},"contained":[{"resourceType":"Parameters","id":"7a99d6ab-995d-4c88-b745-a1e379461105-parameters","parameter":[{"name":"subject","valueString":"98735c81-5c91-4709-9392-558ac6d40b6c"}]}],"extension":[{"url":"http://hl7.org/fhir/StructureDefinition/cqf-inputParameters","valueReference":{"reference":"#7a99d6ab-995d-4c88-b745-a1e379461105-parameters"}},{"url":"http://hl7.org/fhir/us/cqfmeasures/StructureDefinition/cqfm-testCaseDescription","valueMarkdown":"Last housing status is not nursing home"}],"modifierExtension":[{"url":"http://hl7.org/fhir/us/cqfmeasures/StructureDefinition/cqfm-isTestCase","valueBoolean":true}],"status":"complete","type":"individual","measure":"https://madie.cms.gov/Measure/CMS122FHIRDiabetesAssessGreaterThan9Percent","period":{"start":"2026-01-01","end":"2026-12-31"},"group":[{"id":"Group_1","population":[{"id":"InitialPopulation_1","code":{"coding":[{"system":"http://terminology.hl7.org/CodeSystem/measure-population","code":"initial-population","display":"Initial Population"}]},"count":1},{"id":"Denominator_1","code":{"coding":[{"system":"http://terminology.hl7.org/CodeSystem/measure-population","code":"denominator","display":"Denominator"}]},"count":1},{"id":"DenominatorExclusion_1","code":{"coding":[{"system":"http://terminology.hl7.org/CodeSystem/measure-population","code":"denominator-exclusion","display":"Denominator Exclusion"}]},"count":0},{"id":"Numerator_1","code":{"coding":[{"system":"http://terminology.hl7.org/CodeSystem/measure-population","code":"numerator","display":"Numerator"}]},"count":1}],"measureScore":{"value":1.0}}],"evaluatedResource":[{"reference":"Patient/98735c81-5c91-4709-9392-558ac6d40b6c"},{"reference":"Encounter/adfb1ac3-f71f-4d06-8923-b6f769b63065"},{"reference":"Condition/83361d8e-0198-40a3-8873-97b4afbcc715"},{"reference":"Observation/09e18e76-4683-48f2-baff-30e23ea3c1d2"}]},"request":{"method":"PUT","url":"MeasureReport/a4333fef-07ed-4f9e-9590-9d54bd73c3e4"}},{"fullUrl":"Observation/09e18e76-4683-48f2-baff-30e23ea3c1d2","resource":{"resourceType":"Observation","id":"09e18e76-4683-48f2-baff-30e23ea3c1d2","meta":{"profile":["http://hl7.org/fhir/us/qicore/StructureDefinition/qicore-observation"]},"status":"final","category":[{"coding":[{"system":"http://terminology.hl7.org/CodeSystem/observation-category","code":"survey"}]}],"code":{"coding":[{"system":"http://loinc.org","code":"71802-3","display":"Housing status"}]},"subject":{"reference":"Patient/98735c81-5c91-4709-9392-558ac6d40b6c"},"effectivePeriod":{"start":"2024-12-31T00:00:00.000+00:00","end":"2026-01-01T00:00:00.000+00:00"},"valueCodeableConcept":{"coding":[{"system":"http://snomed.info/sct","code":"160943002","display":"Lives in own home"}]}},"request":{"method":"PUT","url":"Observation/09e18e76-4683-48f2-baff-30e23ea3c1d2"}},{"fullUrl":"Encounter/adfb1ac3-f71f-4d06-8923-b6f769b63065","resource":{"resourceType":"Encounter","id":"adfb1ac3-f71f-4d06-8923-b6f769b63065","meta":{"profile":["http://hl7.org/fhir/us/qicore/StructureDefinition/qicore-encounter"]},"status":"finished","class":{"system":"http://terminology.hl7.org/CodeSystem/v3-ActCode","code":"AMB","display":"ambulatory"},"type":[{"coding":[{"system":"http://snomed.info/sct","code":"185460008","display":"Home visit request by patient (procedure)"}]}],"subject":{"reference":"Patient/98735c81-5c91-4709-9392-558ac6d40b6c"},"period":{"start":"2026-01-01T00:00:00.000+00:00","end":"2026-01-01T00:15:00.000+00:00"}},"request":{"method":"PUT","url":"Encounter/adfb1ac3-f71f-4d06-8923-b6f769b63065"}},{"fullUrl":"Bundle/Patient-16-DENEXFail-LastHousingStatusNotNursingHome","resource":{"resourceType":"Bundle","id":"Patient-16-DENEXFail-LastHousingStatusNotNursingHome","type":"transaction","entry":[{"fullUrl":"https://madie.cms.gov/Patient/98735c81-5c91-4709-9392-558ac6d40b6c","resource":{"resourceType":"Patient","id":"98735c81-5c91-4709-9392-558ac6d40b6c","meta":{"profile":["http://hl7.org/fhir/us/qicore/StructureDefinition/qicore-patient"]},"extension":[{"url":"http://hl7.org/fhir/us/core/StructureDefinition/us-core-race","extension":[{"url":"ombCategory","valueCoding":{"system":"urn:oid:2.16.840.1.113883.6.238","code":"2028-9","display":"Asian"}},{"url":"text","valueString":"Asian"}]},{"url":"http://hl7.org/fhir/us/core/StructureDefinition/us-core-ethnicity","extension":[{"url":"ombCategory","valueCoding":{"system":"urn:oid:2.16.840.1.113883.6.238","code":"2135-2","display":"Hispanic or Latino"}},{"url":"text","valueString":"Hispanic or Latino"}]}],"identifier":[{"system":"http://hospital.smarthealthit.org","value":"999999995"}],"name":[{"family":"Bertha","given":["Betty"]}],"gender":"female","birthDate":"1958-12-31"},"request":{"method":"PUT","url":"Patient/98735c81-5c91-4709-9392-558ac6d40b6c"}},{"fullUrl":"https://madie.cms.gov/Encounter/adfb1ac3-f71f-4d06-8923-b6f769b63065","resource":{"resourceType":"Encounter","id":"adfb1ac3-f71f-4d06-8923-b6f769b63065","meta":{"profile":["http://hl7.org/fhir/us/qicore/StructureDefinition/qicore-encounter"]},"status":"finished","class":{"system":"http://terminology.hl7.org/CodeSystem/v3-ActCode","code":"AMB","display":"ambulatory"},"type":[{"coding":[{"system":"http://snomed.info/sct","code":"185460008","display":"Home visit request by patient (procedure)"}]}],"subject":{"reference":"Patient/98735c81-5c91-4709-9392-558ac6d40b6c"},"period":{"start":"2026-01-01T00:00:00.000+00:00","end":"2026-01-01T00:15:00.000+00:00"}},"request":{"method":"PUT","url":"Encounter/adfb1ac3-f71f-4d06-8923-b6f769b63065"}},{"fullUrl":"https://madie.cms.gov/Condition/83361d8e-0198-40a3-8873-97b4afbcc715","resource":{"resourceType":"Condition","id":"83361d8e-0198-40a3-8873-97b4afbcc715","meta":{"profile":["http://hl7.org/fhir/us/qicore/StructureDefinition/qicore-condition-encounter-diagnosis"]},"clinicalStatus":{"coding":[{"system":"http://terminology.hl7.org/CodeSystem/condition-clinical","code":"active"}]},"category":[{"coding":[{"system":"http://terminology.hl7.org/CodeSystem/condition-category","code":"encounter-diagnosis","display":"Encounter Diagnosis"}]}],"code":{"coding":[{"system":"http://snomed.info/sct","code":"102781000119107","display":"Sensory neuropathy due to type 1 diabetes mellitus (disorder)"}]},"subject":{"reference":"Patient/98735c81-5c91-4709-9392-558ac6d40b6c"},"onsetDateTime":"2026-01-01T23:59:00.000+00:00"},"request":{"method":"PUT","url":"Condition/83361d8e-0198-40a3-8873-97b4afbcc715"}},{"fullUrl":"https://madie.cms.gov/Observation/09e18e76-4683-48f2-baff-30e23ea3c1d2","resource":{"resourceType":"Observation","id":"09e18e76-4683-48f2-baff-30e23ea3c1d2","meta":{"profile":["http://hl7.org/fhir/us/qicore/StructureDefinition/qicore-observation"]},"status":"final","category":[{"coding":[{"system":"http://terminology.hl7.org/CodeSystem/observation-category","code":"survey"}]}],"code":{"coding":[{"system":"http://loinc.org","code":"71802-3","display":"Housing status"}]},"subject":{"reference":"Patient/98735c81-5c91-4709-9392-558ac6d40b6c"},"effectivePeriod":{"start":"2024-12-31T00:00:00.000+00:00","end":"2026-01-01T00:00:00.000+00:00"},"valueCodeableConcept":{"coding":[{"system":"http://snomed.info/sct","code":"160943002","display":"Lives in own home"}]}},"request":{"method":"PUT","url":"Observation/09e18e76-4683-48f2-baff-30e23ea3c1d2"}},{"fullUrl":"https://madie.cms.gov/MeasureReport/a4333fef-07ed-4f9e-9590-9d54bd73c3e4","resource":{"resourceType":"MeasureReport","id":"a4333fef-07ed-4f9e-9590-9d54bd73c3e4","meta":{"profile":["http://hl7.org/fhir/us/cqfmeasures/StructureDefinition/test-case-cqfm"]},"contained":[{"resourceType":"Parameters","id":"7a99d6ab-995d-4c88-b745-a1e379461105-parameters","parameter":[{"name":"subject","valueString":"98735c81-5c91-4709-9392-558ac6d40b6c"}]}],"extension":[{"url":"http://hl7.org/fhir/StructureDefinition/cqf-inputParameters","valueReference":{"reference":"#7a99d6ab-995d-4c88-b745-a1e379461105-parameters"}},{"url":"http://hl7.org/fhir/us/cqfmeasures/StructureDefinition/cqfm-testCaseDescription","valueMarkdown":"Last housing status is not nursing home"}],"modifierExtension":[{"url":"http://hl7.org/fhir/us/cqfmeasures/StructureDefinition/cqfm-isTestCase","valueBoolean":true}],"status":"complete","type":"individual","measure":"https://madie.cms.gov/Measure/CMS122FHIRDiabetesAssessGreaterThan9Percent","period":{"start":"2026-01-01","end":"2026-12-31"},"group":[{"id":"Group_1","population":[{"id":"InitialPopulation_1","code":{"coding":[{"system":"http://terminology.hl7.org/CodeSystem/measure-population","code":"initial-population","display":"Initial Population"}]},"count":1},{"id":"Denominator_1","code":{"coding":[{"system":"http://terminology.hl7.org/CodeSystem/measure-population","code":"denominator","display":"Denominator"}]},"count":1},{"id":"DenominatorExclusion_1","code":{"coding":[{"system":"http://terminology.hl7.org/CodeSystem/measure-population","code":"denominator-exclusion","display":"Denominator Exclusion"}]},"count":0},{"id":"Numerator_1","code":{"coding":[{"system":"http://terminology.hl7.org/CodeSystem/measure-population","code":"numerator","display":"Numerator"}]},"count":1}],"measureScore":{"value":1.0}}],"evaluatedResource":[{"reference":"Patient/98735c81-5c91-4709-9392-558ac6d40b6c"},{"reference":"Encounter/adfb1ac3-f71f-4d06-8923-b6f769b63065"},{"reference":"Condition/83361d8e-0198-40a3-8873-97b4afbcc715"},{"reference":"Observation/09e18e76-4683-48f2-baff-30e23ea3c1d2"}]},"request":{"method":"PUT","url":"MeasureReport/a4333fef-07ed-4f9e-9590-9d54bd73c3e4"}}]},"request":{"method":"PUT","url":"Bundle/Patient-16-DENEXFail-LastHousingStatusNotNursingHome"}}]}