{"resourceType":"Bundle","id":"tests-e2b82999-6313-40af-bc8b-9ddf5f97795f-bundle","type":"transaction","entry":[{"fullUrl":"Bundle/DENEXPass-PalliativeCareInterventionDuringMP","resource":{"resourceType":"Bundle","id":"DENEXPass-PalliativeCareInterventionDuringMP","type":"transaction","entry":[{"fullUrl":"https://madie.cms.gov/Patient/e2b82999-6313-40af-bc8b-9ddf5f97795f","resource":{"resourceType":"Patient","id":"e2b82999-6313-40af-bc8b-9ddf5f97795f","meta":{"profile":["http://hl7.org/fhir/us/qicore/StructureDefinition/qicore-patient"]},"extension":[{"url":"http://hl7.org/fhir/us/core/StructureDefinition/us-core-race","extension":[{"url":"ombCategory","valueCoding":{"system":"urn:oid:2.16.840.1.113883.6.238","code":"2028-9","display":"Asian","userSelected":true}},{"url":"text","valueString":"Asian"}]},{"url":"http://hl7.org/fhir/us/core/StructureDefinition/us-core-ethnicity","extension":[{"url":"ombCategory","valueCoding":{"system":"urn:oid:2.16.840.1.113883.6.238","code":"2135-2","display":"Hispanic or Latino","userSelected":true}},{"url":"text","valueString":"Hispanic or Latino"}]}],"identifier":[{"type":{"coding":[{"system":"http://terminology.hl7.org/CodeSystem/v2-0203","code":"MR"}]},"system":"http://hospital.smarthealthit.org","value":"999999995"}],"name":[{"family":"Bertha","given":["Betty"]}],"gender":"female","birthDate":"2007-01-01"},"request":{"method":"PUT","url":"Patient/e2b82999-6313-40af-bc8b-9ddf5f97795f"}},{"fullUrl":"https://madie.cms.gov/Encounter/dc58354f-16b5-4e15-890f-3a76957a13a8","resource":{"resourceType":"Encounter","id":"dc58354f-16b5-4e15-890f-3a76957a13a8","meta":{"profile":["http://hl7.org/fhir/us/qicore/StructureDefinition/qicore-encounter"]},"status":"finished","class":{"system":"http://terminology.hl7.org/CodeSystem/v3-ActCode","code":"AMB","display":"ambulatory"},"type":[{"coding":[{"system":"http://snomed.info/sct","code":"185460008","display":"Home visit request by patient (procedure)"}]}],"subject":{"reference":"Patient/e2b82999-6313-40af-bc8b-9ddf5f97795f"},"period":{"start":"2026-01-01T00:00:00.000+00:00","end":"2026-01-01T00:15:00.000+00:00"}},"request":{"method":"PUT","url":"Encounter/dc58354f-16b5-4e15-890f-3a76957a13a8"}},{"fullUrl":"https://madie.cms.gov/Condition/1da03fda-4b7c-492d-927f-3a80a7136262","resource":{"resourceType":"Condition","id":"1da03fda-4b7c-492d-927f-3a80a7136262","meta":{"profile":["http://hl7.org/fhir/us/qicore/StructureDefinition/qicore-condition-encounter-diagnosis"]},"clinicalStatus":{"coding":[{"system":"http://terminology.hl7.org/CodeSystem/condition-clinical","code":"active"}]},"category":[{"coding":[{"system":"http://terminology.hl7.org/CodeSystem/condition-category","code":"encounter-diagnosis","display":"Encounter Diagnosis"}]}],"code":{"coding":[{"system":"http://snomed.info/sct","code":"102781000119107","display":"Sensory neuropathy due to type 1 diabetes mellitus (disorder)"}]},"subject":{"reference":"Patient/e2b82999-6313-40af-bc8b-9ddf5f97795f"},"onsetDateTime":"2026-01-01T23:59:00.000+00:00"},"request":{"method":"PUT","url":"Condition/1da03fda-4b7c-492d-927f-3a80a7136262"}},{"fullUrl":"https://madie.cms.gov/Procedure/0e010154-9e78-48a5-8fe4-947c2efb9b51","resource":{"resourceType":"Procedure","id":"0e010154-9e78-48a5-8fe4-947c2efb9b51","meta":{"profile":["http://hl7.org/fhir/us/qicore/StructureDefinition/qicore-procedure"]},"extension":[{"url":"http://hl7.org/fhir/us/qicore/StructureDefinition/qicore-recorded","valueDateTime":"2026-12-31T00:00:00.000+00:00"}],"status":"completed","code":{"coding":[{"system":"http://snomed.info/sct","code":"395694002","display":"Specialist palliative care treatment - daycare (regime/therapy)"}]},"subject":{"reference":"Patient/e2b82999-6313-40af-bc8b-9ddf5f97795f"},"performedPeriod":{"start":"2026-12-31T00:00:00.000+00:00","end":"2026-12-31T23:59:59.000+00:00"}},"request":{"method":"PUT","url":"Procedure/0e010154-9e78-48a5-8fe4-947c2efb9b51"}},{"fullUrl":"https://madie.cms.gov/MeasureReport/54ffad7d-5d0d-4b22-9323-67e42c3c1bc3","resource":{"resourceType":"MeasureReport","id":"54ffad7d-5d0d-4b22-9323-67e42c3c1bc3","meta":{"profile":["http://hl7.org/fhir/us/cqfmeasures/StructureDefinition/test-case-cqfm"]},"contained":[{"resourceType":"Parameters","id":"a52aa31d-3b5a-4939-afea-148a91272afc-parameters","parameter":[{"name":"subject","valueString":"e2b82999-6313-40af-bc8b-9ddf5f97795f"}]}],"extension":[{"url":"http://hl7.org/fhir/StructureDefinition/cqf-inputParameters","valueReference":{"reference":"#a52aa31d-3b5a-4939-afea-148a91272afc-parameters"}},{"url":"http://hl7.org/fhir/us/cqfmeasures/StructureDefinition/cqfm-testCaseDescription","valueMarkdown":"Palliative care intervention during the MP"}],"modifierExtension":[{"url":"http://hl7.org/fhir/us/cqfmeasures/StructureDefinition/cqfm-isTestCase","valueBoolean":true}],"status":"complete","type":"individual","measure":"https://madie.cms.gov/Measure/CMS122FHIRDiabetesAssessGreaterThan9Percent","period":{"start":"2026-01-01","end":"2026-12-31"},"group":[{"id":"Group_1","population":[{"id":"InitialPopulation_1","code":{"coding":[{"system":"http://terminology.hl7.org/CodeSystem/measure-population","code":"initial-population","display":"Initial Population"}]},"count":1},{"id":"Denominator_1","code":{"coding":[{"system":"http://terminology.hl7.org/CodeSystem/measure-population","code":"denominator","display":"Denominator"}]},"count":1},{"id":"DenominatorExclusion_1","code":{"coding":[{"system":"http://terminology.hl7.org/CodeSystem/measure-population","code":"denominator-exclusion","display":"Denominator Exclusion"}]},"count":1},{"id":"Numerator_1","code":{"coding":[{"system":"http://terminology.hl7.org/CodeSystem/measure-population","code":"numerator","display":"Numerator"}]},"count":0}],"measureScore":{"value":1.0}}],"evaluatedResource":[{"reference":"Patient/e2b82999-6313-40af-bc8b-9ddf5f97795f"},{"reference":"Encounter/dc58354f-16b5-4e15-890f-3a76957a13a8"},{"reference":"Condition/1da03fda-4b7c-492d-927f-3a80a7136262"},{"reference":"Procedure/0e010154-9e78-48a5-8fe4-947c2efb9b51"}]},"request":{"method":"PUT","url":"MeasureReport/54ffad7d-5d0d-4b22-9323-67e42c3c1bc3"}}]},"request":{"method":"PUT","url":"Bundle/DENEXPass-PalliativeCareInterventionDuringMP"}},{"fullUrl":"Condition/1da03fda-4b7c-492d-927f-3a80a7136262","resource":{"resourceType":"Condition","id":"1da03fda-4b7c-492d-927f-3a80a7136262","meta":{"profile":["http://hl7.org/fhir/us/qicore/StructureDefinition/qicore-condition-encounter-diagnosis"]},"clinicalStatus":{"coding":[{"system":"http://terminology.hl7.org/CodeSystem/condition-clinical","code":"active"}]},"category":[{"coding":[{"system":"http://terminology.hl7.org/CodeSystem/condition-category","code":"encounter-diagnosis","display":"Encounter Diagnosis"}]}],"code":{"coding":[{"system":"http://snomed.info/sct","code":"102781000119107","display":"Sensory neuropathy due to type 1 diabetes mellitus (disorder)"}]},"subject":{"reference":"Patient/e2b82999-6313-40af-bc8b-9ddf5f97795f"},"onsetDateTime":"2026-01-01T23:59:00.000+00:00"},"request":{"method":"PUT","url":"Condition/1da03fda-4b7c-492d-927f-3a80a7136262"}},{"fullUrl":"Encounter/dc58354f-16b5-4e15-890f-3a76957a13a8","resource":{"resourceType":"Encounter","id":"dc58354f-16b5-4e15-890f-3a76957a13a8","meta":{"profile":["http://hl7.org/fhir/us/qicore/StructureDefinition/qicore-encounter"]},"status":"finished","class":{"system":"http://terminology.hl7.org/CodeSystem/v3-ActCode","code":"AMB","display":"ambulatory"},"type":[{"coding":[{"system":"http://snomed.info/sct","code":"185460008","display":"Home visit request by patient (procedure)"}]}],"subject":{"reference":"Patient/e2b82999-6313-40af-bc8b-9ddf5f97795f"},"period":{"start":"2026-01-01T00:00:00.000+00:00","end":"2026-01-01T00:15:00.000+00:00"}},"request":{"method":"PUT","url":"Encounter/dc58354f-16b5-4e15-890f-3a76957a13a8"}},{"fullUrl":"MeasureReport/54ffad7d-5d0d-4b22-9323-67e42c3c1bc3","resource":{"resourceType":"MeasureReport","id":"54ffad7d-5d0d-4b22-9323-67e42c3c1bc3","meta":{"profile":["http://hl7.org/fhir/us/cqfmeasures/StructureDefinition/test-case-cqfm"]},"contained":[{"resourceType":"Parameters","id":"a52aa31d-3b5a-4939-afea-148a91272afc-parameters","parameter":[{"name":"subject","valueString":"e2b82999-6313-40af-bc8b-9ddf5f97795f"}]}],"extension":[{"url":"http://hl7.org/fhir/StructureDefinition/cqf-inputParameters","valueReference":{"reference":"#a52aa31d-3b5a-4939-afea-148a91272afc-parameters"}},{"url":"http://hl7.org/fhir/us/cqfmeasures/StructureDefinition/cqfm-testCaseDescription","valueMarkdown":"Palliative care intervention during the MP"}],"modifierExtension":[{"url":"http://hl7.org/fhir/us/cqfmeasures/StructureDefinition/cqfm-isTestCase","valueBoolean":true}],"status":"complete","type":"individual","measure":"https://madie.cms.gov/Measure/CMS122FHIRDiabetesAssessGreaterThan9Percent","period":{"start":"2026-01-01","end":"2026-12-31"},"group":[{"id":"Group_1","population":[{"id":"InitialPopulation_1","code":{"coding":[{"system":"http://terminology.hl7.org/CodeSystem/measure-population","code":"initial-population","display":"Initial Population"}]},"count":1},{"id":"Denominator_1","code":{"coding":[{"system":"http://terminology.hl7.org/CodeSystem/measure-population","code":"denominator","display":"Denominator"}]},"count":1},{"id":"DenominatorExclusion_1","code":{"coding":[{"system":"http://terminology.hl7.org/CodeSystem/measure-population","code":"denominator-exclusion","display":"Denominator Exclusion"}]},"count":1},{"id":"Numerator_1","code":{"coding":[{"system":"http://terminology.hl7.org/CodeSystem/measure-population","code":"numerator","display":"Numerator"}]},"count":0}],"measureScore":{"value":1.0}}],"evaluatedResource":[{"reference":"Patient/e2b82999-6313-40af-bc8b-9ddf5f97795f"},{"reference":"Encounter/dc58354f-16b5-4e15-890f-3a76957a13a8"},{"reference":"Condition/1da03fda-4b7c-492d-927f-3a80a7136262"},{"reference":"Procedure/0e010154-9e78-48a5-8fe4-947c2efb9b51"}]},"request":{"method":"PUT","url":"MeasureReport/54ffad7d-5d0d-4b22-9323-67e42c3c1bc3"}},{"fullUrl":"Procedure/0e010154-9e78-48a5-8fe4-947c2efb9b51","resource":{"resourceType":"Procedure","id":"0e010154-9e78-48a5-8fe4-947c2efb9b51","meta":{"profile":["http://hl7.org/fhir/us/qicore/StructureDefinition/qicore-procedure"]},"extension":[{"url":"http://hl7.org/fhir/us/qicore/StructureDefinition/qicore-recorded","valueDateTime":"2026-12-31T00:00:00.000+00:00"}],"status":"completed","code":{"coding":[{"system":"http://snomed.info/sct","code":"395694002","display":"Specialist palliative care treatment - daycare (regime/therapy)"}]},"subject":{"reference":"Patient/e2b82999-6313-40af-bc8b-9ddf5f97795f"},"performedPeriod":{"start":"2026-12-31T00:00:00.000+00:00","end":"2026-12-31T23:59:59.000+00:00"}},"request":{"method":"PUT","url":"Procedure/0e010154-9e78-48a5-8fe4-947c2efb9b51"}},{"fullUrl":"Patient/e2b82999-6313-40af-bc8b-9ddf5f97795f","resource":{"resourceType":"Patient","id":"e2b82999-6313-40af-bc8b-9ddf5f97795f","meta":{"profile":["http://hl7.org/fhir/us/qicore/StructureDefinition/qicore-patient"]},"extension":[{"url":"http://hl7.org/fhir/us/core/StructureDefinition/us-core-race","extension":[{"url":"ombCategory","valueCoding":{"system":"urn:oid:2.16.840.1.113883.6.238","code":"2028-9","display":"Asian","userSelected":true}},{"url":"text","valueString":"Asian"}]},{"url":"http://hl7.org/fhir/us/core/StructureDefinition/us-core-ethnicity","extension":[{"url":"ombCategory","valueCoding":{"system":"urn:oid:2.16.840.1.113883.6.238","code":"2135-2","display":"Hispanic or Latino","userSelected":true}},{"url":"text","valueString":"Hispanic or Latino"}]}],"identifier":[{"type":{"coding":[{"system":"http://terminology.hl7.org/CodeSystem/v2-0203","code":"MR"}]},"system":"http://hospital.smarthealthit.org","value":"999999995"}],"name":[{"family":"Bertha","given":["Betty"]}],"gender":"female","birthDate":"2007-01-01"},"request":{"method":"PUT","url":"Patient/e2b82999-6313-40af-bc8b-9ddf5f97795f"}}]}