{"resourceType":"Bundle","id":"tests-f5771b74-a7de-439a-a51f-49a3863e086b-bundle","type":"transaction","entry":[{"fullUrl":"Condition/4e3e42be-07cb-48a0-96ad-3aa6b08616cd","resource":{"resourceType":"Condition","id":"4e3e42be-07cb-48a0-96ad-3aa6b08616cd","meta":{"profile":["http://hl7.org/fhir/us/qicore/StructureDefinition/qicore-condition-encounter-diagnosis"]},"clinicalStatus":{"coding":[{"system":"http://terminology.hl7.org/CodeSystem/condition-clinical","code":"active"}]},"category":[{"coding":[{"system":"http://terminology.hl7.org/CodeSystem/condition-category","code":"encounter-diagnosis","display":"Encounter Diagnosis"}]}],"code":{"coding":[{"system":"http://snomed.info/sct","code":"102781000119107","display":"Sensory neuropathy due to type 1 diabetes mellitus (disorder)"}]},"subject":{"reference":"Patient/f5771b74-a7de-439a-a51f-49a3863e086b"},"onsetDateTime":"2026-01-01T23:59:00Z"},"request":{"method":"PUT","url":"Condition/4e3e42be-07cb-48a0-96ad-3aa6b08616cd"}},{"fullUrl":"Patient/f5771b74-a7de-439a-a51f-49a3863e086b","resource":{"resourceType":"Patient","id":"f5771b74-a7de-439a-a51f-49a3863e086b","meta":{"profile":["http://hl7.org/fhir/us/qicore/StructureDefinition/qicore-patient"]},"extension":[{"url":"http://hl7.org/fhir/us/core/StructureDefinition/us-core-race","extension":[{"url":"ombCategory","valueCoding":{"system":"urn:oid:2.16.840.1.113883.6.238","code":"2028-9","display":"Asian","userSelected":true}},{"url":"text","valueString":"Asian"}]},{"url":"http://hl7.org/fhir/us/core/StructureDefinition/us-core-ethnicity","extension":[{"url":"ombCategory","valueCoding":{"system":"urn:oid:2.16.840.1.113883.6.238","code":"2135-2","display":"Hispanic or Latino","userSelected":true}},{"url":"text","valueString":"Hispanic or Latino"}]}],"identifier":[{"type":{"coding":[{"system":"http://terminology.hl7.org/CodeSystem/v2-0203","code":"MR"}]},"system":"http://hospital.smarthealthit.org","value":"999999995"}],"name":[{"family":"Bertha","given":["Betty"]}],"gender":"female","birthDate":"1957-12-31"},"request":{"method":"PUT","url":"Patient/f5771b74-a7de-439a-a51f-49a3863e086b"}},{"fullUrl":"Condition/5e859f76-cf4a-44eb-9b1c-39e235857bb8","resource":{"resourceType":"Condition","id":"5e859f76-cf4a-44eb-9b1c-39e235857bb8","meta":{"profile":["http://hl7.org/fhir/us/qicore/StructureDefinition/qicore-condition-problems-health-concerns"]},"clinicalStatus":{"coding":[{"system":"http://terminology.hl7.org/CodeSystem/condition-clinical","code":"active"}]},"category":[{"coding":[{"system":"http://terminology.hl7.org/CodeSystem/condition-category","code":"problem-list-item","display":"Problem List Item"}]}],"code":{"coding":[{"system":"http://snomed.info/sct","code":"217083007","display":"Fall on or from stairs or steps (event)"}]},"subject":{"reference":"Patient/f5771b74-a7de-439a-a51f-49a3863e086b"},"onsetDateTime":"2026-06-30T23:59:59Z"},"request":{"method":"PUT","url":"Condition/5e859f76-cf4a-44eb-9b1c-39e235857bb8"}},{"fullUrl":"Bundle/DENEXPass-FrailtyDxOverlapsMP2","resource":{"resourceType":"Bundle","id":"DENEXPass-FrailtyDxOverlapsMP2","type":"transaction","entry":[{"fullUrl":"https://madie.cms.gov/Patient/f5771b74-a7de-439a-a51f-49a3863e086b","resource":{"resourceType":"Patient","id":"f5771b74-a7de-439a-a51f-49a3863e086b","meta":{"profile":["http://hl7.org/fhir/us/qicore/StructureDefinition/qicore-patient"]},"extension":[{"url":"http://hl7.org/fhir/us/core/StructureDefinition/us-core-race","extension":[{"url":"ombCategory","valueCoding":{"system":"urn:oid:2.16.840.1.113883.6.238","code":"2028-9","display":"Asian","userSelected":true}},{"url":"text","valueString":"Asian"}]},{"url":"http://hl7.org/fhir/us/core/StructureDefinition/us-core-ethnicity","extension":[{"url":"ombCategory","valueCoding":{"system":"urn:oid:2.16.840.1.113883.6.238","code":"2135-2","display":"Hispanic or Latino","userSelected":true}},{"url":"text","valueString":"Hispanic or Latino"}]}],"identifier":[{"type":{"coding":[{"system":"http://terminology.hl7.org/CodeSystem/v2-0203","code":"MR"}]},"system":"http://hospital.smarthealthit.org","value":"999999995"}],"name":[{"family":"Bertha","given":["Betty"]}],"gender":"female","birthDate":"1957-12-31"},"request":{"method":"PUT","url":"Patient/f5771b74-a7de-439a-a51f-49a3863e086b"}},{"fullUrl":"https://madie.cms.gov/Encounter/8b0091c6-2c53-4ee9-8577-bc66133adcd9","resource":{"resourceType":"Encounter","id":"8b0091c6-2c53-4ee9-8577-bc66133adcd9","meta":{"profile":["http://hl7.org/fhir/us/qicore/StructureDefinition/qicore-encounter"]},"status":"finished","class":{"system":"http://terminology.hl7.org/CodeSystem/v3-ActCode","code":"AMB","display":"ambulatory"},"type":[{"coding":[{"system":"http://snomed.info/sct","code":"185460008","display":"Home visit request by patient (procedure)"}]}],"subject":{"reference":"Patient/f5771b74-a7de-439a-a51f-49a3863e086b"},"period":{"start":"2026-01-01T00:00:00Z","end":"2026-01-01T00:15:00Z"}},"request":{"method":"PUT","url":"Encounter/8b0091c6-2c53-4ee9-8577-bc66133adcd9"}},{"fullUrl":"https://madie.cms.gov/Condition/4e3e42be-07cb-48a0-96ad-3aa6b08616cd","resource":{"resourceType":"Condition","id":"4e3e42be-07cb-48a0-96ad-3aa6b08616cd","meta":{"profile":["http://hl7.org/fhir/us/qicore/StructureDefinition/qicore-condition-encounter-diagnosis"]},"clinicalStatus":{"coding":[{"system":"http://terminology.hl7.org/CodeSystem/condition-clinical","code":"active"}]},"category":[{"coding":[{"system":"http://terminology.hl7.org/CodeSystem/condition-category","code":"encounter-diagnosis","display":"Encounter Diagnosis"}]}],"code":{"coding":[{"system":"http://snomed.info/sct","code":"102781000119107","display":"Sensory neuropathy due to type 1 diabetes mellitus (disorder)"}]},"subject":{"reference":"Patient/f5771b74-a7de-439a-a51f-49a3863e086b"},"onsetDateTime":"2026-01-01T23:59:00Z"},"request":{"method":"PUT","url":"Condition/4e3e42be-07cb-48a0-96ad-3aa6b08616cd"}},{"fullUrl":"https://madie.cms.gov/MedicationRequest/f8465f0c-51b7-4a86-bdde-98cba8a6d0af","resource":{"resourceType":"MedicationRequest","id":"f8465f0c-51b7-4a86-bdde-98cba8a6d0af","meta":{"profile":["http://hl7.org/fhir/us/qicore/StructureDefinition/qicore-medicationrequest"]},"status":"active","intent":"order","doNotPerform":false,"medicationCodeableConcept":{"coding":[{"system":"http://www.nlm.nih.gov/research/umls/rxnorm","code":"312836","display":"rivastigmine 6 MG Oral Capsule"}]},"subject":{"reference":"Patient/f5771b74-a7de-439a-a51f-49a3863e086b"},"authoredOn":"2026-12-30T00:00:00Z","requester":{"reference":"Practitioner/example"},"dispenseRequest":{"expectedSupplyDuration":{"value":90,"system":"http://unitsofmeasure.org","code":"days"}}},"request":{"method":"PUT","url":"MedicationRequest/f8465f0c-51b7-4a86-bdde-98cba8a6d0af"}},{"fullUrl":"https://madie.cms.gov/Condition/5e859f76-cf4a-44eb-9b1c-39e235857bb8","resource":{"resourceType":"Condition","id":"5e859f76-cf4a-44eb-9b1c-39e235857bb8","meta":{"profile":["http://hl7.org/fhir/us/qicore/StructureDefinition/qicore-condition-problems-health-concerns"]},"clinicalStatus":{"coding":[{"system":"http://terminology.hl7.org/CodeSystem/condition-clinical","code":"active"}]},"category":[{"coding":[{"system":"http://terminology.hl7.org/CodeSystem/condition-category","code":"problem-list-item","display":"Problem List Item"}]}],"code":{"coding":[{"system":"http://snomed.info/sct","code":"217083007","display":"Fall on or from stairs or steps (event)"}]},"subject":{"reference":"Patient/f5771b74-a7de-439a-a51f-49a3863e086b"},"onsetDateTime":"2026-06-30T23:59:59Z"},"request":{"method":"PUT","url":"Condition/5e859f76-cf4a-44eb-9b1c-39e235857bb8"}},{"fullUrl":"https://madie.cms.gov/MeasureReport/aee668f4-13e7-4f11-9b6a-c78e8e5baeab","resource":{"resourceType":"MeasureReport","id":"aee668f4-13e7-4f11-9b6a-c78e8e5baeab","meta":{"profile":["http://hl7.org/fhir/us/cqfmeasures/StructureDefinition/test-case-cqfm"]},"contained":[{"resourceType":"Parameters","id":"be7819db-f7a2-496d-b82a-dee1f9f6e076-parameters","parameter":[{"name":"subject","valueString":"f5771b74-a7de-439a-a51f-49a3863e086b"}]}],"extension":[{"url":"http://hl7.org/fhir/StructureDefinition/cqf-inputParameters","valueReference":{"reference":"#be7819db-f7a2-496d-b82a-dee1f9f6e076-parameters"}},{"url":"http://hl7.org/fhir/us/cqfmeasures/StructureDefinition/cqfm-testCaseDescription","valueMarkdown":"Frailty diagnosis overlaps the MP"}],"modifierExtension":[{"url":"http://hl7.org/fhir/us/cqfmeasures/StructureDefinition/cqfm-isTestCase","valueBoolean":true}],"status":"complete","type":"individual","measure":"https://madie.cms.gov/Measure/CMS122FHIRDiabetesAssessGreaterThan9Percent","period":{"start":"2026-01-01","end":"2026-12-31"},"group":[{"id":"Group_1","population":[{"id":"InitialPopulation_1","code":{"coding":[{"system":"http://terminology.hl7.org/CodeSystem/measure-population","code":"initial-population","display":"Initial Population"}]},"count":1},{"id":"Denominator_1","code":{"coding":[{"system":"http://terminology.hl7.org/CodeSystem/measure-population","code":"denominator","display":"Denominator"}]},"count":1},{"id":"DenominatorExclusion_1","code":{"coding":[{"system":"http://terminology.hl7.org/CodeSystem/measure-population","code":"denominator-exclusion","display":"Denominator Exclusion"}]},"count":1},{"id":"Numerator_1","code":{"coding":[{"system":"http://terminology.hl7.org/CodeSystem/measure-population","code":"numerator","display":"Numerator"}]},"count":0}],"measureScore":{"value":1.0}}],"evaluatedResource":[{"reference":"Patient/f5771b74-a7de-439a-a51f-49a3863e086b"},{"reference":"Encounter/8b0091c6-2c53-4ee9-8577-bc66133adcd9"},{"reference":"Condition/4e3e42be-07cb-48a0-96ad-3aa6b08616cd"},{"reference":"MedicationRequest/f8465f0c-51b7-4a86-bdde-98cba8a6d0af"},{"reference":"Condition/5e859f76-cf4a-44eb-9b1c-39e235857bb8"}]},"request":{"method":"PUT","url":"MeasureReport/aee668f4-13e7-4f11-9b6a-c78e8e5baeab"}}]},"request":{"method":"PUT","url":"Bundle/DENEXPass-FrailtyDxOverlapsMP2"}},{"fullUrl":"Encounter/8b0091c6-2c53-4ee9-8577-bc66133adcd9","resource":{"resourceType":"Encounter","id":"8b0091c6-2c53-4ee9-8577-bc66133adcd9","meta":{"profile":["http://hl7.org/fhir/us/qicore/StructureDefinition/qicore-encounter"]},"status":"finished","class":{"system":"http://terminology.hl7.org/CodeSystem/v3-ActCode","code":"AMB","display":"ambulatory"},"type":[{"coding":[{"system":"http://snomed.info/sct","code":"185460008","display":"Home visit request by patient (procedure)"}]}],"subject":{"reference":"Patient/f5771b74-a7de-439a-a51f-49a3863e086b"},"period":{"start":"2026-01-01T00:00:00Z","end":"2026-01-01T00:15:00Z"}},"request":{"method":"PUT","url":"Encounter/8b0091c6-2c53-4ee9-8577-bc66133adcd9"}},{"fullUrl":"MeasureReport/aee668f4-13e7-4f11-9b6a-c78e8e5baeab","resource":{"resourceType":"MeasureReport","id":"aee668f4-13e7-4f11-9b6a-c78e8e5baeab","meta":{"profile":["http://hl7.org/fhir/us/cqfmeasures/StructureDefinition/test-case-cqfm"]},"contained":[{"resourceType":"Parameters","id":"be7819db-f7a2-496d-b82a-dee1f9f6e076-parameters","parameter":[{"name":"subject","valueString":"f5771b74-a7de-439a-a51f-49a3863e086b"}]}],"extension":[{"url":"http://hl7.org/fhir/StructureDefinition/cqf-inputParameters","valueReference":{"reference":"#be7819db-f7a2-496d-b82a-dee1f9f6e076-parameters"}},{"url":"http://hl7.org/fhir/us/cqfmeasures/StructureDefinition/cqfm-testCaseDescription","valueMarkdown":"Frailty diagnosis overlaps the MP"}],"modifierExtension":[{"url":"http://hl7.org/fhir/us/cqfmeasures/StructureDefinition/cqfm-isTestCase","valueBoolean":true}],"status":"complete","type":"individual","measure":"https://madie.cms.gov/Measure/CMS122FHIRDiabetesAssessGreaterThan9Percent","period":{"start":"2026-01-01","end":"2026-12-31"},"group":[{"id":"Group_1","population":[{"id":"InitialPopulation_1","code":{"coding":[{"system":"http://terminology.hl7.org/CodeSystem/measure-population","code":"initial-population","display":"Initial Population"}]},"count":1},{"id":"Denominator_1","code":{"coding":[{"system":"http://terminology.hl7.org/CodeSystem/measure-population","code":"denominator","display":"Denominator"}]},"count":1},{"id":"DenominatorExclusion_1","code":{"coding":[{"system":"http://terminology.hl7.org/CodeSystem/measure-population","code":"denominator-exclusion","display":"Denominator Exclusion"}]},"count":1},{"id":"Numerator_1","code":{"coding":[{"system":"http://terminology.hl7.org/CodeSystem/measure-population","code":"numerator","display":"Numerator"}]},"count":0}],"measureScore":{"value":1.0}}],"evaluatedResource":[{"reference":"Patient/f5771b74-a7de-439a-a51f-49a3863e086b"},{"reference":"Encounter/8b0091c6-2c53-4ee9-8577-bc66133adcd9"},{"reference":"Condition/4e3e42be-07cb-48a0-96ad-3aa6b08616cd"},{"reference":"MedicationRequest/f8465f0c-51b7-4a86-bdde-98cba8a6d0af"},{"reference":"Condition/5e859f76-cf4a-44eb-9b1c-39e235857bb8"}]},"request":{"method":"PUT","url":"MeasureReport/aee668f4-13e7-4f11-9b6a-c78e8e5baeab"}},{"fullUrl":"MedicationRequest/f8465f0c-51b7-4a86-bdde-98cba8a6d0af","resource":{"resourceType":"MedicationRequest","id":"f8465f0c-51b7-4a86-bdde-98cba8a6d0af","meta":{"profile":["http://hl7.org/fhir/us/qicore/StructureDefinition/qicore-medicationrequest"]},"status":"active","intent":"order","doNotPerform":false,"medicationCodeableConcept":{"coding":[{"system":"http://www.nlm.nih.gov/research/umls/rxnorm","code":"312836","display":"rivastigmine 6 MG Oral Capsule"}]},"subject":{"reference":"Patient/f5771b74-a7de-439a-a51f-49a3863e086b"},"authoredOn":"2026-12-30T00:00:00Z","requester":{"reference":"Practitioner/example"},"dispenseRequest":{"expectedSupplyDuration":{"value":90,"system":"http://unitsofmeasure.org","code":"days"}}},"request":{"method":"PUT","url":"MedicationRequest/f8465f0c-51b7-4a86-bdde-98cba8a6d0af"}}]}