{"resourceType":"Bundle","id":"tests-a7332447-3a23-42b1-bfc2-d93cc5b775af-bundle","type":"transaction","entry":[{"fullUrl":"Encounter/2304bdc3-608e-4ca4-b34b-7a0ee68318b6","resource":{"resourceType":"Encounter","id":"2304bdc3-608e-4ca4-b34b-7a0ee68318b6","meta":{"profile":["http://hl7.org/fhir/us/qicore/StructureDefinition/qicore-encounter"]},"status":"finished","class":{"system":"http://terminology.hl7.org/CodeSystem/v3-ActCode","code":"AMB","display":"ambulatory"},"type":[{"coding":[{"system":"http://snomed.info/sct","code":"305336008","display":"Admission to hospice (procedure)"}]}],"subject":{"reference":"Patient/a7332447-3a23-42b1-bfc2-d93cc5b775af"},"period":{"start":"2025-12-31T23:59:00.000+00:00","end":"2025-12-31T23:59:00.000+00:00"}},"request":{"method":"PUT","url":"Encounter/2304bdc3-608e-4ca4-b34b-7a0ee68318b6"}},{"fullUrl":"Encounter/f2a5e69d-4b62-446c-8bca-e4411a0c7a98","resource":{"resourceType":"Encounter","id":"f2a5e69d-4b62-446c-8bca-e4411a0c7a98","meta":{"profile":["http://hl7.org/fhir/us/qicore/StructureDefinition/qicore-encounter"]},"status":"finished","class":{"system":"http://terminology.hl7.org/CodeSystem/v3-ActCode","code":"AMB","display":"ambulatory"},"type":[{"coding":[{"system":"http://snomed.info/sct","code":"185460008","display":"Home visit request by patient (procedure)"}]}],"subject":{"reference":"Patient/a7332447-3a23-42b1-bfc2-d93cc5b775af"},"period":{"start":"2026-01-01T00:00:00.000+00:00","end":"2026-01-01T00:15:00.000+00:00"}},"request":{"method":"PUT","url":"Encounter/f2a5e69d-4b62-446c-8bca-e4411a0c7a98"}},{"fullUrl":"Patient/a7332447-3a23-42b1-bfc2-d93cc5b775af","resource":{"resourceType":"Patient","id":"a7332447-3a23-42b1-bfc2-d93cc5b775af","meta":{"profile":["http://hl7.org/fhir/us/qicore/StructureDefinition/qicore-patient"]},"extension":[{"url":"http://hl7.org/fhir/us/core/StructureDefinition/us-core-race","extension":[{"url":"ombCategory","valueCoding":{"system":"urn:oid:2.16.840.1.113883.6.238","code":"2028-9","display":"Asian"}},{"url":"text","valueString":"Asian"}]},{"url":"http://hl7.org/fhir/us/core/StructureDefinition/us-core-ethnicity","extension":[{"url":"ombCategory","valueCoding":{"system":"urn:oid:2.16.840.1.113883.6.238","code":"2135-2","display":"Hispanic or Latino"}},{"url":"text","valueString":"Hispanic or Latino"}]}],"identifier":[{"system":"http://hospital.smarthealthit.org","value":"999999995"}],"name":[{"family":"Bertha","given":["Betty"]}],"gender":"female","birthDate":"2008-01-01"},"request":{"method":"PUT","url":"Patient/a7332447-3a23-42b1-bfc2-d93cc5b775af"}},{"fullUrl":"Bundle/Patient-24-DENEXFail-HospiceEncB4MP","resource":{"resourceType":"Bundle","id":"Patient-24-DENEXFail-HospiceEncB4MP","type":"transaction","entry":[{"fullUrl":"https://madie.cms.gov/Patient/a7332447-3a23-42b1-bfc2-d93cc5b775af","resource":{"resourceType":"Patient","id":"a7332447-3a23-42b1-bfc2-d93cc5b775af","meta":{"profile":["http://hl7.org/fhir/us/qicore/StructureDefinition/qicore-patient"]},"extension":[{"url":"http://hl7.org/fhir/us/core/StructureDefinition/us-core-race","extension":[{"url":"ombCategory","valueCoding":{"system":"urn:oid:2.16.840.1.113883.6.238","code":"2028-9","display":"Asian"}},{"url":"text","valueString":"Asian"}]},{"url":"http://hl7.org/fhir/us/core/StructureDefinition/us-core-ethnicity","extension":[{"url":"ombCategory","valueCoding":{"system":"urn:oid:2.16.840.1.113883.6.238","code":"2135-2","display":"Hispanic or Latino"}},{"url":"text","valueString":"Hispanic or Latino"}]}],"identifier":[{"system":"http://hospital.smarthealthit.org","value":"999999995"}],"name":[{"family":"Bertha","given":["Betty"]}],"gender":"female","birthDate":"2008-01-01"},"request":{"method":"PUT","url":"Patient/a7332447-3a23-42b1-bfc2-d93cc5b775af"}},{"fullUrl":"https://madie.cms.gov/Encounter/f2a5e69d-4b62-446c-8bca-e4411a0c7a98","resource":{"resourceType":"Encounter","id":"f2a5e69d-4b62-446c-8bca-e4411a0c7a98","meta":{"profile":["http://hl7.org/fhir/us/qicore/StructureDefinition/qicore-encounter"]},"status":"finished","class":{"system":"http://terminology.hl7.org/CodeSystem/v3-ActCode","code":"AMB","display":"ambulatory"},"type":[{"coding":[{"system":"http://snomed.info/sct","code":"185460008","display":"Home visit request by patient (procedure)"}]}],"subject":{"reference":"Patient/a7332447-3a23-42b1-bfc2-d93cc5b775af"},"period":{"start":"2026-01-01T00:00:00.000+00:00","end":"2026-01-01T00:15:00.000+00:00"}},"request":{"method":"PUT","url":"Encounter/f2a5e69d-4b62-446c-8bca-e4411a0c7a98"}},{"fullUrl":"https://madie.cms.gov/Condition/f52ba8f3-c19c-4dbc-a53e-8d99ca471f2d","resource":{"resourceType":"Condition","id":"f52ba8f3-c19c-4dbc-a53e-8d99ca471f2d","meta":{"profile":["http://hl7.org/fhir/us/qicore/StructureDefinition/qicore-condition-encounter-diagnosis"]},"clinicalStatus":{"coding":[{"system":"http://terminology.hl7.org/CodeSystem/condition-clinical","code":"active"}]},"category":[{"coding":[{"system":"http://terminology.hl7.org/CodeSystem/condition-category","code":"encounter-diagnosis","display":"Encounter Diagnosis"}]}],"code":{"coding":[{"system":"http://snomed.info/sct","code":"102781000119107","display":"Sensory neuropathy due to type 1 diabetes mellitus (disorder)"}]},"subject":{"reference":"Patient/a7332447-3a23-42b1-bfc2-d93cc5b775af"},"onsetDateTime":"2026-01-01T23:59:00.000+00:00"},"request":{"method":"PUT","url":"Condition/f52ba8f3-c19c-4dbc-a53e-8d99ca471f2d"}},{"fullUrl":"https://madie.cms.gov/Encounter/2304bdc3-608e-4ca4-b34b-7a0ee68318b6","resource":{"resourceType":"Encounter","id":"2304bdc3-608e-4ca4-b34b-7a0ee68318b6","meta":{"profile":["http://hl7.org/fhir/us/qicore/StructureDefinition/qicore-encounter"]},"status":"finished","class":{"system":"http://terminology.hl7.org/CodeSystem/v3-ActCode","code":"AMB","display":"ambulatory"},"type":[{"coding":[{"system":"http://snomed.info/sct","code":"305336008","display":"Admission to hospice (procedure)"}]}],"subject":{"reference":"Patient/a7332447-3a23-42b1-bfc2-d93cc5b775af"},"period":{"start":"2025-12-31T23:59:00.000+00:00","end":"2025-12-31T23:59:00.000+00:00"}},"request":{"method":"PUT","url":"Encounter/2304bdc3-608e-4ca4-b34b-7a0ee68318b6"}},{"fullUrl":"https://madie.cms.gov/MeasureReport/0fb3bd2c-2ad3-4f9e-8177-7efe5fc46b2d","resource":{"resourceType":"MeasureReport","id":"0fb3bd2c-2ad3-4f9e-8177-7efe5fc46b2d","meta":{"profile":["http://hl7.org/fhir/us/cqfmeasures/StructureDefinition/test-case-cqfm"]},"contained":[{"resourceType":"Parameters","id":"29077851-1e41-4f08-a733-34cea4c6cd14-parameters","parameter":[{"name":"subject","valueString":"a7332447-3a23-42b1-bfc2-d93cc5b775af"}]}],"extension":[{"url":"http://hl7.org/fhir/StructureDefinition/cqf-inputParameters","valueReference":{"reference":"#29077851-1e41-4f08-a733-34cea4c6cd14-parameters"}},{"url":"http://hl7.org/fhir/us/cqfmeasures/StructureDefinition/cqfm-testCaseDescription","valueMarkdown":"Hospice encounter before the MP"}],"modifierExtension":[{"url":"http://hl7.org/fhir/us/cqfmeasures/StructureDefinition/cqfm-isTestCase","valueBoolean":true}],"status":"complete","type":"individual","measure":"https://madie.cms.gov/Measure/CMS122FHIRDiabetesAssessGreaterThan9Percent","period":{"start":"2026-01-01","end":"2026-12-31"},"group":[{"id":"Group_1","population":[{"id":"InitialPopulation_1","code":{"coding":[{"system":"http://terminology.hl7.org/CodeSystem/measure-population","code":"initial-population","display":"Initial Population"}]},"count":1},{"id":"Denominator_1","code":{"coding":[{"system":"http://terminology.hl7.org/CodeSystem/measure-population","code":"denominator","display":"Denominator"}]},"count":1},{"id":"DenominatorExclusion_1","code":{"coding":[{"system":"http://terminology.hl7.org/CodeSystem/measure-population","code":"denominator-exclusion","display":"Denominator Exclusion"}]},"count":0},{"id":"Numerator_1","code":{"coding":[{"system":"http://terminology.hl7.org/CodeSystem/measure-population","code":"numerator","display":"Numerator"}]},"count":1}],"measureScore":{"value":1.0}}],"evaluatedResource":[{"reference":"Patient/a7332447-3a23-42b1-bfc2-d93cc5b775af"},{"reference":"Encounter/f2a5e69d-4b62-446c-8bca-e4411a0c7a98"},{"reference":"Condition/f52ba8f3-c19c-4dbc-a53e-8d99ca471f2d"},{"reference":"Encounter/2304bdc3-608e-4ca4-b34b-7a0ee68318b6"}]},"request":{"method":"PUT","url":"MeasureReport/0fb3bd2c-2ad3-4f9e-8177-7efe5fc46b2d"}}]},"request":{"method":"PUT","url":"Bundle/Patient-24-DENEXFail-HospiceEncB4MP"}},{"fullUrl":"Condition/f52ba8f3-c19c-4dbc-a53e-8d99ca471f2d","resource":{"resourceType":"Condition","id":"f52ba8f3-c19c-4dbc-a53e-8d99ca471f2d","meta":{"profile":["http://hl7.org/fhir/us/qicore/StructureDefinition/qicore-condition-encounter-diagnosis"]},"clinicalStatus":{"coding":[{"system":"http://terminology.hl7.org/CodeSystem/condition-clinical","code":"active"}]},"category":[{"coding":[{"system":"http://terminology.hl7.org/CodeSystem/condition-category","code":"encounter-diagnosis","display":"Encounter Diagnosis"}]}],"code":{"coding":[{"system":"http://snomed.info/sct","code":"102781000119107","display":"Sensory neuropathy due to type 1 diabetes mellitus (disorder)"}]},"subject":{"reference":"Patient/a7332447-3a23-42b1-bfc2-d93cc5b775af"},"onsetDateTime":"2026-01-01T23:59:00.000+00:00"},"request":{"method":"PUT","url":"Condition/f52ba8f3-c19c-4dbc-a53e-8d99ca471f2d"}},{"fullUrl":"MeasureReport/0fb3bd2c-2ad3-4f9e-8177-7efe5fc46b2d","resource":{"resourceType":"MeasureReport","id":"0fb3bd2c-2ad3-4f9e-8177-7efe5fc46b2d","meta":{"profile":["http://hl7.org/fhir/us/cqfmeasures/StructureDefinition/test-case-cqfm"]},"contained":[{"resourceType":"Parameters","id":"29077851-1e41-4f08-a733-34cea4c6cd14-parameters","parameter":[{"name":"subject","valueString":"a7332447-3a23-42b1-bfc2-d93cc5b775af"}]}],"extension":[{"url":"http://hl7.org/fhir/StructureDefinition/cqf-inputParameters","valueReference":{"reference":"#29077851-1e41-4f08-a733-34cea4c6cd14-parameters"}},{"url":"http://hl7.org/fhir/us/cqfmeasures/StructureDefinition/cqfm-testCaseDescription","valueMarkdown":"Hospice encounter before the MP"}],"modifierExtension":[{"url":"http://hl7.org/fhir/us/cqfmeasures/StructureDefinition/cqfm-isTestCase","valueBoolean":true}],"status":"complete","type":"individual","measure":"https://madie.cms.gov/Measure/CMS122FHIRDiabetesAssessGreaterThan9Percent","period":{"start":"2026-01-01","end":"2026-12-31"},"group":[{"id":"Group_1","population":[{"id":"InitialPopulation_1","code":{"coding":[{"system":"http://terminology.hl7.org/CodeSystem/measure-population","code":"initial-population","display":"Initial Population"}]},"count":1},{"id":"Denominator_1","code":{"coding":[{"system":"http://terminology.hl7.org/CodeSystem/measure-population","code":"denominator","display":"Denominator"}]},"count":1},{"id":"DenominatorExclusion_1","code":{"coding":[{"system":"http://terminology.hl7.org/CodeSystem/measure-population","code":"denominator-exclusion","display":"Denominator Exclusion"}]},"count":0},{"id":"Numerator_1","code":{"coding":[{"system":"http://terminology.hl7.org/CodeSystem/measure-population","code":"numerator","display":"Numerator"}]},"count":1}],"measureScore":{"value":1.0}}],"evaluatedResource":[{"reference":"Patient/a7332447-3a23-42b1-bfc2-d93cc5b775af"},{"reference":"Encounter/f2a5e69d-4b62-446c-8bca-e4411a0c7a98"},{"reference":"Condition/f52ba8f3-c19c-4dbc-a53e-8d99ca471f2d"},{"reference":"Encounter/2304bdc3-608e-4ca4-b34b-7a0ee68318b6"}]},"request":{"method":"PUT","url":"MeasureReport/0fb3bd2c-2ad3-4f9e-8177-7efe5fc46b2d"}}]}