{"resourceType":"Bundle","id":"tests-86a25ad7-3801-4297-a9a4-b36b5308c9e2-bundle","type":"transaction","entry":[{"fullUrl":"Patient/86a25ad7-3801-4297-a9a4-b36b5308c9e2","resource":{"resourceType":"Patient","id":"86a25ad7-3801-4297-a9a4-b36b5308c9e2","meta":{"profile":["http://hl7.org/fhir/us/qicore/StructureDefinition/qicore-patient"]},"extension":[{"url":"http://hl7.org/fhir/us/core/StructureDefinition/us-core-race","extension":[{"url":"ombCategory","valueCoding":{"system":"urn:oid:2.16.840.1.113883.6.238","code":"2028-9","display":"Asian","userSelected":true}},{"url":"text","valueString":"Asian"}]},{"url":"http://hl7.org/fhir/us/core/StructureDefinition/us-core-ethnicity","extension":[{"url":"ombCategory","valueCoding":{"system":"urn:oid:2.16.840.1.113883.6.238","code":"2135-2","display":"Hispanic or Latino","userSelected":true}},{"url":"text","valueString":"Hispanic or Latino"}]}],"identifier":[{"type":{"coding":[{"system":"http://terminology.hl7.org/CodeSystem/v2-0203","code":"MR"}]},"system":"http://hospital.smarthealthit.org","value":"999999995"}],"name":[{"family":"Bertha","given":["Betty"]}],"gender":"female","birthDate":"2007-01-01"},"request":{"method":"PUT","url":"Patient/86a25ad7-3801-4297-a9a4-b36b5308c9e2"}},{"fullUrl":"Encounter/4b4c78e7-d369-4411-9edd-7def056c4461","resource":{"resourceType":"Encounter","id":"4b4c78e7-d369-4411-9edd-7def056c4461","meta":{"profile":["http://hl7.org/fhir/us/qicore/StructureDefinition/qicore-encounter"]},"status":"finished","class":{"system":"http://terminology.hl7.org/CodeSystem/v3-ActCode","code":"AMB","display":"ambulatory"},"type":[{"coding":[{"system":"http://snomed.info/sct","code":"185460008","display":"Home visit request by patient (procedure)"}]}],"subject":{"reference":"Patient/86a25ad7-3801-4297-a9a4-b36b5308c9e2"},"period":{"start":"2026-01-01T00:00:00.000+00:00","end":"2026-01-01T00:15:00.000+00:00"}},"request":{"method":"PUT","url":"Encounter/4b4c78e7-d369-4411-9edd-7def056c4461"}},{"fullUrl":"Encounter/c5e9bd0a-9ae7-4bbf-87e2-c1ab43204aa6","resource":{"resourceType":"Encounter","id":"c5e9bd0a-9ae7-4bbf-87e2-c1ab43204aa6","meta":{"profile":["http://hl7.org/fhir/us/qicore/StructureDefinition/qicore-encounter"]},"status":"finished","class":{"system":"http://terminology.hl7.org/CodeSystem/v3-ActCode","code":"AMB","display":"ambulatory"},"type":[{"coding":[{"system":"http://snomed.info/sct","code":"305824005","display":"Seen by palliative care medicine service (finding)"}]}],"subject":{"reference":"Patient/86a25ad7-3801-4297-a9a4-b36b5308c9e2"},"period":{"start":"2026-01-01T00:00:00.000+00:00","end":"2026-01-01T01:00:00.000+00:00"}},"request":{"method":"PUT","url":"Encounter/c5e9bd0a-9ae7-4bbf-87e2-c1ab43204aa6"}},{"fullUrl":"Bundle/DENEXPass-PalliativeCareEncounterDuringMP","resource":{"resourceType":"Bundle","id":"DENEXPass-PalliativeCareEncounterDuringMP","type":"transaction","entry":[{"fullUrl":"https://madie.cms.gov/Patient/86a25ad7-3801-4297-a9a4-b36b5308c9e2","resource":{"resourceType":"Patient","id":"86a25ad7-3801-4297-a9a4-b36b5308c9e2","meta":{"profile":["http://hl7.org/fhir/us/qicore/StructureDefinition/qicore-patient"]},"extension":[{"url":"http://hl7.org/fhir/us/core/StructureDefinition/us-core-race","extension":[{"url":"ombCategory","valueCoding":{"system":"urn:oid:2.16.840.1.113883.6.238","code":"2028-9","display":"Asian","userSelected":true}},{"url":"text","valueString":"Asian"}]},{"url":"http://hl7.org/fhir/us/core/StructureDefinition/us-core-ethnicity","extension":[{"url":"ombCategory","valueCoding":{"system":"urn:oid:2.16.840.1.113883.6.238","code":"2135-2","display":"Hispanic or Latino","userSelected":true}},{"url":"text","valueString":"Hispanic or Latino"}]}],"identifier":[{"type":{"coding":[{"system":"http://terminology.hl7.org/CodeSystem/v2-0203","code":"MR"}]},"system":"http://hospital.smarthealthit.org","value":"999999995"}],"name":[{"family":"Bertha","given":["Betty"]}],"gender":"female","birthDate":"2007-01-01"},"request":{"method":"PUT","url":"Patient/86a25ad7-3801-4297-a9a4-b36b5308c9e2"}},{"fullUrl":"https://madie.cms.gov/Encounter/4b4c78e7-d369-4411-9edd-7def056c4461","resource":{"resourceType":"Encounter","id":"4b4c78e7-d369-4411-9edd-7def056c4461","meta":{"profile":["http://hl7.org/fhir/us/qicore/StructureDefinition/qicore-encounter"]},"status":"finished","class":{"system":"http://terminology.hl7.org/CodeSystem/v3-ActCode","code":"AMB","display":"ambulatory"},"type":[{"coding":[{"system":"http://snomed.info/sct","code":"185460008","display":"Home visit request by patient (procedure)"}]}],"subject":{"reference":"Patient/86a25ad7-3801-4297-a9a4-b36b5308c9e2"},"period":{"start":"2026-01-01T00:00:00.000+00:00","end":"2026-01-01T00:15:00.000+00:00"}},"request":{"method":"PUT","url":"Encounter/4b4c78e7-d369-4411-9edd-7def056c4461"}},{"fullUrl":"https://madie.cms.gov/Condition/41260395-2ec4-4ca8-8611-b614e8e56366","resource":{"resourceType":"Condition","id":"41260395-2ec4-4ca8-8611-b614e8e56366","meta":{"profile":["http://hl7.org/fhir/us/qicore/StructureDefinition/qicore-condition-encounter-diagnosis"]},"clinicalStatus":{"coding":[{"system":"http://terminology.hl7.org/CodeSystem/condition-clinical","code":"active"}]},"category":[{"coding":[{"system":"http://terminology.hl7.org/CodeSystem/condition-category","code":"encounter-diagnosis","display":"Encounter Diagnosis"}]}],"code":{"coding":[{"system":"http://snomed.info/sct","code":"102781000119107","display":"Sensory neuropathy due to type 1 diabetes mellitus (disorder)"}]},"subject":{"reference":"Patient/86a25ad7-3801-4297-a9a4-b36b5308c9e2"},"onsetDateTime":"2026-01-01T23:59:00.000+00:00"},"request":{"method":"PUT","url":"Condition/41260395-2ec4-4ca8-8611-b614e8e56366"}},{"fullUrl":"https://madie.cms.gov/Encounter/c5e9bd0a-9ae7-4bbf-87e2-c1ab43204aa6","resource":{"resourceType":"Encounter","id":"c5e9bd0a-9ae7-4bbf-87e2-c1ab43204aa6","meta":{"profile":["http://hl7.org/fhir/us/qicore/StructureDefinition/qicore-encounter"]},"status":"finished","class":{"system":"http://terminology.hl7.org/CodeSystem/v3-ActCode","code":"AMB","display":"ambulatory"},"type":[{"coding":[{"system":"http://snomed.info/sct","code":"305824005","display":"Seen by palliative care medicine service (finding)"}]}],"subject":{"reference":"Patient/86a25ad7-3801-4297-a9a4-b36b5308c9e2"},"period":{"start":"2026-01-01T00:00:00.000+00:00","end":"2026-01-01T01:00:00.000+00:00"}},"request":{"method":"PUT","url":"Encounter/c5e9bd0a-9ae7-4bbf-87e2-c1ab43204aa6"}},{"fullUrl":"https://madie.cms.gov/MeasureReport/046db4b7-c833-4e86-bbc2-32a7fbeca93f","resource":{"resourceType":"MeasureReport","id":"046db4b7-c833-4e86-bbc2-32a7fbeca93f","meta":{"profile":["http://hl7.org/fhir/us/cqfmeasures/StructureDefinition/test-case-cqfm"]},"contained":[{"resourceType":"Parameters","id":"d7bba32d-4a9d-4350-a1b6-63f2ddc50b97-parameters","parameter":[{"name":"subject","valueString":"86a25ad7-3801-4297-a9a4-b36b5308c9e2"}]}],"extension":[{"url":"http://hl7.org/fhir/StructureDefinition/cqf-inputParameters","valueReference":{"reference":"#d7bba32d-4a9d-4350-a1b6-63f2ddc50b97-parameters"}},{"url":"http://hl7.org/fhir/us/cqfmeasures/StructureDefinition/cqfm-testCaseDescription","valueMarkdown":"Palliative care encounter during MP"}],"modifierExtension":[{"url":"http://hl7.org/fhir/us/cqfmeasures/StructureDefinition/cqfm-isTestCase","valueBoolean":true}],"status":"complete","type":"individual","measure":"https://madie.cms.gov/Measure/CMS122FHIRDiabetesAssessGreaterThan9Percent","period":{"start":"2026-01-01","end":"2026-12-31"},"group":[{"id":"Group_1","population":[{"id":"InitialPopulation_1","code":{"coding":[{"system":"http://terminology.hl7.org/CodeSystem/measure-population","code":"initial-population","display":"Initial Population"}]},"count":1},{"id":"Denominator_1","code":{"coding":[{"system":"http://terminology.hl7.org/CodeSystem/measure-population","code":"denominator","display":"Denominator"}]},"count":1},{"id":"DenominatorExclusion_1","code":{"coding":[{"system":"http://terminology.hl7.org/CodeSystem/measure-population","code":"denominator-exclusion","display":"Denominator Exclusion"}]},"count":1},{"id":"Numerator_1","code":{"coding":[{"system":"http://terminology.hl7.org/CodeSystem/measure-population","code":"numerator","display":"Numerator"}]},"count":0}],"measureScore":{"value":1.0}}],"evaluatedResource":[{"reference":"Patient/86a25ad7-3801-4297-a9a4-b36b5308c9e2"},{"reference":"Encounter/4b4c78e7-d369-4411-9edd-7def056c4461"},{"reference":"Condition/41260395-2ec4-4ca8-8611-b614e8e56366"},{"reference":"Encounter/c5e9bd0a-9ae7-4bbf-87e2-c1ab43204aa6"}]},"request":{"method":"PUT","url":"MeasureReport/046db4b7-c833-4e86-bbc2-32a7fbeca93f"}}]},"request":{"method":"PUT","url":"Bundle/DENEXPass-PalliativeCareEncounterDuringMP"}},{"fullUrl":"Condition/41260395-2ec4-4ca8-8611-b614e8e56366","resource":{"resourceType":"Condition","id":"41260395-2ec4-4ca8-8611-b614e8e56366","meta":{"profile":["http://hl7.org/fhir/us/qicore/StructureDefinition/qicore-condition-encounter-diagnosis"]},"clinicalStatus":{"coding":[{"system":"http://terminology.hl7.org/CodeSystem/condition-clinical","code":"active"}]},"category":[{"coding":[{"system":"http://terminology.hl7.org/CodeSystem/condition-category","code":"encounter-diagnosis","display":"Encounter Diagnosis"}]}],"code":{"coding":[{"system":"http://snomed.info/sct","code":"102781000119107","display":"Sensory neuropathy due to type 1 diabetes mellitus (disorder)"}]},"subject":{"reference":"Patient/86a25ad7-3801-4297-a9a4-b36b5308c9e2"},"onsetDateTime":"2026-01-01T23:59:00.000+00:00"},"request":{"method":"PUT","url":"Condition/41260395-2ec4-4ca8-8611-b614e8e56366"}},{"fullUrl":"MeasureReport/046db4b7-c833-4e86-bbc2-32a7fbeca93f","resource":{"resourceType":"MeasureReport","id":"046db4b7-c833-4e86-bbc2-32a7fbeca93f","meta":{"profile":["http://hl7.org/fhir/us/cqfmeasures/StructureDefinition/test-case-cqfm"]},"contained":[{"resourceType":"Parameters","id":"d7bba32d-4a9d-4350-a1b6-63f2ddc50b97-parameters","parameter":[{"name":"subject","valueString":"86a25ad7-3801-4297-a9a4-b36b5308c9e2"}]}],"extension":[{"url":"http://hl7.org/fhir/StructureDefinition/cqf-inputParameters","valueReference":{"reference":"#d7bba32d-4a9d-4350-a1b6-63f2ddc50b97-parameters"}},{"url":"http://hl7.org/fhir/us/cqfmeasures/StructureDefinition/cqfm-testCaseDescription","valueMarkdown":"Palliative care encounter during MP"}],"modifierExtension":[{"url":"http://hl7.org/fhir/us/cqfmeasures/StructureDefinition/cqfm-isTestCase","valueBoolean":true}],"status":"complete","type":"individual","measure":"https://madie.cms.gov/Measure/CMS122FHIRDiabetesAssessGreaterThan9Percent","period":{"start":"2026-01-01","end":"2026-12-31"},"group":[{"id":"Group_1","population":[{"id":"InitialPopulation_1","code":{"coding":[{"system":"http://terminology.hl7.org/CodeSystem/measure-population","code":"initial-population","display":"Initial Population"}]},"count":1},{"id":"Denominator_1","code":{"coding":[{"system":"http://terminology.hl7.org/CodeSystem/measure-population","code":"denominator","display":"Denominator"}]},"count":1},{"id":"DenominatorExclusion_1","code":{"coding":[{"system":"http://terminology.hl7.org/CodeSystem/measure-population","code":"denominator-exclusion","display":"Denominator Exclusion"}]},"count":1},{"id":"Numerator_1","code":{"coding":[{"system":"http://terminology.hl7.org/CodeSystem/measure-population","code":"numerator","display":"Numerator"}]},"count":0}],"measureScore":{"value":1.0}}],"evaluatedResource":[{"reference":"Patient/86a25ad7-3801-4297-a9a4-b36b5308c9e2"},{"reference":"Encounter/4b4c78e7-d369-4411-9edd-7def056c4461"},{"reference":"Condition/41260395-2ec4-4ca8-8611-b614e8e56366"},{"reference":"Encounter/c5e9bd0a-9ae7-4bbf-87e2-c1ab43204aa6"}]},"request":{"method":"PUT","url":"MeasureReport/046db4b7-c833-4e86-bbc2-32a7fbeca93f"}}]}