{"resourceType":"Bundle","id":"tests-e61be907-af68-493f-a6bc-3d93ef8b6c6e-bundle","type":"transaction","entry":[{"fullUrl":"Condition/fca4d95a-add8-4174-9f6c-5d0b91337da2","resource":{"resourceType":"Condition","id":"fca4d95a-add8-4174-9f6c-5d0b91337da2","meta":{"profile":["http://hl7.org/fhir/us/qicore/StructureDefinition/qicore-condition-encounter-diagnosis"]},"clinicalStatus":{"coding":[{"system":"http://terminology.hl7.org/CodeSystem/condition-clinical","code":"active"}]},"category":[{"coding":[{"system":"http://terminology.hl7.org/CodeSystem/condition-category","code":"encounter-diagnosis","display":"Encounter Diagnosis"}]}],"code":{"coding":[{"system":"http://snomed.info/sct","code":"217083007","display":"Fall on or from stairs or steps (event)"}]},"subject":{"reference":"Patient/e61be907-af68-493f-a6bc-3d93ef8b6c6e"},"onsetDateTime":"2026-06-30T23:59:59.000+00:00"},"request":{"method":"PUT","url":"Condition/fca4d95a-add8-4174-9f6c-5d0b91337da2"}},{"fullUrl":"Bundle/DENEXPass-FrailtyDxOverlapsMP","resource":{"resourceType":"Bundle","id":"DENEXPass-FrailtyDxOverlapsMP","type":"transaction","entry":[{"fullUrl":"https://madie.cms.gov/Patient/e61be907-af68-493f-a6bc-3d93ef8b6c6e","resource":{"resourceType":"Patient","id":"e61be907-af68-493f-a6bc-3d93ef8b6c6e","meta":{"profile":["http://hl7.org/fhir/us/qicore/StructureDefinition/qicore-patient"]},"extension":[{"url":"http://hl7.org/fhir/us/core/StructureDefinition/us-core-race","extension":[{"url":"ombCategory","valueCoding":{"system":"urn:oid:2.16.840.1.113883.6.238","code":"2028-9","display":"Asian","userSelected":true}},{"url":"text","valueString":"Asian"}]},{"url":"http://hl7.org/fhir/us/core/StructureDefinition/us-core-ethnicity","extension":[{"url":"ombCategory","valueCoding":{"system":"urn:oid:2.16.840.1.113883.6.238","code":"2135-2","display":"Hispanic or Latino","userSelected":true}},{"url":"text","valueString":"Hispanic or Latino"}]}],"identifier":[{"type":{"coding":[{"system":"http://terminology.hl7.org/CodeSystem/v2-0203","code":"MR"}]},"system":"http://hospital.smarthealthit.org","value":"999999995"}],"name":[{"family":"Bertha","given":["Betty"]}],"gender":"female","birthDate":"1957-12-31"},"request":{"method":"PUT","url":"Patient/e61be907-af68-493f-a6bc-3d93ef8b6c6e"}},{"fullUrl":"https://madie.cms.gov/Encounter/2f1a39af-f000-4315-8117-6afb1ac76fd6","resource":{"resourceType":"Encounter","id":"2f1a39af-f000-4315-8117-6afb1ac76fd6","meta":{"profile":["http://hl7.org/fhir/us/qicore/StructureDefinition/qicore-encounter"]},"status":"finished","class":{"system":"http://terminology.hl7.org/CodeSystem/v3-ActCode","code":"AMB","display":"ambulatory"},"type":[{"coding":[{"system":"http://snomed.info/sct","code":"185460008","display":"Home visit request by patient (procedure)"}]}],"subject":{"reference":"Patient/e61be907-af68-493f-a6bc-3d93ef8b6c6e"},"period":{"start":"2026-01-01T00:00:00.000+00:00","end":"2026-01-01T00:15:00.000+00:00"}},"request":{"method":"PUT","url":"Encounter/2f1a39af-f000-4315-8117-6afb1ac76fd6"}},{"fullUrl":"https://madie.cms.gov/Condition/584628bf-4f82-4d68-8e6d-91039c75a18f","resource":{"resourceType":"Condition","id":"584628bf-4f82-4d68-8e6d-91039c75a18f","meta":{"profile":["http://hl7.org/fhir/us/qicore/StructureDefinition/qicore-condition-encounter-diagnosis"]},"clinicalStatus":{"coding":[{"system":"http://terminology.hl7.org/CodeSystem/condition-clinical","code":"active"}]},"category":[{"coding":[{"system":"http://terminology.hl7.org/CodeSystem/condition-category","code":"encounter-diagnosis","display":"Encounter Diagnosis"}]}],"code":{"coding":[{"system":"http://snomed.info/sct","code":"102781000119107","display":"Sensory neuropathy due to type 1 diabetes mellitus (disorder)"}]},"subject":{"reference":"Patient/e61be907-af68-493f-a6bc-3d93ef8b6c6e"},"onsetDateTime":"2026-01-01T23:59:00.000+00:00"},"request":{"method":"PUT","url":"Condition/584628bf-4f82-4d68-8e6d-91039c75a18f"}},{"fullUrl":"https://madie.cms.gov/MedicationRequest/85223cbe-42e9-40c1-9932-40d18063dfd4","resource":{"resourceType":"MedicationRequest","id":"85223cbe-42e9-40c1-9932-40d18063dfd4","meta":{"profile":["http://hl7.org/fhir/us/qicore/StructureDefinition/qicore-medicationrequest"]},"status":"active","intent":"order","doNotPerform":false,"medicationCodeableConcept":{"coding":[{"system":"http://www.nlm.nih.gov/research/umls/rxnorm","code":"312836","display":"rivastigmine 6 MG Oral Capsule"}]},"subject":{"reference":"Patient/e61be907-af68-493f-a6bc-3d93ef8b6c6e"},"authoredOn":"2026-12-30T00:00:00.000+00:00","requester":{"reference":"Practitioner/example"},"dispenseRequest":{"expectedSupplyDuration":{"value":90,"system":"http://unitsofmeasure.org","code":"days"}}},"request":{"method":"PUT","url":"MedicationRequest/85223cbe-42e9-40c1-9932-40d18063dfd4"}},{"fullUrl":"https://madie.cms.gov/Condition/fca4d95a-add8-4174-9f6c-5d0b91337da2","resource":{"resourceType":"Condition","id":"fca4d95a-add8-4174-9f6c-5d0b91337da2","meta":{"profile":["http://hl7.org/fhir/us/qicore/StructureDefinition/qicore-condition-encounter-diagnosis"]},"clinicalStatus":{"coding":[{"system":"http://terminology.hl7.org/CodeSystem/condition-clinical","code":"active"}]},"category":[{"coding":[{"system":"http://terminology.hl7.org/CodeSystem/condition-category","code":"encounter-diagnosis","display":"Encounter Diagnosis"}]}],"code":{"coding":[{"system":"http://snomed.info/sct","code":"217083007","display":"Fall on or from stairs or steps (event)"}]},"subject":{"reference":"Patient/e61be907-af68-493f-a6bc-3d93ef8b6c6e"},"onsetDateTime":"2026-06-30T23:59:59.000+00:00"},"request":{"method":"PUT","url":"Condition/fca4d95a-add8-4174-9f6c-5d0b91337da2"}},{"fullUrl":"https://madie.cms.gov/MeasureReport/8472f30b-5840-4ca6-940a-6072de705b06","resource":{"resourceType":"MeasureReport","id":"8472f30b-5840-4ca6-940a-6072de705b06","meta":{"profile":["http://hl7.org/fhir/us/cqfmeasures/StructureDefinition/test-case-cqfm"]},"contained":[{"resourceType":"Parameters","id":"43e1a813-197d-4bb0-b0fa-47ca9c06b886-parameters","parameter":[{"name":"subject","valueString":"e61be907-af68-493f-a6bc-3d93ef8b6c6e"}]}],"extension":[{"url":"http://hl7.org/fhir/StructureDefinition/cqf-inputParameters","valueReference":{"reference":"#43e1a813-197d-4bb0-b0fa-47ca9c06b886-parameters"}},{"url":"http://hl7.org/fhir/us/cqfmeasures/StructureDefinition/cqfm-testCaseDescription","valueMarkdown":"Frailty diagnosis overlaps the MP"}],"modifierExtension":[{"url":"http://hl7.org/fhir/us/cqfmeasures/StructureDefinition/cqfm-isTestCase","valueBoolean":true}],"status":"complete","type":"individual","measure":"https://madie.cms.gov/Measure/CMS122FHIRDiabetesAssessGreaterThan9Percent","period":{"start":"2026-01-01","end":"2026-12-31"},"group":[{"id":"Group_1","population":[{"id":"InitialPopulation_1","code":{"coding":[{"system":"http://terminology.hl7.org/CodeSystem/measure-population","code":"initial-population","display":"Initial Population"}]},"count":1},{"id":"Denominator_1","code":{"coding":[{"system":"http://terminology.hl7.org/CodeSystem/measure-population","code":"denominator","display":"Denominator"}]},"count":1},{"id":"DenominatorExclusion_1","code":{"coding":[{"system":"http://terminology.hl7.org/CodeSystem/measure-population","code":"denominator-exclusion","display":"Denominator Exclusion"}]},"count":1},{"id":"Numerator_1","code":{"coding":[{"system":"http://terminology.hl7.org/CodeSystem/measure-population","code":"numerator","display":"Numerator"}]},"count":0}],"measureScore":{"value":1.0}}],"evaluatedResource":[{"reference":"Patient/e61be907-af68-493f-a6bc-3d93ef8b6c6e"},{"reference":"Encounter/2f1a39af-f000-4315-8117-6afb1ac76fd6"},{"reference":"Condition/584628bf-4f82-4d68-8e6d-91039c75a18f"},{"reference":"MedicationRequest/85223cbe-42e9-40c1-9932-40d18063dfd4"},{"reference":"Condition/fca4d95a-add8-4174-9f6c-5d0b91337da2"}]},"request":{"method":"PUT","url":"MeasureReport/8472f30b-5840-4ca6-940a-6072de705b06"}}]},"request":{"method":"PUT","url":"Bundle/DENEXPass-FrailtyDxOverlapsMP"}},{"fullUrl":"Patient/e61be907-af68-493f-a6bc-3d93ef8b6c6e","resource":{"resourceType":"Patient","id":"e61be907-af68-493f-a6bc-3d93ef8b6c6e","meta":{"profile":["http://hl7.org/fhir/us/qicore/StructureDefinition/qicore-patient"]},"extension":[{"url":"http://hl7.org/fhir/us/core/StructureDefinition/us-core-race","extension":[{"url":"ombCategory","valueCoding":{"system":"urn:oid:2.16.840.1.113883.6.238","code":"2028-9","display":"Asian","userSelected":true}},{"url":"text","valueString":"Asian"}]},{"url":"http://hl7.org/fhir/us/core/StructureDefinition/us-core-ethnicity","extension":[{"url":"ombCategory","valueCoding":{"system":"urn:oid:2.16.840.1.113883.6.238","code":"2135-2","display":"Hispanic or Latino","userSelected":true}},{"url":"text","valueString":"Hispanic or Latino"}]}],"identifier":[{"type":{"coding":[{"system":"http://terminology.hl7.org/CodeSystem/v2-0203","code":"MR"}]},"system":"http://hospital.smarthealthit.org","value":"999999995"}],"name":[{"family":"Bertha","given":["Betty"]}],"gender":"female","birthDate":"1957-12-31"},"request":{"method":"PUT","url":"Patient/e61be907-af68-493f-a6bc-3d93ef8b6c6e"}},{"fullUrl":"MeasureReport/8472f30b-5840-4ca6-940a-6072de705b06","resource":{"resourceType":"MeasureReport","id":"8472f30b-5840-4ca6-940a-6072de705b06","meta":{"profile":["http://hl7.org/fhir/us/cqfmeasures/StructureDefinition/test-case-cqfm"]},"contained":[{"resourceType":"Parameters","id":"43e1a813-197d-4bb0-b0fa-47ca9c06b886-parameters","parameter":[{"name":"subject","valueString":"e61be907-af68-493f-a6bc-3d93ef8b6c6e"}]}],"extension":[{"url":"http://hl7.org/fhir/StructureDefinition/cqf-inputParameters","valueReference":{"reference":"#43e1a813-197d-4bb0-b0fa-47ca9c06b886-parameters"}},{"url":"http://hl7.org/fhir/us/cqfmeasures/StructureDefinition/cqfm-testCaseDescription","valueMarkdown":"Frailty diagnosis overlaps the MP"}],"modifierExtension":[{"url":"http://hl7.org/fhir/us/cqfmeasures/StructureDefinition/cqfm-isTestCase","valueBoolean":true}],"status":"complete","type":"individual","measure":"https://madie.cms.gov/Measure/CMS122FHIRDiabetesAssessGreaterThan9Percent","period":{"start":"2026-01-01","end":"2026-12-31"},"group":[{"id":"Group_1","population":[{"id":"InitialPopulation_1","code":{"coding":[{"system":"http://terminology.hl7.org/CodeSystem/measure-population","code":"initial-population","display":"Initial Population"}]},"count":1},{"id":"Denominator_1","code":{"coding":[{"system":"http://terminology.hl7.org/CodeSystem/measure-population","code":"denominator","display":"Denominator"}]},"count":1},{"id":"DenominatorExclusion_1","code":{"coding":[{"system":"http://terminology.hl7.org/CodeSystem/measure-population","code":"denominator-exclusion","display":"Denominator Exclusion"}]},"count":1},{"id":"Numerator_1","code":{"coding":[{"system":"http://terminology.hl7.org/CodeSystem/measure-population","code":"numerator","display":"Numerator"}]},"count":0}],"measureScore":{"value":1.0}}],"evaluatedResource":[{"reference":"Patient/e61be907-af68-493f-a6bc-3d93ef8b6c6e"},{"reference":"Encounter/2f1a39af-f000-4315-8117-6afb1ac76fd6"},{"reference":"Condition/584628bf-4f82-4d68-8e6d-91039c75a18f"},{"reference":"MedicationRequest/85223cbe-42e9-40c1-9932-40d18063dfd4"},{"reference":"Condition/fca4d95a-add8-4174-9f6c-5d0b91337da2"}]},"request":{"method":"PUT","url":"MeasureReport/8472f30b-5840-4ca6-940a-6072de705b06"}},{"fullUrl":"MedicationRequest/85223cbe-42e9-40c1-9932-40d18063dfd4","resource":{"resourceType":"MedicationRequest","id":"85223cbe-42e9-40c1-9932-40d18063dfd4","meta":{"profile":["http://hl7.org/fhir/us/qicore/StructureDefinition/qicore-medicationrequest"]},"status":"active","intent":"order","doNotPerform":false,"medicationCodeableConcept":{"coding":[{"system":"http://www.nlm.nih.gov/research/umls/rxnorm","code":"312836","display":"rivastigmine 6 MG Oral Capsule"}]},"subject":{"reference":"Patient/e61be907-af68-493f-a6bc-3d93ef8b6c6e"},"authoredOn":"2026-12-30T00:00:00.000+00:00","requester":{"reference":"Practitioner/example"},"dispenseRequest":{"expectedSupplyDuration":{"value":90,"system":"http://unitsofmeasure.org","code":"days"}}},"request":{"method":"PUT","url":"MedicationRequest/85223cbe-42e9-40c1-9932-40d18063dfd4"}},{"fullUrl":"Encounter/2f1a39af-f000-4315-8117-6afb1ac76fd6","resource":{"resourceType":"Encounter","id":"2f1a39af-f000-4315-8117-6afb1ac76fd6","meta":{"profile":["http://hl7.org/fhir/us/qicore/StructureDefinition/qicore-encounter"]},"status":"finished","class":{"system":"http://terminology.hl7.org/CodeSystem/v3-ActCode","code":"AMB","display":"ambulatory"},"type":[{"coding":[{"system":"http://snomed.info/sct","code":"185460008","display":"Home visit request by patient (procedure)"}]}],"subject":{"reference":"Patient/e61be907-af68-493f-a6bc-3d93ef8b6c6e"},"period":{"start":"2026-01-01T00:00:00.000+00:00","end":"2026-01-01T00:15:00.000+00:00"}},"request":{"method":"PUT","url":"Encounter/2f1a39af-f000-4315-8117-6afb1ac76fd6"}},{"fullUrl":"Condition/584628bf-4f82-4d68-8e6d-91039c75a18f","resource":{"resourceType":"Condition","id":"584628bf-4f82-4d68-8e6d-91039c75a18f","meta":{"profile":["http://hl7.org/fhir/us/qicore/StructureDefinition/qicore-condition-encounter-diagnosis"]},"clinicalStatus":{"coding":[{"system":"http://terminology.hl7.org/CodeSystem/condition-clinical","code":"active"}]},"category":[{"coding":[{"system":"http://terminology.hl7.org/CodeSystem/condition-category","code":"encounter-diagnosis","display":"Encounter Diagnosis"}]}],"code":{"coding":[{"system":"http://snomed.info/sct","code":"102781000119107","display":"Sensory neuropathy due to type 1 diabetes mellitus (disorder)"}]},"subject":{"reference":"Patient/e61be907-af68-493f-a6bc-3d93ef8b6c6e"},"onsetDateTime":"2026-01-01T23:59:00.000+00:00"},"request":{"method":"PUT","url":"Condition/584628bf-4f82-4d68-8e6d-91039c75a18f"}}]}