{"resourceType":"Bundle","id":"tests-f64a63d1-cdc9-4486-a4d5-1d140a4f07e1-bundle","type":"transaction","entry":[{"fullUrl":"MeasureReport/33a2e881-f111-4466-814e-49b24b57cd44","resource":{"resourceType":"MeasureReport","id":"33a2e881-f111-4466-814e-49b24b57cd44","meta":{"profile":["http://hl7.org/fhir/us/cqfmeasures/StructureDefinition/test-case-cqfm"]},"contained":[{"resourceType":"Parameters","id":"7bf9c4da-cb39-4663-8fe9-25d968ee6573-parameters","parameter":[{"name":"subject","valueString":"f64a63d1-cdc9-4486-a4d5-1d140a4f07e1"}]}],"extension":[{"url":"http://hl7.org/fhir/StructureDefinition/cqf-inputParameters","valueReference":{"reference":"#7bf9c4da-cb39-4663-8fe9-25d968ee6573-parameters"}},{"url":"http://hl7.org/fhir/us/cqfmeasures/StructureDefinition/cqfm-testCaseDescription","valueMarkdown":"Encounter is nutrition services"}],"modifierExtension":[{"url":"http://hl7.org/fhir/us/cqfmeasures/StructureDefinition/cqfm-isTestCase","valueBoolean":true}],"status":"complete","type":"individual","measure":"https://madie.cms.gov/Measure/CMS122FHIRDiabetesAssessGreaterThan9Percent","period":{"start":"2026-01-01","end":"2026-12-31"},"group":[{"id":"Group_1","population":[{"id":"InitialPopulation_1","code":{"coding":[{"system":"http://terminology.hl7.org/CodeSystem/measure-population","code":"initial-population","display":"Initial Population"}]},"count":1},{"id":"Denominator_1","code":{"coding":[{"system":"http://terminology.hl7.org/CodeSystem/measure-population","code":"denominator","display":"Denominator"}]},"count":1},{"id":"DenominatorExclusion_1","code":{"coding":[{"system":"http://terminology.hl7.org/CodeSystem/measure-population","code":"denominator-exclusion","display":"Denominator Exclusion"}]},"count":0},{"id":"Numerator_1","code":{"coding":[{"system":"http://terminology.hl7.org/CodeSystem/measure-population","code":"numerator","display":"Numerator"}]},"count":1}],"measureScore":{"value":1.0}}],"evaluatedResource":[{"reference":"Patient/f64a63d1-cdc9-4486-a4d5-1d140a4f07e1"},{"reference":"Encounter/a4776da9-3291-456c-bb25-519d812bd369"},{"reference":"Condition/91419f07-0e87-4f77-8016-7ecc72981ff0"}]},"request":{"method":"PUT","url":"MeasureReport/33a2e881-f111-4466-814e-49b24b57cd44"}},{"fullUrl":"Patient/f64a63d1-cdc9-4486-a4d5-1d140a4f07e1","resource":{"resourceType":"Patient","id":"f64a63d1-cdc9-4486-a4d5-1d140a4f07e1","meta":{"profile":["http://hl7.org/fhir/us/qicore/StructureDefinition/qicore-patient"]},"extension":[{"url":"http://hl7.org/fhir/us/core/StructureDefinition/us-core-race","extension":[{"url":"ombCategory","valueCoding":{"system":"urn:oid:2.16.840.1.113883.6.238","code":"2028-9","display":"Asian"}},{"url":"text","valueString":"Asian"}]},{"url":"http://hl7.org/fhir/us/core/StructureDefinition/us-core-ethnicity","extension":[{"url":"ombCategory","valueCoding":{"system":"urn:oid:2.16.840.1.113883.6.238","code":"2135-2","display":"Hispanic or Latino"}},{"url":"text","valueString":"Hispanic or Latino"}]}],"identifier":[{"system":"http://hospital.smarthealthit.org","value":"999999995"}],"name":[{"family":"Bertha","given":["Betty"]}],"gender":"female","birthDate":"2008-01-01"},"request":{"method":"PUT","url":"Patient/f64a63d1-cdc9-4486-a4d5-1d140a4f07e1"}},{"fullUrl":"Bundle/Patient-IPPass-NutritionServices","resource":{"resourceType":"Bundle","id":"Patient-IPPass-NutritionServices","type":"transaction","entry":[{"fullUrl":"https://madie.cms.gov/Patient/f64a63d1-cdc9-4486-a4d5-1d140a4f07e1","resource":{"resourceType":"Patient","id":"f64a63d1-cdc9-4486-a4d5-1d140a4f07e1","meta":{"profile":["http://hl7.org/fhir/us/qicore/StructureDefinition/qicore-patient"]},"extension":[{"url":"http://hl7.org/fhir/us/core/StructureDefinition/us-core-race","extension":[{"url":"ombCategory","valueCoding":{"system":"urn:oid:2.16.840.1.113883.6.238","code":"2028-9","display":"Asian"}},{"url":"text","valueString":"Asian"}]},{"url":"http://hl7.org/fhir/us/core/StructureDefinition/us-core-ethnicity","extension":[{"url":"ombCategory","valueCoding":{"system":"urn:oid:2.16.840.1.113883.6.238","code":"2135-2","display":"Hispanic or Latino"}},{"url":"text","valueString":"Hispanic or Latino"}]}],"identifier":[{"system":"http://hospital.smarthealthit.org","value":"999999995"}],"name":[{"family":"Bertha","given":["Betty"]}],"gender":"female","birthDate":"2008-01-01"},"request":{"method":"PUT","url":"Patient/f64a63d1-cdc9-4486-a4d5-1d140a4f07e1"}},{"fullUrl":"https://madie.cms.gov/Encounter/a4776da9-3291-456c-bb25-519d812bd369","resource":{"resourceType":"Encounter","id":"a4776da9-3291-456c-bb25-519d812bd369","meta":{"profile":["http://hl7.org/fhir/us/qicore/StructureDefinition/qicore-encounter"]},"status":"finished","class":{"system":"http://terminology.hl7.org/CodeSystem/v3-ActCode","code":"AMB","display":"ambulatory"},"type":[{"coding":[{"system":"http://snomed.info/sct","code":"11816003","display":"Diet education (procedure)"}]}],"subject":{"reference":"Patient/f64a63d1-cdc9-4486-a4d5-1d140a4f07e1"},"period":{"start":"2026-01-01T00:00:00Z","end":"2026-01-01T00:15:00Z"}},"request":{"method":"PUT","url":"Encounter/a4776da9-3291-456c-bb25-519d812bd369"}},{"fullUrl":"https://madie.cms.gov/Condition/91419f07-0e87-4f77-8016-7ecc72981ff0","resource":{"resourceType":"Condition","id":"91419f07-0e87-4f77-8016-7ecc72981ff0","meta":{"profile":["http://hl7.org/fhir/us/qicore/StructureDefinition/qicore-condition-encounter-diagnosis"]},"clinicalStatus":{"coding":[{"system":"http://terminology.hl7.org/CodeSystem/condition-clinical","code":"active"}]},"category":[{"coding":[{"system":"http://terminology.hl7.org/CodeSystem/condition-category","code":"encounter-diagnosis","display":"Encounter Diagnosis"}]}],"code":{"coding":[{"system":"http://snomed.info/sct","code":"102781000119107","display":"Sensory neuropathy due to type 1 diabetes mellitus (disorder)"}]},"subject":{"reference":"Patient/f64a63d1-cdc9-4486-a4d5-1d140a4f07e1"},"onsetDateTime":"2026-01-01T23:59:00Z"},"request":{"method":"PUT","url":"Condition/91419f07-0e87-4f77-8016-7ecc72981ff0"}},{"fullUrl":"https://madie.cms.gov/MeasureReport/33a2e881-f111-4466-814e-49b24b57cd44","resource":{"resourceType":"MeasureReport","id":"33a2e881-f111-4466-814e-49b24b57cd44","meta":{"profile":["http://hl7.org/fhir/us/cqfmeasures/StructureDefinition/test-case-cqfm"]},"contained":[{"resourceType":"Parameters","id":"7bf9c4da-cb39-4663-8fe9-25d968ee6573-parameters","parameter":[{"name":"subject","valueString":"f64a63d1-cdc9-4486-a4d5-1d140a4f07e1"}]}],"extension":[{"url":"http://hl7.org/fhir/StructureDefinition/cqf-inputParameters","valueReference":{"reference":"#7bf9c4da-cb39-4663-8fe9-25d968ee6573-parameters"}},{"url":"http://hl7.org/fhir/us/cqfmeasures/StructureDefinition/cqfm-testCaseDescription","valueMarkdown":"Encounter is nutrition services"}],"modifierExtension":[{"url":"http://hl7.org/fhir/us/cqfmeasures/StructureDefinition/cqfm-isTestCase","valueBoolean":true}],"status":"complete","type":"individual","measure":"https://madie.cms.gov/Measure/CMS122FHIRDiabetesAssessGreaterThan9Percent","period":{"start":"2026-01-01","end":"2026-12-31"},"group":[{"id":"Group_1","population":[{"id":"InitialPopulation_1","code":{"coding":[{"system":"http://terminology.hl7.org/CodeSystem/measure-population","code":"initial-population","display":"Initial Population"}]},"count":1},{"id":"Denominator_1","code":{"coding":[{"system":"http://terminology.hl7.org/CodeSystem/measure-population","code":"denominator","display":"Denominator"}]},"count":1},{"id":"DenominatorExclusion_1","code":{"coding":[{"system":"http://terminology.hl7.org/CodeSystem/measure-population","code":"denominator-exclusion","display":"Denominator Exclusion"}]},"count":0},{"id":"Numerator_1","code":{"coding":[{"system":"http://terminology.hl7.org/CodeSystem/measure-population","code":"numerator","display":"Numerator"}]},"count":1}],"measureScore":{"value":1.0}}],"evaluatedResource":[{"reference":"Patient/f64a63d1-cdc9-4486-a4d5-1d140a4f07e1"},{"reference":"Encounter/a4776da9-3291-456c-bb25-519d812bd369"},{"reference":"Condition/91419f07-0e87-4f77-8016-7ecc72981ff0"}]},"request":{"method":"PUT","url":"MeasureReport/33a2e881-f111-4466-814e-49b24b57cd44"}}]},"request":{"method":"PUT","url":"Bundle/Patient-IPPass-NutritionServices"}},{"fullUrl":"Encounter/a4776da9-3291-456c-bb25-519d812bd369","resource":{"resourceType":"Encounter","id":"a4776da9-3291-456c-bb25-519d812bd369","meta":{"profile":["http://hl7.org/fhir/us/qicore/StructureDefinition/qicore-encounter"]},"status":"finished","class":{"system":"http://terminology.hl7.org/CodeSystem/v3-ActCode","code":"AMB","display":"ambulatory"},"type":[{"coding":[{"system":"http://snomed.info/sct","code":"11816003","display":"Diet education (procedure)"}]}],"subject":{"reference":"Patient/f64a63d1-cdc9-4486-a4d5-1d140a4f07e1"},"period":{"start":"2026-01-01T00:00:00Z","end":"2026-01-01T00:15:00Z"}},"request":{"method":"PUT","url":"Encounter/a4776da9-3291-456c-bb25-519d812bd369"}},{"fullUrl":"Condition/91419f07-0e87-4f77-8016-7ecc72981ff0","resource":{"resourceType":"Condition","id":"91419f07-0e87-4f77-8016-7ecc72981ff0","meta":{"profile":["http://hl7.org/fhir/us/qicore/StructureDefinition/qicore-condition-encounter-diagnosis"]},"clinicalStatus":{"coding":[{"system":"http://terminology.hl7.org/CodeSystem/condition-clinical","code":"active"}]},"category":[{"coding":[{"system":"http://terminology.hl7.org/CodeSystem/condition-category","code":"encounter-diagnosis","display":"Encounter Diagnosis"}]}],"code":{"coding":[{"system":"http://snomed.info/sct","code":"102781000119107","display":"Sensory neuropathy due to type 1 diabetes mellitus (disorder)"}]},"subject":{"reference":"Patient/f64a63d1-cdc9-4486-a4d5-1d140a4f07e1"},"onsetDateTime":"2026-01-01T23:59:00Z"},"request":{"method":"PUT","url":"Condition/91419f07-0e87-4f77-8016-7ecc72981ff0"}}]}