{"resourceType":"Bundle","id":"tests-7706188a-f37c-483d-96c2-4d7eab833605-bundle","type":"transaction","entry":[{"fullUrl":"MeasureReport/9eaf0a3c-f429-4b28-aa7f-6082fca14b94","resource":{"resourceType":"MeasureReport","id":"9eaf0a3c-f429-4b28-aa7f-6082fca14b94","meta":{"profile":["http://hl7.org/fhir/us/cqfmeasures/StructureDefinition/test-case-cqfm"]},"contained":[{"resourceType":"Parameters","id":"36175d64-6c86-47a0-8497-5358c6f2b920-parameters","parameter":[{"name":"subject","valueString":"7706188a-f37c-483d-96c2-4d7eab833605"}]}],"extension":[{"url":"http://hl7.org/fhir/StructureDefinition/cqf-inputParameters","valueReference":{"reference":"#36175d64-6c86-47a0-8497-5358c6f2b920-parameters"}},{"url":"http://hl7.org/fhir/us/cqfmeasures/StructureDefinition/cqfm-testCaseDescription","valueMarkdown":"Encounter is an office visit"}],"modifierExtension":[{"url":"http://hl7.org/fhir/us/cqfmeasures/StructureDefinition/cqfm-isTestCase","valueBoolean":true}],"status":"complete","type":"individual","measure":"https://madie.cms.gov/Measure/CMS122FHIRDiabetesAssessGreaterThan9Percent","period":{"start":"2026-01-01","end":"2026-12-31"},"group":[{"id":"Group_1","population":[{"id":"InitialPopulation_1","code":{"coding":[{"system":"http://terminology.hl7.org/CodeSystem/measure-population","code":"initial-population","display":"Initial Population"}]},"count":1},{"id":"Denominator_1","code":{"coding":[{"system":"http://terminology.hl7.org/CodeSystem/measure-population","code":"denominator","display":"Denominator"}]},"count":1},{"id":"DenominatorExclusion_1","code":{"coding":[{"system":"http://terminology.hl7.org/CodeSystem/measure-population","code":"denominator-exclusion","display":"Denominator Exclusion"}]},"count":0},{"id":"Numerator_1","code":{"coding":[{"system":"http://terminology.hl7.org/CodeSystem/measure-population","code":"numerator","display":"Numerator"}]},"count":1}],"measureScore":{"value":1.0}}],"evaluatedResource":[{"reference":"Patient/7706188a-f37c-483d-96c2-4d7eab833605"},{"reference":"Encounter/b066a725-30c2-4c32-9dd4-01c678377e42"},{"reference":"Condition/4616185d-f973-40b8-8105-d36bf0994cd8"}]},"request":{"method":"PUT","url":"MeasureReport/9eaf0a3c-f429-4b28-aa7f-6082fca14b94"}},{"fullUrl":"Encounter/b066a725-30c2-4c32-9dd4-01c678377e42","resource":{"resourceType":"Encounter","id":"b066a725-30c2-4c32-9dd4-01c678377e42","meta":{"profile":["http://hl7.org/fhir/us/qicore/StructureDefinition/qicore-encounter"]},"status":"finished","class":{"system":"http://terminology.hl7.org/CodeSystem/v3-ActCode","code":"AMB","display":"ambulatory"},"type":[{"coding":[{"system":"http://snomed.info/sct","code":"185463005","display":"Visit out of hours (procedure)"}]}],"subject":{"reference":"Patient/7706188a-f37c-483d-96c2-4d7eab833605"},"period":{"start":"2026-01-01T00:00:00.000+00:00","end":"2026-01-01T00:15:00.000+00:00"}},"request":{"method":"PUT","url":"Encounter/b066a725-30c2-4c32-9dd4-01c678377e42"}},{"fullUrl":"Patient/7706188a-f37c-483d-96c2-4d7eab833605","resource":{"resourceType":"Patient","id":"7706188a-f37c-483d-96c2-4d7eab833605","meta":{"profile":["http://hl7.org/fhir/us/qicore/StructureDefinition/qicore-patient"]},"extension":[{"url":"http://hl7.org/fhir/us/core/StructureDefinition/us-core-race","extension":[{"url":"ombCategory","valueCoding":{"system":"urn:oid:2.16.840.1.113883.6.238","code":"2028-9","display":"Asian"}},{"url":"text","valueString":"Asian"}]},{"url":"http://hl7.org/fhir/us/core/StructureDefinition/us-core-ethnicity","extension":[{"url":"ombCategory","valueCoding":{"system":"urn:oid:2.16.840.1.113883.6.238","code":"2135-2","display":"Hispanic or Latino"}},{"url":"text","valueString":"Hispanic or Latino"}]}],"identifier":[{"system":"http://hospital.smarthealthit.org","value":"999999995"}],"name":[{"family":"Bertha","given":["Betty"]}],"gender":"female","birthDate":"2008-01-01"},"request":{"method":"PUT","url":"Patient/7706188a-f37c-483d-96c2-4d7eab833605"}},{"fullUrl":"Condition/4616185d-f973-40b8-8105-d36bf0994cd8","resource":{"resourceType":"Condition","id":"4616185d-f973-40b8-8105-d36bf0994cd8","meta":{"profile":["http://hl7.org/fhir/us/qicore/StructureDefinition/qicore-condition-encounter-diagnosis"]},"clinicalStatus":{"coding":[{"system":"http://terminology.hl7.org/CodeSystem/condition-clinical","code":"active"}]},"category":[{"coding":[{"system":"http://terminology.hl7.org/CodeSystem/condition-category","code":"encounter-diagnosis","display":"Encounter Diagnosis"}]}],"code":{"coding":[{"system":"http://snomed.info/sct","code":"102781000119107","display":"Sensory neuropathy due to type 1 diabetes mellitus (disorder)"}]},"subject":{"reference":"Patient/7706188a-f37c-483d-96c2-4d7eab833605"},"onsetDateTime":"2026-01-01T23:59:00.000+00:00"},"request":{"method":"PUT","url":"Condition/4616185d-f973-40b8-8105-d36bf0994cd8"}},{"fullUrl":"Bundle/Patient-34-IPPass-OfficeVisit","resource":{"resourceType":"Bundle","id":"Patient-34-IPPass-OfficeVisit","type":"transaction","entry":[{"fullUrl":"https://madie.cms.gov/Patient/7706188a-f37c-483d-96c2-4d7eab833605","resource":{"resourceType":"Patient","id":"7706188a-f37c-483d-96c2-4d7eab833605","meta":{"profile":["http://hl7.org/fhir/us/qicore/StructureDefinition/qicore-patient"]},"extension":[{"url":"http://hl7.org/fhir/us/core/StructureDefinition/us-core-race","extension":[{"url":"ombCategory","valueCoding":{"system":"urn:oid:2.16.840.1.113883.6.238","code":"2028-9","display":"Asian"}},{"url":"text","valueString":"Asian"}]},{"url":"http://hl7.org/fhir/us/core/StructureDefinition/us-core-ethnicity","extension":[{"url":"ombCategory","valueCoding":{"system":"urn:oid:2.16.840.1.113883.6.238","code":"2135-2","display":"Hispanic or Latino"}},{"url":"text","valueString":"Hispanic or Latino"}]}],"identifier":[{"system":"http://hospital.smarthealthit.org","value":"999999995"}],"name":[{"family":"Bertha","given":["Betty"]}],"gender":"female","birthDate":"2008-01-01"},"request":{"method":"PUT","url":"Patient/7706188a-f37c-483d-96c2-4d7eab833605"}},{"fullUrl":"https://madie.cms.gov/Encounter/b066a725-30c2-4c32-9dd4-01c678377e42","resource":{"resourceType":"Encounter","id":"b066a725-30c2-4c32-9dd4-01c678377e42","meta":{"profile":["http://hl7.org/fhir/us/qicore/StructureDefinition/qicore-encounter"]},"status":"finished","class":{"system":"http://terminology.hl7.org/CodeSystem/v3-ActCode","code":"AMB","display":"ambulatory"},"type":[{"coding":[{"system":"http://snomed.info/sct","code":"185463005","display":"Visit out of hours (procedure)"}]}],"subject":{"reference":"Patient/7706188a-f37c-483d-96c2-4d7eab833605"},"period":{"start":"2026-01-01T00:00:00.000+00:00","end":"2026-01-01T00:15:00.000+00:00"}},"request":{"method":"PUT","url":"Encounter/b066a725-30c2-4c32-9dd4-01c678377e42"}},{"fullUrl":"https://madie.cms.gov/Condition/4616185d-f973-40b8-8105-d36bf0994cd8","resource":{"resourceType":"Condition","id":"4616185d-f973-40b8-8105-d36bf0994cd8","meta":{"profile":["http://hl7.org/fhir/us/qicore/StructureDefinition/qicore-condition-encounter-diagnosis"]},"clinicalStatus":{"coding":[{"system":"http://terminology.hl7.org/CodeSystem/condition-clinical","code":"active"}]},"category":[{"coding":[{"system":"http://terminology.hl7.org/CodeSystem/condition-category","code":"encounter-diagnosis","display":"Encounter Diagnosis"}]}],"code":{"coding":[{"system":"http://snomed.info/sct","code":"102781000119107","display":"Sensory neuropathy due to type 1 diabetes mellitus (disorder)"}]},"subject":{"reference":"Patient/7706188a-f37c-483d-96c2-4d7eab833605"},"onsetDateTime":"2026-01-01T23:59:00.000+00:00"},"request":{"method":"PUT","url":"Condition/4616185d-f973-40b8-8105-d36bf0994cd8"}},{"fullUrl":"https://madie.cms.gov/MeasureReport/9eaf0a3c-f429-4b28-aa7f-6082fca14b94","resource":{"resourceType":"MeasureReport","id":"9eaf0a3c-f429-4b28-aa7f-6082fca14b94","meta":{"profile":["http://hl7.org/fhir/us/cqfmeasures/StructureDefinition/test-case-cqfm"]},"contained":[{"resourceType":"Parameters","id":"36175d64-6c86-47a0-8497-5358c6f2b920-parameters","parameter":[{"name":"subject","valueString":"7706188a-f37c-483d-96c2-4d7eab833605"}]}],"extension":[{"url":"http://hl7.org/fhir/StructureDefinition/cqf-inputParameters","valueReference":{"reference":"#36175d64-6c86-47a0-8497-5358c6f2b920-parameters"}},{"url":"http://hl7.org/fhir/us/cqfmeasures/StructureDefinition/cqfm-testCaseDescription","valueMarkdown":"Encounter is an office visit"}],"modifierExtension":[{"url":"http://hl7.org/fhir/us/cqfmeasures/StructureDefinition/cqfm-isTestCase","valueBoolean":true}],"status":"complete","type":"individual","measure":"https://madie.cms.gov/Measure/CMS122FHIRDiabetesAssessGreaterThan9Percent","period":{"start":"2026-01-01","end":"2026-12-31"},"group":[{"id":"Group_1","population":[{"id":"InitialPopulation_1","code":{"coding":[{"system":"http://terminology.hl7.org/CodeSystem/measure-population","code":"initial-population","display":"Initial Population"}]},"count":1},{"id":"Denominator_1","code":{"coding":[{"system":"http://terminology.hl7.org/CodeSystem/measure-population","code":"denominator","display":"Denominator"}]},"count":1},{"id":"DenominatorExclusion_1","code":{"coding":[{"system":"http://terminology.hl7.org/CodeSystem/measure-population","code":"denominator-exclusion","display":"Denominator Exclusion"}]},"count":0},{"id":"Numerator_1","code":{"coding":[{"system":"http://terminology.hl7.org/CodeSystem/measure-population","code":"numerator","display":"Numerator"}]},"count":1}],"measureScore":{"value":1.0}}],"evaluatedResource":[{"reference":"Patient/7706188a-f37c-483d-96c2-4d7eab833605"},{"reference":"Encounter/b066a725-30c2-4c32-9dd4-01c678377e42"},{"reference":"Condition/4616185d-f973-40b8-8105-d36bf0994cd8"}]},"request":{"method":"PUT","url":"MeasureReport/9eaf0a3c-f429-4b28-aa7f-6082fca14b94"}}]},"request":{"method":"PUT","url":"Bundle/Patient-34-IPPass-OfficeVisit"}}]}