{"resourceType":"Bundle","id":"tests-fccb9758-ea26-4a1e-98cf-3942102295b8-bundle","type":"transaction","entry":[{"fullUrl":"Encounter/4570efeb-213f-472b-a09c-93de96de1431","resource":{"resourceType":"Encounter","id":"4570efeb-213f-472b-a09c-93de96de1431","meta":{"profile":["http://hl7.org/fhir/us/qicore/StructureDefinition/qicore-encounter"]},"status":"finished","class":{"system":"http://terminology.hl7.org/CodeSystem/v3-ActCode","code":"AMB","display":"ambulatory"},"type":[{"coding":[{"system":"http://www.ama-assn.org/go/cpt","code":"99386","display":"Initial comprehensive preventive medicine evaluation and management of an individual including an age and gender appropriate history, examination, counseling/anticipatory guidance/risk factor reduction interventions, and the ordering of laboratory/diagnostic procedures, new patient; 40-64 years"}]}],"subject":{"reference":"Patient/fccb9758-ea26-4a1e-98cf-3942102295b8"},"period":{"start":"2026-01-01T00:00:00.000+00:00","end":"2026-01-01T01:00:00.000+00:00"}},"request":{"method":"PUT","url":"Encounter/4570efeb-213f-472b-a09c-93de96de1431"}},{"fullUrl":"MeasureReport/1cd75a18-a5a5-4301-b0f6-907017ce5f81","resource":{"resourceType":"MeasureReport","id":"1cd75a18-a5a5-4301-b0f6-907017ce5f81","meta":{"profile":["http://hl7.org/fhir/us/cqfmeasures/StructureDefinition/test-case-cqfm"]},"contained":[{"resourceType":"Parameters","id":"0dc555df-9c70-483f-ac35-cc0d2a706caa-parameters","parameter":[{"name":"subject","valueString":"fccb9758-ea26-4a1e-98cf-3942102295b8"}]}],"extension":[{"url":"http://hl7.org/fhir/StructureDefinition/cqf-inputParameters","valueReference":{"reference":"#0dc555df-9c70-483f-ac35-cc0d2a706caa-parameters"}},{"url":"http://hl7.org/fhir/us/cqfmeasures/StructureDefinition/cqfm-testCaseDescription","valueMarkdown":"Encounter is an initial office visit"}],"modifierExtension":[{"url":"http://hl7.org/fhir/us/cqfmeasures/StructureDefinition/cqfm-isTestCase","valueBoolean":true}],"status":"complete","type":"individual","measure":"https://madie.cms.gov/Measure/CMS122FHIRDiabetesAssessGreaterThan9Percent","period":{"start":"2026-01-01","end":"2026-12-31"},"group":[{"id":"Group_1","population":[{"id":"InitialPopulation_1","code":{"coding":[{"system":"http://terminology.hl7.org/CodeSystem/measure-population","code":"initial-population","display":"Initial Population"}]},"count":1},{"id":"Denominator_1","code":{"coding":[{"system":"http://terminology.hl7.org/CodeSystem/measure-population","code":"denominator","display":"Denominator"}]},"count":1},{"id":"DenominatorExclusion_1","code":{"coding":[{"system":"http://terminology.hl7.org/CodeSystem/measure-population","code":"denominator-exclusion","display":"Denominator Exclusion"}]},"count":0},{"id":"Numerator_1","code":{"coding":[{"system":"http://terminology.hl7.org/CodeSystem/measure-population","code":"numerator","display":"Numerator"}]},"count":1}],"measureScore":{"value":1.0}}],"evaluatedResource":[{"reference":"Patient/fccb9758-ea26-4a1e-98cf-3942102295b8"},{"reference":"Encounter/4570efeb-213f-472b-a09c-93de96de1431"},{"reference":"Condition/7db9bc35-50c9-43d5-bbae-8f1fe1370f48"}]},"request":{"method":"PUT","url":"MeasureReport/1cd75a18-a5a5-4301-b0f6-907017ce5f81"}},{"fullUrl":"Condition/7db9bc35-50c9-43d5-bbae-8f1fe1370f48","resource":{"resourceType":"Condition","id":"7db9bc35-50c9-43d5-bbae-8f1fe1370f48","meta":{"profile":["http://hl7.org/fhir/us/qicore/StructureDefinition/qicore-condition-encounter-diagnosis"]},"clinicalStatus":{"coding":[{"system":"http://terminology.hl7.org/CodeSystem/condition-clinical","code":"active"}]},"category":[{"coding":[{"system":"http://terminology.hl7.org/CodeSystem/condition-category","code":"encounter-diagnosis","display":"Encounter Diagnosis"}]}],"code":{"coding":[{"system":"http://snomed.info/sct","code":"102781000119107","display":"Sensory neuropathy due to type 1 diabetes mellitus (disorder)"}]},"subject":{"reference":"Patient/fccb9758-ea26-4a1e-98cf-3942102295b8"},"onsetDateTime":"2026-01-01T23:59:00.000+00:00"},"request":{"method":"PUT","url":"Condition/7db9bc35-50c9-43d5-bbae-8f1fe1370f48"}},{"fullUrl":"Bundle/Patient-37-IPPass-InitialOfficeVisit","resource":{"resourceType":"Bundle","id":"Patient-37-IPPass-InitialOfficeVisit","type":"transaction","entry":[{"fullUrl":"https://madie.cms.gov/Patient/fccb9758-ea26-4a1e-98cf-3942102295b8","resource":{"resourceType":"Patient","id":"fccb9758-ea26-4a1e-98cf-3942102295b8","meta":{"profile":["http://hl7.org/fhir/us/qicore/StructureDefinition/qicore-patient"]},"extension":[{"url":"http://hl7.org/fhir/us/core/StructureDefinition/us-core-race","extension":[{"url":"ombCategory","valueCoding":{"system":"urn:oid:2.16.840.1.113883.6.238","code":"2028-9","display":"Asian"}},{"url":"text","valueString":"Asian"}]},{"url":"http://hl7.org/fhir/us/core/StructureDefinition/us-core-ethnicity","extension":[{"url":"ombCategory","valueCoding":{"system":"urn:oid:2.16.840.1.113883.6.238","code":"2135-2","display":"Hispanic or Latino"}},{"url":"text","valueString":"Hispanic or Latino"}]}],"identifier":[{"system":"http://hospital.smarthealthit.org","value":"999999995"}],"name":[{"family":"Bertha","given":["Betty"]}],"gender":"female","birthDate":"2008-01-01"},"request":{"method":"PUT","url":"Patient/fccb9758-ea26-4a1e-98cf-3942102295b8"}},{"fullUrl":"https://madie.cms.gov/Encounter/4570efeb-213f-472b-a09c-93de96de1431","resource":{"resourceType":"Encounter","id":"4570efeb-213f-472b-a09c-93de96de1431","meta":{"profile":["http://hl7.org/fhir/us/qicore/StructureDefinition/qicore-encounter"]},"status":"finished","class":{"system":"http://terminology.hl7.org/CodeSystem/v3-ActCode","code":"AMB","display":"ambulatory"},"type":[{"coding":[{"system":"http://www.ama-assn.org/go/cpt","code":"99386","display":"Initial comprehensive preventive medicine evaluation and management of an individual including an age and gender appropriate history, examination, counseling/anticipatory guidance/risk factor reduction interventions, and the ordering of laboratory/diagnostic procedures, new patient; 40-64 years"}]}],"subject":{"reference":"Patient/fccb9758-ea26-4a1e-98cf-3942102295b8"},"period":{"start":"2026-01-01T00:00:00.000+00:00","end":"2026-01-01T01:00:00.000+00:00"}},"request":{"method":"PUT","url":"Encounter/4570efeb-213f-472b-a09c-93de96de1431"}},{"fullUrl":"https://madie.cms.gov/Condition/7db9bc35-50c9-43d5-bbae-8f1fe1370f48","resource":{"resourceType":"Condition","id":"7db9bc35-50c9-43d5-bbae-8f1fe1370f48","meta":{"profile":["http://hl7.org/fhir/us/qicore/StructureDefinition/qicore-condition-encounter-diagnosis"]},"clinicalStatus":{"coding":[{"system":"http://terminology.hl7.org/CodeSystem/condition-clinical","code":"active"}]},"category":[{"coding":[{"system":"http://terminology.hl7.org/CodeSystem/condition-category","code":"encounter-diagnosis","display":"Encounter Diagnosis"}]}],"code":{"coding":[{"system":"http://snomed.info/sct","code":"102781000119107","display":"Sensory neuropathy due to type 1 diabetes mellitus (disorder)"}]},"subject":{"reference":"Patient/fccb9758-ea26-4a1e-98cf-3942102295b8"},"onsetDateTime":"2026-01-01T23:59:00.000+00:00"},"request":{"method":"PUT","url":"Condition/7db9bc35-50c9-43d5-bbae-8f1fe1370f48"}},{"fullUrl":"https://madie.cms.gov/MeasureReport/1cd75a18-a5a5-4301-b0f6-907017ce5f81","resource":{"resourceType":"MeasureReport","id":"1cd75a18-a5a5-4301-b0f6-907017ce5f81","meta":{"profile":["http://hl7.org/fhir/us/cqfmeasures/StructureDefinition/test-case-cqfm"]},"contained":[{"resourceType":"Parameters","id":"0dc555df-9c70-483f-ac35-cc0d2a706caa-parameters","parameter":[{"name":"subject","valueString":"fccb9758-ea26-4a1e-98cf-3942102295b8"}]}],"extension":[{"url":"http://hl7.org/fhir/StructureDefinition/cqf-inputParameters","valueReference":{"reference":"#0dc555df-9c70-483f-ac35-cc0d2a706caa-parameters"}},{"url":"http://hl7.org/fhir/us/cqfmeasures/StructureDefinition/cqfm-testCaseDescription","valueMarkdown":"Encounter is an initial office visit"}],"modifierExtension":[{"url":"http://hl7.org/fhir/us/cqfmeasures/StructureDefinition/cqfm-isTestCase","valueBoolean":true}],"status":"complete","type":"individual","measure":"https://madie.cms.gov/Measure/CMS122FHIRDiabetesAssessGreaterThan9Percent","period":{"start":"2026-01-01","end":"2026-12-31"},"group":[{"id":"Group_1","population":[{"id":"InitialPopulation_1","code":{"coding":[{"system":"http://terminology.hl7.org/CodeSystem/measure-population","code":"initial-population","display":"Initial Population"}]},"count":1},{"id":"Denominator_1","code":{"coding":[{"system":"http://terminology.hl7.org/CodeSystem/measure-population","code":"denominator","display":"Denominator"}]},"count":1},{"id":"DenominatorExclusion_1","code":{"coding":[{"system":"http://terminology.hl7.org/CodeSystem/measure-population","code":"denominator-exclusion","display":"Denominator Exclusion"}]},"count":0},{"id":"Numerator_1","code":{"coding":[{"system":"http://terminology.hl7.org/CodeSystem/measure-population","code":"numerator","display":"Numerator"}]},"count":1}],"measureScore":{"value":1.0}}],"evaluatedResource":[{"reference":"Patient/fccb9758-ea26-4a1e-98cf-3942102295b8"},{"reference":"Encounter/4570efeb-213f-472b-a09c-93de96de1431"},{"reference":"Condition/7db9bc35-50c9-43d5-bbae-8f1fe1370f48"}]},"request":{"method":"PUT","url":"MeasureReport/1cd75a18-a5a5-4301-b0f6-907017ce5f81"}}]},"request":{"method":"PUT","url":"Bundle/Patient-37-IPPass-InitialOfficeVisit"}},{"fullUrl":"Patient/fccb9758-ea26-4a1e-98cf-3942102295b8","resource":{"resourceType":"Patient","id":"fccb9758-ea26-4a1e-98cf-3942102295b8","meta":{"profile":["http://hl7.org/fhir/us/qicore/StructureDefinition/qicore-patient"]},"extension":[{"url":"http://hl7.org/fhir/us/core/StructureDefinition/us-core-race","extension":[{"url":"ombCategory","valueCoding":{"system":"urn:oid:2.16.840.1.113883.6.238","code":"2028-9","display":"Asian"}},{"url":"text","valueString":"Asian"}]},{"url":"http://hl7.org/fhir/us/core/StructureDefinition/us-core-ethnicity","extension":[{"url":"ombCategory","valueCoding":{"system":"urn:oid:2.16.840.1.113883.6.238","code":"2135-2","display":"Hispanic or Latino"}},{"url":"text","valueString":"Hispanic or Latino"}]}],"identifier":[{"system":"http://hospital.smarthealthit.org","value":"999999995"}],"name":[{"family":"Bertha","given":["Betty"]}],"gender":"female","birthDate":"2008-01-01"},"request":{"method":"PUT","url":"Patient/fccb9758-ea26-4a1e-98cf-3942102295b8"}}]}