{"resourceType":"Bundle","id":"tests-da05305e-9c4c-4b1d-ac55-cab089a11d2b-bundle","type":"transaction","entry":[{"fullUrl":"Encounter/df0b0e7f-aeaf-4b79-bb7b-4d353122bb14","resource":{"resourceType":"Encounter","id":"df0b0e7f-aeaf-4b79-bb7b-4d353122bb14","meta":{"profile":["http://hl7.org/fhir/us/qicore/StructureDefinition/qicore-encounter"]},"status":"finished","class":{"system":"http://terminology.hl7.org/CodeSystem/v3-ActCode","code":"AMB","display":"ambulatory"},"type":[{"coding":[{"system":"http://snomed.info/sct","code":"444971000124105","display":"Annual wellness visit (procedure)"}]}],"subject":{"reference":"Patient/da05305e-9c4c-4b1d-ac55-cab089a11d2b"},"period":{"start":"2026-01-01T00:00:00.000+00:00","end":"2026-01-01T00:15:00.000+00:00"}},"request":{"method":"PUT","url":"Encounter/df0b0e7f-aeaf-4b79-bb7b-4d353122bb14"}},{"fullUrl":"MeasureReport/46ad5bad-9bd8-40bc-b364-b8c479119cab","resource":{"resourceType":"MeasureReport","id":"46ad5bad-9bd8-40bc-b364-b8c479119cab","meta":{"profile":["http://hl7.org/fhir/us/cqfmeasures/StructureDefinition/test-case-cqfm"]},"contained":[{"resourceType":"Parameters","id":"c716cb28-6aa8-4bc0-ad2a-76503e67dae3-parameters","parameter":[{"name":"subject","valueString":"da05305e-9c4c-4b1d-ac55-cab089a11d2b"}]}],"extension":[{"url":"http://hl7.org/fhir/StructureDefinition/cqf-inputParameters","valueReference":{"reference":"#c716cb28-6aa8-4bc0-ad2a-76503e67dae3-parameters"}},{"url":"http://hl7.org/fhir/us/cqfmeasures/StructureDefinition/cqfm-testCaseDescription","valueMarkdown":"Encounter is an annual wellness visit"}],"modifierExtension":[{"url":"http://hl7.org/fhir/us/cqfmeasures/StructureDefinition/cqfm-isTestCase","valueBoolean":true}],"status":"complete","type":"individual","measure":"https://madie.cms.gov/Measure/CMS122FHIRDiabetesAssessGreaterThan9Percent","period":{"start":"2026-01-01","end":"2026-12-31"},"group":[{"id":"Group_1","population":[{"id":"InitialPopulation_1","code":{"coding":[{"system":"http://terminology.hl7.org/CodeSystem/measure-population","code":"initial-population","display":"Initial Population"}]},"count":1},{"id":"Denominator_1","code":{"coding":[{"system":"http://terminology.hl7.org/CodeSystem/measure-population","code":"denominator","display":"Denominator"}]},"count":1},{"id":"DenominatorExclusion_1","code":{"coding":[{"system":"http://terminology.hl7.org/CodeSystem/measure-population","code":"denominator-exclusion","display":"Denominator Exclusion"}]},"count":0},{"id":"Numerator_1","code":{"coding":[{"system":"http://terminology.hl7.org/CodeSystem/measure-population","code":"numerator","display":"Numerator"}]},"count":1}],"measureScore":{"value":1.0}}],"evaluatedResource":[{"reference":"Patient/da05305e-9c4c-4b1d-ac55-cab089a11d2b"},{"reference":"Encounter/df0b0e7f-aeaf-4b79-bb7b-4d353122bb14"},{"reference":"Condition/2e62f2a0-8cc3-4114-982c-79050463ad70"}]},"request":{"method":"PUT","url":"MeasureReport/46ad5bad-9bd8-40bc-b364-b8c479119cab"}},{"fullUrl":"Condition/2e62f2a0-8cc3-4114-982c-79050463ad70","resource":{"resourceType":"Condition","id":"2e62f2a0-8cc3-4114-982c-79050463ad70","meta":{"profile":["http://hl7.org/fhir/us/qicore/StructureDefinition/qicore-condition-encounter-diagnosis"]},"clinicalStatus":{"coding":[{"system":"http://terminology.hl7.org/CodeSystem/condition-clinical","code":"active"}]},"category":[{"coding":[{"system":"http://terminology.hl7.org/CodeSystem/condition-category","code":"encounter-diagnosis","display":"Encounter Diagnosis"}]}],"code":{"coding":[{"system":"http://snomed.info/sct","code":"102781000119107","display":"Sensory neuropathy due to type 1 diabetes mellitus (disorder)"}]},"subject":{"reference":"Patient/da05305e-9c4c-4b1d-ac55-cab089a11d2b"},"onsetDateTime":"2026-01-01T23:59:00.000+00:00"},"request":{"method":"PUT","url":"Condition/2e62f2a0-8cc3-4114-982c-79050463ad70"}},{"fullUrl":"Bundle/Patient-35-IPPass-AnnualWellnessVisit","resource":{"resourceType":"Bundle","id":"Patient-35-IPPass-AnnualWellnessVisit","type":"transaction","entry":[{"fullUrl":"https://madie.cms.gov/Patient/da05305e-9c4c-4b1d-ac55-cab089a11d2b","resource":{"resourceType":"Patient","id":"da05305e-9c4c-4b1d-ac55-cab089a11d2b","meta":{"profile":["http://hl7.org/fhir/us/qicore/StructureDefinition/qicore-patient"]},"extension":[{"url":"http://hl7.org/fhir/us/core/StructureDefinition/us-core-race","extension":[{"url":"ombCategory","valueCoding":{"system":"urn:oid:2.16.840.1.113883.6.238","code":"2028-9","display":"Asian"}},{"url":"text","valueString":"Asian"}]},{"url":"http://hl7.org/fhir/us/core/StructureDefinition/us-core-ethnicity","extension":[{"url":"ombCategory","valueCoding":{"system":"urn:oid:2.16.840.1.113883.6.238","code":"2135-2","display":"Hispanic or Latino"}},{"url":"text","valueString":"Hispanic or Latino"}]}],"identifier":[{"system":"http://hospital.smarthealthit.org","value":"999999995"}],"name":[{"family":"Bertha","given":["Betty"]}],"gender":"female","birthDate":"2008-01-01"},"request":{"method":"PUT","url":"Patient/da05305e-9c4c-4b1d-ac55-cab089a11d2b"}},{"fullUrl":"https://madie.cms.gov/Encounter/df0b0e7f-aeaf-4b79-bb7b-4d353122bb14","resource":{"resourceType":"Encounter","id":"df0b0e7f-aeaf-4b79-bb7b-4d353122bb14","meta":{"profile":["http://hl7.org/fhir/us/qicore/StructureDefinition/qicore-encounter"]},"status":"finished","class":{"system":"http://terminology.hl7.org/CodeSystem/v3-ActCode","code":"AMB","display":"ambulatory"},"type":[{"coding":[{"system":"http://snomed.info/sct","code":"444971000124105","display":"Annual wellness visit (procedure)"}]}],"subject":{"reference":"Patient/da05305e-9c4c-4b1d-ac55-cab089a11d2b"},"period":{"start":"2026-01-01T00:00:00.000+00:00","end":"2026-01-01T00:15:00.000+00:00"}},"request":{"method":"PUT","url":"Encounter/df0b0e7f-aeaf-4b79-bb7b-4d353122bb14"}},{"fullUrl":"https://madie.cms.gov/Condition/2e62f2a0-8cc3-4114-982c-79050463ad70","resource":{"resourceType":"Condition","id":"2e62f2a0-8cc3-4114-982c-79050463ad70","meta":{"profile":["http://hl7.org/fhir/us/qicore/StructureDefinition/qicore-condition-encounter-diagnosis"]},"clinicalStatus":{"coding":[{"system":"http://terminology.hl7.org/CodeSystem/condition-clinical","code":"active"}]},"category":[{"coding":[{"system":"http://terminology.hl7.org/CodeSystem/condition-category","code":"encounter-diagnosis","display":"Encounter Diagnosis"}]}],"code":{"coding":[{"system":"http://snomed.info/sct","code":"102781000119107","display":"Sensory neuropathy due to type 1 diabetes mellitus (disorder)"}]},"subject":{"reference":"Patient/da05305e-9c4c-4b1d-ac55-cab089a11d2b"},"onsetDateTime":"2026-01-01T23:59:00.000+00:00"},"request":{"method":"PUT","url":"Condition/2e62f2a0-8cc3-4114-982c-79050463ad70"}},{"fullUrl":"https://madie.cms.gov/MeasureReport/46ad5bad-9bd8-40bc-b364-b8c479119cab","resource":{"resourceType":"MeasureReport","id":"46ad5bad-9bd8-40bc-b364-b8c479119cab","meta":{"profile":["http://hl7.org/fhir/us/cqfmeasures/StructureDefinition/test-case-cqfm"]},"contained":[{"resourceType":"Parameters","id":"c716cb28-6aa8-4bc0-ad2a-76503e67dae3-parameters","parameter":[{"name":"subject","valueString":"da05305e-9c4c-4b1d-ac55-cab089a11d2b"}]}],"extension":[{"url":"http://hl7.org/fhir/StructureDefinition/cqf-inputParameters","valueReference":{"reference":"#c716cb28-6aa8-4bc0-ad2a-76503e67dae3-parameters"}},{"url":"http://hl7.org/fhir/us/cqfmeasures/StructureDefinition/cqfm-testCaseDescription","valueMarkdown":"Encounter is an annual wellness visit"}],"modifierExtension":[{"url":"http://hl7.org/fhir/us/cqfmeasures/StructureDefinition/cqfm-isTestCase","valueBoolean":true}],"status":"complete","type":"individual","measure":"https://madie.cms.gov/Measure/CMS122FHIRDiabetesAssessGreaterThan9Percent","period":{"start":"2026-01-01","end":"2026-12-31"},"group":[{"id":"Group_1","population":[{"id":"InitialPopulation_1","code":{"coding":[{"system":"http://terminology.hl7.org/CodeSystem/measure-population","code":"initial-population","display":"Initial Population"}]},"count":1},{"id":"Denominator_1","code":{"coding":[{"system":"http://terminology.hl7.org/CodeSystem/measure-population","code":"denominator","display":"Denominator"}]},"count":1},{"id":"DenominatorExclusion_1","code":{"coding":[{"system":"http://terminology.hl7.org/CodeSystem/measure-population","code":"denominator-exclusion","display":"Denominator Exclusion"}]},"count":0},{"id":"Numerator_1","code":{"coding":[{"system":"http://terminology.hl7.org/CodeSystem/measure-population","code":"numerator","display":"Numerator"}]},"count":1}],"measureScore":{"value":1.0}}],"evaluatedResource":[{"reference":"Patient/da05305e-9c4c-4b1d-ac55-cab089a11d2b"},{"reference":"Encounter/df0b0e7f-aeaf-4b79-bb7b-4d353122bb14"},{"reference":"Condition/2e62f2a0-8cc3-4114-982c-79050463ad70"}]},"request":{"method":"PUT","url":"MeasureReport/46ad5bad-9bd8-40bc-b364-b8c479119cab"}}]},"request":{"method":"PUT","url":"Bundle/Patient-35-IPPass-AnnualWellnessVisit"}},{"fullUrl":"Patient/da05305e-9c4c-4b1d-ac55-cab089a11d2b","resource":{"resourceType":"Patient","id":"da05305e-9c4c-4b1d-ac55-cab089a11d2b","meta":{"profile":["http://hl7.org/fhir/us/qicore/StructureDefinition/qicore-patient"]},"extension":[{"url":"http://hl7.org/fhir/us/core/StructureDefinition/us-core-race","extension":[{"url":"ombCategory","valueCoding":{"system":"urn:oid:2.16.840.1.113883.6.238","code":"2028-9","display":"Asian"}},{"url":"text","valueString":"Asian"}]},{"url":"http://hl7.org/fhir/us/core/StructureDefinition/us-core-ethnicity","extension":[{"url":"ombCategory","valueCoding":{"system":"urn:oid:2.16.840.1.113883.6.238","code":"2135-2","display":"Hispanic or Latino"}},{"url":"text","valueString":"Hispanic or Latino"}]}],"identifier":[{"system":"http://hospital.smarthealthit.org","value":"999999995"}],"name":[{"family":"Bertha","given":["Betty"]}],"gender":"female","birthDate":"2008-01-01"},"request":{"method":"PUT","url":"Patient/da05305e-9c4c-4b1d-ac55-cab089a11d2b"}}]}