{"resourceType":"Bundle","id":"tests-5d692a54-a1d5-4a9c-80ba-fb6b20112484-bundle","type":"transaction","entry":[{"fullUrl":"Bundle/Patient-IPPass-MedicalNutritionTherapy5","resource":{"resourceType":"Bundle","id":"Patient-IPPass-MedicalNutritionTherapy5","type":"transaction","entry":[{"fullUrl":"https://madie.cms.gov/Patient/5d692a54-a1d5-4a9c-80ba-fb6b20112484","resource":{"resourceType":"Patient","id":"5d692a54-a1d5-4a9c-80ba-fb6b20112484","meta":{"profile":["http://hl7.org/fhir/us/qicore/StructureDefinition/qicore-patient"]},"extension":[{"url":"http://hl7.org/fhir/us/core/StructureDefinition/us-core-race","extension":[{"url":"ombCategory","valueCoding":{"system":"urn:oid:2.16.840.1.113883.6.238","code":"2028-9","display":"Asian"}},{"url":"text","valueString":"Asian"}]},{"url":"http://hl7.org/fhir/us/core/StructureDefinition/us-core-ethnicity","extension":[{"url":"ombCategory","valueCoding":{"system":"urn:oid:2.16.840.1.113883.6.238","code":"2135-2","display":"Hispanic or Latino"}},{"url":"text","valueString":"Hispanic or Latino"}]}],"identifier":[{"system":"http://hospital.smarthealthit.org","value":"999999995"}],"name":[{"family":"Bertha","given":["Betty"]}],"gender":"female","birthDate":"2008-01-01"},"request":{"method":"PUT","url":"Patient/5d692a54-a1d5-4a9c-80ba-fb6b20112484"}},{"fullUrl":"https://madie.cms.gov/Encounter/03bdd1a3-7bdc-4308-ac61-f5343bf9a4f4","resource":{"resourceType":"Encounter","id":"03bdd1a3-7bdc-4308-ac61-f5343bf9a4f4","meta":{"profile":["http://hl7.org/fhir/us/qicore/StructureDefinition/qicore-encounter"]},"status":"finished","class":{"system":"http://terminology.hl7.org/CodeSystem/v3-ActCode","code":"AMB","display":"ambulatory"},"type":[{"coding":[{"system":"http://www.cms.gov/Medicare/Coding/HCPCSReleaseCodeSets","code":"G0270","display":"Medical nutrition therapy; reassessment and subsequent intervention(s) following second referral in same year for change in diagnosis, medical condition or treatment regimen (including additional hours needed for renal disease), individual, face to face with the patient, each 15 minutes"}]}],"subject":{"reference":"Patient/5d692a54-a1d5-4a9c-80ba-fb6b20112484"},"period":{"start":"2026-01-01T00:00:00Z","end":"2026-01-01T00:15:00Z"}},"request":{"method":"PUT","url":"Encounter/03bdd1a3-7bdc-4308-ac61-f5343bf9a4f4"}},{"fullUrl":"https://madie.cms.gov/Condition/6583ed31-e570-4f64-b1b7-f0d9c3673279","resource":{"resourceType":"Condition","id":"6583ed31-e570-4f64-b1b7-f0d9c3673279","meta":{"profile":["http://hl7.org/fhir/us/qicore/StructureDefinition/qicore-condition-encounter-diagnosis"]},"clinicalStatus":{"coding":[{"system":"http://terminology.hl7.org/CodeSystem/condition-clinical","code":"active"}]},"category":[{"coding":[{"system":"http://terminology.hl7.org/CodeSystem/condition-category","code":"encounter-diagnosis","display":"Encounter Diagnosis"}]}],"code":{"coding":[{"system":"http://snomed.info/sct","code":"102781000119107","display":"Sensory neuropathy due to type 1 diabetes mellitus (disorder)"}]},"subject":{"reference":"Patient/5d692a54-a1d5-4a9c-80ba-fb6b20112484"},"onsetDateTime":"2026-01-01T23:59:00Z"},"request":{"method":"PUT","url":"Condition/6583ed31-e570-4f64-b1b7-f0d9c3673279"}},{"fullUrl":"https://madie.cms.gov/MeasureReport/e25ad58e-6aeb-4741-82d2-c43de9c55cb2","resource":{"resourceType":"MeasureReport","id":"e25ad58e-6aeb-4741-82d2-c43de9c55cb2","meta":{"profile":["http://hl7.org/fhir/us/cqfmeasures/StructureDefinition/test-case-cqfm"]},"contained":[{"resourceType":"Parameters","id":"94f268b0-379c-442c-ac14-338ea00a93cf-parameters","parameter":[{"name":"subject","valueString":"5d692a54-a1d5-4a9c-80ba-fb6b20112484"}]}],"extension":[{"url":"http://hl7.org/fhir/StructureDefinition/cqf-inputParameters","valueReference":{"reference":"#94f268b0-379c-442c-ac14-338ea00a93cf-parameters"}},{"url":"http://hl7.org/fhir/us/cqfmeasures/StructureDefinition/cqfm-testCaseDescription","valueMarkdown":"Encounter is mnt; reassessment/subsequent intervention(s) following 2nd referral in same year for dx change, med condition or treatment regimen (incl. add. hrs needed for renal disease), individual, face to face with the patient, each 15 minutes"}],"modifierExtension":[{"url":"http://hl7.org/fhir/us/cqfmeasures/StructureDefinition/cqfm-isTestCase","valueBoolean":true}],"status":"complete","type":"individual","measure":"https://madie.cms.gov/Measure/CMS122FHIRDiabetesAssessGreaterThan9Percent","period":{"start":"2026-01-01","end":"2026-12-31"},"group":[{"id":"Group_1","population":[{"id":"InitialPopulation_1","code":{"coding":[{"system":"http://terminology.hl7.org/CodeSystem/measure-population","code":"initial-population","display":"Initial Population"}]},"count":1},{"id":"Denominator_1","code":{"coding":[{"system":"http://terminology.hl7.org/CodeSystem/measure-population","code":"denominator","display":"Denominator"}]},"count":1},{"id":"DenominatorExclusion_1","code":{"coding":[{"system":"http://terminology.hl7.org/CodeSystem/measure-population","code":"denominator-exclusion","display":"Denominator Exclusion"}]},"count":0},{"id":"Numerator_1","code":{"coding":[{"system":"http://terminology.hl7.org/CodeSystem/measure-population","code":"numerator","display":"Numerator"}]},"count":1}],"measureScore":{"value":1.0}}],"evaluatedResource":[{"reference":"Patient/5d692a54-a1d5-4a9c-80ba-fb6b20112484"},{"reference":"Encounter/03bdd1a3-7bdc-4308-ac61-f5343bf9a4f4"},{"reference":"Condition/6583ed31-e570-4f64-b1b7-f0d9c3673279"}]},"request":{"method":"PUT","url":"MeasureReport/e25ad58e-6aeb-4741-82d2-c43de9c55cb2"}}]},"request":{"method":"PUT","url":"Bundle/Patient-IPPass-MedicalNutritionTherapy5"}},{"fullUrl":"Patient/5d692a54-a1d5-4a9c-80ba-fb6b20112484","resource":{"resourceType":"Patient","id":"5d692a54-a1d5-4a9c-80ba-fb6b20112484","meta":{"profile":["http://hl7.org/fhir/us/qicore/StructureDefinition/qicore-patient"]},"extension":[{"url":"http://hl7.org/fhir/us/core/StructureDefinition/us-core-race","extension":[{"url":"ombCategory","valueCoding":{"system":"urn:oid:2.16.840.1.113883.6.238","code":"2028-9","display":"Asian"}},{"url":"text","valueString":"Asian"}]},{"url":"http://hl7.org/fhir/us/core/StructureDefinition/us-core-ethnicity","extension":[{"url":"ombCategory","valueCoding":{"system":"urn:oid:2.16.840.1.113883.6.238","code":"2135-2","display":"Hispanic or Latino"}},{"url":"text","valueString":"Hispanic or Latino"}]}],"identifier":[{"system":"http://hospital.smarthealthit.org","value":"999999995"}],"name":[{"family":"Bertha","given":["Betty"]}],"gender":"female","birthDate":"2008-01-01"},"request":{"method":"PUT","url":"Patient/5d692a54-a1d5-4a9c-80ba-fb6b20112484"}},{"fullUrl":"Encounter/03bdd1a3-7bdc-4308-ac61-f5343bf9a4f4","resource":{"resourceType":"Encounter","id":"03bdd1a3-7bdc-4308-ac61-f5343bf9a4f4","meta":{"profile":["http://hl7.org/fhir/us/qicore/StructureDefinition/qicore-encounter"]},"status":"finished","class":{"system":"http://terminology.hl7.org/CodeSystem/v3-ActCode","code":"AMB","display":"ambulatory"},"type":[{"coding":[{"system":"http://www.cms.gov/Medicare/Coding/HCPCSReleaseCodeSets","code":"G0270","display":"Medical nutrition therapy; reassessment and subsequent intervention(s) following second referral in same year for change in diagnosis, medical condition or treatment regimen (including additional hours needed for renal disease), individual, face to face with the patient, each 15 minutes"}]}],"subject":{"reference":"Patient/5d692a54-a1d5-4a9c-80ba-fb6b20112484"},"period":{"start":"2026-01-01T00:00:00Z","end":"2026-01-01T00:15:00Z"}},"request":{"method":"PUT","url":"Encounter/03bdd1a3-7bdc-4308-ac61-f5343bf9a4f4"}},{"fullUrl":"MeasureReport/e25ad58e-6aeb-4741-82d2-c43de9c55cb2","resource":{"resourceType":"MeasureReport","id":"e25ad58e-6aeb-4741-82d2-c43de9c55cb2","meta":{"profile":["http://hl7.org/fhir/us/cqfmeasures/StructureDefinition/test-case-cqfm"]},"contained":[{"resourceType":"Parameters","id":"94f268b0-379c-442c-ac14-338ea00a93cf-parameters","parameter":[{"name":"subject","valueString":"5d692a54-a1d5-4a9c-80ba-fb6b20112484"}]}],"extension":[{"url":"http://hl7.org/fhir/StructureDefinition/cqf-inputParameters","valueReference":{"reference":"#94f268b0-379c-442c-ac14-338ea00a93cf-parameters"}},{"url":"http://hl7.org/fhir/us/cqfmeasures/StructureDefinition/cqfm-testCaseDescription","valueMarkdown":"Encounter is mnt; reassessment/subsequent intervention(s) following 2nd referral in same year for dx change, med condition or treatment regimen (incl. add. hrs needed for renal disease), individual, face to face with the patient, each 15 minutes"}],"modifierExtension":[{"url":"http://hl7.org/fhir/us/cqfmeasures/StructureDefinition/cqfm-isTestCase","valueBoolean":true}],"status":"complete","type":"individual","measure":"https://madie.cms.gov/Measure/CMS122FHIRDiabetesAssessGreaterThan9Percent","period":{"start":"2026-01-01","end":"2026-12-31"},"group":[{"id":"Group_1","population":[{"id":"InitialPopulation_1","code":{"coding":[{"system":"http://terminology.hl7.org/CodeSystem/measure-population","code":"initial-population","display":"Initial Population"}]},"count":1},{"id":"Denominator_1","code":{"coding":[{"system":"http://terminology.hl7.org/CodeSystem/measure-population","code":"denominator","display":"Denominator"}]},"count":1},{"id":"DenominatorExclusion_1","code":{"coding":[{"system":"http://terminology.hl7.org/CodeSystem/measure-population","code":"denominator-exclusion","display":"Denominator Exclusion"}]},"count":0},{"id":"Numerator_1","code":{"coding":[{"system":"http://terminology.hl7.org/CodeSystem/measure-population","code":"numerator","display":"Numerator"}]},"count":1}],"measureScore":{"value":1.0}}],"evaluatedResource":[{"reference":"Patient/5d692a54-a1d5-4a9c-80ba-fb6b20112484"},{"reference":"Encounter/03bdd1a3-7bdc-4308-ac61-f5343bf9a4f4"},{"reference":"Condition/6583ed31-e570-4f64-b1b7-f0d9c3673279"}]},"request":{"method":"PUT","url":"MeasureReport/e25ad58e-6aeb-4741-82d2-c43de9c55cb2"}},{"fullUrl":"Condition/6583ed31-e570-4f64-b1b7-f0d9c3673279","resource":{"resourceType":"Condition","id":"6583ed31-e570-4f64-b1b7-f0d9c3673279","meta":{"profile":["http://hl7.org/fhir/us/qicore/StructureDefinition/qicore-condition-encounter-diagnosis"]},"clinicalStatus":{"coding":[{"system":"http://terminology.hl7.org/CodeSystem/condition-clinical","code":"active"}]},"category":[{"coding":[{"system":"http://terminology.hl7.org/CodeSystem/condition-category","code":"encounter-diagnosis","display":"Encounter Diagnosis"}]}],"code":{"coding":[{"system":"http://snomed.info/sct","code":"102781000119107","display":"Sensory neuropathy due to type 1 diabetes mellitus (disorder)"}]},"subject":{"reference":"Patient/5d692a54-a1d5-4a9c-80ba-fb6b20112484"},"onsetDateTime":"2026-01-01T23:59:00Z"},"request":{"method":"PUT","url":"Condition/6583ed31-e570-4f64-b1b7-f0d9c3673279"}}]}