{"resourceType":"Bundle","id":"tests-7d01a597-c0da-4bff-9bdd-f3516021db34-bundle","type":"transaction","entry":[{"fullUrl":"MeasureReport/3952942c-db84-429b-b928-712c283ccbd4","resource":{"resourceType":"MeasureReport","id":"3952942c-db84-429b-b928-712c283ccbd4","meta":{"profile":["http://hl7.org/fhir/us/cqfmeasures/StructureDefinition/test-case-cqfm"]},"contained":[{"resourceType":"Parameters","id":"867d852e-7153-4cf1-abc5-37308488a0aa-parameters","parameter":[{"name":"subject","valueString":"7d01a597-c0da-4bff-9bdd-f3516021db34"}]}],"extension":[{"url":"http://hl7.org/fhir/StructureDefinition/cqf-inputParameters","valueReference":{"reference":"#867d852e-7153-4cf1-abc5-37308488a0aa-parameters"}},{"url":"http://hl7.org/fhir/us/cqfmeasures/StructureDefinition/cqfm-testCaseDescription","valueMarkdown":"Hospice procedure during the MP"}],"modifierExtension":[{"url":"http://hl7.org/fhir/us/cqfmeasures/StructureDefinition/cqfm-isTestCase","valueBoolean":true}],"status":"complete","type":"individual","measure":"https://madie.cms.gov/Measure/CMS122FHIRDiabetesAssessGreaterThan9Percent","period":{"start":"2026-01-01","end":"2026-12-31"},"group":[{"id":"Group_1","population":[{"id":"InitialPopulation_1","code":{"coding":[{"system":"http://terminology.hl7.org/CodeSystem/measure-population","code":"initial-population","display":"Initial Population"}]},"count":1},{"id":"Denominator_1","code":{"coding":[{"system":"http://terminology.hl7.org/CodeSystem/measure-population","code":"denominator","display":"Denominator"}]},"count":1},{"id":"DenominatorExclusion_1","code":{"coding":[{"system":"http://terminology.hl7.org/CodeSystem/measure-population","code":"denominator-exclusion","display":"Denominator Exclusion"}]},"count":1},{"id":"Numerator_1","code":{"coding":[{"system":"http://terminology.hl7.org/CodeSystem/measure-population","code":"numerator","display":"Numerator"}]},"count":0}],"measureScore":{"value":1.0}}],"evaluatedResource":[{"reference":"Patient/7d01a597-c0da-4bff-9bdd-f3516021db34"},{"reference":"Encounter/f4484259-a391-4339-abeb-379187ef1553"},{"reference":"Condition/dff12ea7-0e2a-4e4b-9929-03eb861d05b8"},{"reference":"Procedure/20a7bde3-458a-4de6-b9b1-7cf2a8bd32be"}]},"request":{"method":"PUT","url":"MeasureReport/3952942c-db84-429b-b928-712c283ccbd4"}},{"fullUrl":"Procedure/20a7bde3-458a-4de6-b9b1-7cf2a8bd32be","resource":{"resourceType":"Procedure","id":"20a7bde3-458a-4de6-b9b1-7cf2a8bd32be","meta":{"profile":["http://hl7.org/fhir/us/qicore/StructureDefinition/qicore-procedure"]},"extension":[{"url":"http://hl7.org/fhir/us/qicore/StructureDefinition/qicore-recorded","valueDateTime":"2026-12-31T00:00:00.000+00:00"}],"status":"completed","code":{"coding":[{"system":"http://snomed.info/sct","code":"385763009","display":"Hospice care (regime/therapy)"}]},"subject":{"reference":"Patient/7d01a597-c0da-4bff-9bdd-f3516021db34"},"performedPeriod":{"start":"2026-12-31T00:00:00.000+00:00","end":"2026-12-31T23:59:59.000+00:00"}},"request":{"method":"PUT","url":"Procedure/20a7bde3-458a-4de6-b9b1-7cf2a8bd32be"}},{"fullUrl":"Condition/dff12ea7-0e2a-4e4b-9929-03eb861d05b8","resource":{"resourceType":"Condition","id":"dff12ea7-0e2a-4e4b-9929-03eb861d05b8","meta":{"profile":["http://hl7.org/fhir/us/qicore/StructureDefinition/qicore-condition-encounter-diagnosis"]},"clinicalStatus":{"coding":[{"system":"http://terminology.hl7.org/CodeSystem/condition-clinical","code":"active"}]},"category":[{"coding":[{"system":"http://terminology.hl7.org/CodeSystem/condition-category","code":"encounter-diagnosis","display":"Encounter Diagnosis"}]}],"code":{"coding":[{"system":"http://snomed.info/sct","code":"102781000119107","display":"Sensory neuropathy due to type 1 diabetes mellitus (disorder)"}]},"subject":{"reference":"Patient/7d01a597-c0da-4bff-9bdd-f3516021db34"},"onsetDateTime":"2026-01-01T23:59:00.000+00:00"},"request":{"method":"PUT","url":"Condition/dff12ea7-0e2a-4e4b-9929-03eb861d05b8"}},{"fullUrl":"Encounter/f4484259-a391-4339-abeb-379187ef1553","resource":{"resourceType":"Encounter","id":"f4484259-a391-4339-abeb-379187ef1553","meta":{"profile":["http://hl7.org/fhir/us/qicore/StructureDefinition/qicore-encounter"]},"status":"finished","class":{"system":"http://terminology.hl7.org/CodeSystem/v3-ActCode","code":"AMB","display":"ambulatory"},"type":[{"coding":[{"system":"http://snomed.info/sct","code":"185460008","display":"Home visit request by patient (procedure)"}]}],"subject":{"reference":"Patient/7d01a597-c0da-4bff-9bdd-f3516021db34"},"period":{"start":"2026-01-01T00:00:00.000+00:00","end":"2026-01-01T00:15:00.000+00:00"}},"request":{"method":"PUT","url":"Encounter/f4484259-a391-4339-abeb-379187ef1553"}},{"fullUrl":"Bundle/Patient-21-DENEXPass-HospiceProcDurMP","resource":{"resourceType":"Bundle","id":"Patient-21-DENEXPass-HospiceProcDurMP","type":"transaction","entry":[{"fullUrl":"https://madie.cms.gov/Patient/7d01a597-c0da-4bff-9bdd-f3516021db34","resource":{"resourceType":"Patient","id":"7d01a597-c0da-4bff-9bdd-f3516021db34","meta":{"profile":["http://hl7.org/fhir/us/qicore/StructureDefinition/qicore-patient"]},"extension":[{"url":"http://hl7.org/fhir/us/core/StructureDefinition/us-core-race","extension":[{"url":"ombCategory","valueCoding":{"system":"urn:oid:2.16.840.1.113883.6.238","code":"2028-9","display":"Asian","userSelected":true}},{"url":"text","valueString":"Asian"}]},{"url":"http://hl7.org/fhir/us/core/StructureDefinition/us-core-ethnicity","extension":[{"url":"ombCategory","valueCoding":{"system":"urn:oid:2.16.840.1.113883.6.238","code":"2135-2","display":"Hispanic or Latino","userSelected":true}},{"url":"text","valueString":"Hispanic or Latino"}]}],"identifier":[{"type":{"coding":[{"system":"http://terminology.hl7.org/CodeSystem/v2-0203","code":"MR"}]},"system":"http://hospital.smarthealthit.org","value":"999999995"}],"name":[{"family":"Bertha","given":["Betty"]}],"gender":"female","birthDate":"2006-01-01"},"request":{"method":"PUT","url":"Patient/7d01a597-c0da-4bff-9bdd-f3516021db34"}},{"fullUrl":"https://madie.cms.gov/Encounter/f4484259-a391-4339-abeb-379187ef1553","resource":{"resourceType":"Encounter","id":"f4484259-a391-4339-abeb-379187ef1553","meta":{"profile":["http://hl7.org/fhir/us/qicore/StructureDefinition/qicore-encounter"]},"status":"finished","class":{"system":"http://terminology.hl7.org/CodeSystem/v3-ActCode","code":"AMB","display":"ambulatory"},"type":[{"coding":[{"system":"http://snomed.info/sct","code":"185460008","display":"Home visit request by patient (procedure)"}]}],"subject":{"reference":"Patient/7d01a597-c0da-4bff-9bdd-f3516021db34"},"period":{"start":"2026-01-01T00:00:00.000+00:00","end":"2026-01-01T00:15:00.000+00:00"}},"request":{"method":"PUT","url":"Encounter/f4484259-a391-4339-abeb-379187ef1553"}},{"fullUrl":"https://madie.cms.gov/Condition/dff12ea7-0e2a-4e4b-9929-03eb861d05b8","resource":{"resourceType":"Condition","id":"dff12ea7-0e2a-4e4b-9929-03eb861d05b8","meta":{"profile":["http://hl7.org/fhir/us/qicore/StructureDefinition/qicore-condition-encounter-diagnosis"]},"clinicalStatus":{"coding":[{"system":"http://terminology.hl7.org/CodeSystem/condition-clinical","code":"active"}]},"category":[{"coding":[{"system":"http://terminology.hl7.org/CodeSystem/condition-category","code":"encounter-diagnosis","display":"Encounter Diagnosis"}]}],"code":{"coding":[{"system":"http://snomed.info/sct","code":"102781000119107","display":"Sensory neuropathy due to type 1 diabetes mellitus (disorder)"}]},"subject":{"reference":"Patient/7d01a597-c0da-4bff-9bdd-f3516021db34"},"onsetDateTime":"2026-01-01T23:59:00.000+00:00"},"request":{"method":"PUT","url":"Condition/dff12ea7-0e2a-4e4b-9929-03eb861d05b8"}},{"fullUrl":"https://madie.cms.gov/Procedure/20a7bde3-458a-4de6-b9b1-7cf2a8bd32be","resource":{"resourceType":"Procedure","id":"20a7bde3-458a-4de6-b9b1-7cf2a8bd32be","meta":{"profile":["http://hl7.org/fhir/us/qicore/StructureDefinition/qicore-procedure"]},"extension":[{"url":"http://hl7.org/fhir/us/qicore/StructureDefinition/qicore-recorded","valueDateTime":"2026-12-31T00:00:00.000+00:00"}],"status":"completed","code":{"coding":[{"system":"http://snomed.info/sct","code":"385763009","display":"Hospice care (regime/therapy)"}]},"subject":{"reference":"Patient/7d01a597-c0da-4bff-9bdd-f3516021db34"},"performedPeriod":{"start":"2026-12-31T00:00:00.000+00:00","end":"2026-12-31T23:59:59.000+00:00"}},"request":{"method":"PUT","url":"Procedure/20a7bde3-458a-4de6-b9b1-7cf2a8bd32be"}},{"fullUrl":"https://madie.cms.gov/MeasureReport/3952942c-db84-429b-b928-712c283ccbd4","resource":{"resourceType":"MeasureReport","id":"3952942c-db84-429b-b928-712c283ccbd4","meta":{"profile":["http://hl7.org/fhir/us/cqfmeasures/StructureDefinition/test-case-cqfm"]},"contained":[{"resourceType":"Parameters","id":"867d852e-7153-4cf1-abc5-37308488a0aa-parameters","parameter":[{"name":"subject","valueString":"7d01a597-c0da-4bff-9bdd-f3516021db34"}]}],"extension":[{"url":"http://hl7.org/fhir/StructureDefinition/cqf-inputParameters","valueReference":{"reference":"#867d852e-7153-4cf1-abc5-37308488a0aa-parameters"}},{"url":"http://hl7.org/fhir/us/cqfmeasures/StructureDefinition/cqfm-testCaseDescription","valueMarkdown":"Hospice procedure during the MP"}],"modifierExtension":[{"url":"http://hl7.org/fhir/us/cqfmeasures/StructureDefinition/cqfm-isTestCase","valueBoolean":true}],"status":"complete","type":"individual","measure":"https://madie.cms.gov/Measure/CMS122FHIRDiabetesAssessGreaterThan9Percent","period":{"start":"2026-01-01","end":"2026-12-31"},"group":[{"id":"Group_1","population":[{"id":"InitialPopulation_1","code":{"coding":[{"system":"http://terminology.hl7.org/CodeSystem/measure-population","code":"initial-population","display":"Initial Population"}]},"count":1},{"id":"Denominator_1","code":{"coding":[{"system":"http://terminology.hl7.org/CodeSystem/measure-population","code":"denominator","display":"Denominator"}]},"count":1},{"id":"DenominatorExclusion_1","code":{"coding":[{"system":"http://terminology.hl7.org/CodeSystem/measure-population","code":"denominator-exclusion","display":"Denominator Exclusion"}]},"count":1},{"id":"Numerator_1","code":{"coding":[{"system":"http://terminology.hl7.org/CodeSystem/measure-population","code":"numerator","display":"Numerator"}]},"count":0}],"measureScore":{"value":1.0}}],"evaluatedResource":[{"reference":"Patient/7d01a597-c0da-4bff-9bdd-f3516021db34"},{"reference":"Encounter/f4484259-a391-4339-abeb-379187ef1553"},{"reference":"Condition/dff12ea7-0e2a-4e4b-9929-03eb861d05b8"},{"reference":"Procedure/20a7bde3-458a-4de6-b9b1-7cf2a8bd32be"}]},"request":{"method":"PUT","url":"MeasureReport/3952942c-db84-429b-b928-712c283ccbd4"}}]},"request":{"method":"PUT","url":"Bundle/Patient-21-DENEXPass-HospiceProcDurMP"}},{"fullUrl":"Patient/7d01a597-c0da-4bff-9bdd-f3516021db34","resource":{"resourceType":"Patient","id":"7d01a597-c0da-4bff-9bdd-f3516021db34","meta":{"profile":["http://hl7.org/fhir/us/qicore/StructureDefinition/qicore-patient"]},"extension":[{"url":"http://hl7.org/fhir/us/core/StructureDefinition/us-core-race","extension":[{"url":"ombCategory","valueCoding":{"system":"urn:oid:2.16.840.1.113883.6.238","code":"2028-9","display":"Asian","userSelected":true}},{"url":"text","valueString":"Asian"}]},{"url":"http://hl7.org/fhir/us/core/StructureDefinition/us-core-ethnicity","extension":[{"url":"ombCategory","valueCoding":{"system":"urn:oid:2.16.840.1.113883.6.238","code":"2135-2","display":"Hispanic or Latino","userSelected":true}},{"url":"text","valueString":"Hispanic or Latino"}]}],"identifier":[{"type":{"coding":[{"system":"http://terminology.hl7.org/CodeSystem/v2-0203","code":"MR"}]},"system":"http://hospital.smarthealthit.org","value":"999999995"}],"name":[{"family":"Bertha","given":["Betty"]}],"gender":"female","birthDate":"2006-01-01"},"request":{"method":"PUT","url":"Patient/7d01a597-c0da-4bff-9bdd-f3516021db34"}}]}