{"resourceType":"Bundle","id":"tests-96cfe7f0-b4e1-4e2e-a48d-ef64fb64343d-bundle","type":"transaction","entry":[{"fullUrl":"Bundle/Patient-20-DENEXPass-HospiceObsIsYes","resource":{"resourceType":"Bundle","id":"Patient-20-DENEXPass-HospiceObsIsYes","type":"transaction","entry":[{"fullUrl":"https://madie.cms.gov/Patient/96cfe7f0-b4e1-4e2e-a48d-ef64fb64343d","resource":{"resourceType":"Patient","id":"96cfe7f0-b4e1-4e2e-a48d-ef64fb64343d","meta":{"profile":["http://hl7.org/fhir/us/qicore/StructureDefinition/qicore-patient"]},"extension":[{"url":"http://hl7.org/fhir/us/core/StructureDefinition/us-core-race","extension":[{"url":"ombCategory","valueCoding":{"system":"urn:oid:2.16.840.1.113883.6.238","code":"2028-9","display":"Asian"}},{"url":"text","valueString":"Asian"}]},{"url":"http://hl7.org/fhir/us/core/StructureDefinition/us-core-ethnicity","extension":[{"url":"ombCategory","valueCoding":{"system":"urn:oid:2.16.840.1.113883.6.238","code":"2135-2","display":"Hispanic or Latino"}},{"url":"text","valueString":"Hispanic or Latino"}]}],"identifier":[{"system":"http://hospital.smarthealthit.org","value":"999999995"}],"name":[{"family":"Bertha","given":["Betty"]}],"gender":"female","birthDate":"2007-01-01"},"request":{"method":"PUT","url":"Patient/96cfe7f0-b4e1-4e2e-a48d-ef64fb64343d"}},{"fullUrl":"https://madie.cms.gov/Encounter/647d4440-1b33-49c1-9368-d4f0e27d43ca","resource":{"resourceType":"Encounter","id":"647d4440-1b33-49c1-9368-d4f0e27d43ca","meta":{"profile":["http://hl7.org/fhir/us/qicore/StructureDefinition/qicore-encounter"]},"status":"finished","class":{"system":"http://terminology.hl7.org/CodeSystem/v3-ActCode","code":"AMB","display":"ambulatory"},"type":[{"coding":[{"system":"http://snomed.info/sct","code":"185460008","display":"Home visit request by patient (procedure)"}]}],"subject":{"reference":"Patient/96cfe7f0-b4e1-4e2e-a48d-ef64fb64343d"},"period":{"start":"2026-01-01T00:00:00.000+00:00","end":"2026-01-01T00:15:00.000+00:00"}},"request":{"method":"PUT","url":"Encounter/647d4440-1b33-49c1-9368-d4f0e27d43ca"}},{"fullUrl":"https://madie.cms.gov/Condition/a07987a4-7479-48fe-91a5-e3193faa6b7e","resource":{"resourceType":"Condition","id":"a07987a4-7479-48fe-91a5-e3193faa6b7e","meta":{"profile":["http://hl7.org/fhir/us/qicore/StructureDefinition/qicore-condition-encounter-diagnosis"]},"clinicalStatus":{"coding":[{"system":"http://terminology.hl7.org/CodeSystem/condition-clinical","code":"active"}]},"category":[{"coding":[{"system":"http://terminology.hl7.org/CodeSystem/condition-category","code":"encounter-diagnosis","display":"Encounter Diagnosis"}]}],"code":{"coding":[{"system":"http://snomed.info/sct","code":"102781000119107","display":"Sensory neuropathy due to type 1 diabetes mellitus (disorder)"}]},"subject":{"reference":"Patient/96cfe7f0-b4e1-4e2e-a48d-ef64fb64343d"},"onsetDateTime":"2026-01-01T23:59:00.000+00:00"},"request":{"method":"PUT","url":"Condition/a07987a4-7479-48fe-91a5-e3193faa6b7e"}},{"fullUrl":"https://madie.cms.gov/Observation/2053deac-2793-4987-8b9a-86472bc46317","resource":{"resourceType":"Observation","id":"2053deac-2793-4987-8b9a-86472bc46317","meta":{"profile":["http://hl7.org/fhir/us/qicore/StructureDefinition/qicore-observation-screening-assessment"]},"status":"final","category":[{"coding":[{"system":"http://terminology.hl7.org/CodeSystem/observation-category","code":"survey"}]}],"code":{"coding":[{"system":"http://loinc.org","code":"45755-6","display":"Hospice care [Minimum Data Set]"}]},"subject":{"reference":"Patient/96cfe7f0-b4e1-4e2e-a48d-ef64fb64343d"},"effectivePeriod":{"start":"2024-12-31T00:00:00.000+00:00","end":"2026-01-01T00:00:00.000+00:00"},"valueCodeableConcept":{"coding":[{"system":"http://snomed.info/sct","code":"373066001","display":"Yes (qualifier value)"}]}},"request":{"method":"PUT","url":"Observation/2053deac-2793-4987-8b9a-86472bc46317"}},{"fullUrl":"https://madie.cms.gov/MeasureReport/47d8314c-5954-4ee8-9a40-ca4a1843a87f","resource":{"resourceType":"MeasureReport","id":"47d8314c-5954-4ee8-9a40-ca4a1843a87f","meta":{"profile":["http://hl7.org/fhir/us/cqfmeasures/StructureDefinition/test-case-cqfm"]},"contained":[{"resourceType":"Parameters","id":"bbf72542-bc81-4626-81e4-d5e55f3d0aae-parameters","parameter":[{"name":"subject","valueString":"96cfe7f0-b4e1-4e2e-a48d-ef64fb64343d"}]}],"extension":[{"url":"http://hl7.org/fhir/StructureDefinition/cqf-inputParameters","valueReference":{"reference":"#bbf72542-bc81-4626-81e4-d5e55f3d0aae-parameters"}},{"url":"http://hl7.org/fhir/us/cqfmeasures/StructureDefinition/cqfm-testCaseDescription","valueMarkdown":"Hospice observation is yes"}],"modifierExtension":[{"url":"http://hl7.org/fhir/us/cqfmeasures/StructureDefinition/cqfm-isTestCase","valueBoolean":true}],"status":"complete","type":"individual","measure":"https://madie.cms.gov/Measure/CMS122FHIRDiabetesAssessGreaterThan9Percent","period":{"start":"2026-01-01","end":"2026-12-31"},"group":[{"id":"Group_1","population":[{"id":"InitialPopulation_1","code":{"coding":[{"system":"http://terminology.hl7.org/CodeSystem/measure-population","code":"initial-population","display":"Initial Population"}]},"count":1},{"id":"Denominator_1","code":{"coding":[{"system":"http://terminology.hl7.org/CodeSystem/measure-population","code":"denominator","display":"Denominator"}]},"count":1},{"id":"DenominatorExclusion_1","code":{"coding":[{"system":"http://terminology.hl7.org/CodeSystem/measure-population","code":"denominator-exclusion","display":"Denominator Exclusion"}]},"count":1},{"id":"Numerator_1","code":{"coding":[{"system":"http://terminology.hl7.org/CodeSystem/measure-population","code":"numerator","display":"Numerator"}]},"count":0}],"measureScore":{"value":1.0}}],"evaluatedResource":[{"reference":"Patient/96cfe7f0-b4e1-4e2e-a48d-ef64fb64343d"},{"reference":"Encounter/647d4440-1b33-49c1-9368-d4f0e27d43ca"},{"reference":"Condition/a07987a4-7479-48fe-91a5-e3193faa6b7e"},{"reference":"Observation/2053deac-2793-4987-8b9a-86472bc46317"}]},"request":{"method":"PUT","url":"MeasureReport/47d8314c-5954-4ee8-9a40-ca4a1843a87f"}}]},"request":{"method":"PUT","url":"Bundle/Patient-20-DENEXPass-HospiceObsIsYes"}},{"fullUrl":"Observation/2053deac-2793-4987-8b9a-86472bc46317","resource":{"resourceType":"Observation","id":"2053deac-2793-4987-8b9a-86472bc46317","meta":{"profile":["http://hl7.org/fhir/us/qicore/StructureDefinition/qicore-observation-screening-assessment"]},"status":"final","category":[{"coding":[{"system":"http://terminology.hl7.org/CodeSystem/observation-category","code":"survey"}]}],"code":{"coding":[{"system":"http://loinc.org","code":"45755-6","display":"Hospice care [Minimum Data Set]"}]},"subject":{"reference":"Patient/96cfe7f0-b4e1-4e2e-a48d-ef64fb64343d"},"effectivePeriod":{"start":"2024-12-31T00:00:00.000+00:00","end":"2026-01-01T00:00:00.000+00:00"},"valueCodeableConcept":{"coding":[{"system":"http://snomed.info/sct","code":"373066001","display":"Yes (qualifier value)"}]}},"request":{"method":"PUT","url":"Observation/2053deac-2793-4987-8b9a-86472bc46317"}},{"fullUrl":"Encounter/647d4440-1b33-49c1-9368-d4f0e27d43ca","resource":{"resourceType":"Encounter","id":"647d4440-1b33-49c1-9368-d4f0e27d43ca","meta":{"profile":["http://hl7.org/fhir/us/qicore/StructureDefinition/qicore-encounter"]},"status":"finished","class":{"system":"http://terminology.hl7.org/CodeSystem/v3-ActCode","code":"AMB","display":"ambulatory"},"type":[{"coding":[{"system":"http://snomed.info/sct","code":"185460008","display":"Home visit request by patient (procedure)"}]}],"subject":{"reference":"Patient/96cfe7f0-b4e1-4e2e-a48d-ef64fb64343d"},"period":{"start":"2026-01-01T00:00:00.000+00:00","end":"2026-01-01T00:15:00.000+00:00"}},"request":{"method":"PUT","url":"Encounter/647d4440-1b33-49c1-9368-d4f0e27d43ca"}},{"fullUrl":"Condition/a07987a4-7479-48fe-91a5-e3193faa6b7e","resource":{"resourceType":"Condition","id":"a07987a4-7479-48fe-91a5-e3193faa6b7e","meta":{"profile":["http://hl7.org/fhir/us/qicore/StructureDefinition/qicore-condition-encounter-diagnosis"]},"clinicalStatus":{"coding":[{"system":"http://terminology.hl7.org/CodeSystem/condition-clinical","code":"active"}]},"category":[{"coding":[{"system":"http://terminology.hl7.org/CodeSystem/condition-category","code":"encounter-diagnosis","display":"Encounter Diagnosis"}]}],"code":{"coding":[{"system":"http://snomed.info/sct","code":"102781000119107","display":"Sensory neuropathy due to type 1 diabetes mellitus (disorder)"}]},"subject":{"reference":"Patient/96cfe7f0-b4e1-4e2e-a48d-ef64fb64343d"},"onsetDateTime":"2026-01-01T23:59:00.000+00:00"},"request":{"method":"PUT","url":"Condition/a07987a4-7479-48fe-91a5-e3193faa6b7e"}},{"fullUrl":"Patient/96cfe7f0-b4e1-4e2e-a48d-ef64fb64343d","resource":{"resourceType":"Patient","id":"96cfe7f0-b4e1-4e2e-a48d-ef64fb64343d","meta":{"profile":["http://hl7.org/fhir/us/qicore/StructureDefinition/qicore-patient"]},"extension":[{"url":"http://hl7.org/fhir/us/core/StructureDefinition/us-core-race","extension":[{"url":"ombCategory","valueCoding":{"system":"urn:oid:2.16.840.1.113883.6.238","code":"2028-9","display":"Asian"}},{"url":"text","valueString":"Asian"}]},{"url":"http://hl7.org/fhir/us/core/StructureDefinition/us-core-ethnicity","extension":[{"url":"ombCategory","valueCoding":{"system":"urn:oid:2.16.840.1.113883.6.238","code":"2135-2","display":"Hispanic or Latino"}},{"url":"text","valueString":"Hispanic or Latino"}]}],"identifier":[{"system":"http://hospital.smarthealthit.org","value":"999999995"}],"name":[{"family":"Bertha","given":["Betty"]}],"gender":"female","birthDate":"2007-01-01"},"request":{"method":"PUT","url":"Patient/96cfe7f0-b4e1-4e2e-a48d-ef64fb64343d"}},{"fullUrl":"MeasureReport/47d8314c-5954-4ee8-9a40-ca4a1843a87f","resource":{"resourceType":"MeasureReport","id":"47d8314c-5954-4ee8-9a40-ca4a1843a87f","meta":{"profile":["http://hl7.org/fhir/us/cqfmeasures/StructureDefinition/test-case-cqfm"]},"contained":[{"resourceType":"Parameters","id":"bbf72542-bc81-4626-81e4-d5e55f3d0aae-parameters","parameter":[{"name":"subject","valueString":"96cfe7f0-b4e1-4e2e-a48d-ef64fb64343d"}]}],"extension":[{"url":"http://hl7.org/fhir/StructureDefinition/cqf-inputParameters","valueReference":{"reference":"#bbf72542-bc81-4626-81e4-d5e55f3d0aae-parameters"}},{"url":"http://hl7.org/fhir/us/cqfmeasures/StructureDefinition/cqfm-testCaseDescription","valueMarkdown":"Hospice observation is yes"}],"modifierExtension":[{"url":"http://hl7.org/fhir/us/cqfmeasures/StructureDefinition/cqfm-isTestCase","valueBoolean":true}],"status":"complete","type":"individual","measure":"https://madie.cms.gov/Measure/CMS122FHIRDiabetesAssessGreaterThan9Percent","period":{"start":"2026-01-01","end":"2026-12-31"},"group":[{"id":"Group_1","population":[{"id":"InitialPopulation_1","code":{"coding":[{"system":"http://terminology.hl7.org/CodeSystem/measure-population","code":"initial-population","display":"Initial Population"}]},"count":1},{"id":"Denominator_1","code":{"coding":[{"system":"http://terminology.hl7.org/CodeSystem/measure-population","code":"denominator","display":"Denominator"}]},"count":1},{"id":"DenominatorExclusion_1","code":{"coding":[{"system":"http://terminology.hl7.org/CodeSystem/measure-population","code":"denominator-exclusion","display":"Denominator Exclusion"}]},"count":1},{"id":"Numerator_1","code":{"coding":[{"system":"http://terminology.hl7.org/CodeSystem/measure-population","code":"numerator","display":"Numerator"}]},"count":0}],"measureScore":{"value":1.0}}],"evaluatedResource":[{"reference":"Patient/96cfe7f0-b4e1-4e2e-a48d-ef64fb64343d"},{"reference":"Encounter/647d4440-1b33-49c1-9368-d4f0e27d43ca"},{"reference":"Condition/a07987a4-7479-48fe-91a5-e3193faa6b7e"},{"reference":"Observation/2053deac-2793-4987-8b9a-86472bc46317"}]},"request":{"method":"PUT","url":"MeasureReport/47d8314c-5954-4ee8-9a40-ca4a1843a87f"}}]}