{
  "resourceType": "Bundle",
  "id": "612e6b9302c62a011f2ee63c",
  "type": "transaction",
  "entry": [ {
    "fullUrl": "https://madie.cms.gov/Patient/8ec9cf6a-2dcd-4c2e-9e2e-1ba237b66808",
    "resource": {
      "resourceType": "Patient",
      "id": "8ec9cf6a-2dcd-4c2e-9e2e-1ba237b66808",
      "meta": {
        "profile": [ "http://hl7.org/fhir/us/qicore/StructureDefinition/qicore-patient" ]
      },
      "text": {
        "status": "generated",
        "div": "<div xmlns=\"http://www.w3.org/1999/xhtml\"><div class=\"hapiHeaderText\">PtRefDOIPC2DayAFEncBFICU <b>NUMERPASS </b></div><table class=\"hapiPropertyTable\"><tbody><tr><td>Identifier</td><td>24fc1ce85ce14557dd4d9eba17df9f17</td></tr><tr><td>Date of birth</td><td><span>02 January 1974</span></td></tr></tbody></table></div>"
      },
      "extension": [ {
        "url": "http://hl7.org/fhir/us/core/StructureDefinition/us-core-race",
        "extension": [ {
          "url": "ombCategory",
          "valueCoding": {
            "system": "urn:oid:2.16.840.1.113883.6.238",
            "code": "1002-5",
            "display": "American Indian or Alaska Native",
            "userSelected": true
          }
        }, {
          "url": "text",
          "valueString": "American Indian or Alaska Native"
        } ]
      }, {
        "url": "http://hl7.org/fhir/us/core/StructureDefinition/us-core-ethnicity",
        "extension": [ {
          "url": "ombCategory",
          "valueCoding": {
            "system": "urn:oid:2.16.840.1.113883.6.238",
            "code": "2135-2",
            "display": "Hispanic or Latino",
            "userSelected": true
          }
        }, {
          "url": "text",
          "valueString": "Hispanic or Latino"
        } ]
      } ],
      "identifier": [ {
        "type": {
          "coding": [ {
            "system": "http://terminology.hl7.org/CodeSystem/v2-0203",
            "code": "MR"
          } ]
        },
        "system": "https://bonnie-fhir.healthit.gov/",
        "value": "612e6b9302c62a011f2ee63c"
      } ],
      "active": true,
      "name": [ {
        "use": "usual",
        "family": "NUMERPass",
        "given": [ "PtRefDOIPCTaskReject" ]
      } ],
      "gender": "male",
      "birthDate": "1975-01-02"
    },
    "request": {
      "method": "PUT",
      "url": "Patient/8ec9cf6a-2dcd-4c2e-9e2e-1ba237b66808"
    }
  }, {
    "fullUrl": "https://madie.cms.gov/Encounter/b4b3d9a5-13a5-4397-8c2a-9303a7fb5b33",
    "resource": {
      "resourceType": "Encounter",
      "id": "b4b3d9a5-13a5-4397-8c2a-9303a7fb5b33",
      "meta": {
        "profile": [ "http://hl7.org/fhir/us/qicore/StructureDefinition/qicore-encounter" ]
      },
      "status": "finished",
      "class": {
        "system": "http://terminology.hl7.org/CodeSystem/v3-ActCode",
        "code": "IMP",
        "display": "inpatient encounter"
      },
      "type": [ {
        "coding": [ {
          "system": "http://snomed.info/sct",
          "code": "8715000"
        } ]
      } ],
      "subject": {
        "reference": "Patient/8ec9cf6a-2dcd-4c2e-9e2e-1ba237b66808"
      },
      "period": {
        "start": "2026-11-01T08:00:00Z",
        "end": "2026-11-26T08:15:00.000+00:00"
      },
      "length": {
        "value": 25,
        "unit": "days"
      },
      "location": [ {
        "location": {
          "reference": "Location/d3540258-e624-4d35-a634-6cf253f1e599"
        },
        "period": {
          "start": "2026-11-04T09:00:00Z",
          "end": "2026-11-06T08:15:00.000+00:00"
        }
      } ]
    },
    "request": {
      "method": "PUT",
      "url": "Encounter/b4b3d9a5-13a5-4397-8c2a-9303a7fb5b33"
    }
  }, {
    "fullUrl": "https://madie.cms.gov/Coverage/48851a95-9ff3-4e2f-8547-4a0660a9c9dc",
    "resource": {
      "resourceType": "Coverage",
      "id": "48851a95-9ff3-4e2f-8547-4a0660a9c9dc",
      "status": "active",
      "beneficiary": {
        "reference": "Patient/8ec9cf6a-2dcd-4c2e-9e2e-1ba237b66808"
      },
      "period": {
        "start": "1975-01-02T08:00:00Z"
      },
      "payor": [ {
        "reference": "Organization/e1493ce1-1a7e-4816-882f-130d28f68c60"
      } ]
    },
    "request": {
      "method": "PUT",
      "url": "Coverage/48851a95-9ff3-4e2f-8547-4a0660a9c9dc"
    }
  }, {
    "fullUrl": "https://madie.cms.gov/ServiceRequest/48f6e318-adff-4c6a-80d0-d0ab94ece95a",
    "resource": {
      "resourceType": "ServiceRequest",
      "id": "48f6e318-adff-4c6a-80d0-d0ab94ece95a",
      "meta": {
        "profile": [ "http://hl7.org/fhir/us/qicore/StructureDefinition/qicore-servicerequest" ]
      },
      "status": "active",
      "intent": "order",
      "code": {
        "coding": [ {
          "system": "http://snomed.info/sct",
          "code": "428411000124104",
          "display": "Intermittent pneumatic compression boot (physical object)",
          "userSelected": true
        } ]
      },
      "subject": {
        "reference": "Patient/8ec9cf6a-2dcd-4c2e-9e2e-1ba237b66808"
      },
      "authoredOn": "2026-11-03T11:00:00Z"
    },
    "request": {
      "method": "PUT",
      "url": "ServiceRequest/48f6e318-adff-4c6a-80d0-d0ab94ece95a"
    }
  }, {
    "fullUrl": "https://madie.cms.gov/Task/d3037b0d-b29e-4753-ab55-9fa51e4cef5c",
    "resource": {
      "resourceType": "Task",
      "id": "d3037b0d-b29e-4753-ab55-9fa51e4cef5c",
      "meta": {
        "profile": [ "http://hl7.org/fhir/us/qicore/StructureDefinition/qicore-taskrejected" ]
      },
      "status": "rejected",
      "statusReason": {
        "coding": [ {
          "system": "http://snomed.info/sct",
          "code": "443390004",
          "display": "Refusal of treatment by patient (situation)",
          "userSelected": true
        } ]
      },
      "code": {
        "coding": [ {
          "system": "http://hl7.org/fhir/CodeSystem/task-code",
          "code": "fulfill"
        } ]
      },
      "focus": {
        "reference": "ServiceRequest/48f6e318-adff-4c6a-80d0-d0ab94ece95a"
      },
      "executionPeriod": {
        "start": "2026-11-03T19:00:00Z",
        "end": "2026-11-03T19:00:00.000+00:00"
      }
    },
    "request": {
      "method": "PUT",
      "url": "Task/d3037b0d-b29e-4753-ab55-9fa51e4cef5c"
    }
  }, {
    "fullUrl": "https://madie.cms.gov/Location/d3540258-e624-4d35-a634-6cf253f1e599",
    "resource": {
      "resourceType": "Location",
      "id": "d3540258-e624-4d35-a634-6cf253f1e599",
      "meta": {
        "profile": [ "http://hl7.org/fhir/us/qicore/StructureDefinition/qicore-location" ]
      },
      "identifier": [ {
        "use": "usual",
        "system": "http://exampleoflocation.com",
        "value": "B1-S.F2"
      } ],
      "name": "Medical Surgical East, first floor",
      "type": [ {
        "coding": [ {
          "system": "https://www.cdc.gov/nhsn/cdaportal/terminology/codesystem/hsloc.html",
          "code": "1025-6",
          "display": "Trauma Critical Care",
          "userSelected": true
        } ]
      } ]
    },
    "request": {
      "method": "PUT",
      "url": "Location/d3540258-e624-4d35-a634-6cf253f1e599"
    }
  }, {
    "fullUrl": "https://madie.cms.gov/Organization/e1493ce1-1a7e-4816-882f-130d28f68c60",
    "resource": {
      "resourceType": "Organization",
      "id": "e1493ce1-1a7e-4816-882f-130d28f68c60",
      "meta": {
        "profile": [ "http://hl7.org/fhir/us/qicore/StructureDefinition/qicore-organization" ]
      },
      "identifier": [ {
        "use": "temp",
        "system": "urn:oid:2.16.840.1.113883.4.4",
        "value": "21-3259825"
      } ],
      "active": true,
      "type": [ {
        "coding": [ {
          "system": "http://terminology.hl7.org/CodeSystem/organization-type",
          "code": "pay",
          "display": "Payer"
        } ]
      } ],
      "name": "Blue Cross Blue Shield of Texas",
      "telecom": [ {
        "system": "phone",
        "value": "(+1) 972-766-6900"
      } ],
      "address": [ {
        "use": "billing",
        "type": "postal",
        "line": [ "P.O. Box 660044" ],
        "city": "Dallas",
        "state": "TX",
        "postalCode": "75266-0044",
        "country": "USA"
      } ]
    },
    "request": {
      "method": "PUT",
      "url": "Organization/e1493ce1-1a7e-4816-882f-130d28f68c60"
    }
  }, {
    "fullUrl": "https://madie.cms.gov/Practitioner/1aa1ce98-70a7-4089-91de-5205a217c27a",
    "resource": {
      "resourceType": "Practitioner",
      "id": "1aa1ce98-70a7-4089-91de-5205a217c27a",
      "identifier": [ {
        "system": "http://hl7.org/fhir/sid/us-npi",
        "value": "123456"
      } ],
      "name": [ {
        "family": "Evil",
        "prefix": [ "Dr" ]
      } ]
    },
    "request": {
      "method": "PUT",
      "url": "Practitioner/1aa1ce98-70a7-4089-91de-5205a217c27a"
    }
  }, {
    "fullUrl": "https://madie.cms.gov/MeasureReport/7788bab8-1fd9-4eaf-85e8-09f47f8660ad",
    "resource": {
      "resourceType": "MeasureReport",
      "id": "7788bab8-1fd9-4eaf-85e8-09f47f8660ad",
      "meta": {
        "profile": [ "http://hl7.org/fhir/us/cqfmeasures/StructureDefinition/test-case-cqfm" ]
      },
      "contained": [ {
        "resourceType": "Parameters",
        "id": "764370d1-51ad-422f-97db-11dc8f5246ab-parameters",
        "parameter": [ {
          "name": "subject",
          "valueString": "8ec9cf6a-2dcd-4c2e-9e2e-1ba237b66808"
        } ]
      } ],
      "extension": [ {
        "url": "http://hl7.org/fhir/StructureDefinition/cqf-inputParameters",
        "valueReference": {
          "reference": "#764370d1-51ad-422f-97db-11dc8f5246ab-parameters"
        }
      }, {
        "url": "http://hl7.org/fhir/us/cqfmeasures/StructureDefinition/cqfm-testCaseDescription",
        "valueMarkdown": "meets IPP, meets Denominator, IPC ordered not done under TaskReject\n"
      } ],
      "modifierExtension": [ {
        "url": "http://hl7.org/fhir/us/cqfmeasures/StructureDefinition/cqfm-isTestCase",
        "valueBoolean": true
      } ],
      "status": "complete",
      "type": "individual",
      "measure": "https://madie.cms.gov/Measure/CMS190VTEProphylaxisICUFHIR",
      "period": {
        "start": "2026-01-01",
        "end": "2026-12-31"
      },
      "group": [ {
        "id": "Group_1",
        "population": [ {
          "id": "InitialPopulation_1",
          "code": {
            "coding": [ {
              "system": "http://terminology.hl7.org/CodeSystem/measure-population",
              "code": "initial-population",
              "display": "Initial Population"
            } ]
          },
          "count": 1
        }, {
          "id": "Denominator_1",
          "code": {
            "coding": [ {
              "system": "http://terminology.hl7.org/CodeSystem/measure-population",
              "code": "denominator",
              "display": "Denominator"
            } ]
          },
          "count": 1
        }, {
          "id": "DenominatorExclusion_1",
          "code": {
            "coding": [ {
              "system": "http://terminology.hl7.org/CodeSystem/measure-population",
              "code": "denominator-exclusion",
              "display": "Denominator Exclusion"
            } ]
          },
          "count": 0
        }, {
          "id": "Numerator_1",
          "code": {
            "coding": [ {
              "system": "http://terminology.hl7.org/CodeSystem/measure-population",
              "code": "numerator",
              "display": "Numerator"
            } ]
          },
          "count": 1
        }, {
          "id": "DenominatorException_1",
          "code": {
            "coding": [ {
              "system": "http://terminology.hl7.org/CodeSystem/measure-population",
              "code": "denominator-exception",
              "display": "Denominator Exception"
            } ]
          },
          "count": 0
        } ],
        "measureScore": {
          "value": 0.0
        }
      } ],
      "evaluatedResource": [ {
        "reference": "Patient/8ec9cf6a-2dcd-4c2e-9e2e-1ba237b66808"
      }, {
        "reference": "Encounter/b4b3d9a5-13a5-4397-8c2a-9303a7fb5b33"
      }, {
        "reference": "Coverage/48851a95-9ff3-4e2f-8547-4a0660a9c9dc"
      }, {
        "reference": "ServiceRequest/48f6e318-adff-4c6a-80d0-d0ab94ece95a"
      }, {
        "reference": "Task/d3037b0d-b29e-4753-ab55-9fa51e4cef5c"
      }, {
        "reference": "Location/d3540258-e624-4d35-a634-6cf253f1e599"
      }, {
        "reference": "Organization/e1493ce1-1a7e-4816-882f-130d28f68c60"
      }, {
        "reference": "Practitioner/1aa1ce98-70a7-4089-91de-5205a217c27a"
      } ]
    },
    "request": {
      "method": "PUT",
      "url": "MeasureReport/7788bab8-1fd9-4eaf-85e8-09f47f8660ad"
    }
  } ]
}