{
  "resourceType": "Bundle",
  "id": "633b3f9e0968f80122503cc1",
  "type": "transaction",
  "entry": [ {
    "fullUrl": "https://madie.cms.gov/Patient/85df5030-f3f8-46d5-a3d3-9461e90ebc0c",
    "resource": {
      "resourceType": "Patient",
      "id": "85df5030-f3f8-46d5-a3d3-9461e90ebc0c",
      "meta": {
        "profile": [ "http://hl7.org/fhir/us/qicore/StructureDefinition/qicore-patient" ]
      },
      "text": {
        "status": "generated",
        "div": "<div xmlns=\"http://www.w3.org/1999/xhtml\"><div class=\"hapiHeaderText\">EncEndMPEndPlus1Minute<b>IPFAIL</b></div><table class=\"hapiPropertyTable\"><tbody><tr><td>Date of birth</td><td><span>31 January 2004</span></td></tr></tbody></table></div>"
      },
      "extension": [ {
        "url": "http://hl7.org/fhir/us/core/StructureDefinition/us-core-race",
        "extension": [ {
          "url": "ombCategory",
          "valueCoding": {
            "system": "urn:oid:2.16.840.1.113883.6.238",
            "code": "1002-5",
            "display": "American Indian or Alaska Native",
            "userSelected": true
          }
        }, {
          "url": "text",
          "valueString": "American Indian or Alaska Native"
        } ]
      }, {
        "url": "http://hl7.org/fhir/us/core/StructureDefinition/us-core-ethnicity",
        "extension": [ {
          "url": "ombCategory",
          "valueCoding": {
            "system": "urn:oid:2.16.840.1.113883.6.238",
            "code": "2135-2",
            "display": "Hispanic or Latino",
            "userSelected": true
          }
        }, {
          "url": "text",
          "valueString": "Hispanic or Latino"
        } ]
      } ],
      "identifier": [ {
        "type": {
          "coding": [ {
            "system": "http://terminology.hl7.org/CodeSystem/v2-0203",
            "code": "MR"
          } ]
        },
        "system": "https://bonnie-fhir.healthit.gov/",
        "value": "633b3f9e0968f80122503cc1"
      } ],
      "active": true,
      "name": [ {
        "use": "usual",
        "family": "IPFail",
        "given": [ "EncEndMPEndPlus1Minute" ]
      } ],
      "gender": "female",
      "birthDate": "2005-01-31"
    },
    "request": {
      "method": "PUT",
      "url": "Patient/85df5030-f3f8-46d5-a3d3-9461e90ebc0c"
    }
  }, {
    "fullUrl": "https://madie.cms.gov/Encounter/c859c7a6-f5ea-4067-bc97-6fe9aecfb0c5",
    "resource": {
      "resourceType": "Encounter",
      "id": "c859c7a6-f5ea-4067-bc97-6fe9aecfb0c5",
      "meta": {
        "profile": [ "http://hl7.org/fhir/us/qicore/StructureDefinition/qicore-encounter" ]
      },
      "status": "finished",
      "class": {
        "system": "http://terminology.hl7.org/CodeSystem/v3-ActCode",
        "code": "IMP",
        "display": "inpatient encounter"
      },
      "type": [ {
        "coding": [ {
          "system": "http://snomed.info/sct",
          "code": "183452005"
        } ]
      } ],
      "subject": {
        "reference": "Patient/85df5030-f3f8-46d5-a3d3-9461e90ebc0c"
      },
      "period": {
        "start": "2026-02-01T08:00:00Z",
        "end": "2027-01-01T00:00:00.000+00:00"
      }
    },
    "request": {
      "method": "PUT",
      "url": "Encounter/c859c7a6-f5ea-4067-bc97-6fe9aecfb0c5"
    }
  }, {
    "fullUrl": "https://madie.cms.gov/Procedure/352c1077-5ef6-47ab-b218-55e817464d2e",
    "resource": {
      "resourceType": "Procedure",
      "id": "352c1077-5ef6-47ab-b218-55e817464d2e",
      "meta": {
        "profile": [ "http://hl7.org/fhir/us/qicore/StructureDefinition/qicore-procedure" ]
      },
      "extension": [ {
        "url": "http://hl7.org/fhir/us/qicore/StructureDefinition/qicore-recorded",
        "valueDateTime": "2014-04-05T13:35:00Z"
      } ],
      "status": "completed",
      "code": {
        "coding": [ {
          "system": "http://snomed.info/sct",
          "code": "10745001"
        } ]
      },
      "subject": {
        "reference": "Patient/85df5030-f3f8-46d5-a3d3-9461e90ebc0c"
      },
      "performedPeriod": {
        "start": "2026-02-01T08:00:00Z",
        "end": "2026-02-05T08:15:00.000+00:00"
      }
    },
    "request": {
      "method": "PUT",
      "url": "Procedure/352c1077-5ef6-47ab-b218-55e817464d2e"
    }
  }, {
    "fullUrl": "https://madie.cms.gov/Coverage/7a6a05b3-4903-432e-8c96-43ba3b5253bd",
    "resource": {
      "resourceType": "Coverage",
      "id": "7a6a05b3-4903-432e-8c96-43ba3b5253bd",
      "meta": {
        "profile": [ "http://hl7.org/fhir/us/qicore/StructureDefinition/qicore-coverage" ]
      },
      "status": "active",
      "beneficiary": {
        "reference": "Patient/85df5030-f3f8-46d5-a3d3-9461e90ebc0c"
      },
      "payor": [ {
        "reference": "Organization/d126ad70-44a1-4eee-af19-71d0f9d9e575"
      } ]
    },
    "request": {
      "method": "PUT",
      "url": "Coverage/7a6a05b3-4903-432e-8c96-43ba3b5253bd"
    }
  }, {
    "fullUrl": "https://madie.cms.gov/Organization/d126ad70-44a1-4eee-af19-71d0f9d9e575",
    "resource": {
      "resourceType": "Organization",
      "id": "d126ad70-44a1-4eee-af19-71d0f9d9e575",
      "meta": {
        "profile": [ "http://hl7.org/fhir/us/qicore/StructureDefinition/qicore-organization" ]
      },
      "identifier": [ {
        "use": "temp",
        "system": "urn:oid:2.16.840.1.113883.4.4",
        "value": "21-3259825"
      } ],
      "active": true,
      "type": [ {
        "coding": [ {
          "system": "http://terminology.hl7.org/CodeSystem/organization-type",
          "code": "pay",
          "display": "Payer"
        } ]
      } ],
      "name": "Blue Cross Blue Shield of Texas",
      "telecom": [ {
        "system": "phone",
        "value": "(+1) 972-766-6900"
      } ],
      "address": [ {
        "use": "billing",
        "type": "postal",
        "line": [ "P.O. Box 660044" ],
        "city": "Dallas",
        "state": "TX",
        "postalCode": "75266-0044",
        "country": "USA"
      } ]
    },
    "request": {
      "method": "PUT",
      "url": "Organization/d126ad70-44a1-4eee-af19-71d0f9d9e575"
    }
  }, {
    "fullUrl": "https://madie.cms.gov/Practitioner/8137fe55-8d1d-4262-91fc-c76556b6201d",
    "resource": {
      "resourceType": "Practitioner",
      "id": "8137fe55-8d1d-4262-91fc-c76556b6201d",
      "identifier": [ {
        "system": "http://hl7.org/fhir/sid/us-npi",
        "value": "123456"
      } ],
      "name": [ {
        "family": "Evil",
        "prefix": [ "Dr" ]
      } ]
    },
    "request": {
      "method": "PUT",
      "url": "Practitioner/8137fe55-8d1d-4262-91fc-c76556b6201d"
    }
  }, {
    "fullUrl": "https://madie.cms.gov/MeasureReport/b4df7b67-7c85-4e4a-b6f5-1d1c1a59a6b4",
    "resource": {
      "resourceType": "MeasureReport",
      "id": "b4df7b67-7c85-4e4a-b6f5-1d1c1a59a6b4",
      "meta": {
        "profile": [ "http://hl7.org/fhir/us/cqfmeasures/StructureDefinition/test-case-cqfm" ]
      },
      "contained": [ {
        "resourceType": "Parameters",
        "id": "1bf55052-6a05-411c-a7d4-51882bbc900e-parameters",
        "parameter": [ {
          "name": "subject",
          "valueString": "85df5030-f3f8-46d5-a3d3-9461e90ebc0c"
        } ]
      } ],
      "extension": [ {
        "url": "http://hl7.org/fhir/StructureDefinition/cqf-inputParameters",
        "valueReference": {
          "reference": "#1bf55052-6a05-411c-a7d4-51882bbc900e-parameters"
        }
      }, {
        "url": "http://hl7.org/fhir/us/cqfmeasures/StructureDefinition/cqfm-testCaseDescription",
        "valueMarkdown": "Encounter end equals  measurement period end plus one minute.\n"
      } ],
      "modifierExtension": [ {
        "url": "http://hl7.org/fhir/us/cqfmeasures/StructureDefinition/cqfm-isTestCase",
        "valueBoolean": true
      } ],
      "status": "complete",
      "type": "individual",
      "measure": "https://madie.cms.gov/Measure/CMS1028FHIRPCSevereOBComps",
      "period": {
        "start": "2026-01-01",
        "end": "2026-12-31"
      },
      "group": [ {
        "id": "Group_1",
        "population": [ {
          "id": "InitialPopulation_1",
          "code": {
            "coding": [ {
              "system": "http://terminology.hl7.org/CodeSystem/measure-population",
              "code": "initial-population",
              "display": "Initial Population"
            } ]
          },
          "count": 0
        }, {
          "id": "Denominator_1",
          "code": {
            "coding": [ {
              "system": "http://terminology.hl7.org/CodeSystem/measure-population",
              "code": "denominator",
              "display": "Denominator"
            } ]
          },
          "count": 0
        }, {
          "id": "Numerator_1",
          "code": {
            "coding": [ {
              "system": "http://terminology.hl7.org/CodeSystem/measure-population",
              "code": "numerator",
              "display": "Numerator"
            } ]
          },
          "count": 0
        }, {
          "id": "NumeratorExclusion_1",
          "code": {
            "coding": [ {
              "system": "http://terminology.hl7.org/CodeSystem/measure-population",
              "code": "numerator-exclusion",
              "display": "Numerator Exclusion"
            } ]
          },
          "count": 0
        } ],
        "measureScore": {
          "value": 0.0
        }
      }, {
        "id": "Group_2",
        "population": [ {
          "id": "InitialPopulation_2",
          "code": {
            "coding": [ {
              "system": "http://terminology.hl7.org/CodeSystem/measure-population",
              "code": "initial-population",
              "display": "Initial Population"
            } ]
          },
          "count": 0
        }, {
          "id": "Denominator_2",
          "code": {
            "coding": [ {
              "system": "http://terminology.hl7.org/CodeSystem/measure-population",
              "code": "denominator",
              "display": "Denominator"
            } ]
          },
          "count": 0
        }, {
          "id": "Numerator_2",
          "code": {
            "coding": [ {
              "system": "http://terminology.hl7.org/CodeSystem/measure-population",
              "code": "numerator",
              "display": "Numerator"
            } ]
          },
          "count": 0
        }, {
          "id": "NumeratorExclusion_2",
          "code": {
            "coding": [ {
              "system": "http://terminology.hl7.org/CodeSystem/measure-population",
              "code": "numerator-exclusion",
              "display": "Numerator Exclusion"
            } ]
          },
          "count": 0
        } ],
        "measureScore": {
          "value": 0.0
        }
      } ],
      "evaluatedResource": [ {
        "reference": "Patient/85df5030-f3f8-46d5-a3d3-9461e90ebc0c"
      }, {
        "reference": "Encounter/c859c7a6-f5ea-4067-bc97-6fe9aecfb0c5"
      }, {
        "reference": "Procedure/352c1077-5ef6-47ab-b218-55e817464d2e"
      }, {
        "reference": "Coverage/7a6a05b3-4903-432e-8c96-43ba3b5253bd"
      }, {
        "reference": "Organization/d126ad70-44a1-4eee-af19-71d0f9d9e575"
      }, {
        "reference": "Practitioner/8137fe55-8d1d-4262-91fc-c76556b6201d"
      } ]
    },
    "request": {
      "method": "PUT",
      "url": "MeasureReport/b4df7b67-7c85-4e4a-b6f5-1d1c1a59a6b4"
    }
  } ]
}