{
  "resourceType": "Bundle",
  "id": "6419dda89c0269a68225bb44",
  "type": "transaction",
  "entry": [ {
    "fullUrl": "https://madie.cms.gov/Patient/d767d545-4fa1-499f-98ef-099563ffc20a",
    "resource": {
      "resourceType": "Patient",
      "id": "d767d545-4fa1-499f-98ef-099563ffc20a",
      "meta": {
        "profile": [ "http://hl7.org/fhir/us/qicore/StructureDefinition/qicore-patient" ]
      },
      "extension": [ {
        "url": "http://hl7.org/fhir/us/core/StructureDefinition/us-core-race",
        "extension": [ {
          "url": "ombCategory",
          "valueCoding": {
            "system": "urn:oid:2.16.840.1.113883.6.238",
            "code": "1002-5",
            "display": "American Indian or Alaska Native",
            "userSelected": true
          }
        }, {
          "url": "text",
          "valueString": "American Indian or Alaska Native"
        } ]
      }, {
        "url": "http://hl7.org/fhir/us/core/StructureDefinition/us-core-ethnicity",
        "extension": [ {
          "url": "ombCategory",
          "valueCoding": {
            "system": "urn:oid:2.16.840.1.113883.6.238",
            "code": "2186-5",
            "display": "Not Hispanic or Latino",
            "userSelected": true
          }
        }, {
          "url": "text",
          "valueString": "Not Hispanic or Latino"
        } ]
      }, {
        "url": "http://hl7.org/fhir/us/core/StructureDefinition/us-core-sex",
        "valueCode": "248152002"
      } ],
      "identifier": [ {
        "type": {
          "coding": [ {
            "system": "http://terminology.hl7.org/CodeSystem/v2-0203",
            "code": "MR"
          } ]
        },
        "system": "https://bonnie-fhir.healthit.gov/",
        "value": "6419dda89c0269a68225bb44"
      } ],
      "name": [ {
        "family": "4NumFail",
        "given": [ "PCI91minEDstartrelevantPeriod" ]
      } ],
      "gender": "female",
      "birthDate": "1985-12-02"
    },
    "request": {
      "method": "PUT",
      "url": "Patient/d767d545-4fa1-499f-98ef-099563ffc20a"
    }
  }, {
    "fullUrl": "https://madie.cms.gov/Encounter/8457b0ce-2109-4ae2-8fd2-a9d1b8643a9f",
    "resource": {
      "resourceType": "Encounter",
      "id": "8457b0ce-2109-4ae2-8fd2-a9d1b8643a9f",
      "meta": {
        "profile": [ "http://hl7.org/fhir/us/qicore/StructureDefinition/qicore-encounter" ]
      },
      "status": "finished",
      "class": {
        "system": "http://terminology.hl7.org/CodeSystem/v3-ActCode",
        "code": "EMER",
        "display": "emergency",
        "userSelected": true
      },
      "type": [ {
        "coding": [ {
          "system": "http://snomed.info/sct",
          "version": "2020-09",
          "code": "4525004",
          "display": "Emergency department patient visit (procedure)",
          "userSelected": true
        } ]
      } ],
      "subject": {
        "reference": "Patient/d767d545-4fa1-499f-98ef-099563ffc20a"
      },
      "period": {
        "start": "2026-10-09T08:05:00.000+00:00",
        "end": "2026-10-10T07:15:00.000+00:00"
      },
      "reasonCode": [ {
        "coding": [ {
          "system": "http://hl7.org/fhir/sid/icd-10-cm",
          "version": "2021",
          "code": "I22.9",
          "display": "Subsequent ST elevation (STEMI) myocardial infarction of unspecified site",
          "userSelected": true
        } ]
      } ],
      "reasonReference": [ {
        "reference": "Condition/dff9dbc7-e2d3-4053-a2a6-6bba62cb57e0"
      } ]
    },
    "request": {
      "method": "PUT",
      "url": "Encounter/8457b0ce-2109-4ae2-8fd2-a9d1b8643a9f"
    }
  }, {
    "fullUrl": "https://madie.cms.gov/Condition/dff9dbc7-e2d3-4053-a2a6-6bba62cb57e0",
    "resource": {
      "resourceType": "Condition",
      "id": "dff9dbc7-e2d3-4053-a2a6-6bba62cb57e0",
      "meta": {
        "profile": [ "http://hl7.org/fhir/us/qicore/StructureDefinition/qicore-condition-encounter-diagnosis" ]
      },
      "clinicalStatus": {
        "coding": [ {
          "system": "http://terminology.hl7.org/CodeSystem/condition-clinical",
          "code": "active",
          "display": "active",
          "userSelected": true
        } ]
      },
      "verificationStatus": {
        "coding": [ {
          "system": "http://terminology.hl7.org/CodeSystem/condition-ver-status",
          "code": "confirmed",
          "display": "Confirmed",
          "userSelected": true
        } ]
      },
      "category": [ {
        "coding": [ {
          "system": "http://terminology.hl7.org/CodeSystem/condition-category",
          "code": "encounter-diagnosis",
          "display": "Encounter Diagnosis",
          "userSelected": true
        } ]
      } ],
      "code": {
        "coding": [ {
          "system": "http://snomed.info/sct",
          "version": "2020-09",
          "code": "401303003",
          "display": "Acute ST segment elevation myocardial infarction (disorder)",
          "userSelected": true
        } ]
      },
      "subject": {
        "reference": "Patient/d767d545-4fa1-499f-98ef-099563ffc20a"
      },
      "onsetDateTime": "2026-10-09T08:15:00.000+00:00"
    },
    "request": {
      "method": "PUT",
      "url": "Condition/dff9dbc7-e2d3-4053-a2a6-6bba62cb57e0"
    }
  }, {
    "fullUrl": "https://madie.cms.gov/Procedure/adddccf3-64ac-4414-8060-ca80c6005cbc",
    "resource": {
      "resourceType": "Procedure",
      "id": "adddccf3-64ac-4414-8060-ca80c6005cbc",
      "meta": {
        "profile": [ "http://hl7.org/fhir/us/qicore/StructureDefinition/qicore-procedure" ]
      },
      "extension": [ {
        "url": "http://hl7.org/fhir/us/qicore/StructureDefinition/qicore-recorded",
        "valueDateTime": "2026-10-09T12:15:00.000+00:00"
      } ],
      "status": "completed",
      "category": {
        "coding": [ {
          "system": "http://snomed.info/sct",
          "code": "387713003",
          "display": "Surgical procedure",
          "userSelected": true
        } ]
      },
      "code": {
        "coding": [ {
          "system": "http://www.icd10data.com/icd10pcs",
          "version": "2021",
          "code": "0270346",
          "display": "Dilation of Coronary Artery, One Artery, Bifurcation, with Drug-eluting Intraluminal Device, Percutaneous Approach",
          "userSelected": true
        } ]
      },
      "subject": {
        "reference": "Patient/d767d545-4fa1-499f-98ef-099563ffc20a"
      },
      "performedPeriod": {
        "start": "2026-10-09T09:36:00.000+00:00",
        "end": "2026-10-09T12:15:00.000+00:00"
      }
    },
    "request": {
      "method": "PUT",
      "url": "Procedure/adddccf3-64ac-4414-8060-ca80c6005cbc"
    }
  }, {
    "fullUrl": "https://madie.cms.gov/Coverage/a3ca820d-56ea-4ebb-8cd4-b6f792484bac",
    "resource": {
      "resourceType": "Coverage",
      "id": "a3ca820d-56ea-4ebb-8cd4-b6f792484bac",
      "meta": {
        "profile": [ "http://hl7.org/fhir/us/qicore/StructureDefinition/qicore-coverage" ]
      },
      "identifier": [ {
        "type": {
          "coding": [ {
            "system": "http://terminology.hl7.org/CodeSystem/v2-0203",
            "code": "MB"
          } ]
        }
      } ],
      "status": "active",
      "beneficiary": {
        "reference": "Patient/d767d545-4fa1-499f-98ef-099563ffc20a"
      },
      "relationship": {
        "coding": [ {
          "system": "http://terminology.hl7.org/CodeSystem/subscriber-relationship",
          "code": "self"
        } ]
      },
      "payor": [ {
        "reference": "Organization/8ef96d62-9e95-4bfc-b653-8f1f053737d1"
      } ]
    },
    "request": {
      "method": "PUT",
      "url": "Coverage/a3ca820d-56ea-4ebb-8cd4-b6f792484bac"
    }
  }, {
    "fullUrl": "https://madie.cms.gov/Organization/8ef96d62-9e95-4bfc-b653-8f1f053737d1",
    "resource": {
      "resourceType": "Organization",
      "id": "8ef96d62-9e95-4bfc-b653-8f1f053737d1",
      "meta": {
        "profile": [ "http://hl7.org/fhir/us/qicore/StructureDefinition/qicore-organization" ]
      },
      "identifier": [ {
        "use": "temp",
        "system": "urn:oid:2.16.840.1.113883.4.4",
        "value": "21-3259825"
      } ],
      "active": true,
      "type": [ {
        "coding": [ {
          "system": "http://terminology.hl7.org/CodeSystem/organization-type",
          "code": "pay",
          "display": "Payer"
        } ]
      } ],
      "name": "Blue Cross Blue Shield of Texas",
      "telecom": [ {
        "system": "phone",
        "value": "(+1) 972-766-6900"
      } ],
      "address": [ {
        "use": "billing",
        "type": "postal",
        "line": [ "P.O. Box 660044" ],
        "city": "Dallas",
        "state": "TX",
        "postalCode": "75266-0044",
        "country": "USA"
      } ]
    },
    "request": {
      "method": "PUT",
      "url": "Organization/8ef96d62-9e95-4bfc-b653-8f1f053737d1"
    }
  }, {
    "fullUrl": "https://madie.cms.gov/Practitioner/44585910-720c-440e-8565-22685d83451b",
    "resource": {
      "resourceType": "Practitioner",
      "id": "44585910-720c-440e-8565-22685d83451b",
      "meta": {
        "profile": [ "http://hl7.org/fhir/us/qicore/StructureDefinition/qicore-practitioner" ]
      },
      "identifier": [ {
        "system": "http://hl7.org/fhir/sid/us-npi",
        "value": "9999999896"
      } ],
      "name": [ {
        "family": "Evil",
        "prefix": [ "Dr" ]
      } ]
    },
    "request": {
      "method": "PUT",
      "url": "Practitioner/44585910-720c-440e-8565-22685d83451b"
    }
  }, {
    "fullUrl": "https://madie.cms.gov/MeasureReport/c2327e5d-6803-4405-bd64-4fbeed0faabe",
    "resource": {
      "resourceType": "MeasureReport",
      "id": "c2327e5d-6803-4405-bd64-4fbeed0faabe",
      "meta": {
        "profile": [ "http://hl7.org/fhir/us/cqfmeasures/StructureDefinition/test-case-cqfm" ]
      },
      "contained": [ {
        "resourceType": "Parameters",
        "id": "fa31c2d4-4f51-4a42-a503-27acd4b4b0c3-parameters",
        "parameter": [ {
          "name": "subject",
          "valueString": "d767d545-4fa1-499f-98ef-099563ffc20a"
        } ]
      } ],
      "extension": [ {
        "url": "http://hl7.org/fhir/StructureDefinition/cqf-inputParameters",
        "valueReference": {
          "reference": "#fa31c2d4-4f51-4a42-a503-27acd4b4b0c3-parameters"
        }
      }, {
        "url": "http://hl7.org/fhir/us/cqfmeasures/StructureDefinition/cqfm-testCaseDescription",
        "valueMarkdown": "PCI 91 minutes of ED start"
      } ],
      "modifierExtension": [ {
        "url": "http://hl7.org/fhir/us/cqfmeasures/StructureDefinition/cqfm-isTestCase",
        "valueBoolean": true
      } ],
      "status": "complete",
      "type": "individual",
      "measure": "https://madie.cms.gov/Measure/CMS996FHIRAptTxforSTEMI",
      "period": {
        "start": "2026-01-01",
        "end": "2026-12-31"
      },
      "group": [ {
        "id": "Group_1",
        "population": [ {
          "id": "InitialPopulation_1",
          "code": {
            "coding": [ {
              "system": "http://terminology.hl7.org/CodeSystem/measure-population",
              "code": "initial-population",
              "display": "Initial Population"
            } ]
          },
          "count": 1
        }, {
          "id": "Denominator_1",
          "code": {
            "coding": [ {
              "system": "http://terminology.hl7.org/CodeSystem/measure-population",
              "code": "denominator",
              "display": "Denominator"
            } ]
          },
          "count": 1
        }, {
          "id": "DenominatorExclusion_1",
          "code": {
            "coding": [ {
              "system": "http://terminology.hl7.org/CodeSystem/measure-population",
              "code": "denominator-exclusion",
              "display": "Denominator Exclusion"
            } ]
          },
          "count": 0
        }, {
          "id": "Numerator_1",
          "code": {
            "coding": [ {
              "system": "http://terminology.hl7.org/CodeSystem/measure-population",
              "code": "numerator",
              "display": "Numerator"
            } ]
          },
          "count": 0
        }, {
          "id": "DenominatorException_1",
          "code": {
            "coding": [ {
              "system": "http://terminology.hl7.org/CodeSystem/measure-population",
              "code": "denominator-exception",
              "display": "Denominator Exception"
            } ]
          },
          "count": 0
        } ],
        "measureScore": {
          "value": 0.0
        }
      } ],
      "evaluatedResource": [ {
        "reference": "Patient/d767d545-4fa1-499f-98ef-099563ffc20a"
      }, {
        "reference": "Encounter/8457b0ce-2109-4ae2-8fd2-a9d1b8643a9f"
      }, {
        "reference": "Condition/dff9dbc7-e2d3-4053-a2a6-6bba62cb57e0"
      }, {
        "reference": "Procedure/adddccf3-64ac-4414-8060-ca80c6005cbc"
      }, {
        "reference": "Coverage/a3ca820d-56ea-4ebb-8cd4-b6f792484bac"
      }, {
        "reference": "Organization/8ef96d62-9e95-4bfc-b653-8f1f053737d1"
      }, {
        "reference": "Practitioner/44585910-720c-440e-8565-22685d83451b"
      } ]
    },
    "request": {
      "method": "PUT",
      "url": "MeasureReport/c2327e5d-6803-4405-bd64-4fbeed0faabe"
    }
  } ]
}