{
  "resourceType": "Bundle",
  "id": "617ad5701e8170ac98fce635",
  "type": "transaction",
  "entry": [ {
    "fullUrl": "https://madie.cms.gov/Patient/4aaf0b0a-ccc6-47a5-bfdf-ef7399a9aad2",
    "resource": {
      "resourceType": "Patient",
      "id": "4aaf0b0a-ccc6-47a5-bfdf-ef7399a9aad2",
      "meta": {
        "profile": [ "http://hl7.org/fhir/us/qicore/StructureDefinition/qicore-patient" ]
      },
      "extension": [ {
        "url": "http://hl7.org/fhir/us/core/StructureDefinition/us-core-race",
        "extension": [ {
          "url": "ombCategory",
          "valueCoding": {
            "system": "urn:oid:2.16.840.1.113883.6.238",
            "code": "2076-8",
            "display": "Native Hawaiian or Other Pacific Islander",
            "userSelected": true
          }
        }, {
          "url": "text",
          "valueString": "Native Hawaiian or Other Pacific Islander"
        } ]
      }, {
        "url": "http://hl7.org/fhir/us/core/StructureDefinition/us-core-ethnicity",
        "extension": [ {
          "url": "ombCategory",
          "valueCoding": {
            "system": "urn:oid:2.16.840.1.113883.6.238",
            "code": "2186-5",
            "display": "Not Hispanic or Latino",
            "userSelected": true
          }
        }, {
          "url": "text",
          "valueString": "Not Hispanic or Latino"
        } ]
      }, {
        "url": "http://hl7.org/fhir/us/core/StructureDefinition/us-core-sex",
        "valueCode": "248152002"
      } ],
      "identifier": [ {
        "type": {
          "coding": [ {
            "system": "http://terminology.hl7.org/CodeSystem/v2-0203",
            "code": "MR"
          } ]
        },
        "system": "https://bonnie-fhir.healthit.gov/",
        "value": "617ad5701e8170ac98fce635"
      } ],
      "name": [ {
        "family": "12IPFail",
        "given": [ "EncAfterMP" ]
      } ],
      "gender": "female",
      "birthDate": "1986-12-02"
    },
    "request": {
      "method": "PUT",
      "url": "Patient/4aaf0b0a-ccc6-47a5-bfdf-ef7399a9aad2"
    }
  }, {
    "fullUrl": "https://madie.cms.gov/Encounter/56c00874-b530-4bf1-8bb9-d2d8ad12282c",
    "resource": {
      "resourceType": "Encounter",
      "id": "56c00874-b530-4bf1-8bb9-d2d8ad12282c",
      "meta": {
        "profile": [ "http://hl7.org/fhir/us/qicore/StructureDefinition/qicore-encounter" ]
      },
      "status": "finished",
      "class": {
        "system": "http://terminology.hl7.org/CodeSystem/v3-ActCode",
        "code": "EMER",
        "display": "Emergency"
      },
      "type": [ {
        "coding": [ {
          "system": "http://snomed.info/sct",
          "version": "2020-09",
          "code": "4525004",
          "display": "Emergency department patient visit (procedure)",
          "userSelected": true
        } ]
      } ],
      "subject": {
        "reference": "Patient/4aaf0b0a-ccc6-47a5-bfdf-ef7399a9aad2"
      },
      "period": {
        "start": "2027-10-09T08:05:00.000+00:00",
        "end": "2027-10-10T07:15:00.000+00:00"
      },
      "reasonReference": [ {
        "reference": "Condition/0e93bc56-2847-4ad6-8dec-88dffa58aea5"
      } ]
    },
    "request": {
      "method": "PUT",
      "url": "Encounter/56c00874-b530-4bf1-8bb9-d2d8ad12282c"
    }
  }, {
    "fullUrl": "https://madie.cms.gov/Condition/0e93bc56-2847-4ad6-8dec-88dffa58aea5",
    "resource": {
      "resourceType": "Condition",
      "id": "0e93bc56-2847-4ad6-8dec-88dffa58aea5",
      "meta": {
        "profile": [ "http://hl7.org/fhir/us/qicore/StructureDefinition/qicore-condition-encounter-diagnosis" ]
      },
      "clinicalStatus": {
        "coding": [ {
          "system": "http://terminology.hl7.org/CodeSystem/condition-clinical",
          "code": "active",
          "display": "active",
          "userSelected": true
        } ]
      },
      "category": [ {
        "coding": [ {
          "system": "http://terminology.hl7.org/CodeSystem/condition-category",
          "code": "encounter-diagnosis",
          "display": "Encounter Diagnosis"
        } ]
      } ],
      "code": {
        "coding": [ {
          "system": "http://snomed.info/sct",
          "version": "2020-09",
          "code": "401303003",
          "display": "Acute ST segment elevation myocardial infarction (disorder)",
          "userSelected": true
        } ]
      },
      "subject": {
        "reference": "Patient/4aaf0b0a-ccc6-47a5-bfdf-ef7399a9aad2"
      },
      "encounter": {
        "reference": "Encounter/56c00874-b530-4bf1-8bb9-d2d8ad12282c"
      },
      "recordedDate": "2026-10-09T08:00:00.000+00:00"
    },
    "request": {
      "method": "PUT",
      "url": "Condition/0e93bc56-2847-4ad6-8dec-88dffa58aea5"
    }
  }, {
    "fullUrl": "https://madie.cms.gov/Coverage/51968abc-22ea-4340-9a7b-79a703af90d3",
    "resource": {
      "resourceType": "Coverage",
      "id": "51968abc-22ea-4340-9a7b-79a703af90d3",
      "meta": {
        "profile": [ "http://hl7.org/fhir/us/qicore/StructureDefinition/qicore-coverage" ]
      },
      "identifier": [ {
        "type": {
          "coding": [ {
            "system": "http://terminology.hl7.org/CodeSystem/v2-0203",
            "code": "MB"
          } ]
        }
      } ],
      "status": "active",
      "beneficiary": {
        "reference": "Patient/4aaf0b0a-ccc6-47a5-bfdf-ef7399a9aad2"
      },
      "relationship": {
        "coding": [ {
          "system": "http://terminology.hl7.org/CodeSystem/subscriber-relationship",
          "code": "self"
        } ]
      },
      "payor": [ {
        "reference": "Organization/63dfeb47-87ca-4e38-ac1a-7897cf498bbd"
      } ]
    },
    "request": {
      "method": "PUT",
      "url": "Coverage/51968abc-22ea-4340-9a7b-79a703af90d3"
    }
  }, {
    "fullUrl": "https://madie.cms.gov/Organization/63dfeb47-87ca-4e38-ac1a-7897cf498bbd",
    "resource": {
      "resourceType": "Organization",
      "id": "63dfeb47-87ca-4e38-ac1a-7897cf498bbd",
      "meta": {
        "profile": [ "http://hl7.org/fhir/us/qicore/StructureDefinition/qicore-organization" ]
      },
      "identifier": [ {
        "use": "temp",
        "system": "urn:oid:2.16.840.1.113883.4.4",
        "value": "21-3259825"
      } ],
      "active": true,
      "type": [ {
        "coding": [ {
          "system": "http://terminology.hl7.org/CodeSystem/organization-type",
          "code": "pay",
          "display": "Payer"
        } ]
      } ],
      "name": "Blue Cross Blue Shield of Texas",
      "telecom": [ {
        "system": "phone",
        "value": "(+1) 972-766-6900"
      } ],
      "address": [ {
        "use": "billing",
        "type": "postal",
        "line": [ "P.O. Box 660044" ],
        "city": "Dallas",
        "state": "TX",
        "postalCode": "75266-0044",
        "country": "USA"
      } ]
    },
    "request": {
      "method": "PUT",
      "url": "Organization/63dfeb47-87ca-4e38-ac1a-7897cf498bbd"
    }
  }, {
    "fullUrl": "https://madie.cms.gov/Practitioner/77727013-0570-4aa3-9183-6244687cc6a3",
    "resource": {
      "resourceType": "Practitioner",
      "id": "77727013-0570-4aa3-9183-6244687cc6a3",
      "meta": {
        "profile": [ "http://hl7.org/fhir/us/qicore/StructureDefinition/qicore-practitioner" ]
      },
      "identifier": [ {
        "system": "http://hl7.org/fhir/sid/us-npi",
        "value": "9999999896"
      } ],
      "name": [ {
        "family": "Evil",
        "prefix": [ "Dr" ]
      } ]
    },
    "request": {
      "method": "PUT",
      "url": "Practitioner/77727013-0570-4aa3-9183-6244687cc6a3"
    }
  }, {
    "fullUrl": "https://madie.cms.gov/MeasureReport/3714727a-9c2a-4756-a57a-661e2af7b8b6",
    "resource": {
      "resourceType": "MeasureReport",
      "id": "3714727a-9c2a-4756-a57a-661e2af7b8b6",
      "meta": {
        "profile": [ "http://hl7.org/fhir/us/cqfmeasures/StructureDefinition/test-case-cqfm" ]
      },
      "contained": [ {
        "resourceType": "Parameters",
        "id": "fb4ce92c-a7c7-46ae-aed2-7d1c11eb8bfe-parameters",
        "parameter": [ {
          "name": "subject",
          "valueString": "4aaf0b0a-ccc6-47a5-bfdf-ef7399a9aad2"
        } ]
      } ],
      "extension": [ {
        "url": "http://hl7.org/fhir/StructureDefinition/cqf-inputParameters",
        "valueReference": {
          "reference": "#fb4ce92c-a7c7-46ae-aed2-7d1c11eb8bfe-parameters"
        }
      }, {
        "url": "http://hl7.org/fhir/us/cqfmeasures/StructureDefinition/cqfm-testCaseDescription",
        "valueMarkdown": "Patient is over 18 years old and has an encounter after the MP"
      } ],
      "modifierExtension": [ {
        "url": "http://hl7.org/fhir/us/cqfmeasures/StructureDefinition/cqfm-isTestCase",
        "valueBoolean": true
      } ],
      "status": "complete",
      "type": "individual",
      "measure": "https://madie.cms.gov/Measure/CMS996FHIRAptTxforSTEMI",
      "period": {
        "start": "2026-01-01",
        "end": "2026-12-31"
      },
      "group": [ {
        "id": "Group_1",
        "population": [ {
          "id": "InitialPopulation_1",
          "code": {
            "coding": [ {
              "system": "http://terminology.hl7.org/CodeSystem/measure-population",
              "code": "initial-population",
              "display": "Initial Population"
            } ]
          },
          "count": 0
        }, {
          "id": "Denominator_1",
          "code": {
            "coding": [ {
              "system": "http://terminology.hl7.org/CodeSystem/measure-population",
              "code": "denominator",
              "display": "Denominator"
            } ]
          },
          "count": 0
        }, {
          "id": "DenominatorExclusion_1",
          "code": {
            "coding": [ {
              "system": "http://terminology.hl7.org/CodeSystem/measure-population",
              "code": "denominator-exclusion",
              "display": "Denominator Exclusion"
            } ]
          },
          "count": 0
        }, {
          "id": "Numerator_1",
          "code": {
            "coding": [ {
              "system": "http://terminology.hl7.org/CodeSystem/measure-population",
              "code": "numerator",
              "display": "Numerator"
            } ]
          },
          "count": 0
        }, {
          "id": "DenominatorException_1",
          "code": {
            "coding": [ {
              "system": "http://terminology.hl7.org/CodeSystem/measure-population",
              "code": "denominator-exception",
              "display": "Denominator Exception"
            } ]
          },
          "count": 0
        } ],
        "measureScore": {
          "value": 0.0
        }
      } ],
      "evaluatedResource": [ {
        "reference": "Patient/4aaf0b0a-ccc6-47a5-bfdf-ef7399a9aad2"
      }, {
        "reference": "Encounter/56c00874-b530-4bf1-8bb9-d2d8ad12282c"
      }, {
        "reference": "Condition/0e93bc56-2847-4ad6-8dec-88dffa58aea5"
      }, {
        "reference": "Coverage/51968abc-22ea-4340-9a7b-79a703af90d3"
      }, {
        "reference": "Organization/63dfeb47-87ca-4e38-ac1a-7897cf498bbd"
      }, {
        "reference": "Practitioner/77727013-0570-4aa3-9183-6244687cc6a3"
      } ]
    },
    "request": {
      "method": "PUT",
      "url": "MeasureReport/3714727a-9c2a-4756-a57a-661e2af7b8b6"
    }
  } ]
}