{
  "resourceType": "Bundle",
  "id": "6179e2a3e2011aa9929f330f",
  "type": "transaction",
  "entry": [ {
    "fullUrl": "https://madie.cms.gov/Patient/c514a1c3-5f7a-4db3-99ef-6ba27d465fbc",
    "resource": {
      "resourceType": "Patient",
      "id": "c514a1c3-5f7a-4db3-99ef-6ba27d465fbc",
      "meta": {
        "profile": [ "http://hl7.org/fhir/us/qicore/StructureDefinition/qicore-patient" ]
      },
      "extension": [ {
        "url": "http://hl7.org/fhir/us/core/StructureDefinition/us-core-race",
        "extension": [ {
          "url": "ombCategory",
          "valueCoding": {
            "system": "urn:oid:2.16.840.1.113883.6.238",
            "code": "2076-8",
            "display": "Native Hawaiian or Other Pacific Islander",
            "userSelected": true
          }
        }, {
          "url": "text",
          "valueString": "Native Hawaiian or Other Pacific Islander"
        } ]
      }, {
        "url": "http://hl7.org/fhir/us/core/StructureDefinition/us-core-ethnicity",
        "extension": [ {
          "url": "ombCategory",
          "valueCoding": {
            "system": "urn:oid:2.16.840.1.113883.6.238",
            "code": "2186-5",
            "display": "Not Hispanic or Latino",
            "userSelected": true
          }
        }, {
          "url": "text",
          "valueString": "Not Hispanic or Latino"
        } ]
      }, {
        "url": "http://hl7.org/fhir/us/core/StructureDefinition/us-core-sex",
        "valueCode": "248152002"
      } ],
      "identifier": [ {
        "type": {
          "coding": [ {
            "system": "http://terminology.hl7.org/CodeSystem/v2-0203",
            "code": "MR"
          } ]
        },
        "system": "https://bonnie-fhir.healthit.gov/",
        "value": "6179e2a3e2011aa9929f330f"
      } ],
      "name": [ {
        "family": "DenExcl1Pass",
        "given": [ "DxExclStartsDuringEDNoEnd" ]
      } ],
      "gender": "female",
      "birthDate": "1985-12-02"
    },
    "request": {
      "method": "PUT",
      "url": "Patient/c514a1c3-5f7a-4db3-99ef-6ba27d465fbc"
    }
  }, {
    "fullUrl": "https://madie.cms.gov/Encounter/24d6e6c9-4d6f-4165-868f-1f8831a58ce5",
    "resource": {
      "resourceType": "Encounter",
      "id": "24d6e6c9-4d6f-4165-868f-1f8831a58ce5",
      "meta": {
        "profile": [ "http://hl7.org/fhir/us/qicore/StructureDefinition/qicore-encounter" ]
      },
      "status": "finished",
      "class": {
        "system": "http://terminology.hl7.org/CodeSystem/v3-ActCode",
        "code": "EMER",
        "display": "emergency",
        "userSelected": true
      },
      "type": [ {
        "coding": [ {
          "system": "http://snomed.info/sct",
          "version": "2020-09",
          "code": "4525004",
          "display": "Emergency department patient visit (procedure)",
          "userSelected": true
        } ]
      } ],
      "subject": {
        "reference": "Patient/c514a1c3-5f7a-4db3-99ef-6ba27d465fbc"
      },
      "period": {
        "start": "2026-10-09T08:05:00.000+00:00",
        "end": "2026-10-10T07:15:00.000+00:00"
      },
      "reasonReference": [ {
        "reference": "Condition/f52ff36f-a846-4d0d-9945-cba9d306528f"
      } ]
    },
    "request": {
      "method": "PUT",
      "url": "Encounter/24d6e6c9-4d6f-4165-868f-1f8831a58ce5"
    }
  }, {
    "fullUrl": "https://madie.cms.gov/Condition/f52ff36f-a846-4d0d-9945-cba9d306528f",
    "resource": {
      "resourceType": "Condition",
      "id": "f52ff36f-a846-4d0d-9945-cba9d306528f",
      "meta": {
        "profile": [ "http://hl7.org/fhir/us/qicore/StructureDefinition/qicore-condition-problems-health-concerns" ]
      },
      "clinicalStatus": {
        "coding": [ {
          "system": "http://terminology.hl7.org/CodeSystem/condition-clinical",
          "code": "active",
          "display": "active",
          "userSelected": true
        } ]
      },
      "category": [ {
        "coding": [ {
          "system": "http://terminology.hl7.org/CodeSystem/condition-category",
          "code": "problem-list-item",
          "display": "Problem List Item",
          "userSelected": true
        } ]
      } ],
      "code": {
        "coding": [ {
          "system": "http://snomed.info/sct",
          "version": "2020-09",
          "code": "401303003",
          "display": "Acute ST segment elevation myocardial infarction (disorder)",
          "userSelected": true
        } ]
      },
      "subject": {
        "reference": "Patient/c514a1c3-5f7a-4db3-99ef-6ba27d465fbc"
      },
      "onsetDateTime": "2026-10-09T08:30:00.000+00:00"
    },
    "request": {
      "method": "PUT",
      "url": "Condition/f52ff36f-a846-4d0d-9945-cba9d306528f"
    }
  }, {
    "fullUrl": "https://madie.cms.gov/Condition/b49cc8d4-9821-4827-bf66-c73c44fb83ac",
    "resource": {
      "resourceType": "Condition",
      "id": "b49cc8d4-9821-4827-bf66-c73c44fb83ac",
      "meta": {
        "profile": [ "http://hl7.org/fhir/us/qicore/StructureDefinition/qicore-condition-problems-health-concerns" ]
      },
      "clinicalStatus": {
        "coding": [ {
          "system": "http://terminology.hl7.org/CodeSystem/condition-clinical",
          "code": "active",
          "display": "Active",
          "userSelected": true
        } ]
      },
      "verificationStatus": {
        "coding": [ {
          "system": "http://terminology.hl7.org/CodeSystem/condition-ver-status",
          "code": "provisional"
        } ]
      },
      "category": [ {
        "coding": [ {
          "system": "http://terminology.hl7.org/CodeSystem/condition-category",
          "code": "problem-list-item",
          "display": "Problem List Item",
          "userSelected": true
        } ]
      } ],
      "code": {
        "coding": [ {
          "system": "http://snomed.info/sct",
          "version": "2020-09",
          "code": "14336007",
          "display": "Ruptured abdominal aortic aneurysm (disorder)",
          "userSelected": true
        } ]
      },
      "subject": {
        "reference": "Patient/c514a1c3-5f7a-4db3-99ef-6ba27d465fbc"
      },
      "onsetDateTime": "2026-10-09T13:00:00.000+00:00"
    },
    "request": {
      "method": "PUT",
      "url": "Condition/b49cc8d4-9821-4827-bf66-c73c44fb83ac"
    }
  }, {
    "fullUrl": "https://madie.cms.gov/MeasureReport/053a4e06-c184-4481-ace5-e277a156d123",
    "resource": {
      "resourceType": "MeasureReport",
      "id": "053a4e06-c184-4481-ace5-e277a156d123",
      "meta": {
        "profile": [ "http://hl7.org/fhir/us/cqfmeasures/StructureDefinition/test-case-cqfm" ]
      },
      "contained": [ {
        "resourceType": "Parameters",
        "id": "9f126824-37ec-4785-a63e-d9dda9cc8d52-parameters",
        "parameter": [ {
          "name": "subject",
          "valueString": "c514a1c3-5f7a-4db3-99ef-6ba27d465fbc"
        } ]
      } ],
      "extension": [ {
        "url": "http://hl7.org/fhir/StructureDefinition/cqf-inputParameters",
        "valueReference": {
          "reference": "#9f126824-37ec-4785-a63e-d9dda9cc8d52-parameters"
        }
      }, {
        "url": "http://hl7.org/fhir/us/cqfmeasures/StructureDefinition/cqfm-testCaseDescription",
        "valueMarkdown": "Patient has aortic dissection (exclusion diagnosis) that starts during ED encounter and does not end"
      } ],
      "modifierExtension": [ {
        "url": "http://hl7.org/fhir/us/cqfmeasures/StructureDefinition/cqfm-isTestCase",
        "valueBoolean": true
      } ],
      "status": "complete",
      "type": "individual",
      "measure": "https://madie.cms.gov/Measure/CMS996FHIRAptTxforSTEMI",
      "period": {
        "start": "2026-01-01",
        "end": "2026-12-31"
      },
      "group": [ {
        "id": "Group_1",
        "population": [ {
          "id": "InitialPopulation_1",
          "code": {
            "coding": [ {
              "system": "http://terminology.hl7.org/CodeSystem/measure-population",
              "code": "initial-population",
              "display": "Initial Population"
            } ]
          },
          "count": 1
        }, {
          "id": "Denominator_1",
          "code": {
            "coding": [ {
              "system": "http://terminology.hl7.org/CodeSystem/measure-population",
              "code": "denominator",
              "display": "Denominator"
            } ]
          },
          "count": 1
        }, {
          "id": "DenominatorExclusion_1",
          "code": {
            "coding": [ {
              "system": "http://terminology.hl7.org/CodeSystem/measure-population",
              "code": "denominator-exclusion",
              "display": "Denominator Exclusion"
            } ]
          },
          "count": 1
        }, {
          "id": "Numerator_1",
          "code": {
            "coding": [ {
              "system": "http://terminology.hl7.org/CodeSystem/measure-population",
              "code": "numerator",
              "display": "Numerator"
            } ]
          },
          "count": 0
        }, {
          "id": "DenominatorException_1",
          "code": {
            "coding": [ {
              "system": "http://terminology.hl7.org/CodeSystem/measure-population",
              "code": "denominator-exception",
              "display": "Denominator Exception"
            } ]
          },
          "count": 0
        } ],
        "measureScore": {
          "value": 0.0
        }
      } ],
      "evaluatedResource": [ {
        "reference": "Patient/c514a1c3-5f7a-4db3-99ef-6ba27d465fbc"
      }, {
        "reference": "Encounter/24d6e6c9-4d6f-4165-868f-1f8831a58ce5"
      }, {
        "reference": "Condition/f52ff36f-a846-4d0d-9945-cba9d306528f"
      }, {
        "reference": "Condition/b49cc8d4-9821-4827-bf66-c73c44fb83ac"
      } ]
    },
    "request": {
      "method": "PUT",
      "url": "MeasureReport/053a4e06-c184-4481-ace5-e277a156d123"
    }
  } ]
}