{
  "resourceType": "Bundle",
  "id": "l1f044ef3e654daa9123",
  "type": "transaction",
  "entry": [ {
    "fullUrl": "https://madie.cms.gov/Patient/784a8b22-d1df-478c-9474-a65f050f7a4f",
    "resource": {
      "resourceType": "Patient",
      "id": "784a8b22-d1df-478c-9474-a65f050f7a4f",
      "meta": {
        "profile": [ "http://hl7.org/fhir/us/qicore/StructureDefinition/qicore-patient" ]
      },
      "extension": [ {
        "url": "http://hl7.org/fhir/us/core/StructureDefinition/us-core-race",
        "extension": [ {
          "url": "ombCategory",
          "valueCoding": {
            "system": "urn:oid:2.16.840.1.113883.6.238",
            "code": "2028-9",
            "display": "Asian",
            "userSelected": true
          }
        }, {
          "url": "text",
          "valueString": "Asian"
        } ]
      }, {
        "url": "http://hl7.org/fhir/us/core/StructureDefinition/us-core-ethnicity",
        "extension": [ {
          "url": "ombCategory",
          "valueCoding": {
            "system": "urn:oid:2.16.840.1.113883.6.238",
            "code": "2186-5",
            "display": "Not Hispanic or Latino",
            "userSelected": true
          }
        }, {
          "url": "text",
          "valueString": "Not Hispanic or Latino"
        } ]
      }, {
        "url": "http://hl7.org/fhir/us/core/StructureDefinition/us-core-sex",
        "valueCode": "248153007"
      } ],
      "identifier": [ {
        "type": {
          "coding": [ {
            "system": "http://terminology.hl7.org/CodeSystem/v2-0203",
            "code": "MR"
          } ]
        },
        "system": "https://bonnie-fhir.healthit.gov/",
        "value": "l1f044ef3e654daa9123"
      } ],
      "name": [ {
        "family": "DENEXCL11PASS",
        "given": [ "HospiceHomeDischargeDispositionOverlapED" ]
      } ],
      "gender": "male",
      "birthDate": "1915-06-06"
    },
    "request": {
      "method": "PUT",
      "url": "Patient/784a8b22-d1df-478c-9474-a65f050f7a4f"
    }
  }, {
    "fullUrl": "https://madie.cms.gov/Encounter/bbbd03ba-1111-43cc-bb8e-eb86a376f58c",
    "resource": {
      "resourceType": "Encounter",
      "id": "bbbd03ba-1111-43cc-bb8e-eb86a376f58c",
      "meta": {
        "profile": [ "http://hl7.org/fhir/us/qicore/StructureDefinition/qicore-encounter" ]
      },
      "status": "finished",
      "class": {
        "system": "http://terminology.hl7.org/CodeSystem/v3-ActCode",
        "code": "EMER",
        "display": "emergency",
        "userSelected": true
      },
      "type": [ {
        "coding": [ {
          "system": "http://snomed.info/sct",
          "version": "2020-09",
          "code": "4525004",
          "display": "Emergency department patient visit",
          "userSelected": true
        } ]
      } ],
      "subject": {
        "reference": "Patient/784a8b22-d1df-478c-9474-a65f050f7a4f"
      },
      "period": {
        "start": "2026-10-09T05:00:00.000+00:00",
        "end": "2026-10-13T17:00:00.000+00:00"
      },
      "reasonReference": [ {
        "reference": "Condition/9eebba7b-ad95-484b-b55d-8464c64bdd37"
      } ]
    },
    "request": {
      "method": "PUT",
      "url": "Encounter/bbbd03ba-1111-43cc-bb8e-eb86a376f58c"
    }
  }, {
    "fullUrl": "https://madie.cms.gov/Encounter/736d7d3c-8193-4cc1-8ae4-a6c03c5de443",
    "resource": {
      "resourceType": "Encounter",
      "id": "736d7d3c-8193-4cc1-8ae4-a6c03c5de443",
      "meta": {
        "profile": [ "http://hl7.org/fhir/us/qicore/StructureDefinition/qicore-encounter" ]
      },
      "status": "finished",
      "class": {
        "system": "http://terminology.hl7.org/CodeSystem/v3-ActCode",
        "code": "EMER",
        "display": "emergency",
        "userSelected": true
      },
      "type": [ {
        "coding": [ {
          "system": "http://snomed.info/sct",
          "code": "32485007",
          "display": "Hospital admission (procedure)",
          "userSelected": true
        } ]
      } ],
      "subject": {
        "reference": "Patient/784a8b22-d1df-478c-9474-a65f050f7a4f"
      },
      "period": {
        "start": "2026-08-12T05:00:00.000+00:00",
        "end": "2026-10-19T12:00:00.000+00:00"
      },
      "hospitalization": {
        "dischargeDisposition": {
          "coding": [ {
            "system": "http://snomed.info/sct",
            "code": "428361000124107",
            "display": "Discharge to home for hospice care (procedure)",
            "userSelected": true
          } ]
        }
      }
    },
    "request": {
      "method": "PUT",
      "url": "Encounter/736d7d3c-8193-4cc1-8ae4-a6c03c5de443"
    }
  }, {
    "fullUrl": "https://madie.cms.gov/Condition/9eebba7b-ad95-484b-b55d-8464c64bdd37",
    "resource": {
      "resourceType": "Condition",
      "id": "9eebba7b-ad95-484b-b55d-8464c64bdd37",
      "meta": {
        "profile": [ "http://hl7.org/fhir/us/qicore/StructureDefinition/qicore-condition-encounter-diagnosis" ]
      },
      "clinicalStatus": {
        "coding": [ {
          "system": "http://terminology.hl7.org/CodeSystem/condition-clinical",
          "code": "active",
          "display": "Active",
          "userSelected": true
        } ]
      },
      "category": [ {
        "coding": [ {
          "system": "http://terminology.hl7.org/CodeSystem/condition-category",
          "code": "encounter-diagnosis",
          "display": "Encounter Diagnosis",
          "userSelected": true
        } ]
      } ],
      "code": {
        "coding": [ {
          "system": "http://hl7.org/fhir/sid/icd-10-cm",
          "code": "I21.21",
          "display": "ST elevation (STEMI) myocardial infarction involving left circumflex coronary artery",
          "userSelected": true
        } ]
      },
      "subject": {
        "reference": "Patient/784a8b22-d1df-478c-9474-a65f050f7a4f"
      },
      "encounter": {
        "reference": "Encounter/d1b164f6e-e76a-4f42-a4c4-87e4c4b4953d"
      },
      "onsetPeriod": {
        "start": "2026-10-09T05:00:00.000+00:00",
        "end": "2026-10-09T17:00:00.000+00:00"
      }
    },
    "request": {
      "method": "PUT",
      "url": "Condition/9eebba7b-ad95-484b-b55d-8464c64bdd37"
    }
  }, {
    "fullUrl": "https://madie.cms.gov/MeasureReport/699c0d4f-14e1-47d1-a9a5-f7d869984ac7",
    "resource": {
      "resourceType": "MeasureReport",
      "id": "699c0d4f-14e1-47d1-a9a5-f7d869984ac7",
      "meta": {
        "profile": [ "http://hl7.org/fhir/us/cqfmeasures/StructureDefinition/test-case-cqfm" ]
      },
      "contained": [ {
        "resourceType": "Parameters",
        "id": "cc901c1b-8c66-4083-aca3-6694b5b9bade-parameters",
        "parameter": [ {
          "name": "subject",
          "valueString": "784a8b22-d1df-478c-9474-a65f050f7a4f"
        } ]
      } ],
      "extension": [ {
        "url": "http://hl7.org/fhir/StructureDefinition/cqf-inputParameters",
        "valueReference": {
          "reference": "#cc901c1b-8c66-4083-aca3-6694b5b9bade-parameters"
        }
      }, {
        "url": "http://hl7.org/fhir/us/cqfmeasures/StructureDefinition/cqfm-testCaseDescription",
        "valueMarkdown": "Patients has hospice discharge disposition (home) before and overlaps ED"
      } ],
      "modifierExtension": [ {
        "url": "http://hl7.org/fhir/us/cqfmeasures/StructureDefinition/cqfm-isTestCase",
        "valueBoolean": true
      } ],
      "status": "complete",
      "type": "individual",
      "measure": "https://madie.cms.gov/Measure/CMS996FHIRAptTxforSTEMI",
      "period": {
        "start": "2026-01-01",
        "end": "2026-12-31"
      },
      "group": [ {
        "id": "Group_1",
        "population": [ {
          "id": "InitialPopulation_1",
          "code": {
            "coding": [ {
              "system": "http://terminology.hl7.org/CodeSystem/measure-population",
              "code": "initial-population",
              "display": "Initial Population"
            } ]
          },
          "count": 1
        }, {
          "id": "Denominator_1",
          "code": {
            "coding": [ {
              "system": "http://terminology.hl7.org/CodeSystem/measure-population",
              "code": "denominator",
              "display": "Denominator"
            } ]
          },
          "count": 1
        }, {
          "id": "DenominatorExclusion_1",
          "code": {
            "coding": [ {
              "system": "http://terminology.hl7.org/CodeSystem/measure-population",
              "code": "denominator-exclusion",
              "display": "Denominator Exclusion"
            } ]
          },
          "count": 1
        }, {
          "id": "Numerator_1",
          "code": {
            "coding": [ {
              "system": "http://terminology.hl7.org/CodeSystem/measure-population",
              "code": "numerator",
              "display": "Numerator"
            } ]
          },
          "count": 0
        }, {
          "id": "DenominatorException_1",
          "code": {
            "coding": [ {
              "system": "http://terminology.hl7.org/CodeSystem/measure-population",
              "code": "denominator-exception",
              "display": "Denominator Exception"
            } ]
          },
          "count": 0
        } ],
        "measureScore": {
          "value": 0.0
        }
      } ],
      "evaluatedResource": [ {
        "reference": "Patient/784a8b22-d1df-478c-9474-a65f050f7a4f"
      }, {
        "reference": "Encounter/bbbd03ba-1111-43cc-bb8e-eb86a376f58c"
      }, {
        "reference": "Encounter/736d7d3c-8193-4cc1-8ae4-a6c03c5de443"
      }, {
        "reference": "Condition/9eebba7b-ad95-484b-b55d-8464c64bdd37"
      } ]
    },
    "request": {
      "method": "PUT",
      "url": "MeasureReport/699c0d4f-14e1-47d1-a9a5-f7d869984ac7"
    }
  } ]
}