{
  "resourceType": "Bundle",
  "id": "617b10e7513b5d1ee28b757b",
  "type": "transaction",
  "entry": [ {
    "fullUrl": "https://madie.cms.gov/Patient/b4473158-3d75-4f2e-824d-61b575dbdc2f",
    "resource": {
      "resourceType": "Patient",
      "id": "b4473158-3d75-4f2e-824d-61b575dbdc2f",
      "meta": {
        "profile": [ "http://hl7.org/fhir/us/qicore/StructureDefinition/qicore-patient" ]
      },
      "extension": [ {
        "url": "http://hl7.org/fhir/us/core/StructureDefinition/us-core-race",
        "extension": [ {
          "url": "ombCategory",
          "valueCoding": {
            "system": "urn:oid:2.16.840.1.113883.6.238",
            "code": "2028-9",
            "display": "Asian",
            "userSelected": true
          }
        }, {
          "url": "text",
          "valueString": "Asian"
        } ]
      }, {
        "url": "http://hl7.org/fhir/us/core/StructureDefinition/us-core-ethnicity",
        "extension": [ {
          "url": "ombCategory",
          "valueCoding": {
            "system": "urn:oid:2.16.840.1.113883.6.238",
            "code": "2186-5",
            "display": "Not Hispanic or Latino",
            "userSelected": true
          }
        }, {
          "url": "text",
          "valueString": "Not Hispanic or Latino"
        } ]
      }, {
        "url": "http://hl7.org/fhir/us/core/StructureDefinition/us-core-sex",
        "valueCode": "248153007"
      } ],
      "identifier": [ {
        "type": {
          "coding": [ {
            "system": "http://terminology.hl7.org/CodeSystem/v2-0203",
            "code": "MR"
          } ]
        },
        "system": "https://bonnie-fhir.healthit.gov/",
        "value": "617b10e7513b5d1ee28b757b"
      } ],
      "name": [ {
        "family": "DenExcl4Pass",
        "given": [ "DxStartsBeforeEDNoEnd" ]
      } ],
      "gender": "male",
      "birthDate": "1985-12-02"
    },
    "request": {
      "method": "PUT",
      "url": "Patient/b4473158-3d75-4f2e-824d-61b575dbdc2f"
    }
  }, {
    "fullUrl": "https://madie.cms.gov/Encounter/f09f01d4-065a-4054-8b26-b25c6e80e2a4",
    "resource": {
      "resourceType": "Encounter",
      "id": "f09f01d4-065a-4054-8b26-b25c6e80e2a4",
      "meta": {
        "profile": [ "http://hl7.org/fhir/us/qicore/StructureDefinition/qicore-encounter" ]
      },
      "status": "finished",
      "class": {
        "system": "http://terminology.hl7.org/CodeSystem/v3-ActCode",
        "code": "EMER",
        "display": "emergency",
        "userSelected": true
      },
      "type": [ {
        "coding": [ {
          "system": "http://snomed.info/sct",
          "version": "2020-09",
          "code": "4525004",
          "display": "Emergency department patient visit (procedure)",
          "userSelected": true
        } ]
      } ],
      "subject": {
        "reference": "Patient/b4473158-3d75-4f2e-824d-61b575dbdc2f"
      },
      "period": {
        "start": "2026-10-09T08:05:00.000+00:00",
        "end": "2026-10-10T07:15:00.000+00:00"
      },
      "reasonReference": [ {
        "reference": "Condition/e5bbe978-318e-4dc4-a6eb-520f6cd548ab"
      } ]
    },
    "request": {
      "method": "PUT",
      "url": "Encounter/f09f01d4-065a-4054-8b26-b25c6e80e2a4"
    }
  }, {
    "fullUrl": "https://madie.cms.gov/Condition/e5bbe978-318e-4dc4-a6eb-520f6cd548ab",
    "resource": {
      "resourceType": "Condition",
      "id": "e5bbe978-318e-4dc4-a6eb-520f6cd548ab",
      "meta": {
        "profile": [ "http://hl7.org/fhir/us/qicore/StructureDefinition/qicore-condition-problems-health-concerns" ]
      },
      "clinicalStatus": {
        "coding": [ {
          "system": "http://terminology.hl7.org/CodeSystem/condition-clinical",
          "code": "active",
          "display": "active",
          "userSelected": true
        } ]
      },
      "category": [ {
        "coding": [ {
          "system": "http://terminology.hl7.org/CodeSystem/condition-category",
          "code": "problem-list-item",
          "display": "Problem List Item",
          "userSelected": true
        } ]
      } ],
      "code": {
        "coding": [ {
          "system": "http://snomed.info/sct",
          "version": "2020-09",
          "code": "401303003",
          "display": "Acute ST segment elevation myocardial infarction (disorder)",
          "userSelected": true
        } ]
      },
      "subject": {
        "reference": "Patient/b4473158-3d75-4f2e-824d-61b575dbdc2f"
      },
      "onsetDateTime": "2026-10-09T08:30:00.000+00:00"
    },
    "request": {
      "method": "PUT",
      "url": "Condition/e5bbe978-318e-4dc4-a6eb-520f6cd548ab"
    }
  }, {
    "fullUrl": "https://madie.cms.gov/Condition/41ca7c9d-9058-47eb-9114-5ded489690d9",
    "resource": {
      "resourceType": "Condition",
      "id": "41ca7c9d-9058-47eb-9114-5ded489690d9",
      "meta": {
        "profile": [ "http://hl7.org/fhir/us/qicore/StructureDefinition/qicore-condition-problems-health-concerns" ]
      },
      "clinicalStatus": {
        "coding": [ {
          "system": "http://terminology.hl7.org/CodeSystem/condition-clinical",
          "code": "active",
          "display": "Active",
          "userSelected": true
        } ]
      },
      "verificationStatus": {
        "coding": [ {
          "system": "http://terminology.hl7.org/CodeSystem/condition-ver-status",
          "code": "provisional"
        } ]
      },
      "category": [ {
        "coding": [ {
          "system": "http://terminology.hl7.org/CodeSystem/condition-category",
          "code": "problem-list-item",
          "display": "Problem List Item",
          "userSelected": true
        } ]
      } ],
      "code": {
        "coding": [ {
          "system": "http://snomed.info/sct",
          "version": "2020-09",
          "code": "101421000119107",
          "display": "Dementia due to Parkinson's disease (disorder)",
          "userSelected": true
        } ]
      },
      "subject": {
        "reference": "Patient/b4473158-3d75-4f2e-824d-61b575dbdc2f"
      },
      "onsetDateTime": "2024-10-01T08:00:00.000+00:00"
    },
    "request": {
      "method": "PUT",
      "url": "Condition/41ca7c9d-9058-47eb-9114-5ded489690d9"
    }
  }, {
    "fullUrl": "https://madie.cms.gov/MeasureReport/a35a1648-d996-482a-a239-565d0d8ed806",
    "resource": {
      "resourceType": "MeasureReport",
      "id": "a35a1648-d996-482a-a239-565d0d8ed806",
      "meta": {
        "profile": [ "http://hl7.org/fhir/us/cqfmeasures/StructureDefinition/test-case-cqfm" ]
      },
      "contained": [ {
        "resourceType": "Parameters",
        "id": "2be896ea-1b55-4c83-8e88-53df2c5b2623-parameters",
        "parameter": [ {
          "name": "subject",
          "valueString": "b4473158-3d75-4f2e-824d-61b575dbdc2f"
        } ]
      } ],
      "extension": [ {
        "url": "http://hl7.org/fhir/StructureDefinition/cqf-inputParameters",
        "valueReference": {
          "reference": "#2be896ea-1b55-4c83-8e88-53df2c5b2623-parameters"
        }
      }, {
        "url": "http://hl7.org/fhir/us/cqfmeasures/StructureDefinition/cqfm-testCaseDescription",
        "valueMarkdown": "Patient has Dementia (exclusion dx) starts before ED and no end"
      } ],
      "modifierExtension": [ {
        "url": "http://hl7.org/fhir/us/cqfmeasures/StructureDefinition/cqfm-isTestCase",
        "valueBoolean": true
      } ],
      "status": "complete",
      "type": "individual",
      "measure": "https://madie.cms.gov/Measure/CMS996FHIRAptTxforSTEMI",
      "period": {
        "start": "2026-01-01",
        "end": "2026-12-31"
      },
      "group": [ {
        "id": "Group_1",
        "population": [ {
          "id": "InitialPopulation_1",
          "code": {
            "coding": [ {
              "system": "http://terminology.hl7.org/CodeSystem/measure-population",
              "code": "initial-population",
              "display": "Initial Population"
            } ]
          },
          "count": 1
        }, {
          "id": "Denominator_1",
          "code": {
            "coding": [ {
              "system": "http://terminology.hl7.org/CodeSystem/measure-population",
              "code": "denominator",
              "display": "Denominator"
            } ]
          },
          "count": 1
        }, {
          "id": "DenominatorExclusion_1",
          "code": {
            "coding": [ {
              "system": "http://terminology.hl7.org/CodeSystem/measure-population",
              "code": "denominator-exclusion",
              "display": "Denominator Exclusion"
            } ]
          },
          "count": 1
        }, {
          "id": "Numerator_1",
          "code": {
            "coding": [ {
              "system": "http://terminology.hl7.org/CodeSystem/measure-population",
              "code": "numerator",
              "display": "Numerator"
            } ]
          },
          "count": 0
        }, {
          "id": "DenominatorException_1",
          "code": {
            "coding": [ {
              "system": "http://terminology.hl7.org/CodeSystem/measure-population",
              "code": "denominator-exception",
              "display": "Denominator Exception"
            } ]
          },
          "count": 0
        } ],
        "measureScore": {
          "value": 0.0
        }
      } ],
      "evaluatedResource": [ {
        "reference": "Patient/b4473158-3d75-4f2e-824d-61b575dbdc2f"
      }, {
        "reference": "Encounter/f09f01d4-065a-4054-8b26-b25c6e80e2a4"
      }, {
        "reference": "Condition/e5bbe978-318e-4dc4-a6eb-520f6cd548ab"
      }, {
        "reference": "Condition/41ca7c9d-9058-47eb-9114-5ded489690d9"
      } ]
    },
    "request": {
      "method": "PUT",
      "url": "MeasureReport/a35a1648-d996-482a-a239-565d0d8ed806"
    }
  } ]
}