{"resourceType":"Bundle","id":"tests-e5611b09-d279-4c4d-ae0a-8cf72c0a6984-bundle","type":"transaction","entry":[{"fullUrl":"Bundle/617ad6051e8170ac98fce637","resource":{"resourceType":"Bundle","id":"617ad6051e8170ac98fce637","type":"transaction","entry":[{"fullUrl":"https://madie.cms.gov/Patient/e5611b09-d279-4c4d-ae0a-8cf72c0a6984","resource":{"resourceType":"Patient","id":"e5611b09-d279-4c4d-ae0a-8cf72c0a6984","meta":{"profile":["http://hl7.org/fhir/us/qicore/StructureDefinition/qicore-patient"]},"extension":[{"url":"http://hl7.org/fhir/us/core/StructureDefinition/us-core-race","extension":[{"url":"ombCategory","valueCoding":{"system":"urn:oid:2.16.840.1.113883.6.238","code":"1002-5","display":"American Indian or Alaska Native","userSelected":true}},{"url":"text","valueString":"American Indian or Alaska Native"}]},{"url":"http://hl7.org/fhir/us/core/StructureDefinition/us-core-ethnicity","extension":[{"url":"ombCategory","valueCoding":{"system":"urn:oid:2.16.840.1.113883.6.238","code":"2186-5","display":"Not Hispanic or Latino","userSelected":true}},{"url":"text","valueString":"Not Hispanic or Latino"}]},{"url":"http://hl7.org/fhir/us/core/StructureDefinition/us-core-sex","valueCode":"248152002"}],"identifier":[{"type":{"coding":[{"system":"http://terminology.hl7.org/CodeSystem/v2-0203","code":"MR"}]},"system":"https://bonnie-fhir.healthit.gov/","value":"617ad6051e8170ac98fce637"}],"name":[{"family":"IPFail","given":["STEMIbeforeEnc"]}],"gender":"female","birthDate":"1985-12-02"},"request":{"method":"PUT","url":"Patient/e5611b09-d279-4c4d-ae0a-8cf72c0a6984"}},{"fullUrl":"https://madie.cms.gov/Encounter/a65707b2-1c24-4f88-a297-67ef8ac2136d","resource":{"resourceType":"Encounter","id":"a65707b2-1c24-4f88-a297-67ef8ac2136d","meta":{"profile":["http://hl7.org/fhir/us/qicore/StructureDefinition/qicore-encounter"]},"status":"finished","class":{"system":"http://terminology.hl7.org/CodeSystem/v3-ActCode","code":"EMER","display":"emergency","userSelected":true},"type":[{"coding":[{"system":"http://snomed.info/sct","version":"2020-09","code":"4525004","display":"Emergency department patient visit (procedure)","userSelected":true}]}],"subject":{"reference":"Patient/e5611b09-d279-4c4d-ae0a-8cf72c0a6984"},"period":{"start":"2026-10-09T08:05:00.000+00:00","end":"2026-10-10T07:15:00.000+00:00"}},"request":{"method":"PUT","url":"Encounter/a65707b2-1c24-4f88-a297-67ef8ac2136d"}},{"fullUrl":"https://madie.cms.gov/Condition/62e88827-711c-46f4-80f3-a624cead446b","resource":{"resourceType":"Condition","id":"62e88827-711c-46f4-80f3-a624cead446b","meta":{"profile":["http://hl7.org/fhir/us/qicore/StructureDefinition/qicore-condition-encounter-diagnosis"]},"clinicalStatus":{"coding":[{"system":"http://terminology.hl7.org/CodeSystem/condition-clinical","code":"inactive","display":"inactive","userSelected":true}]},"category":[{"coding":[{"system":"http://terminology.hl7.org/CodeSystem/condition-category","code":"encounter-diagnosis","display":"Encounter Diagnosis","userSelected":true}]}],"code":{"coding":[{"system":"http://hl7.org/fhir/sid/icd-10-cm","code":"I21.19","userSelected":true}]},"subject":{"reference":"Patient/e5611b09-d279-4c4d-ae0a-8cf72c0a6984"},"encounter":{"reference":"Encounter/a65707b2-1c24-4f88-a297-67ef8ac2136d"},"onsetDateTime":"2026-01-10T08:00:00.000+00:00","abatementDateTime":"2026-03-20T09:15:00.000+00:00"},"request":{"method":"PUT","url":"Condition/62e88827-711c-46f4-80f3-a624cead446b"}},{"fullUrl":"https://madie.cms.gov/MeasureReport/92c54078-85f2-486b-9497-b7d08b9806ae","resource":{"resourceType":"MeasureReport","id":"92c54078-85f2-486b-9497-b7d08b9806ae","meta":{"profile":["http://hl7.org/fhir/us/cqfmeasures/StructureDefinition/test-case-cqfm"]},"contained":[{"resourceType":"Parameters","id":"c8ebd4e8-6c25-44e0-a4c0-46bdb047eafe-parameters","parameter":[{"name":"subject","valueString":"e5611b09-d279-4c4d-ae0a-8cf72c0a6984"}]}],"extension":[{"url":"http://hl7.org/fhir/StructureDefinition/cqf-inputParameters","valueReference":{"reference":"#c8ebd4e8-6c25-44e0-a4c0-46bdb047eafe-parameters"}},{"url":"http://hl7.org/fhir/us/cqfmeasures/StructureDefinition/cqfm-testCaseDescription","valueMarkdown":"Patient is over 18 years old and has an encounter during the MP and a STEMI before the Encounter"}],"modifierExtension":[{"url":"http://hl7.org/fhir/us/cqfmeasures/StructureDefinition/cqfm-isTestCase","valueBoolean":true}],"status":"complete","type":"individual","measure":"https://madie.cms.gov/Measure/CMS996FHIRAptTxforSTEMI","period":{"start":"2026-01-01","end":"2026-12-31"},"group":[{"id":"Group_1","population":[{"id":"InitialPopulation_1","code":{"coding":[{"system":"http://terminology.hl7.org/CodeSystem/measure-population","code":"initial-population","display":"Initial Population"}]},"count":0},{"id":"Denominator_1","code":{"coding":[{"system":"http://terminology.hl7.org/CodeSystem/measure-population","code":"denominator","display":"Denominator"}]},"count":0},{"id":"DenominatorExclusion_1","code":{"coding":[{"system":"http://terminology.hl7.org/CodeSystem/measure-population","code":"denominator-exclusion","display":"Denominator Exclusion"}]},"count":0},{"id":"Numerator_1","code":{"coding":[{"system":"http://terminology.hl7.org/CodeSystem/measure-population","code":"numerator","display":"Numerator"}]},"count":0},{"id":"DenominatorException_1","code":{"coding":[{"system":"http://terminology.hl7.org/CodeSystem/measure-population","code":"denominator-exception","display":"Denominator Exception"}]},"count":0}],"measureScore":{"value":0.0}}],"evaluatedResource":[{"reference":"Patient/e5611b09-d279-4c4d-ae0a-8cf72c0a6984"},{"reference":"Encounter/a65707b2-1c24-4f88-a297-67ef8ac2136d"},{"reference":"Condition/62e88827-711c-46f4-80f3-a624cead446b"}]},"request":{"method":"PUT","url":"MeasureReport/92c54078-85f2-486b-9497-b7d08b9806ae"}}]},"request":{"method":"PUT","url":"Bundle/617ad6051e8170ac98fce637"}},{"fullUrl":"Patient/e5611b09-d279-4c4d-ae0a-8cf72c0a6984","resource":{"resourceType":"Patient","id":"e5611b09-d279-4c4d-ae0a-8cf72c0a6984","meta":{"profile":["http://hl7.org/fhir/us/qicore/StructureDefinition/qicore-patient"]},"extension":[{"url":"http://hl7.org/fhir/us/core/StructureDefinition/us-core-race","extension":[{"url":"ombCategory","valueCoding":{"system":"urn:oid:2.16.840.1.113883.6.238","code":"1002-5","display":"American Indian or Alaska Native","userSelected":true}},{"url":"text","valueString":"American Indian or Alaska Native"}]},{"url":"http://hl7.org/fhir/us/core/StructureDefinition/us-core-ethnicity","extension":[{"url":"ombCategory","valueCoding":{"system":"urn:oid:2.16.840.1.113883.6.238","code":"2186-5","display":"Not Hispanic or Latino","userSelected":true}},{"url":"text","valueString":"Not Hispanic or Latino"}]},{"url":"http://hl7.org/fhir/us/core/StructureDefinition/us-core-sex","valueCode":"248152002"}],"identifier":[{"type":{"coding":[{"system":"http://terminology.hl7.org/CodeSystem/v2-0203","code":"MR"}]},"system":"https://bonnie-fhir.healthit.gov/","value":"617ad6051e8170ac98fce637"}],"name":[{"family":"IPFail","given":["STEMIbeforeEnc"]}],"gender":"female","birthDate":"1985-12-02"},"request":{"method":"PUT","url":"Patient/e5611b09-d279-4c4d-ae0a-8cf72c0a6984"}},{"fullUrl":"Condition/62e88827-711c-46f4-80f3-a624cead446b","resource":{"resourceType":"Condition","id":"62e88827-711c-46f4-80f3-a624cead446b","meta":{"profile":["http://hl7.org/fhir/us/qicore/StructureDefinition/qicore-condition-encounter-diagnosis"]},"clinicalStatus":{"coding":[{"system":"http://terminology.hl7.org/CodeSystem/condition-clinical","code":"inactive","display":"inactive","userSelected":true}]},"category":[{"coding":[{"system":"http://terminology.hl7.org/CodeSystem/condition-category","code":"encounter-diagnosis","display":"Encounter Diagnosis","userSelected":true}]}],"code":{"coding":[{"system":"http://hl7.org/fhir/sid/icd-10-cm","code":"I21.19","userSelected":true}]},"subject":{"reference":"Patient/e5611b09-d279-4c4d-ae0a-8cf72c0a6984"},"encounter":{"reference":"Encounter/a65707b2-1c24-4f88-a297-67ef8ac2136d"},"onsetDateTime":"2026-01-10T08:00:00.000+00:00","abatementDateTime":"2026-03-20T09:15:00.000+00:00"},"request":{"method":"PUT","url":"Condition/62e88827-711c-46f4-80f3-a624cead446b"}},{"fullUrl":"Encounter/a65707b2-1c24-4f88-a297-67ef8ac2136d","resource":{"resourceType":"Encounter","id":"a65707b2-1c24-4f88-a297-67ef8ac2136d","meta":{"profile":["http://hl7.org/fhir/us/qicore/StructureDefinition/qicore-encounter"]},"status":"finished","class":{"system":"http://terminology.hl7.org/CodeSystem/v3-ActCode","code":"EMER","display":"emergency","userSelected":true},"type":[{"coding":[{"system":"http://snomed.info/sct","version":"2020-09","code":"4525004","display":"Emergency department patient visit (procedure)","userSelected":true}]}],"subject":{"reference":"Patient/e5611b09-d279-4c4d-ae0a-8cf72c0a6984"},"period":{"start":"2026-10-09T08:05:00.000+00:00","end":"2026-10-10T07:15:00.000+00:00"}},"request":{"method":"PUT","url":"Encounter/a65707b2-1c24-4f88-a297-67ef8ac2136d"}},{"fullUrl":"MeasureReport/92c54078-85f2-486b-9497-b7d08b9806ae","resource":{"resourceType":"MeasureReport","id":"92c54078-85f2-486b-9497-b7d08b9806ae","meta":{"profile":["http://hl7.org/fhir/us/cqfmeasures/StructureDefinition/test-case-cqfm"]},"contained":[{"resourceType":"Parameters","id":"c8ebd4e8-6c25-44e0-a4c0-46bdb047eafe-parameters","parameter":[{"name":"subject","valueString":"e5611b09-d279-4c4d-ae0a-8cf72c0a6984"}]}],"extension":[{"url":"http://hl7.org/fhir/StructureDefinition/cqf-inputParameters","valueReference":{"reference":"#c8ebd4e8-6c25-44e0-a4c0-46bdb047eafe-parameters"}},{"url":"http://hl7.org/fhir/us/cqfmeasures/StructureDefinition/cqfm-testCaseDescription","valueMarkdown":"Patient is over 18 years old and has an encounter during the MP and a STEMI before the Encounter"}],"modifierExtension":[{"url":"http://hl7.org/fhir/us/cqfmeasures/StructureDefinition/cqfm-isTestCase","valueBoolean":true}],"status":"complete","type":"individual","measure":"https://madie.cms.gov/Measure/CMS996FHIRAptTxforSTEMI","period":{"start":"2026-01-01","end":"2026-12-31"},"group":[{"id":"Group_1","population":[{"id":"InitialPopulation_1","code":{"coding":[{"system":"http://terminology.hl7.org/CodeSystem/measure-population","code":"initial-population","display":"Initial Population"}]},"count":0},{"id":"Denominator_1","code":{"coding":[{"system":"http://terminology.hl7.org/CodeSystem/measure-population","code":"denominator","display":"Denominator"}]},"count":0},{"id":"DenominatorExclusion_1","code":{"coding":[{"system":"http://terminology.hl7.org/CodeSystem/measure-population","code":"denominator-exclusion","display":"Denominator Exclusion"}]},"count":0},{"id":"Numerator_1","code":{"coding":[{"system":"http://terminology.hl7.org/CodeSystem/measure-population","code":"numerator","display":"Numerator"}]},"count":0},{"id":"DenominatorException_1","code":{"coding":[{"system":"http://terminology.hl7.org/CodeSystem/measure-population","code":"denominator-exception","display":"Denominator Exception"}]},"count":0}],"measureScore":{"value":0.0}}],"evaluatedResource":[{"reference":"Patient/e5611b09-d279-4c4d-ae0a-8cf72c0a6984"},{"reference":"Encounter/a65707b2-1c24-4f88-a297-67ef8ac2136d"},{"reference":"Condition/62e88827-711c-46f4-80f3-a624cead446b"}]},"request":{"method":"PUT","url":"MeasureReport/92c54078-85f2-486b-9497-b7d08b9806ae"}}]}