{"resourceType":"Bundle","id":"tests-f71b56bb-42fc-4db0-aa60-6b7b91333295-bundle","type":"transaction","entry":[{"fullUrl":"Procedure/a561dfde-f5aa-4b4e-abaf-81d1ea82a461","resource":{"resourceType":"Procedure","id":"a561dfde-f5aa-4b4e-abaf-81d1ea82a461","meta":{"profile":["http://hl7.org/fhir/us/qicore/StructureDefinition/qicore-procedure"]},"extension":[{"url":"http://hl7.org/fhir/us/qicore/StructureDefinition/qicore-recorded","valueDateTime":"2026-10-09T10:15:00.000+00:00"}],"status":"completed","category":{"coding":[{"system":"http://snomed.info/sct","code":"387713003","display":"Surgical procedure","userSelected":true}]},"code":{"coding":[{"system":"http://snomed.info/sct","code":"10683007","userSelected":true}]},"subject":{"reference":"Patient/f71b56bb-42fc-4db0-aa60-6b7b91333295"},"performedPeriod":{"start":"2026-10-01T08:00:00.000+00:00","end":"2026-10-09T10:15:00.000+00:00"}},"request":{"method":"PUT","url":"Procedure/a561dfde-f5aa-4b4e-abaf-81d1ea82a461"}},{"fullUrl":"MeasureReport/f057f68f-bf0a-44fc-8f60-00b8114f4918","resource":{"resourceType":"MeasureReport","id":"f057f68f-bf0a-44fc-8f60-00b8114f4918","meta":{"profile":["http://hl7.org/fhir/us/cqfmeasures/StructureDefinition/test-case-cqfm"]},"contained":[{"resourceType":"Parameters","id":"8e36c1de-9563-4952-8fbb-77173c562d99-parameters","parameter":[{"name":"subject","valueString":"f71b56bb-42fc-4db0-aa60-6b7b91333295"}]}],"extension":[{"url":"http://hl7.org/fhir/StructureDefinition/cqf-inputParameters","valueReference":{"reference":"#8e36c1de-9563-4952-8fbb-77173c562d99-parameters"}},{"url":"http://hl7.org/fhir/us/cqfmeasures/StructureDefinition/cqfm-testCaseDescription","valueMarkdown":"Patient has Major Surgical Procedure (exclusion Px) starts 8 days before ED visit and ends during ED\n**need to select codes to test this logic as value set overlaps with intracranial/intraspinal surgery**"}],"modifierExtension":[{"url":"http://hl7.org/fhir/us/cqfmeasures/StructureDefinition/cqfm-isTestCase","valueBoolean":true}],"status":"complete","type":"individual","measure":"https://madie.cms.gov/Measure/CMS996FHIRAptTxforSTEMI","period":{"start":"2026-01-01","end":"2026-12-31"},"group":[{"id":"Group_1","population":[{"id":"InitialPopulation_1","code":{"coding":[{"system":"http://terminology.hl7.org/CodeSystem/measure-population","code":"initial-population","display":"Initial Population"}]},"count":1},{"id":"Denominator_1","code":{"coding":[{"system":"http://terminology.hl7.org/CodeSystem/measure-population","code":"denominator","display":"Denominator"}]},"count":1},{"id":"DenominatorExclusion_1","code":{"coding":[{"system":"http://terminology.hl7.org/CodeSystem/measure-population","code":"denominator-exclusion","display":"Denominator Exclusion"}]},"count":1},{"id":"Numerator_1","code":{"coding":[{"system":"http://terminology.hl7.org/CodeSystem/measure-population","code":"numerator","display":"Numerator"}]},"count":0},{"id":"DenominatorException_1","code":{"coding":[{"system":"http://terminology.hl7.org/CodeSystem/measure-population","code":"denominator-exception","display":"Denominator Exception"}]},"count":0}],"measureScore":{"value":0.0}}],"evaluatedResource":[{"reference":"Patient/f71b56bb-42fc-4db0-aa60-6b7b91333295"},{"reference":"Encounter/7b001197-1a23-4dc1-a755-cd9acc0842a3"},{"reference":"Condition/d056de5a-d062-40e0-9a18-5aaefdb79896"},{"reference":"Procedure/a561dfde-f5aa-4b4e-abaf-81d1ea82a461"}]},"request":{"method":"PUT","url":"MeasureReport/f057f68f-bf0a-44fc-8f60-00b8114f4918"}},{"fullUrl":"Patient/f71b56bb-42fc-4db0-aa60-6b7b91333295","resource":{"resourceType":"Patient","id":"f71b56bb-42fc-4db0-aa60-6b7b91333295","meta":{"profile":["http://hl7.org/fhir/us/qicore/StructureDefinition/qicore-patient"]},"extension":[{"url":"http://hl7.org/fhir/us/core/StructureDefinition/us-core-race","extension":[{"url":"ombCategory","valueCoding":{"system":"urn:oid:2.16.840.1.113883.6.238","code":"2076-8","display":"Native Hawaiian or Other Pacific Islander","userSelected":true}},{"url":"text","valueString":"Native Hawaiian or Other Pacific Islander"}]},{"url":"http://hl7.org/fhir/us/core/StructureDefinition/us-core-ethnicity","extension":[{"url":"ombCategory","valueCoding":{"system":"urn:oid:2.16.840.1.113883.6.238","code":"2186-5","display":"Not Hispanic or Latino","userSelected":true}},{"url":"text","valueString":"Not Hispanic or Latino"}]},{"url":"http://hl7.org/fhir/us/core/StructureDefinition/us-core-sex","valueCode":"248152002"}],"identifier":[{"type":{"coding":[{"system":"http://terminology.hl7.org/CodeSystem/v2-0203","code":"MR"}]},"system":"https://bonnie-fhir.healthit.gov/","value":"6179ee99ad1a790b7af7525a"}],"name":[{"family":"DenExcl3Pass","given":["PxStarPxStarts8DBeforeEDEndsDuringED"]}],"gender":"female","birthDate":"1985-12-02"},"request":{"method":"PUT","url":"Patient/f71b56bb-42fc-4db0-aa60-6b7b91333295"}},{"fullUrl":"Condition/d056de5a-d062-40e0-9a18-5aaefdb79896","resource":{"resourceType":"Condition","id":"d056de5a-d062-40e0-9a18-5aaefdb79896","meta":{"profile":["http://hl7.org/fhir/us/qicore/StructureDefinition/qicore-condition-problems-health-concerns"]},"clinicalStatus":{"coding":[{"system":"http://terminology.hl7.org/CodeSystem/condition-clinical","code":"active","display":"active","userSelected":true}]},"category":[{"coding":[{"system":"http://terminology.hl7.org/CodeSystem/condition-category","code":"problem-list-item","display":"Problem List Item","userSelected":true}]}],"code":{"coding":[{"system":"http://snomed.info/sct","version":"2020-09","code":"401303003","display":"Acute ST segment elevation myocardial infarction (disorder)","userSelected":true}]},"subject":{"reference":"Patient/f71b56bb-42fc-4db0-aa60-6b7b91333295"},"onsetDateTime":"2026-10-09T08:30:00.000+00:00"},"request":{"method":"PUT","url":"Condition/d056de5a-d062-40e0-9a18-5aaefdb79896"}},{"fullUrl":"Encounter/7b001197-1a23-4dc1-a755-cd9acc0842a3","resource":{"resourceType":"Encounter","id":"7b001197-1a23-4dc1-a755-cd9acc0842a3","meta":{"profile":["http://hl7.org/fhir/us/qicore/StructureDefinition/qicore-encounter"]},"status":"finished","class":{"system":"http://terminology.hl7.org/CodeSystem/v3-ActCode","code":"EMER","display":"emergency","userSelected":true},"type":[{"coding":[{"system":"http://snomed.info/sct","version":"2020-09","code":"4525004","display":"Emergency department patient visit (procedure)","userSelected":true}]}],"subject":{"reference":"Patient/f71b56bb-42fc-4db0-aa60-6b7b91333295"},"period":{"start":"2026-10-09T08:05:00.000+00:00","end":"2026-10-10T07:15:00.000+00:00"},"reasonReference":[{"reference":"Condition/d056de5a-d062-40e0-9a18-5aaefdb79896"}]},"request":{"method":"PUT","url":"Encounter/7b001197-1a23-4dc1-a755-cd9acc0842a3"}},{"fullUrl":"Bundle/6179ee99ad1a790b7af7525a","resource":{"resourceType":"Bundle","id":"6179ee99ad1a790b7af7525a","type":"transaction","entry":[{"fullUrl":"https://madie.cms.gov/Patient/f71b56bb-42fc-4db0-aa60-6b7b91333295","resource":{"resourceType":"Patient","id":"f71b56bb-42fc-4db0-aa60-6b7b91333295","meta":{"profile":["http://hl7.org/fhir/us/qicore/StructureDefinition/qicore-patient"]},"extension":[{"url":"http://hl7.org/fhir/us/core/StructureDefinition/us-core-race","extension":[{"url":"ombCategory","valueCoding":{"system":"urn:oid:2.16.840.1.113883.6.238","code":"2076-8","display":"Native Hawaiian or Other Pacific Islander","userSelected":true}},{"url":"text","valueString":"Native Hawaiian or Other Pacific Islander"}]},{"url":"http://hl7.org/fhir/us/core/StructureDefinition/us-core-ethnicity","extension":[{"url":"ombCategory","valueCoding":{"system":"urn:oid:2.16.840.1.113883.6.238","code":"2186-5","display":"Not Hispanic or Latino","userSelected":true}},{"url":"text","valueString":"Not Hispanic or Latino"}]},{"url":"http://hl7.org/fhir/us/core/StructureDefinition/us-core-sex","valueCode":"248152002"}],"identifier":[{"type":{"coding":[{"system":"http://terminology.hl7.org/CodeSystem/v2-0203","code":"MR"}]},"system":"https://bonnie-fhir.healthit.gov/","value":"6179ee99ad1a790b7af7525a"}],"name":[{"family":"DenExcl3Pass","given":["PxStarPxStarts8DBeforeEDEndsDuringED"]}],"gender":"female","birthDate":"1985-12-02"},"request":{"method":"PUT","url":"Patient/f71b56bb-42fc-4db0-aa60-6b7b91333295"}},{"fullUrl":"https://madie.cms.gov/Encounter/7b001197-1a23-4dc1-a755-cd9acc0842a3","resource":{"resourceType":"Encounter","id":"7b001197-1a23-4dc1-a755-cd9acc0842a3","meta":{"profile":["http://hl7.org/fhir/us/qicore/StructureDefinition/qicore-encounter"]},"status":"finished","class":{"system":"http://terminology.hl7.org/CodeSystem/v3-ActCode","code":"EMER","display":"emergency","userSelected":true},"type":[{"coding":[{"system":"http://snomed.info/sct","version":"2020-09","code":"4525004","display":"Emergency department patient visit (procedure)","userSelected":true}]}],"subject":{"reference":"Patient/f71b56bb-42fc-4db0-aa60-6b7b91333295"},"period":{"start":"2026-10-09T08:05:00.000+00:00","end":"2026-10-10T07:15:00.000+00:00"},"reasonReference":[{"reference":"Condition/d056de5a-d062-40e0-9a18-5aaefdb79896"}]},"request":{"method":"PUT","url":"Encounter/7b001197-1a23-4dc1-a755-cd9acc0842a3"}},{"fullUrl":"https://madie.cms.gov/Condition/d056de5a-d062-40e0-9a18-5aaefdb79896","resource":{"resourceType":"Condition","id":"d056de5a-d062-40e0-9a18-5aaefdb79896","meta":{"profile":["http://hl7.org/fhir/us/qicore/StructureDefinition/qicore-condition-problems-health-concerns"]},"clinicalStatus":{"coding":[{"system":"http://terminology.hl7.org/CodeSystem/condition-clinical","code":"active","display":"active","userSelected":true}]},"category":[{"coding":[{"system":"http://terminology.hl7.org/CodeSystem/condition-category","code":"problem-list-item","display":"Problem List Item","userSelected":true}]}],"code":{"coding":[{"system":"http://snomed.info/sct","version":"2020-09","code":"401303003","display":"Acute ST segment elevation myocardial infarction (disorder)","userSelected":true}]},"subject":{"reference":"Patient/f71b56bb-42fc-4db0-aa60-6b7b91333295"},"onsetDateTime":"2026-10-09T08:30:00.000+00:00"},"request":{"method":"PUT","url":"Condition/d056de5a-d062-40e0-9a18-5aaefdb79896"}},{"fullUrl":"https://madie.cms.gov/Procedure/a561dfde-f5aa-4b4e-abaf-81d1ea82a461","resource":{"resourceType":"Procedure","id":"a561dfde-f5aa-4b4e-abaf-81d1ea82a461","meta":{"profile":["http://hl7.org/fhir/us/qicore/StructureDefinition/qicore-procedure"]},"extension":[{"url":"http://hl7.org/fhir/us/qicore/StructureDefinition/qicore-recorded","valueDateTime":"2026-10-09T10:15:00.000+00:00"}],"status":"completed","category":{"coding":[{"system":"http://snomed.info/sct","code":"387713003","display":"Surgical procedure","userSelected":true}]},"code":{"coding":[{"system":"http://snomed.info/sct","code":"10683007","userSelected":true}]},"subject":{"reference":"Patient/f71b56bb-42fc-4db0-aa60-6b7b91333295"},"performedPeriod":{"start":"2026-10-01T08:00:00.000+00:00","end":"2026-10-09T10:15:00.000+00:00"}},"request":{"method":"PUT","url":"Procedure/a561dfde-f5aa-4b4e-abaf-81d1ea82a461"}},{"fullUrl":"https://madie.cms.gov/MeasureReport/f057f68f-bf0a-44fc-8f60-00b8114f4918","resource":{"resourceType":"MeasureReport","id":"f057f68f-bf0a-44fc-8f60-00b8114f4918","meta":{"profile":["http://hl7.org/fhir/us/cqfmeasures/StructureDefinition/test-case-cqfm"]},"contained":[{"resourceType":"Parameters","id":"8e36c1de-9563-4952-8fbb-77173c562d99-parameters","parameter":[{"name":"subject","valueString":"f71b56bb-42fc-4db0-aa60-6b7b91333295"}]}],"extension":[{"url":"http://hl7.org/fhir/StructureDefinition/cqf-inputParameters","valueReference":{"reference":"#8e36c1de-9563-4952-8fbb-77173c562d99-parameters"}},{"url":"http://hl7.org/fhir/us/cqfmeasures/StructureDefinition/cqfm-testCaseDescription","valueMarkdown":"Patient has Major Surgical Procedure (exclusion Px) starts 8 days before ED visit and ends during ED\n**need to select codes to test this logic as value set overlaps with intracranial/intraspinal surgery**"}],"modifierExtension":[{"url":"http://hl7.org/fhir/us/cqfmeasures/StructureDefinition/cqfm-isTestCase","valueBoolean":true}],"status":"complete","type":"individual","measure":"https://madie.cms.gov/Measure/CMS996FHIRAptTxforSTEMI","period":{"start":"2026-01-01","end":"2026-12-31"},"group":[{"id":"Group_1","population":[{"id":"InitialPopulation_1","code":{"coding":[{"system":"http://terminology.hl7.org/CodeSystem/measure-population","code":"initial-population","display":"Initial Population"}]},"count":1},{"id":"Denominator_1","code":{"coding":[{"system":"http://terminology.hl7.org/CodeSystem/measure-population","code":"denominator","display":"Denominator"}]},"count":1},{"id":"DenominatorExclusion_1","code":{"coding":[{"system":"http://terminology.hl7.org/CodeSystem/measure-population","code":"denominator-exclusion","display":"Denominator Exclusion"}]},"count":1},{"id":"Numerator_1","code":{"coding":[{"system":"http://terminology.hl7.org/CodeSystem/measure-population","code":"numerator","display":"Numerator"}]},"count":0},{"id":"DenominatorException_1","code":{"coding":[{"system":"http://terminology.hl7.org/CodeSystem/measure-population","code":"denominator-exception","display":"Denominator Exception"}]},"count":0}],"measureScore":{"value":0.0}}],"evaluatedResource":[{"reference":"Patient/f71b56bb-42fc-4db0-aa60-6b7b91333295"},{"reference":"Encounter/7b001197-1a23-4dc1-a755-cd9acc0842a3"},{"reference":"Condition/d056de5a-d062-40e0-9a18-5aaefdb79896"},{"reference":"Procedure/a561dfde-f5aa-4b4e-abaf-81d1ea82a461"}]},"request":{"method":"PUT","url":"MeasureReport/f057f68f-bf0a-44fc-8f60-00b8114f4918"}}]},"request":{"method":"PUT","url":"Bundle/6179ee99ad1a790b7af7525a"}}]}