{"resourceType":"Bundle","id":"tests-99858043-4084-4412-b66c-dfb830097aa8-bundle","type":"transaction","entry":[{"fullUrl":"Observation/aa2d2992-0d7b-4cf8-9152-37267f7b318f","resource":{"resourceType":"Observation","id":"aa2d2992-0d7b-4cf8-9152-37267f7b318f","meta":{"profile":["http://hl7.org/fhir/us/qicore/StructureDefinition/qicore-observation-screening-assessment"]},"status":"final","category":[{"coding":[{"system":"http://terminology.hl7.org/CodeSystem/observation-category","code":"survey","display":"Survey","userSelected":true}]}],"code":{"coding":[{"system":"http://loinc.org","code":"45755-6","display":"Hospice care [Minimum Data Set]","userSelected":true}]},"subject":{"reference":"Patient/99858043-4084-4412-b66c-dfb830097aa8"},"effectivePeriod":{"start":"2026-10-16T02:00:00.000+00:00","end":"2026-10-16T06:00:00.000+00:00"},"valueCodeableConcept":{"coding":[{"system":"http://snomed.info/sct","code":"373066001","display":"Yes (qualifier value)","userSelected":true}]}},"request":{"method":"PUT","url":"Observation/aa2d2992-0d7b-4cf8-9152-37267f7b318f"}},{"fullUrl":"Bundle/b1f044ef3e654daa2265","resource":{"resourceType":"Bundle","id":"b1f044ef3e654daa2265","type":"transaction","entry":[{"fullUrl":"https://madie.cms.gov/Patient/99858043-4084-4412-b66c-dfb830097aa8","resource":{"resourceType":"Patient","id":"99858043-4084-4412-b66c-dfb830097aa8","meta":{"profile":["http://hl7.org/fhir/us/qicore/StructureDefinition/qicore-patient"]},"extension":[{"url":"http://hl7.org/fhir/us/core/StructureDefinition/us-core-race","extension":[{"url":"ombCategory","valueCoding":{"system":"urn:oid:2.16.840.1.113883.6.238","code":"1002-5","display":"American Indian or Alaska Native","userSelected":true}},{"url":"text","valueString":"American Indian or Alaska Native"}]},{"url":"http://hl7.org/fhir/us/core/StructureDefinition/us-core-ethnicity","extension":[{"url":"ombCategory","valueCoding":{"system":"urn:oid:2.16.840.1.113883.6.238","code":"2135-2","display":"Hispanic or Latino","userSelected":true}},{"url":"text","valueString":"Hispanic or Latino"}]},{"url":"http://hl7.org/fhir/us/core/StructureDefinition/us-core-sex","valueCode":"248152002"}],"identifier":[{"type":{"coding":[{"system":"http://terminology.hl7.org/CodeSystem/v2-0203","code":"MR"}]},"system":"https://bonnie-fhir.healthit.gov/","value":"b1f044ef3e654daa2265"}],"name":[{"family":"DENEXCL11FAIL","given":["HospiceAssessmentAfterED"]}],"gender":"female","birthDate":"1963-04-20"},"request":{"method":"PUT","url":"Patient/99858043-4084-4412-b66c-dfb830097aa8"}},{"fullUrl":"https://madie.cms.gov/Encounter/9b82fa01-0011-46df-a72c-9b52b79edf12","resource":{"resourceType":"Encounter","id":"9b82fa01-0011-46df-a72c-9b52b79edf12","meta":{"profile":["http://hl7.org/fhir/us/qicore/StructureDefinition/qicore-encounter"]},"status":"finished","class":{"system":"http://terminology.hl7.org/CodeSystem/v3-ActCode","code":"EMER","display":"emergency","userSelected":true},"type":[{"coding":[{"system":"http://snomed.info/sct","version":"2020-09","code":"4525004","display":"Emergency department patient visit","userSelected":true}]}],"subject":{"reference":"Patient/99858043-4084-4412-b66c-dfb830097aa8"},"period":{"start":"2026-10-09T05:00:00.000+00:00","end":"2026-10-13T17:00:00.000+00:00"},"reasonCode":[{"coding":[{"system":"http://hl7.org/fhir/sid/icd-10-cm","code":"I21.21","display":"ST elevation (STEMI) myocardial infarction involving left circumflex coronary artery","userSelected":true}]}]},"request":{"method":"PUT","url":"Encounter/9b82fa01-0011-46df-a72c-9b52b79edf12"}},{"fullUrl":"https://madie.cms.gov/Observation/aa2d2992-0d7b-4cf8-9152-37267f7b318f","resource":{"resourceType":"Observation","id":"aa2d2992-0d7b-4cf8-9152-37267f7b318f","meta":{"profile":["http://hl7.org/fhir/us/qicore/StructureDefinition/qicore-observation-screening-assessment"]},"status":"final","category":[{"coding":[{"system":"http://terminology.hl7.org/CodeSystem/observation-category","code":"survey","display":"Survey","userSelected":true}]}],"code":{"coding":[{"system":"http://loinc.org","code":"45755-6","display":"Hospice care [Minimum Data Set]","userSelected":true}]},"subject":{"reference":"Patient/99858043-4084-4412-b66c-dfb830097aa8"},"effectivePeriod":{"start":"2026-10-16T02:00:00.000+00:00","end":"2026-10-16T06:00:00.000+00:00"},"valueCodeableConcept":{"coding":[{"system":"http://snomed.info/sct","code":"373066001","display":"Yes (qualifier value)","userSelected":true}]}},"request":{"method":"PUT","url":"Observation/aa2d2992-0d7b-4cf8-9152-37267f7b318f"}},{"fullUrl":"https://madie.cms.gov/MeasureReport/8b173745-5114-41b9-b05e-8b0a2d0bdb24","resource":{"resourceType":"MeasureReport","id":"8b173745-5114-41b9-b05e-8b0a2d0bdb24","meta":{"profile":["http://hl7.org/fhir/us/cqfmeasures/StructureDefinition/test-case-cqfm"]},"contained":[{"resourceType":"Parameters","id":"96d6f168-0c40-4ff8-a88d-e9dcd3b8c798-parameters","parameter":[{"name":"subject","valueString":"99858043-4084-4412-b66c-dfb830097aa8"}]}],"extension":[{"url":"http://hl7.org/fhir/StructureDefinition/cqf-inputParameters","valueReference":{"reference":"#96d6f168-0c40-4ff8-a88d-e9dcd3b8c798-parameters"}},{"url":"http://hl7.org/fhir/us/cqfmeasures/StructureDefinition/cqfm-testCaseDescription","valueMarkdown":"Hospice Assessment after ED stay, but during the measurement period"}],"modifierExtension":[{"url":"http://hl7.org/fhir/us/cqfmeasures/StructureDefinition/cqfm-isTestCase","valueBoolean":true}],"status":"complete","type":"individual","measure":"https://madie.cms.gov/Measure/CMS996FHIRAptTxforSTEMI","period":{"start":"2026-01-01","end":"2026-12-31"},"group":[{"id":"Group_1","population":[{"id":"InitialPopulation_1","code":{"coding":[{"system":"http://terminology.hl7.org/CodeSystem/measure-population","code":"initial-population","display":"Initial Population"}]},"count":1},{"id":"Denominator_1","code":{"coding":[{"system":"http://terminology.hl7.org/CodeSystem/measure-population","code":"denominator","display":"Denominator"}]},"count":1},{"id":"DenominatorExclusion_1","code":{"coding":[{"system":"http://terminology.hl7.org/CodeSystem/measure-population","code":"denominator-exclusion","display":"Denominator Exclusion"}]},"count":0},{"id":"Numerator_1","code":{"coding":[{"system":"http://terminology.hl7.org/CodeSystem/measure-population","code":"numerator","display":"Numerator"}]},"count":0},{"id":"DenominatorException_1","code":{"coding":[{"system":"http://terminology.hl7.org/CodeSystem/measure-population","code":"denominator-exception","display":"Denominator Exception"}]},"count":0}],"measureScore":{"value":0.0}}],"evaluatedResource":[{"reference":"Patient/99858043-4084-4412-b66c-dfb830097aa8"},{"reference":"Encounter/9b82fa01-0011-46df-a72c-9b52b79edf12"},{"reference":"Observation/aa2d2992-0d7b-4cf8-9152-37267f7b318f"}]},"request":{"method":"PUT","url":"MeasureReport/8b173745-5114-41b9-b05e-8b0a2d0bdb24"}}]},"request":{"method":"PUT","url":"Bundle/b1f044ef3e654daa2265"}},{"fullUrl":"Patient/99858043-4084-4412-b66c-dfb830097aa8","resource":{"resourceType":"Patient","id":"99858043-4084-4412-b66c-dfb830097aa8","meta":{"profile":["http://hl7.org/fhir/us/qicore/StructureDefinition/qicore-patient"]},"extension":[{"url":"http://hl7.org/fhir/us/core/StructureDefinition/us-core-race","extension":[{"url":"ombCategory","valueCoding":{"system":"urn:oid:2.16.840.1.113883.6.238","code":"1002-5","display":"American Indian or Alaska Native","userSelected":true}},{"url":"text","valueString":"American Indian or Alaska Native"}]},{"url":"http://hl7.org/fhir/us/core/StructureDefinition/us-core-ethnicity","extension":[{"url":"ombCategory","valueCoding":{"system":"urn:oid:2.16.840.1.113883.6.238","code":"2135-2","display":"Hispanic or Latino","userSelected":true}},{"url":"text","valueString":"Hispanic or Latino"}]},{"url":"http://hl7.org/fhir/us/core/StructureDefinition/us-core-sex","valueCode":"248152002"}],"identifier":[{"type":{"coding":[{"system":"http://terminology.hl7.org/CodeSystem/v2-0203","code":"MR"}]},"system":"https://bonnie-fhir.healthit.gov/","value":"b1f044ef3e654daa2265"}],"name":[{"family":"DENEXCL11FAIL","given":["HospiceAssessmentAfterED"]}],"gender":"female","birthDate":"1963-04-20"},"request":{"method":"PUT","url":"Patient/99858043-4084-4412-b66c-dfb830097aa8"}},{"fullUrl":"Encounter/9b82fa01-0011-46df-a72c-9b52b79edf12","resource":{"resourceType":"Encounter","id":"9b82fa01-0011-46df-a72c-9b52b79edf12","meta":{"profile":["http://hl7.org/fhir/us/qicore/StructureDefinition/qicore-encounter"]},"status":"finished","class":{"system":"http://terminology.hl7.org/CodeSystem/v3-ActCode","code":"EMER","display":"emergency","userSelected":true},"type":[{"coding":[{"system":"http://snomed.info/sct","version":"2020-09","code":"4525004","display":"Emergency department patient visit","userSelected":true}]}],"subject":{"reference":"Patient/99858043-4084-4412-b66c-dfb830097aa8"},"period":{"start":"2026-10-09T05:00:00.000+00:00","end":"2026-10-13T17:00:00.000+00:00"},"reasonCode":[{"coding":[{"system":"http://hl7.org/fhir/sid/icd-10-cm","code":"I21.21","display":"ST elevation (STEMI) myocardial infarction involving left circumflex coronary artery","userSelected":true}]}]},"request":{"method":"PUT","url":"Encounter/9b82fa01-0011-46df-a72c-9b52b79edf12"}},{"fullUrl":"MeasureReport/8b173745-5114-41b9-b05e-8b0a2d0bdb24","resource":{"resourceType":"MeasureReport","id":"8b173745-5114-41b9-b05e-8b0a2d0bdb24","meta":{"profile":["http://hl7.org/fhir/us/cqfmeasures/StructureDefinition/test-case-cqfm"]},"contained":[{"resourceType":"Parameters","id":"96d6f168-0c40-4ff8-a88d-e9dcd3b8c798-parameters","parameter":[{"name":"subject","valueString":"99858043-4084-4412-b66c-dfb830097aa8"}]}],"extension":[{"url":"http://hl7.org/fhir/StructureDefinition/cqf-inputParameters","valueReference":{"reference":"#96d6f168-0c40-4ff8-a88d-e9dcd3b8c798-parameters"}},{"url":"http://hl7.org/fhir/us/cqfmeasures/StructureDefinition/cqfm-testCaseDescription","valueMarkdown":"Hospice Assessment after ED stay, but during the measurement period"}],"modifierExtension":[{"url":"http://hl7.org/fhir/us/cqfmeasures/StructureDefinition/cqfm-isTestCase","valueBoolean":true}],"status":"complete","type":"individual","measure":"https://madie.cms.gov/Measure/CMS996FHIRAptTxforSTEMI","period":{"start":"2026-01-01","end":"2026-12-31"},"group":[{"id":"Group_1","population":[{"id":"InitialPopulation_1","code":{"coding":[{"system":"http://terminology.hl7.org/CodeSystem/measure-population","code":"initial-population","display":"Initial Population"}]},"count":1},{"id":"Denominator_1","code":{"coding":[{"system":"http://terminology.hl7.org/CodeSystem/measure-population","code":"denominator","display":"Denominator"}]},"count":1},{"id":"DenominatorExclusion_1","code":{"coding":[{"system":"http://terminology.hl7.org/CodeSystem/measure-population","code":"denominator-exclusion","display":"Denominator Exclusion"}]},"count":0},{"id":"Numerator_1","code":{"coding":[{"system":"http://terminology.hl7.org/CodeSystem/measure-population","code":"numerator","display":"Numerator"}]},"count":0},{"id":"DenominatorException_1","code":{"coding":[{"system":"http://terminology.hl7.org/CodeSystem/measure-population","code":"denominator-exception","display":"Denominator Exception"}]},"count":0}],"measureScore":{"value":0.0}}],"evaluatedResource":[{"reference":"Patient/99858043-4084-4412-b66c-dfb830097aa8"},{"reference":"Encounter/9b82fa01-0011-46df-a72c-9b52b79edf12"},{"reference":"Observation/aa2d2992-0d7b-4cf8-9152-37267f7b318f"}]},"request":{"method":"PUT","url":"MeasureReport/8b173745-5114-41b9-b05e-8b0a2d0bdb24"}}]}