{"resourceType":"Bundle","id":"tests-b05b93b0-e1a1-4b6e-b905-171d4bca2775-bundle","type":"transaction","entry":[{"fullUrl":"Condition/d07f42de-c6d0-435c-9242-0ad6949e9888","resource":{"resourceType":"Condition","id":"d07f42de-c6d0-435c-9242-0ad6949e9888","meta":{"profile":["http://hl7.org/fhir/us/qicore/StructureDefinition/qicore-condition-problems-health-concerns"]},"clinicalStatus":{"coding":[{"system":"http://terminology.hl7.org/CodeSystem/condition-clinical","code":"active","display":"active","userSelected":true}]},"category":[{"coding":[{"system":"http://terminology.hl7.org/CodeSystem/condition-category","code":"problem-list-item","display":"Problem List Item","userSelected":true}]}],"code":{"coding":[{"system":"http://snomed.info/sct","version":"2020-09","code":"401303003","display":"Acute ST segment elevation myocardial infarction (disorder)","userSelected":true}]},"subject":{"reference":"Patient/b05b93b0-e1a1-4b6e-b905-171d4bca2775"},"onsetDateTime":"2026-10-09T08:30:00.000+00:00"},"request":{"method":"PUT","url":"Condition/d07f42de-c6d0-435c-9242-0ad6949e9888"}},{"fullUrl":"Bundle/617bf0b11619a529957d62c3","resource":{"resourceType":"Bundle","id":"617bf0b11619a529957d62c3","type":"transaction","entry":[{"fullUrl":"https://madie.cms.gov/Patient/b05b93b0-e1a1-4b6e-b905-171d4bca2775","resource":{"resourceType":"Patient","id":"b05b93b0-e1a1-4b6e-b905-171d4bca2775","meta":{"profile":["http://hl7.org/fhir/us/qicore/StructureDefinition/qicore-patient"]},"extension":[{"url":"http://hl7.org/fhir/us/core/StructureDefinition/us-core-race","extension":[{"url":"ombCategory","valueCoding":{"system":"urn:oid:2.16.840.1.113883.6.238","code":"2054-5","display":"Black or African American","userSelected":true}},{"url":"text","valueString":"Black or African American"}]},{"url":"http://hl7.org/fhir/us/core/StructureDefinition/us-core-ethnicity","extension":[{"url":"ombCategory","valueCoding":{"system":"urn:oid:2.16.840.1.113883.6.238","code":"2186-5","display":"Not Hispanic or Latino","userSelected":true}},{"url":"text","valueString":"Not Hispanic or Latino"}]},{"url":"http://hl7.org/fhir/us/core/StructureDefinition/us-core-sex","valueCode":"248152002"}],"identifier":[{"type":{"coding":[{"system":"http://terminology.hl7.org/CodeSystem/v2-0203","code":"MR"}]},"system":"https://bonnie-fhir.healthit.gov/","value":"617bf0b11619a529957d62c3"}],"name":[{"family":"DenExcl7Pass","given":["DxStartsDuring90dayPeriodNoEnd"]}],"gender":"female","birthDate":"1985-12-02"},"request":{"method":"PUT","url":"Patient/b05b93b0-e1a1-4b6e-b905-171d4bca2775"}},{"fullUrl":"https://madie.cms.gov/Encounter/92495d08-2b60-4146-8aa4-d2d11e8f8ea3","resource":{"resourceType":"Encounter","id":"92495d08-2b60-4146-8aa4-d2d11e8f8ea3","meta":{"profile":["http://hl7.org/fhir/us/qicore/StructureDefinition/qicore-encounter"]},"status":"finished","class":{"system":"http://terminology.hl7.org/CodeSystem/v3-ActCode","code":"EMER","display":"emergency","userSelected":true},"type":[{"coding":[{"system":"http://snomed.info/sct","version":"2020-09","code":"4525004","display":"Emergency department patient visit (procedure)","userSelected":true}]}],"subject":{"reference":"Patient/b05b93b0-e1a1-4b6e-b905-171d4bca2775"},"period":{"start":"2026-10-09T08:05:00.000+00:00","end":"2026-10-10T07:15:00.000+00:00"},"reasonReference":[{"reference":"Condition/d07f42de-c6d0-435c-9242-0ad6949e9888"}]},"request":{"method":"PUT","url":"Encounter/92495d08-2b60-4146-8aa4-d2d11e8f8ea3"}},{"fullUrl":"https://madie.cms.gov/Condition/d07f42de-c6d0-435c-9242-0ad6949e9888","resource":{"resourceType":"Condition","id":"d07f42de-c6d0-435c-9242-0ad6949e9888","meta":{"profile":["http://hl7.org/fhir/us/qicore/StructureDefinition/qicore-condition-problems-health-concerns"]},"clinicalStatus":{"coding":[{"system":"http://terminology.hl7.org/CodeSystem/condition-clinical","code":"active","display":"active","userSelected":true}]},"category":[{"coding":[{"system":"http://terminology.hl7.org/CodeSystem/condition-category","code":"problem-list-item","display":"Problem List Item","userSelected":true}]}],"code":{"coding":[{"system":"http://snomed.info/sct","version":"2020-09","code":"401303003","display":"Acute ST segment elevation myocardial infarction (disorder)","userSelected":true}]},"subject":{"reference":"Patient/b05b93b0-e1a1-4b6e-b905-171d4bca2775"},"onsetDateTime":"2026-10-09T08:30:00.000+00:00"},"request":{"method":"PUT","url":"Condition/d07f42de-c6d0-435c-9242-0ad6949e9888"}},{"fullUrl":"https://madie.cms.gov/Condition/e7576ff9-8971-4318-a0f0-9572e06803d4","resource":{"resourceType":"Condition","id":"e7576ff9-8971-4318-a0f0-9572e06803d4","meta":{"profile":["http://hl7.org/fhir/us/qicore/StructureDefinition/qicore-condition-problems-health-concerns"]},"clinicalStatus":{"coding":[{"system":"http://terminology.hl7.org/CodeSystem/condition-clinical","code":"active","display":"active","userSelected":true}]},"verificationStatus":{"coding":[{"system":"http://terminology.hl7.org/CodeSystem/condition-ver-status","code":"differential"}]},"category":[{"coding":[{"system":"http://terminology.hl7.org/CodeSystem/condition-category","code":"problem-list-item","display":"Problem List Item","userSelected":true}]}],"code":{"coding":[{"system":"http://snomed.info/sct","version":"2020-09","code":"111353003","display":"Acute peptic ulcer with hemorrhage and perforation (disorder)","userSelected":true}]},"subject":{"reference":"Patient/b05b93b0-e1a1-4b6e-b905-171d4bca2775"},"onsetDateTime":"2026-08-20T08:00:00.000+00:00"},"request":{"method":"PUT","url":"Condition/e7576ff9-8971-4318-a0f0-9572e06803d4"}},{"fullUrl":"https://madie.cms.gov/MeasureReport/d475e21b-3d53-4a96-8fdc-683537ef1884","resource":{"resourceType":"MeasureReport","id":"d475e21b-3d53-4a96-8fdc-683537ef1884","meta":{"profile":["http://hl7.org/fhir/us/cqfmeasures/StructureDefinition/test-case-cqfm"]},"contained":[{"resourceType":"Parameters","id":"6bec62c2-fdff-4dd0-b306-096be6d55ebe-parameters","parameter":[{"name":"subject","valueString":"b05b93b0-e1a1-4b6e-b905-171d4bca2775"}]}],"extension":[{"url":"http://hl7.org/fhir/StructureDefinition/cqf-inputParameters","valueReference":{"reference":"#6bec62c2-fdff-4dd0-b306-096be6d55ebe-parameters"}},{"url":"http://hl7.org/fhir/us/cqfmeasures/StructureDefinition/cqfm-testCaseDescription","valueMarkdown":"Patient has active peptic ulcer (exclusion diagnosis) starts during 90 day period and no end"}],"modifierExtension":[{"url":"http://hl7.org/fhir/us/cqfmeasures/StructureDefinition/cqfm-isTestCase","valueBoolean":true}],"status":"complete","type":"individual","measure":"https://madie.cms.gov/Measure/CMS996FHIRAptTxforSTEMI","period":{"start":"2026-01-01","end":"2026-12-31"},"group":[{"id":"Group_1","population":[{"id":"InitialPopulation_1","code":{"coding":[{"system":"http://terminology.hl7.org/CodeSystem/measure-population","code":"initial-population","display":"Initial Population"}]},"count":1},{"id":"Denominator_1","code":{"coding":[{"system":"http://terminology.hl7.org/CodeSystem/measure-population","code":"denominator","display":"Denominator"}]},"count":1},{"id":"DenominatorExclusion_1","code":{"coding":[{"system":"http://terminology.hl7.org/CodeSystem/measure-population","code":"denominator-exclusion","display":"Denominator Exclusion"}]},"count":1},{"id":"Numerator_1","code":{"coding":[{"system":"http://terminology.hl7.org/CodeSystem/measure-population","code":"numerator","display":"Numerator"}]},"count":0},{"id":"DenominatorException_1","code":{"coding":[{"system":"http://terminology.hl7.org/CodeSystem/measure-population","code":"denominator-exception","display":"Denominator Exception"}]},"count":0}],"measureScore":{"value":0.0}}],"evaluatedResource":[{"reference":"Patient/b05b93b0-e1a1-4b6e-b905-171d4bca2775"},{"reference":"Encounter/92495d08-2b60-4146-8aa4-d2d11e8f8ea3"},{"reference":"Condition/d07f42de-c6d0-435c-9242-0ad6949e9888"},{"reference":"Condition/e7576ff9-8971-4318-a0f0-9572e06803d4"}]},"request":{"method":"PUT","url":"MeasureReport/d475e21b-3d53-4a96-8fdc-683537ef1884"}}]},"request":{"method":"PUT","url":"Bundle/617bf0b11619a529957d62c3"}},{"fullUrl":"Encounter/92495d08-2b60-4146-8aa4-d2d11e8f8ea3","resource":{"resourceType":"Encounter","id":"92495d08-2b60-4146-8aa4-d2d11e8f8ea3","meta":{"profile":["http://hl7.org/fhir/us/qicore/StructureDefinition/qicore-encounter"]},"status":"finished","class":{"system":"http://terminology.hl7.org/CodeSystem/v3-ActCode","code":"EMER","display":"emergency","userSelected":true},"type":[{"coding":[{"system":"http://snomed.info/sct","version":"2020-09","code":"4525004","display":"Emergency department patient visit (procedure)","userSelected":true}]}],"subject":{"reference":"Patient/b05b93b0-e1a1-4b6e-b905-171d4bca2775"},"period":{"start":"2026-10-09T08:05:00.000+00:00","end":"2026-10-10T07:15:00.000+00:00"},"reasonReference":[{"reference":"Condition/d07f42de-c6d0-435c-9242-0ad6949e9888"}]},"request":{"method":"PUT","url":"Encounter/92495d08-2b60-4146-8aa4-d2d11e8f8ea3"}},{"fullUrl":"Patient/b05b93b0-e1a1-4b6e-b905-171d4bca2775","resource":{"resourceType":"Patient","id":"b05b93b0-e1a1-4b6e-b905-171d4bca2775","meta":{"profile":["http://hl7.org/fhir/us/qicore/StructureDefinition/qicore-patient"]},"extension":[{"url":"http://hl7.org/fhir/us/core/StructureDefinition/us-core-race","extension":[{"url":"ombCategory","valueCoding":{"system":"urn:oid:2.16.840.1.113883.6.238","code":"2054-5","display":"Black or African American","userSelected":true}},{"url":"text","valueString":"Black or African American"}]},{"url":"http://hl7.org/fhir/us/core/StructureDefinition/us-core-ethnicity","extension":[{"url":"ombCategory","valueCoding":{"system":"urn:oid:2.16.840.1.113883.6.238","code":"2186-5","display":"Not Hispanic or Latino","userSelected":true}},{"url":"text","valueString":"Not Hispanic or Latino"}]},{"url":"http://hl7.org/fhir/us/core/StructureDefinition/us-core-sex","valueCode":"248152002"}],"identifier":[{"type":{"coding":[{"system":"http://terminology.hl7.org/CodeSystem/v2-0203","code":"MR"}]},"system":"https://bonnie-fhir.healthit.gov/","value":"617bf0b11619a529957d62c3"}],"name":[{"family":"DenExcl7Pass","given":["DxStartsDuring90dayPeriodNoEnd"]}],"gender":"female","birthDate":"1985-12-02"},"request":{"method":"PUT","url":"Patient/b05b93b0-e1a1-4b6e-b905-171d4bca2775"}},{"fullUrl":"MeasureReport/d475e21b-3d53-4a96-8fdc-683537ef1884","resource":{"resourceType":"MeasureReport","id":"d475e21b-3d53-4a96-8fdc-683537ef1884","meta":{"profile":["http://hl7.org/fhir/us/cqfmeasures/StructureDefinition/test-case-cqfm"]},"contained":[{"resourceType":"Parameters","id":"6bec62c2-fdff-4dd0-b306-096be6d55ebe-parameters","parameter":[{"name":"subject","valueString":"b05b93b0-e1a1-4b6e-b905-171d4bca2775"}]}],"extension":[{"url":"http://hl7.org/fhir/StructureDefinition/cqf-inputParameters","valueReference":{"reference":"#6bec62c2-fdff-4dd0-b306-096be6d55ebe-parameters"}},{"url":"http://hl7.org/fhir/us/cqfmeasures/StructureDefinition/cqfm-testCaseDescription","valueMarkdown":"Patient has active peptic ulcer (exclusion diagnosis) starts during 90 day period and no end"}],"modifierExtension":[{"url":"http://hl7.org/fhir/us/cqfmeasures/StructureDefinition/cqfm-isTestCase","valueBoolean":true}],"status":"complete","type":"individual","measure":"https://madie.cms.gov/Measure/CMS996FHIRAptTxforSTEMI","period":{"start":"2026-01-01","end":"2026-12-31"},"group":[{"id":"Group_1","population":[{"id":"InitialPopulation_1","code":{"coding":[{"system":"http://terminology.hl7.org/CodeSystem/measure-population","code":"initial-population","display":"Initial Population"}]},"count":1},{"id":"Denominator_1","code":{"coding":[{"system":"http://terminology.hl7.org/CodeSystem/measure-population","code":"denominator","display":"Denominator"}]},"count":1},{"id":"DenominatorExclusion_1","code":{"coding":[{"system":"http://terminology.hl7.org/CodeSystem/measure-population","code":"denominator-exclusion","display":"Denominator Exclusion"}]},"count":1},{"id":"Numerator_1","code":{"coding":[{"system":"http://terminology.hl7.org/CodeSystem/measure-population","code":"numerator","display":"Numerator"}]},"count":0},{"id":"DenominatorException_1","code":{"coding":[{"system":"http://terminology.hl7.org/CodeSystem/measure-population","code":"denominator-exception","display":"Denominator Exception"}]},"count":0}],"measureScore":{"value":0.0}}],"evaluatedResource":[{"reference":"Patient/b05b93b0-e1a1-4b6e-b905-171d4bca2775"},{"reference":"Encounter/92495d08-2b60-4146-8aa4-d2d11e8f8ea3"},{"reference":"Condition/d07f42de-c6d0-435c-9242-0ad6949e9888"},{"reference":"Condition/e7576ff9-8971-4318-a0f0-9572e06803d4"}]},"request":{"method":"PUT","url":"MeasureReport/d475e21b-3d53-4a96-8fdc-683537ef1884"}},{"fullUrl":"Condition/e7576ff9-8971-4318-a0f0-9572e06803d4","resource":{"resourceType":"Condition","id":"e7576ff9-8971-4318-a0f0-9572e06803d4","meta":{"profile":["http://hl7.org/fhir/us/qicore/StructureDefinition/qicore-condition-problems-health-concerns"]},"clinicalStatus":{"coding":[{"system":"http://terminology.hl7.org/CodeSystem/condition-clinical","code":"active","display":"active","userSelected":true}]},"verificationStatus":{"coding":[{"system":"http://terminology.hl7.org/CodeSystem/condition-ver-status","code":"differential"}]},"category":[{"coding":[{"system":"http://terminology.hl7.org/CodeSystem/condition-category","code":"problem-list-item","display":"Problem List Item","userSelected":true}]}],"code":{"coding":[{"system":"http://snomed.info/sct","version":"2020-09","code":"111353003","display":"Acute peptic ulcer with hemorrhage and perforation (disorder)","userSelected":true}]},"subject":{"reference":"Patient/b05b93b0-e1a1-4b6e-b905-171d4bca2775"},"onsetDateTime":"2026-08-20T08:00:00.000+00:00"},"request":{"method":"PUT","url":"Condition/e7576ff9-8971-4318-a0f0-9572e06803d4"}}]}