{"resourceType":"Bundle","id":"tests-64c8c187-6a67-49c4-b6cc-bb4f746fbc51-bundle","type":"transaction","entry":[{"fullUrl":"Bundle/617bff451289f5673c8ceffe","resource":{"resourceType":"Bundle","id":"617bff451289f5673c8ceffe","type":"transaction","entry":[{"fullUrl":"https://madie.cms.gov/Patient/64c8c187-6a67-49c4-b6cc-bb4f746fbc51","resource":{"resourceType":"Patient","id":"64c8c187-6a67-49c4-b6cc-bb4f746fbc51","meta":{"profile":["http://hl7.org/fhir/us/qicore/StructureDefinition/qicore-patient"]},"extension":[{"url":"http://hl7.org/fhir/us/core/StructureDefinition/us-core-race","extension":[{"url":"ombCategory","valueCoding":{"system":"urn:oid:2.16.840.1.113883.6.238","code":"2028-9","display":"Asian","userSelected":true}},{"url":"text","valueString":"Asian"}]},{"url":"http://hl7.org/fhir/us/core/StructureDefinition/us-core-ethnicity","extension":[{"url":"ombCategory","valueCoding":{"system":"urn:oid:2.16.840.1.113883.6.238","code":"2186-5","display":"Not Hispanic or Latino","userSelected":true}},{"url":"text","valueString":"Not Hispanic or Latino"}]},{"url":"http://hl7.org/fhir/us/core/StructureDefinition/us-core-sex","valueCode":"248152002"}],"identifier":[{"type":{"coding":[{"system":"http://terminology.hl7.org/CodeSystem/v2-0203","code":"MR"}]},"system":"https://bonnie-fhir.healthit.gov/","value":"617bff451289f5673c8ceffe"}],"name":[{"family":"DenExclPass","given":["Expired"]}],"gender":"female","birthDate":"1985-12-02"},"request":{"method":"PUT","url":"Patient/64c8c187-6a67-49c4-b6cc-bb4f746fbc51"}},{"fullUrl":"https://madie.cms.gov/Encounter/32dfca07-9807-4e85-a247-d6c577c258c1","resource":{"resourceType":"Encounter","id":"32dfca07-9807-4e85-a247-d6c577c258c1","meta":{"profile":["http://hl7.org/fhir/us/qicore/StructureDefinition/qicore-encounter"]},"status":"finished","class":{"system":"http://terminology.hl7.org/CodeSystem/v3-ActCode","code":"EMER","display":"emergency","userSelected":true},"type":[{"coding":[{"system":"http://snomed.info/sct","version":"2020-09","code":"4525004","display":"Emergency department patient visit (procedure)","userSelected":true}]}],"subject":{"reference":"Patient/64c8c187-6a67-49c4-b6cc-bb4f746fbc51"},"period":{"start":"2026-10-09T08:05:00.000+00:00","end":"2026-10-10T07:15:00.000+00:00"},"reasonReference":[{"reference":"Condition/c5214584-a19d-41e3-a002-0cdc46749296"}],"hospitalization":{"dischargeDisposition":{"coding":[{"system":"http://snomed.info/sct","code":"371828006","display":"Patient deceased during stay (discharge status = dead) (finding)","userSelected":true}]}}},"request":{"method":"PUT","url":"Encounter/32dfca07-9807-4e85-a247-d6c577c258c1"}},{"fullUrl":"https://madie.cms.gov/Condition/c5214584-a19d-41e3-a002-0cdc46749296","resource":{"resourceType":"Condition","id":"c5214584-a19d-41e3-a002-0cdc46749296","meta":{"profile":["http://hl7.org/fhir/us/qicore/StructureDefinition/qicore-condition-encounter-diagnosis"]},"clinicalStatus":{"coding":[{"system":"http://terminology.hl7.org/CodeSystem/condition-clinical","code":"active","display":"active","userSelected":true}]},"category":[{"coding":[{"system":"http://terminology.hl7.org/CodeSystem/condition-category","code":"encounter-diagnosis","display":"Encounter Diagnosis","userSelected":true}]}],"code":{"coding":[{"system":"http://hl7.org/fhir/sid/icd-10-cm","code":"I21.19","userSelected":true}]},"subject":{"reference":"Patient/64c8c187-6a67-49c4-b6cc-bb4f746fbc51"},"encounter":{"reference":"Encounter/32dfca07-9807-4e85-a247-d6c577c258c1"},"onsetDateTime":"2026-10-09T08:27:00.000+00:00"},"request":{"method":"PUT","url":"Condition/c5214584-a19d-41e3-a002-0cdc46749296"}},{"fullUrl":"https://madie.cms.gov/MeasureReport/73fd4c70-e33f-4ab3-96f2-702b3bef38ce","resource":{"resourceType":"MeasureReport","id":"73fd4c70-e33f-4ab3-96f2-702b3bef38ce","meta":{"profile":["http://hl7.org/fhir/us/cqfmeasures/StructureDefinition/test-case-cqfm"]},"contained":[{"resourceType":"Parameters","id":"ce8d0b22-0261-46df-9178-615cdc01b548-parameters","parameter":[{"name":"subject","valueString":"64c8c187-6a67-49c4-b6cc-bb4f746fbc51"}]}],"extension":[{"url":"http://hl7.org/fhir/StructureDefinition/cqf-inputParameters","valueReference":{"reference":"#ce8d0b22-0261-46df-9178-615cdc01b548-parameters"}},{"url":"http://hl7.org/fhir/us/cqfmeasures/StructureDefinition/cqfm-testCaseDescription","valueMarkdown":"Patient expired during ED"}],"modifierExtension":[{"url":"http://hl7.org/fhir/us/cqfmeasures/StructureDefinition/cqfm-isTestCase","valueBoolean":true}],"status":"complete","type":"individual","measure":"https://madie.cms.gov/Measure/CMS996FHIRAptTxforSTEMI","period":{"start":"2026-01-01","end":"2026-12-31"},"group":[{"id":"Group_1","population":[{"id":"InitialPopulation_1","code":{"coding":[{"system":"http://terminology.hl7.org/CodeSystem/measure-population","code":"initial-population","display":"Initial Population"}]},"count":1},{"id":"Denominator_1","code":{"coding":[{"system":"http://terminology.hl7.org/CodeSystem/measure-population","code":"denominator","display":"Denominator"}]},"count":1},{"id":"DenominatorExclusion_1","code":{"coding":[{"system":"http://terminology.hl7.org/CodeSystem/measure-population","code":"denominator-exclusion","display":"Denominator Exclusion"}]},"count":1},{"id":"Numerator_1","code":{"coding":[{"system":"http://terminology.hl7.org/CodeSystem/measure-population","code":"numerator","display":"Numerator"}]},"count":0},{"id":"DenominatorException_1","code":{"coding":[{"system":"http://terminology.hl7.org/CodeSystem/measure-population","code":"denominator-exception","display":"Denominator Exception"}]},"count":0}],"measureScore":{"value":0.0}}],"evaluatedResource":[{"reference":"Patient/64c8c187-6a67-49c4-b6cc-bb4f746fbc51"},{"reference":"Encounter/32dfca07-9807-4e85-a247-d6c577c258c1"},{"reference":"Condition/c5214584-a19d-41e3-a002-0cdc46749296"}]},"request":{"method":"PUT","url":"MeasureReport/73fd4c70-e33f-4ab3-96f2-702b3bef38ce"}}]},"request":{"method":"PUT","url":"Bundle/617bff451289f5673c8ceffe"}},{"fullUrl":"Condition/c5214584-a19d-41e3-a002-0cdc46749296","resource":{"resourceType":"Condition","id":"c5214584-a19d-41e3-a002-0cdc46749296","meta":{"profile":["http://hl7.org/fhir/us/qicore/StructureDefinition/qicore-condition-encounter-diagnosis"]},"clinicalStatus":{"coding":[{"system":"http://terminology.hl7.org/CodeSystem/condition-clinical","code":"active","display":"active","userSelected":true}]},"category":[{"coding":[{"system":"http://terminology.hl7.org/CodeSystem/condition-category","code":"encounter-diagnosis","display":"Encounter Diagnosis","userSelected":true}]}],"code":{"coding":[{"system":"http://hl7.org/fhir/sid/icd-10-cm","code":"I21.19","userSelected":true}]},"subject":{"reference":"Patient/64c8c187-6a67-49c4-b6cc-bb4f746fbc51"},"encounter":{"reference":"Encounter/32dfca07-9807-4e85-a247-d6c577c258c1"},"onsetDateTime":"2026-10-09T08:27:00.000+00:00"},"request":{"method":"PUT","url":"Condition/c5214584-a19d-41e3-a002-0cdc46749296"}},{"fullUrl":"MeasureReport/73fd4c70-e33f-4ab3-96f2-702b3bef38ce","resource":{"resourceType":"MeasureReport","id":"73fd4c70-e33f-4ab3-96f2-702b3bef38ce","meta":{"profile":["http://hl7.org/fhir/us/cqfmeasures/StructureDefinition/test-case-cqfm"]},"contained":[{"resourceType":"Parameters","id":"ce8d0b22-0261-46df-9178-615cdc01b548-parameters","parameter":[{"name":"subject","valueString":"64c8c187-6a67-49c4-b6cc-bb4f746fbc51"}]}],"extension":[{"url":"http://hl7.org/fhir/StructureDefinition/cqf-inputParameters","valueReference":{"reference":"#ce8d0b22-0261-46df-9178-615cdc01b548-parameters"}},{"url":"http://hl7.org/fhir/us/cqfmeasures/StructureDefinition/cqfm-testCaseDescription","valueMarkdown":"Patient expired during ED"}],"modifierExtension":[{"url":"http://hl7.org/fhir/us/cqfmeasures/StructureDefinition/cqfm-isTestCase","valueBoolean":true}],"status":"complete","type":"individual","measure":"https://madie.cms.gov/Measure/CMS996FHIRAptTxforSTEMI","period":{"start":"2026-01-01","end":"2026-12-31"},"group":[{"id":"Group_1","population":[{"id":"InitialPopulation_1","code":{"coding":[{"system":"http://terminology.hl7.org/CodeSystem/measure-population","code":"initial-population","display":"Initial Population"}]},"count":1},{"id":"Denominator_1","code":{"coding":[{"system":"http://terminology.hl7.org/CodeSystem/measure-population","code":"denominator","display":"Denominator"}]},"count":1},{"id":"DenominatorExclusion_1","code":{"coding":[{"system":"http://terminology.hl7.org/CodeSystem/measure-population","code":"denominator-exclusion","display":"Denominator Exclusion"}]},"count":1},{"id":"Numerator_1","code":{"coding":[{"system":"http://terminology.hl7.org/CodeSystem/measure-population","code":"numerator","display":"Numerator"}]},"count":0},{"id":"DenominatorException_1","code":{"coding":[{"system":"http://terminology.hl7.org/CodeSystem/measure-population","code":"denominator-exception","display":"Denominator Exception"}]},"count":0}],"measureScore":{"value":0.0}}],"evaluatedResource":[{"reference":"Patient/64c8c187-6a67-49c4-b6cc-bb4f746fbc51"},{"reference":"Encounter/32dfca07-9807-4e85-a247-d6c577c258c1"},{"reference":"Condition/c5214584-a19d-41e3-a002-0cdc46749296"}]},"request":{"method":"PUT","url":"MeasureReport/73fd4c70-e33f-4ab3-96f2-702b3bef38ce"}},{"fullUrl":"Patient/64c8c187-6a67-49c4-b6cc-bb4f746fbc51","resource":{"resourceType":"Patient","id":"64c8c187-6a67-49c4-b6cc-bb4f746fbc51","meta":{"profile":["http://hl7.org/fhir/us/qicore/StructureDefinition/qicore-patient"]},"extension":[{"url":"http://hl7.org/fhir/us/core/StructureDefinition/us-core-race","extension":[{"url":"ombCategory","valueCoding":{"system":"urn:oid:2.16.840.1.113883.6.238","code":"2028-9","display":"Asian","userSelected":true}},{"url":"text","valueString":"Asian"}]},{"url":"http://hl7.org/fhir/us/core/StructureDefinition/us-core-ethnicity","extension":[{"url":"ombCategory","valueCoding":{"system":"urn:oid:2.16.840.1.113883.6.238","code":"2186-5","display":"Not Hispanic or Latino","userSelected":true}},{"url":"text","valueString":"Not Hispanic or Latino"}]},{"url":"http://hl7.org/fhir/us/core/StructureDefinition/us-core-sex","valueCode":"248152002"}],"identifier":[{"type":{"coding":[{"system":"http://terminology.hl7.org/CodeSystem/v2-0203","code":"MR"}]},"system":"https://bonnie-fhir.healthit.gov/","value":"617bff451289f5673c8ceffe"}],"name":[{"family":"DenExclPass","given":["Expired"]}],"gender":"female","birthDate":"1985-12-02"},"request":{"method":"PUT","url":"Patient/64c8c187-6a67-49c4-b6cc-bb4f746fbc51"}},{"fullUrl":"Encounter/32dfca07-9807-4e85-a247-d6c577c258c1","resource":{"resourceType":"Encounter","id":"32dfca07-9807-4e85-a247-d6c577c258c1","meta":{"profile":["http://hl7.org/fhir/us/qicore/StructureDefinition/qicore-encounter"]},"status":"finished","class":{"system":"http://terminology.hl7.org/CodeSystem/v3-ActCode","code":"EMER","display":"emergency","userSelected":true},"type":[{"coding":[{"system":"http://snomed.info/sct","version":"2020-09","code":"4525004","display":"Emergency department patient visit (procedure)","userSelected":true}]}],"subject":{"reference":"Patient/64c8c187-6a67-49c4-b6cc-bb4f746fbc51"},"period":{"start":"2026-10-09T08:05:00.000+00:00","end":"2026-10-10T07:15:00.000+00:00"},"reasonReference":[{"reference":"Condition/c5214584-a19d-41e3-a002-0cdc46749296"}],"hospitalization":{"dischargeDisposition":{"coding":[{"system":"http://snomed.info/sct","code":"371828006","display":"Patient deceased during stay (discharge status = dead) (finding)","userSelected":true}]}}},"request":{"method":"PUT","url":"Encounter/32dfca07-9807-4e85-a247-d6c577c258c1"}}]}