{"resourceType":"Bundle","id":"tests-3803ca64-74ee-442c-ac0d-75a925a2bf30-bundle","type":"transaction","entry":[{"fullUrl":"Coverage/f1e38399-209c-4a26-bea6-9ca8b6490725","resource":{"resourceType":"Coverage","id":"f1e38399-209c-4a26-bea6-9ca8b6490725","meta":{"profile":["http://hl7.org/fhir/us/qicore/StructureDefinition/qicore-coverage"]},"identifier":[{"type":{"coding":[{"system":"http://terminology.hl7.org/CodeSystem/v2-0203","code":"MB"}]}}],"status":"active","beneficiary":{"reference":"Patient/3803ca64-74ee-442c-ac0d-75a925a2bf30"},"relationship":{"coding":[{"system":"http://terminology.hl7.org/CodeSystem/subscriber-relationship","code":"self"}]},"payor":[{"reference":"Organization/565268e2-2727-4414-b2c4-3bdaa2bb06a5"}]},"request":{"method":"PUT","url":"Coverage/f1e38399-209c-4a26-bea6-9ca8b6490725"}},{"fullUrl":"Encounter/49f8dad3-477d-405f-b7c5-148c17d226fb","resource":{"resourceType":"Encounter","id":"49f8dad3-477d-405f-b7c5-148c17d226fb","meta":{"profile":["http://hl7.org/fhir/us/qicore/StructureDefinition/qicore-encounter"]},"status":"finished","class":{"system":"http://terminology.hl7.org/CodeSystem/v3-ActCode","code":"EMER","display":"emergency"},"type":[{"coding":[{"system":"http://snomed.info/sct","version":"2020-09","code":"4525004","display":"Emergency department patient visit (procedure)","userSelected":true}]}],"subject":{"reference":"Patient/3803ca64-74ee-442c-ac0d-75a925a2bf30"},"period":{"start":"2026-10-09T08:05:00.000+00:00","end":"2026-10-10T07:15:00.000+00:00"},"reasonReference":[{"reference":"Condition/b0820a46-9b1b-4dde-8651-6e446fa28255"}]},"request":{"method":"PUT","url":"Encounter/49f8dad3-477d-405f-b7c5-148c17d226fb"}},{"fullUrl":"Patient/3803ca64-74ee-442c-ac0d-75a925a2bf30","resource":{"resourceType":"Patient","id":"3803ca64-74ee-442c-ac0d-75a925a2bf30","meta":{"profile":["http://hl7.org/fhir/us/qicore/StructureDefinition/qicore-patient"]},"extension":[{"url":"http://hl7.org/fhir/us/core/StructureDefinition/us-core-race","extension":[{"url":"ombCategory","valueCoding":{"system":"urn:oid:2.16.840.1.113883.6.238","code":"2076-8","display":"Native Hawaiian or Other Pacific Islander","userSelected":true}},{"url":"text","valueString":"Native Hawaiian or Other Pacific Islander"}]},{"url":"http://hl7.org/fhir/us/core/StructureDefinition/us-core-ethnicity","extension":[{"url":"ombCategory","valueCoding":{"system":"urn:oid:2.16.840.1.113883.6.238","code":"2186-5","display":"Not Hispanic or Latino","userSelected":true}},{"url":"text","valueString":"Not Hispanic or Latino"}]},{"url":"http://hl7.org/fhir/us/core/StructureDefinition/us-core-sex","valueCode":"248152002"}],"identifier":[{"type":{"coding":[{"system":"http://terminology.hl7.org/CodeSystem/v2-0203","code":"MR"}]},"system":"https://bonnie-fhir.healthit.gov/","value":"617be1241619a529957d62a9"}],"name":[{"family":"DenExcl4Pass","given":["DxStartsBeforeEndsDuringED"]}],"gender":"female","birthDate":"1985-12-02"},"request":{"method":"PUT","url":"Patient/3803ca64-74ee-442c-ac0d-75a925a2bf30"}},{"fullUrl":"Condition/c296e86a-d44c-4d3d-b138-f4d71494a330","resource":{"resourceType":"Condition","id":"c296e86a-d44c-4d3d-b138-f4d71494a330","meta":{"profile":["http://hl7.org/fhir/us/qicore/StructureDefinition/qicore-condition-problems-health-concerns"]},"clinicalStatus":{"coding":[{"system":"http://terminology.hl7.org/CodeSystem/condition-clinical","code":"inactive","display":"Inactive","userSelected":true}]},"verificationStatus":{"coding":[{"system":"http://terminology.hl7.org/CodeSystem/condition-ver-status","code":"unconfirmed"}]},"category":[{"coding":[{"system":"http://terminology.hl7.org/CodeSystem/condition-category","code":"problem-list-item","display":"Problem List Item"}]}],"code":{"coding":[{"system":"http://snomed.info/sct","version":"2020-09","code":"109911004","display":"Overlapping malignant neoplasm of brain and other parts of the central nervous system (disorder)","userSelected":true}]},"subject":{"reference":"Patient/3803ca64-74ee-442c-ac0d-75a925a2bf30"},"onsetDateTime":"2026-05-31T08:00:00.000+00:00","abatementDateTime":"2026-10-09T08:06:00.000+00:00"},"request":{"method":"PUT","url":"Condition/c296e86a-d44c-4d3d-b138-f4d71494a330"}},{"fullUrl":"Condition/b0820a46-9b1b-4dde-8651-6e446fa28255","resource":{"resourceType":"Condition","id":"b0820a46-9b1b-4dde-8651-6e446fa28255","meta":{"profile":["http://hl7.org/fhir/us/qicore/StructureDefinition/qicore-condition-problems-health-concerns"]},"clinicalStatus":{"coding":[{"system":"http://terminology.hl7.org/CodeSystem/condition-clinical","code":"active","display":"active","userSelected":true}]},"category":[{"coding":[{"system":"http://terminology.hl7.org/CodeSystem/condition-category","code":"problem-list-item","display":"Problem List Item"}]}],"code":{"coding":[{"system":"http://snomed.info/sct","version":"2020-09","code":"401303003","display":"Acute ST segment elevation myocardial infarction (disorder)","userSelected":true}]},"subject":{"reference":"Patient/3803ca64-74ee-442c-ac0d-75a925a2bf30"},"onsetDateTime":"2026-10-09T09:36:00.000+00:00"},"request":{"method":"PUT","url":"Condition/b0820a46-9b1b-4dde-8651-6e446fa28255"}},{"fullUrl":"Bundle/617be1241619a529957d62a9","resource":{"resourceType":"Bundle","id":"617be1241619a529957d62a9","type":"transaction","entry":[{"fullUrl":"https://madie.cms.gov/Patient/3803ca64-74ee-442c-ac0d-75a925a2bf30","resource":{"resourceType":"Patient","id":"3803ca64-74ee-442c-ac0d-75a925a2bf30","meta":{"profile":["http://hl7.org/fhir/us/qicore/StructureDefinition/qicore-patient"]},"extension":[{"url":"http://hl7.org/fhir/us/core/StructureDefinition/us-core-race","extension":[{"url":"ombCategory","valueCoding":{"system":"urn:oid:2.16.840.1.113883.6.238","code":"2076-8","display":"Native Hawaiian or Other Pacific Islander","userSelected":true}},{"url":"text","valueString":"Native Hawaiian or Other Pacific Islander"}]},{"url":"http://hl7.org/fhir/us/core/StructureDefinition/us-core-ethnicity","extension":[{"url":"ombCategory","valueCoding":{"system":"urn:oid:2.16.840.1.113883.6.238","code":"2186-5","display":"Not Hispanic or Latino","userSelected":true}},{"url":"text","valueString":"Not Hispanic or Latino"}]},{"url":"http://hl7.org/fhir/us/core/StructureDefinition/us-core-sex","valueCode":"248152002"}],"identifier":[{"type":{"coding":[{"system":"http://terminology.hl7.org/CodeSystem/v2-0203","code":"MR"}]},"system":"https://bonnie-fhir.healthit.gov/","value":"617be1241619a529957d62a9"}],"name":[{"family":"DenExcl4Pass","given":["DxStartsBeforeEndsDuringED"]}],"gender":"female","birthDate":"1985-12-02"},"request":{"method":"PUT","url":"Patient/3803ca64-74ee-442c-ac0d-75a925a2bf30"}},{"fullUrl":"https://madie.cms.gov/Encounter/49f8dad3-477d-405f-b7c5-148c17d226fb","resource":{"resourceType":"Encounter","id":"49f8dad3-477d-405f-b7c5-148c17d226fb","meta":{"profile":["http://hl7.org/fhir/us/qicore/StructureDefinition/qicore-encounter"]},"status":"finished","class":{"system":"http://terminology.hl7.org/CodeSystem/v3-ActCode","code":"EMER","display":"emergency"},"type":[{"coding":[{"system":"http://snomed.info/sct","version":"2020-09","code":"4525004","display":"Emergency department patient visit (procedure)","userSelected":true}]}],"subject":{"reference":"Patient/3803ca64-74ee-442c-ac0d-75a925a2bf30"},"period":{"start":"2026-10-09T08:05:00.000+00:00","end":"2026-10-10T07:15:00.000+00:00"},"reasonReference":[{"reference":"Condition/b0820a46-9b1b-4dde-8651-6e446fa28255"}]},"request":{"method":"PUT","url":"Encounter/49f8dad3-477d-405f-b7c5-148c17d226fb"}},{"fullUrl":"https://madie.cms.gov/Condition/b0820a46-9b1b-4dde-8651-6e446fa28255","resource":{"resourceType":"Condition","id":"b0820a46-9b1b-4dde-8651-6e446fa28255","meta":{"profile":["http://hl7.org/fhir/us/qicore/StructureDefinition/qicore-condition-problems-health-concerns"]},"clinicalStatus":{"coding":[{"system":"http://terminology.hl7.org/CodeSystem/condition-clinical","code":"active","display":"active","userSelected":true}]},"category":[{"coding":[{"system":"http://terminology.hl7.org/CodeSystem/condition-category","code":"problem-list-item","display":"Problem List Item"}]}],"code":{"coding":[{"system":"http://snomed.info/sct","version":"2020-09","code":"401303003","display":"Acute ST segment elevation myocardial infarction (disorder)","userSelected":true}]},"subject":{"reference":"Patient/3803ca64-74ee-442c-ac0d-75a925a2bf30"},"onsetDateTime":"2026-10-09T09:36:00.000+00:00"},"request":{"method":"PUT","url":"Condition/b0820a46-9b1b-4dde-8651-6e446fa28255"}},{"fullUrl":"https://madie.cms.gov/Condition/c296e86a-d44c-4d3d-b138-f4d71494a330","resource":{"resourceType":"Condition","id":"c296e86a-d44c-4d3d-b138-f4d71494a330","meta":{"profile":["http://hl7.org/fhir/us/qicore/StructureDefinition/qicore-condition-problems-health-concerns"]},"clinicalStatus":{"coding":[{"system":"http://terminology.hl7.org/CodeSystem/condition-clinical","code":"inactive","display":"Inactive","userSelected":true}]},"verificationStatus":{"coding":[{"system":"http://terminology.hl7.org/CodeSystem/condition-ver-status","code":"unconfirmed"}]},"category":[{"coding":[{"system":"http://terminology.hl7.org/CodeSystem/condition-category","code":"problem-list-item","display":"Problem List Item"}]}],"code":{"coding":[{"system":"http://snomed.info/sct","version":"2020-09","code":"109911004","display":"Overlapping malignant neoplasm of brain and other parts of the central nervous system (disorder)","userSelected":true}]},"subject":{"reference":"Patient/3803ca64-74ee-442c-ac0d-75a925a2bf30"},"onsetDateTime":"2026-05-31T08:00:00.000+00:00","abatementDateTime":"2026-10-09T08:06:00.000+00:00"},"request":{"method":"PUT","url":"Condition/c296e86a-d44c-4d3d-b138-f4d71494a330"}},{"fullUrl":"https://madie.cms.gov/Coverage/f1e38399-209c-4a26-bea6-9ca8b6490725","resource":{"resourceType":"Coverage","id":"f1e38399-209c-4a26-bea6-9ca8b6490725","meta":{"profile":["http://hl7.org/fhir/us/qicore/StructureDefinition/qicore-coverage"]},"identifier":[{"type":{"coding":[{"system":"http://terminology.hl7.org/CodeSystem/v2-0203","code":"MB"}]}}],"status":"active","beneficiary":{"reference":"Patient/3803ca64-74ee-442c-ac0d-75a925a2bf30"},"relationship":{"coding":[{"system":"http://terminology.hl7.org/CodeSystem/subscriber-relationship","code":"self"}]},"payor":[{"reference":"Organization/565268e2-2727-4414-b2c4-3bdaa2bb06a5"}]},"request":{"method":"PUT","url":"Coverage/f1e38399-209c-4a26-bea6-9ca8b6490725"}},{"fullUrl":"https://madie.cms.gov/Organization/565268e2-2727-4414-b2c4-3bdaa2bb06a5","resource":{"resourceType":"Organization","id":"565268e2-2727-4414-b2c4-3bdaa2bb06a5","meta":{"profile":["http://hl7.org/fhir/us/qicore/StructureDefinition/qicore-organization"]},"identifier":[{"use":"temp","system":"urn:oid:2.16.840.1.113883.4.4","value":"21-3259825"}],"active":true,"type":[{"coding":[{"system":"http://terminology.hl7.org/CodeSystem/organization-type","code":"pay","display":"Payer"}]}],"name":"Blue Cross Blue Shield of Texas","telecom":[{"system":"phone","value":"(+1) 972-766-6900"}],"address":[{"use":"billing","type":"postal","line":["P.O. Box 660044"],"city":"Dallas","state":"TX","postalCode":"75266-0044","country":"USA"}]},"request":{"method":"PUT","url":"Organization/565268e2-2727-4414-b2c4-3bdaa2bb06a5"}},{"fullUrl":"https://madie.cms.gov/Practitioner/3e64cef1-2c02-4f09-ade5-5e13ffa76658","resource":{"resourceType":"Practitioner","id":"3e64cef1-2c02-4f09-ade5-5e13ffa76658","meta":{"profile":["http://hl7.org/fhir/us/qicore/StructureDefinition/qicore-practitioner"]},"identifier":[{"system":"http://hl7.org/fhir/sid/us-npi","value":"9999999896"}],"name":[{"family":"Evil","prefix":["Dr"]}]},"request":{"method":"PUT","url":"Practitioner/3e64cef1-2c02-4f09-ade5-5e13ffa76658"}},{"fullUrl":"https://madie.cms.gov/MeasureReport/3c34918d-ed27-46c5-8549-b88c54ba4367","resource":{"resourceType":"MeasureReport","id":"3c34918d-ed27-46c5-8549-b88c54ba4367","meta":{"profile":["http://hl7.org/fhir/us/cqfmeasures/StructureDefinition/test-case-cqfm"]},"contained":[{"resourceType":"Parameters","id":"7138239c-5670-407f-aff5-d03da255b89d-parameters","parameter":[{"name":"subject","valueString":"3803ca64-74ee-442c-ac0d-75a925a2bf30"}]}],"extension":[{"url":"http://hl7.org/fhir/StructureDefinition/cqf-inputParameters","valueReference":{"reference":"#7138239c-5670-407f-aff5-d03da255b89d-parameters"}},{"url":"http://hl7.org/fhir/us/cqfmeasures/StructureDefinition/cqfm-testCaseDescription","valueMarkdown":"Patient has Malignant Intracranial Neoplasm (exclusion dx) starts before ends during ED"}],"modifierExtension":[{"url":"http://hl7.org/fhir/us/cqfmeasures/StructureDefinition/cqfm-isTestCase","valueBoolean":true}],"status":"complete","type":"individual","measure":"https://madie.cms.gov/Measure/CMS996FHIRAptTxforSTEMI","period":{"start":"2026-01-01","end":"2026-12-31"},"group":[{"id":"Group_1","population":[{"id":"InitialPopulation_1","code":{"coding":[{"system":"http://terminology.hl7.org/CodeSystem/measure-population","code":"initial-population","display":"Initial Population"}]},"count":1},{"id":"Denominator_1","code":{"coding":[{"system":"http://terminology.hl7.org/CodeSystem/measure-population","code":"denominator","display":"Denominator"}]},"count":1},{"id":"DenominatorExclusion_1","code":{"coding":[{"system":"http://terminology.hl7.org/CodeSystem/measure-population","code":"denominator-exclusion","display":"Denominator Exclusion"}]},"count":1},{"id":"Numerator_1","code":{"coding":[{"system":"http://terminology.hl7.org/CodeSystem/measure-population","code":"numerator","display":"Numerator"}]},"count":0},{"id":"DenominatorException_1","code":{"coding":[{"system":"http://terminology.hl7.org/CodeSystem/measure-population","code":"denominator-exception","display":"Denominator Exception"}]},"count":0}],"measureScore":{"value":0.0}}],"evaluatedResource":[{"reference":"Patient/3803ca64-74ee-442c-ac0d-75a925a2bf30"},{"reference":"Encounter/49f8dad3-477d-405f-b7c5-148c17d226fb"},{"reference":"Condition/b0820a46-9b1b-4dde-8651-6e446fa28255"},{"reference":"Condition/c296e86a-d44c-4d3d-b138-f4d71494a330"},{"reference":"Coverage/f1e38399-209c-4a26-bea6-9ca8b6490725"},{"reference":"Organization/565268e2-2727-4414-b2c4-3bdaa2bb06a5"},{"reference":"Practitioner/3e64cef1-2c02-4f09-ade5-5e13ffa76658"}]},"request":{"method":"PUT","url":"MeasureReport/3c34918d-ed27-46c5-8549-b88c54ba4367"}}]},"request":{"method":"PUT","url":"Bundle/617be1241619a529957d62a9"}},{"fullUrl":"MeasureReport/3c34918d-ed27-46c5-8549-b88c54ba4367","resource":{"resourceType":"MeasureReport","id":"3c34918d-ed27-46c5-8549-b88c54ba4367","meta":{"profile":["http://hl7.org/fhir/us/cqfmeasures/StructureDefinition/test-case-cqfm"]},"contained":[{"resourceType":"Parameters","id":"7138239c-5670-407f-aff5-d03da255b89d-parameters","parameter":[{"name":"subject","valueString":"3803ca64-74ee-442c-ac0d-75a925a2bf30"}]}],"extension":[{"url":"http://hl7.org/fhir/StructureDefinition/cqf-inputParameters","valueReference":{"reference":"#7138239c-5670-407f-aff5-d03da255b89d-parameters"}},{"url":"http://hl7.org/fhir/us/cqfmeasures/StructureDefinition/cqfm-testCaseDescription","valueMarkdown":"Patient has Malignant Intracranial Neoplasm (exclusion dx) starts before ends during ED"}],"modifierExtension":[{"url":"http://hl7.org/fhir/us/cqfmeasures/StructureDefinition/cqfm-isTestCase","valueBoolean":true}],"status":"complete","type":"individual","measure":"https://madie.cms.gov/Measure/CMS996FHIRAptTxforSTEMI","period":{"start":"2026-01-01","end":"2026-12-31"},"group":[{"id":"Group_1","population":[{"id":"InitialPopulation_1","code":{"coding":[{"system":"http://terminology.hl7.org/CodeSystem/measure-population","code":"initial-population","display":"Initial Population"}]},"count":1},{"id":"Denominator_1","code":{"coding":[{"system":"http://terminology.hl7.org/CodeSystem/measure-population","code":"denominator","display":"Denominator"}]},"count":1},{"id":"DenominatorExclusion_1","code":{"coding":[{"system":"http://terminology.hl7.org/CodeSystem/measure-population","code":"denominator-exclusion","display":"Denominator Exclusion"}]},"count":1},{"id":"Numerator_1","code":{"coding":[{"system":"http://terminology.hl7.org/CodeSystem/measure-population","code":"numerator","display":"Numerator"}]},"count":0},{"id":"DenominatorException_1","code":{"coding":[{"system":"http://terminology.hl7.org/CodeSystem/measure-population","code":"denominator-exception","display":"Denominator Exception"}]},"count":0}],"measureScore":{"value":0.0}}],"evaluatedResource":[{"reference":"Patient/3803ca64-74ee-442c-ac0d-75a925a2bf30"},{"reference":"Encounter/49f8dad3-477d-405f-b7c5-148c17d226fb"},{"reference":"Condition/b0820a46-9b1b-4dde-8651-6e446fa28255"},{"reference":"Condition/c296e86a-d44c-4d3d-b138-f4d71494a330"},{"reference":"Coverage/f1e38399-209c-4a26-bea6-9ca8b6490725"},{"reference":"Organization/565268e2-2727-4414-b2c4-3bdaa2bb06a5"},{"reference":"Practitioner/3e64cef1-2c02-4f09-ade5-5e13ffa76658"}]},"request":{"method":"PUT","url":"MeasureReport/3c34918d-ed27-46c5-8549-b88c54ba4367"}},{"fullUrl":"Organization/565268e2-2727-4414-b2c4-3bdaa2bb06a5","resource":{"resourceType":"Organization","id":"565268e2-2727-4414-b2c4-3bdaa2bb06a5","meta":{"profile":["http://hl7.org/fhir/us/qicore/StructureDefinition/qicore-organization"]},"identifier":[{"use":"temp","system":"urn:oid:2.16.840.1.113883.4.4","value":"21-3259825"}],"active":true,"type":[{"coding":[{"system":"http://terminology.hl7.org/CodeSystem/organization-type","code":"pay","display":"Payer"}]}],"name":"Blue Cross Blue Shield of Texas","telecom":[{"system":"phone","value":"(+1) 972-766-6900"}],"address":[{"use":"billing","type":"postal","line":["P.O. Box 660044"],"city":"Dallas","state":"TX","postalCode":"75266-0044","country":"USA"}]},"request":{"method":"PUT","url":"Organization/565268e2-2727-4414-b2c4-3bdaa2bb06a5"}},{"fullUrl":"Practitioner/3e64cef1-2c02-4f09-ade5-5e13ffa76658","resource":{"resourceType":"Practitioner","id":"3e64cef1-2c02-4f09-ade5-5e13ffa76658","meta":{"profile":["http://hl7.org/fhir/us/qicore/StructureDefinition/qicore-practitioner"]},"identifier":[{"system":"http://hl7.org/fhir/sid/us-npi","value":"9999999896"}],"name":[{"family":"Evil","prefix":["Dr"]}]},"request":{"method":"PUT","url":"Practitioner/3e64cef1-2c02-4f09-ade5-5e13ffa76658"}}]}