{"resourceType":"Bundle","id":"tests-f201c67a-4099-4075-9634-c762fa2bfaa2-bundle","type":"transaction","entry":[{"fullUrl":"Practitioner/dd7bbcbc-2d75-46f3-ac78-66bff80ffe1a","resource":{"resourceType":"Practitioner","id":"dd7bbcbc-2d75-46f3-ac78-66bff80ffe1a","meta":{"profile":["http://hl7.org/fhir/us/qicore/StructureDefinition/qicore-practitioner"]},"identifier":[{"system":"http://hl7.org/fhir/sid/us-npi","value":"9999999896"}],"name":[{"family":"Evil","prefix":["Dr"]}]},"request":{"method":"PUT","url":"Practitioner/dd7bbcbc-2d75-46f3-ac78-66bff80ffe1a"}},{"fullUrl":"MeasureReport/bc04c03f-4b8b-4f8e-ad31-ddc59b95d78c","resource":{"resourceType":"MeasureReport","id":"bc04c03f-4b8b-4f8e-ad31-ddc59b95d78c","meta":{"profile":["http://hl7.org/fhir/us/cqfmeasures/StructureDefinition/test-case-cqfm"]},"contained":[{"resourceType":"Parameters","id":"40144e30-da58-4bca-af88-d56d8be669e5-parameters","parameter":[{"name":"subject","valueString":"f201c67a-4099-4075-9634-c762fa2bfaa2"}]}],"extension":[{"url":"http://hl7.org/fhir/StructureDefinition/cqf-inputParameters","valueReference":{"reference":"#40144e30-da58-4bca-af88-d56d8be669e5-parameters"}},{"url":"http://hl7.org/fhir/us/cqfmeasures/StructureDefinition/cqfm-testCaseDescription","valueMarkdown":"Patient has anticoagulant medication starts 7D before ED"}],"modifierExtension":[{"url":"http://hl7.org/fhir/us/cqfmeasures/StructureDefinition/cqfm-isTestCase","valueBoolean":true}],"status":"complete","type":"individual","measure":"https://madie.cms.gov/Measure/CMS996FHIRAptTxforSTEMI","period":{"start":"2026-01-01","end":"2026-12-31"},"group":[{"id":"Group_1","population":[{"id":"InitialPopulation_1","code":{"coding":[{"system":"http://terminology.hl7.org/CodeSystem/measure-population","code":"initial-population","display":"Initial Population"}]},"count":1},{"id":"Denominator_1","code":{"coding":[{"system":"http://terminology.hl7.org/CodeSystem/measure-population","code":"denominator","display":"Denominator"}]},"count":1},{"id":"DenominatorExclusion_1","code":{"coding":[{"system":"http://terminology.hl7.org/CodeSystem/measure-population","code":"denominator-exclusion","display":"Denominator Exclusion"}]},"count":1},{"id":"Numerator_1","code":{"coding":[{"system":"http://terminology.hl7.org/CodeSystem/measure-population","code":"numerator","display":"Numerator"}]},"count":0},{"id":"DenominatorException_1","code":{"coding":[{"system":"http://terminology.hl7.org/CodeSystem/measure-population","code":"denominator-exception","display":"Denominator Exception"}]},"count":0}],"measureScore":{"value":0.0}}],"evaluatedResource":[{"reference":"Patient/f201c67a-4099-4075-9634-c762fa2bfaa2"},{"reference":"Encounter/f5ab0a57-3e9d-41c7-b771-6d836c542268"},{"reference":"MedicationRequest/2471a105-24c0-4ca3-a9cf-6884bc210363"},{"reference":"Practitioner/dd7bbcbc-2d75-46f3-ac78-66bff80ffe1a"}]},"request":{"method":"PUT","url":"MeasureReport/bc04c03f-4b8b-4f8e-ad31-ddc59b95d78c"}},{"fullUrl":"Patient/f201c67a-4099-4075-9634-c762fa2bfaa2","resource":{"resourceType":"Patient","id":"f201c67a-4099-4075-9634-c762fa2bfaa2","meta":{"profile":["http://hl7.org/fhir/us/qicore/StructureDefinition/qicore-patient"]},"extension":[{"url":"http://hl7.org/fhir/us/core/StructureDefinition/us-core-race","extension":[{"url":"ombCategory","valueCoding":{"system":"urn:oid:2.16.840.1.113883.6.238","code":"2028-9","display":"Asian","userSelected":true}},{"url":"text","valueString":"Asian"}]},{"url":"http://hl7.org/fhir/us/core/StructureDefinition/us-core-ethnicity","extension":[{"url":"ombCategory","valueCoding":{"system":"urn:oid:2.16.840.1.113883.6.238","code":"2186-5","display":"Not Hispanic or Latino","userSelected":true}},{"url":"text","valueString":"Not Hispanic or Latino"}]},{"url":"http://hl7.org/fhir/us/core/StructureDefinition/us-core-sex","valueCode":"248152002"}],"identifier":[{"type":{"coding":[{"system":"http://terminology.hl7.org/CodeSystem/v2-0203","code":"MR"}]},"system":"https://bonnie-fhir.healthit.gov/","value":"617be5e81619a529957d62b2"}],"name":[{"family":"DenExcl6Pass","given":["MedStarts7DBeforeED"]}],"gender":"female","birthDate":"1985-12-02"},"request":{"method":"PUT","url":"Patient/f201c67a-4099-4075-9634-c762fa2bfaa2"}},{"fullUrl":"Encounter/f5ab0a57-3e9d-41c7-b771-6d836c542268","resource":{"resourceType":"Encounter","id":"f5ab0a57-3e9d-41c7-b771-6d836c542268","meta":{"profile":["http://hl7.org/fhir/us/qicore/StructureDefinition/qicore-encounter"]},"status":"finished","class":{"system":"http://terminology.hl7.org/CodeSystem/v3-ActCode","code":"EMER","display":"emergency","userSelected":true},"type":[{"coding":[{"system":"http://snomed.info/sct","version":"2020-09","code":"4525004","display":"Emergency department patient visit (procedure)","userSelected":true}]}],"subject":{"reference":"Patient/f201c67a-4099-4075-9634-c762fa2bfaa2"},"period":{"start":"2026-10-09T08:05:00.000+00:00","end":"2026-10-10T07:15:00.000+00:00"},"reasonCode":[{"coding":[{"system":"http://hl7.org/fhir/sid/icd-10-cm","version":"2021","code":"I21.02","display":"ST elevation (STEMI) myocardial infarction involving left anterior descending coronary artery","userSelected":true}]}]},"request":{"method":"PUT","url":"Encounter/f5ab0a57-3e9d-41c7-b771-6d836c542268"}},{"fullUrl":"Bundle/617be5e81619a529957d62b2","resource":{"resourceType":"Bundle","id":"617be5e81619a529957d62b2","type":"transaction","entry":[{"fullUrl":"https://madie.cms.gov/Patient/f201c67a-4099-4075-9634-c762fa2bfaa2","resource":{"resourceType":"Patient","id":"f201c67a-4099-4075-9634-c762fa2bfaa2","meta":{"profile":["http://hl7.org/fhir/us/qicore/StructureDefinition/qicore-patient"]},"extension":[{"url":"http://hl7.org/fhir/us/core/StructureDefinition/us-core-race","extension":[{"url":"ombCategory","valueCoding":{"system":"urn:oid:2.16.840.1.113883.6.238","code":"2028-9","display":"Asian","userSelected":true}},{"url":"text","valueString":"Asian"}]},{"url":"http://hl7.org/fhir/us/core/StructureDefinition/us-core-ethnicity","extension":[{"url":"ombCategory","valueCoding":{"system":"urn:oid:2.16.840.1.113883.6.238","code":"2186-5","display":"Not Hispanic or Latino","userSelected":true}},{"url":"text","valueString":"Not Hispanic or Latino"}]},{"url":"http://hl7.org/fhir/us/core/StructureDefinition/us-core-sex","valueCode":"248152002"}],"identifier":[{"type":{"coding":[{"system":"http://terminology.hl7.org/CodeSystem/v2-0203","code":"MR"}]},"system":"https://bonnie-fhir.healthit.gov/","value":"617be5e81619a529957d62b2"}],"name":[{"family":"DenExcl6Pass","given":["MedStarts7DBeforeED"]}],"gender":"female","birthDate":"1985-12-02"},"request":{"method":"PUT","url":"Patient/f201c67a-4099-4075-9634-c762fa2bfaa2"}},{"fullUrl":"https://madie.cms.gov/Encounter/f5ab0a57-3e9d-41c7-b771-6d836c542268","resource":{"resourceType":"Encounter","id":"f5ab0a57-3e9d-41c7-b771-6d836c542268","meta":{"profile":["http://hl7.org/fhir/us/qicore/StructureDefinition/qicore-encounter"]},"status":"finished","class":{"system":"http://terminology.hl7.org/CodeSystem/v3-ActCode","code":"EMER","display":"emergency","userSelected":true},"type":[{"coding":[{"system":"http://snomed.info/sct","version":"2020-09","code":"4525004","display":"Emergency department patient visit (procedure)","userSelected":true}]}],"subject":{"reference":"Patient/f201c67a-4099-4075-9634-c762fa2bfaa2"},"period":{"start":"2026-10-09T08:05:00.000+00:00","end":"2026-10-10T07:15:00.000+00:00"},"reasonCode":[{"coding":[{"system":"http://hl7.org/fhir/sid/icd-10-cm","version":"2021","code":"I21.02","display":"ST elevation (STEMI) myocardial infarction involving left anterior descending coronary artery","userSelected":true}]}]},"request":{"method":"PUT","url":"Encounter/f5ab0a57-3e9d-41c7-b771-6d836c542268"}},{"fullUrl":"https://madie.cms.gov/MedicationRequest/2471a105-24c0-4ca3-a9cf-6884bc210363","resource":{"resourceType":"MedicationRequest","id":"2471a105-24c0-4ca3-a9cf-6884bc210363","meta":{"profile":["http://hl7.org/fhir/us/qicore/StructureDefinition/qicore-medicationrequest"]},"status":"completed","intent":"order","category":[{"coding":[{"system":"http://terminology.hl7.org/CodeSystem/medicationrequest-category","code":"inpatient","display":"Inpatient","userSelected":true}]}],"medicationCodeableConcept":{"coding":[{"system":"http://www.nlm.nih.gov/research/umls/rxnorm","code":"2059015","display":"rivaroxaban 2.5 MG Oral Tablet","userSelected":true}]},"subject":{"reference":"Patient/f201c67a-4099-4075-9634-c762fa2bfaa2"},"authoredOn":"2026-10-02T08:00:00.000+00:00","requester":{"reference":"Practitioner/dd7bbcbc-2d75-46f3-ac78-66bff80ffe1a"}},"request":{"method":"PUT","url":"MedicationRequest/2471a105-24c0-4ca3-a9cf-6884bc210363"}},{"fullUrl":"https://madie.cms.gov/Practitioner/dd7bbcbc-2d75-46f3-ac78-66bff80ffe1a","resource":{"resourceType":"Practitioner","id":"dd7bbcbc-2d75-46f3-ac78-66bff80ffe1a","meta":{"profile":["http://hl7.org/fhir/us/qicore/StructureDefinition/qicore-practitioner"]},"identifier":[{"system":"http://hl7.org/fhir/sid/us-npi","value":"9999999896"}],"name":[{"family":"Evil","prefix":["Dr"]}]},"request":{"method":"PUT","url":"Practitioner/dd7bbcbc-2d75-46f3-ac78-66bff80ffe1a"}},{"fullUrl":"https://madie.cms.gov/MeasureReport/bc04c03f-4b8b-4f8e-ad31-ddc59b95d78c","resource":{"resourceType":"MeasureReport","id":"bc04c03f-4b8b-4f8e-ad31-ddc59b95d78c","meta":{"profile":["http://hl7.org/fhir/us/cqfmeasures/StructureDefinition/test-case-cqfm"]},"contained":[{"resourceType":"Parameters","id":"40144e30-da58-4bca-af88-d56d8be669e5-parameters","parameter":[{"name":"subject","valueString":"f201c67a-4099-4075-9634-c762fa2bfaa2"}]}],"extension":[{"url":"http://hl7.org/fhir/StructureDefinition/cqf-inputParameters","valueReference":{"reference":"#40144e30-da58-4bca-af88-d56d8be669e5-parameters"}},{"url":"http://hl7.org/fhir/us/cqfmeasures/StructureDefinition/cqfm-testCaseDescription","valueMarkdown":"Patient has anticoagulant medication starts 7D before ED"}],"modifierExtension":[{"url":"http://hl7.org/fhir/us/cqfmeasures/StructureDefinition/cqfm-isTestCase","valueBoolean":true}],"status":"complete","type":"individual","measure":"https://madie.cms.gov/Measure/CMS996FHIRAptTxforSTEMI","period":{"start":"2026-01-01","end":"2026-12-31"},"group":[{"id":"Group_1","population":[{"id":"InitialPopulation_1","code":{"coding":[{"system":"http://terminology.hl7.org/CodeSystem/measure-population","code":"initial-population","display":"Initial Population"}]},"count":1},{"id":"Denominator_1","code":{"coding":[{"system":"http://terminology.hl7.org/CodeSystem/measure-population","code":"denominator","display":"Denominator"}]},"count":1},{"id":"DenominatorExclusion_1","code":{"coding":[{"system":"http://terminology.hl7.org/CodeSystem/measure-population","code":"denominator-exclusion","display":"Denominator Exclusion"}]},"count":1},{"id":"Numerator_1","code":{"coding":[{"system":"http://terminology.hl7.org/CodeSystem/measure-population","code":"numerator","display":"Numerator"}]},"count":0},{"id":"DenominatorException_1","code":{"coding":[{"system":"http://terminology.hl7.org/CodeSystem/measure-population","code":"denominator-exception","display":"Denominator Exception"}]},"count":0}],"measureScore":{"value":0.0}}],"evaluatedResource":[{"reference":"Patient/f201c67a-4099-4075-9634-c762fa2bfaa2"},{"reference":"Encounter/f5ab0a57-3e9d-41c7-b771-6d836c542268"},{"reference":"MedicationRequest/2471a105-24c0-4ca3-a9cf-6884bc210363"},{"reference":"Practitioner/dd7bbcbc-2d75-46f3-ac78-66bff80ffe1a"}]},"request":{"method":"PUT","url":"MeasureReport/bc04c03f-4b8b-4f8e-ad31-ddc59b95d78c"}}]},"request":{"method":"PUT","url":"Bundle/617be5e81619a529957d62b2"}},{"fullUrl":"MedicationRequest/2471a105-24c0-4ca3-a9cf-6884bc210363","resource":{"resourceType":"MedicationRequest","id":"2471a105-24c0-4ca3-a9cf-6884bc210363","meta":{"profile":["http://hl7.org/fhir/us/qicore/StructureDefinition/qicore-medicationrequest"]},"status":"completed","intent":"order","category":[{"coding":[{"system":"http://terminology.hl7.org/CodeSystem/medicationrequest-category","code":"inpatient","display":"Inpatient","userSelected":true}]}],"medicationCodeableConcept":{"coding":[{"system":"http://www.nlm.nih.gov/research/umls/rxnorm","code":"2059015","display":"rivaroxaban 2.5 MG Oral Tablet","userSelected":true}]},"subject":{"reference":"Patient/f201c67a-4099-4075-9634-c762fa2bfaa2"},"authoredOn":"2026-10-02T08:00:00.000+00:00","requester":{"reference":"Practitioner/dd7bbcbc-2d75-46f3-ac78-66bff80ffe1a"}},"request":{"method":"PUT","url":"MedicationRequest/2471a105-24c0-4ca3-a9cf-6884bc210363"}}]}