{"resourceType":"Bundle","id":"tests-ec9adac7-dfe7-4da4-874b-c75835d24f33-bundle","type":"transaction","entry":[{"resource":{"resourceType":"MeasureReport","id":"c01d0ffd-1035-4d42-9abd-0f8113851ecc","meta":{"profile":["http://hl7.org/fhir/us/cqfmeasures/StructureDefinition/test-case-cqfm"]},"contained":[{"resourceType":"Parameters","id":"41dd2011-69e5-4fd7-8f13-d7518bf60113-parameters","parameter":[{"name":"subject","valueString":"ec9adac7-dfe7-4da4-874b-c75835d24f33"}]}],"extension":[{"url":"http://hl7.org/fhir/StructureDefinition/cqf-inputParameters","valueReference":{"reference":"#41dd2011-69e5-4fd7-8f13-d7518bf60113-parameters"}},{"url":"http://hl7.org/fhir/us/cqfmeasures/StructureDefinition/cqfm-testCaseDescription","valueMarkdown":"Patient has allergy to medication ingredient starts during and ends after ED"}],"modifierExtension":[{"url":"http://hl7.org/fhir/us/cqfmeasures/StructureDefinition/cqfm-isTestCase","valueBoolean":true}],"status":"complete","type":"individual","measure":"https://madie.cms.gov/Measure/CMS996FHIRAptTxforSTEMI","period":{"start":"2026-01-01","end":"2026-12-31"},"group":[{"id":"Group_1","population":[{"id":"InitialPopulation_1","code":{"coding":[{"system":"http://terminology.hl7.org/CodeSystem/measure-population","code":"initial-population","display":"Initial Population"}]},"count":1},{"id":"Denominator_1","code":{"coding":[{"system":"http://terminology.hl7.org/CodeSystem/measure-population","code":"denominator","display":"Denominator"}]},"count":1},{"id":"DenominatorExclusion_1","code":{"coding":[{"system":"http://terminology.hl7.org/CodeSystem/measure-population","code":"denominator-exclusion","display":"Denominator Exclusion"}]},"count":1},{"id":"Numerator_1","code":{"coding":[{"system":"http://terminology.hl7.org/CodeSystem/measure-population","code":"numerator","display":"Numerator"}]},"count":0},{"id":"DenominatorException_1","code":{"coding":[{"system":"http://terminology.hl7.org/CodeSystem/measure-population","code":"denominator-exception","display":"Denominator Exception"}]},"count":0}],"measureScore":{"value":0.0}}],"evaluatedResource":[{"reference":"Patient/ec9adac7-dfe7-4da4-874b-c75835d24f33"},{"reference":"Encounter/7aac3a92-332e-4231-a346-1f4fcb0021e2"},{"reference":"AllergyIntolerance/94b60817-1da0-45ab-968a-d87d5860610b"}]},"request":{"method":"PUT","url":"MeasureReport/c01d0ffd-1035-4d42-9abd-0f8113851ecc"}},{"resource":{"resourceType":"Encounter","id":"7aac3a92-332e-4231-a346-1f4fcb0021e2","meta":{"profile":["http://hl7.org/fhir/us/qicore/StructureDefinition/qicore-encounter"]},"status":"finished","class":{"system":"http://terminology.hl7.org/CodeSystem/v3-ActCode","code":"EMER","display":"emergency","userSelected":true},"type":[{"coding":[{"system":"http://snomed.info/sct","version":"2020-09","code":"4525004","display":"Emergency department patient visit (procedure)","userSelected":true}]}],"subject":{"reference":"Patient/ec9adac7-dfe7-4da4-874b-c75835d24f33"},"period":{"start":"2026-10-09T08:05:00.000+00:00","end":"2026-10-10T07:15:00.000+00:00"},"reasonCode":[{"coding":[{"system":"http://snomed.info/sct","version":"2020-09","code":"703211006","display":"Subsequent ST segment elevation myocardial infarction (disorder)","userSelected":true}]}]},"request":{"method":"PUT","url":"Encounter/7aac3a92-332e-4231-a346-1f4fcb0021e2"}},{"resource":{"resourceType":"AllergyIntolerance","id":"94b60817-1da0-45ab-968a-d87d5860610b","meta":{"profile":["http://hl7.org/fhir/us/qicore/StructureDefinition/qicore-allergyintolerance"]},"clinicalStatus":{"coding":[{"system":"http://terminology.hl7.org/CodeSystem/allergyintolerance-clinical","code":"active","display":"Active","userSelected":true}]},"code":{"coding":[{"system":"http://www.nlm.nih.gov/research/umls/rxnorm","version":"2021-01","code":"10106","display":"streptokinase","userSelected":true}]},"patient":{"reference":"Patient/ec9adac7-dfe7-4da4-874b-c75835d24f33"},"onsetPeriod":{"start":"2026-10-09T13:00:00.000+00:00","end":"2026-12-02T08:15:00.000+00:00"}},"request":{"method":"PUT","url":"AllergyIntolerance/94b60817-1da0-45ab-968a-d87d5860610b"}},{"resource":{"resourceType":"Patient","id":"ec9adac7-dfe7-4da4-874b-c75835d24f33","meta":{"profile":["http://hl7.org/fhir/us/qicore/StructureDefinition/qicore-patient"]},"extension":[{"url":"http://hl7.org/fhir/us/core/StructureDefinition/us-core-race","extension":[{"url":"ombCategory","valueCoding":{"system":"urn:oid:2.16.840.1.113883.6.238","code":"2028-9","display":"Asian","userSelected":true}},{"url":"text","valueString":"Asian"}]},{"url":"http://hl7.org/fhir/us/core/StructureDefinition/us-core-ethnicity","extension":[{"url":"ombCategory","valueCoding":{"system":"urn:oid:2.16.840.1.113883.6.238","code":"2135-2","display":"Hispanic or Latino","userSelected":true}},{"url":"text","valueString":"Hispanic or Latino"}]},{"url":"http://hl7.org/fhir/us/core/StructureDefinition/us-core-sex","valueCode":"248153007"}],"identifier":[{"type":{"coding":[{"system":"http://terminology.hl7.org/CodeSystem/v2-0203","code":"MR"}]},"system":"https://bonnie-fhir.healthit.gov/","value":"617bf9b81289f5673c8ceff7"}],"name":[{"family":"DenExcl8Pass","given":["AllergyStartsDuringEndsAfterED"]}],"gender":"male","birthDate":"1985-12-02"},"request":{"method":"PUT","url":"Patient/ec9adac7-dfe7-4da4-874b-c75835d24f33"}},{"resource":{"resourceType":"Bundle","id":"617bf9b81289f5673c8ceff7","type":"transaction","entry":[{"fullUrl":"https://madie.cms.gov/Patient/ec9adac7-dfe7-4da4-874b-c75835d24f33","resource":{"resourceType":"Patient","id":"ec9adac7-dfe7-4da4-874b-c75835d24f33","meta":{"profile":["http://hl7.org/fhir/us/qicore/StructureDefinition/qicore-patient"]},"extension":[{"url":"http://hl7.org/fhir/us/core/StructureDefinition/us-core-race","extension":[{"url":"ombCategory","valueCoding":{"system":"urn:oid:2.16.840.1.113883.6.238","code":"2028-9","display":"Asian","userSelected":true}},{"url":"text","valueString":"Asian"}]},{"url":"http://hl7.org/fhir/us/core/StructureDefinition/us-core-ethnicity","extension":[{"url":"ombCategory","valueCoding":{"system":"urn:oid:2.16.840.1.113883.6.238","code":"2135-2","display":"Hispanic or Latino","userSelected":true}},{"url":"text","valueString":"Hispanic or Latino"}]},{"url":"http://hl7.org/fhir/us/core/StructureDefinition/us-core-sex","valueCode":"248153007"}],"identifier":[{"type":{"coding":[{"system":"http://terminology.hl7.org/CodeSystem/v2-0203","code":"MR"}]},"system":"https://bonnie-fhir.healthit.gov/","value":"617bf9b81289f5673c8ceff7"}],"name":[{"family":"DenExcl8Pass","given":["AllergyStartsDuringEndsAfterED"]}],"gender":"male","birthDate":"1985-12-02"},"request":{"method":"PUT","url":"Patient/ec9adac7-dfe7-4da4-874b-c75835d24f33"}},{"fullUrl":"https://madie.cms.gov/Encounter/7aac3a92-332e-4231-a346-1f4fcb0021e2","resource":{"resourceType":"Encounter","id":"7aac3a92-332e-4231-a346-1f4fcb0021e2","meta":{"profile":["http://hl7.org/fhir/us/qicore/StructureDefinition/qicore-encounter"]},"status":"finished","class":{"system":"http://terminology.hl7.org/CodeSystem/v3-ActCode","code":"EMER","display":"emergency","userSelected":true},"type":[{"coding":[{"system":"http://snomed.info/sct","version":"2020-09","code":"4525004","display":"Emergency department patient visit (procedure)","userSelected":true}]}],"subject":{"reference":"Patient/ec9adac7-dfe7-4da4-874b-c75835d24f33"},"period":{"start":"2026-10-09T08:05:00.000+00:00","end":"2026-10-10T07:15:00.000+00:00"},"reasonCode":[{"coding":[{"system":"http://snomed.info/sct","version":"2020-09","code":"703211006","display":"Subsequent ST segment elevation myocardial infarction (disorder)","userSelected":true}]}]},"request":{"method":"PUT","url":"Encounter/7aac3a92-332e-4231-a346-1f4fcb0021e2"}},{"fullUrl":"https://madie.cms.gov/AllergyIntolerance/94b60817-1da0-45ab-968a-d87d5860610b","resource":{"resourceType":"AllergyIntolerance","id":"94b60817-1da0-45ab-968a-d87d5860610b","meta":{"profile":["http://hl7.org/fhir/us/qicore/StructureDefinition/qicore-allergyintolerance"]},"clinicalStatus":{"coding":[{"system":"http://terminology.hl7.org/CodeSystem/allergyintolerance-clinical","code":"active","display":"Active","userSelected":true}]},"code":{"coding":[{"system":"http://www.nlm.nih.gov/research/umls/rxnorm","version":"2021-01","code":"10106","display":"streptokinase","userSelected":true}]},"patient":{"reference":"Patient/ec9adac7-dfe7-4da4-874b-c75835d24f33"},"onsetPeriod":{"start":"2026-10-09T13:00:00.000+00:00","end":"2026-12-02T08:15:00.000+00:00"}},"request":{"method":"PUT","url":"AllergyIntolerance/94b60817-1da0-45ab-968a-d87d5860610b"}},{"fullUrl":"https://madie.cms.gov/MeasureReport/c01d0ffd-1035-4d42-9abd-0f8113851ecc","resource":{"resourceType":"MeasureReport","id":"c01d0ffd-1035-4d42-9abd-0f8113851ecc","meta":{"profile":["http://hl7.org/fhir/us/cqfmeasures/StructureDefinition/test-case-cqfm"]},"contained":[{"resourceType":"Parameters","id":"41dd2011-69e5-4fd7-8f13-d7518bf60113-parameters","parameter":[{"name":"subject","valueString":"ec9adac7-dfe7-4da4-874b-c75835d24f33"}]}],"extension":[{"url":"http://hl7.org/fhir/StructureDefinition/cqf-inputParameters","valueReference":{"reference":"#41dd2011-69e5-4fd7-8f13-d7518bf60113-parameters"}},{"url":"http://hl7.org/fhir/us/cqfmeasures/StructureDefinition/cqfm-testCaseDescription","valueMarkdown":"Patient has allergy to medication ingredient starts during and ends after ED"}],"modifierExtension":[{"url":"http://hl7.org/fhir/us/cqfmeasures/StructureDefinition/cqfm-isTestCase","valueBoolean":true}],"status":"complete","type":"individual","measure":"https://madie.cms.gov/Measure/CMS996FHIRAptTxforSTEMI","period":{"start":"2026-01-01","end":"2026-12-31"},"group":[{"id":"Group_1","population":[{"id":"InitialPopulation_1","code":{"coding":[{"system":"http://terminology.hl7.org/CodeSystem/measure-population","code":"initial-population","display":"Initial Population"}]},"count":1},{"id":"Denominator_1","code":{"coding":[{"system":"http://terminology.hl7.org/CodeSystem/measure-population","code":"denominator","display":"Denominator"}]},"count":1},{"id":"DenominatorExclusion_1","code":{"coding":[{"system":"http://terminology.hl7.org/CodeSystem/measure-population","code":"denominator-exclusion","display":"Denominator Exclusion"}]},"count":1},{"id":"Numerator_1","code":{"coding":[{"system":"http://terminology.hl7.org/CodeSystem/measure-population","code":"numerator","display":"Numerator"}]},"count":0},{"id":"DenominatorException_1","code":{"coding":[{"system":"http://terminology.hl7.org/CodeSystem/measure-population","code":"denominator-exception","display":"Denominator Exception"}]},"count":0}],"measureScore":{"value":0.0}}],"evaluatedResource":[{"reference":"Patient/ec9adac7-dfe7-4da4-874b-c75835d24f33"},{"reference":"Encounter/7aac3a92-332e-4231-a346-1f4fcb0021e2"},{"reference":"AllergyIntolerance/94b60817-1da0-45ab-968a-d87d5860610b"}]},"request":{"method":"PUT","url":"MeasureReport/c01d0ffd-1035-4d42-9abd-0f8113851ecc"}}]},"request":{"method":"PUT","url":"Bundle/617bf9b81289f5673c8ceff7"}}]}