{"resourceType":"Bundle","id":"tests-c85da3dc-b545-42f2-a5d5-d9c7ae88d944-bundle","type":"transaction","entry":[{"fullUrl":"Bundle/f1f044ef3e654daa9106","resource":{"resourceType":"Bundle","id":"f1f044ef3e654daa9106","type":"transaction","entry":[{"fullUrl":"https://madie.cms.gov/Patient/c85da3dc-b545-42f2-a5d5-d9c7ae88d944","resource":{"resourceType":"Patient","id":"c85da3dc-b545-42f2-a5d5-d9c7ae88d944","meta":{"profile":["http://hl7.org/fhir/us/qicore/StructureDefinition/qicore-patient"]},"extension":[{"url":"http://hl7.org/fhir/us/core/StructureDefinition/us-core-race","extension":[{"url":"ombCategory","valueCoding":{"system":"urn:oid:2.16.840.1.113883.6.238","code":"1002-5","display":"American Indian or Alaska Native","userSelected":true}},{"url":"text","valueString":"American Indian or Alaska Native"}]},{"url":"http://hl7.org/fhir/us/core/StructureDefinition/us-core-ethnicity","extension":[{"url":"ombCategory","valueCoding":{"system":"urn:oid:2.16.840.1.113883.6.238","code":"2135-2","display":"Hispanic or Latino","userSelected":true}},{"url":"text","valueString":"Hispanic or Latino"}]},{"url":"http://hl7.org/fhir/us/core/StructureDefinition/us-core-sex","valueCode":"248152002"}],"identifier":[{"type":{"coding":[{"system":"http://terminology.hl7.org/CodeSystem/v2-0203","code":"MR"}]},"system":"https://bonnie-fhir.healthit.gov/","value":"f1f044ef3e654daa9106"}],"name":[{"family":"DENEXCL1PASS","given":["AneurysmOfHeartWithin24HoursBeforeED"]}],"gender":"female","birthDate":"1990-03-14"},"request":{"method":"PUT","url":"Patient/c85da3dc-b545-42f2-a5d5-d9c7ae88d944"}},{"fullUrl":"https://madie.cms.gov/Encounter/0ce9421b-0c97-4400-99dc-b56693571d12","resource":{"resourceType":"Encounter","id":"0ce9421b-0c97-4400-99dc-b56693571d12","meta":{"profile":["http://hl7.org/fhir/us/qicore/StructureDefinition/qicore-encounter"]},"status":"finished","class":{"system":"http://terminology.hl7.org/CodeSystem/v3-ActCode","code":"EMER","display":"emergency","userSelected":true},"type":[{"coding":[{"system":"http://snomed.info/sct","version":"2020-09","code":"4525004","display":"Emergency department patient visit","userSelected":true}]}],"subject":{"reference":"Patient/c85da3dc-b545-42f2-a5d5-d9c7ae88d944"},"period":{"start":"2026-10-09T05:00:00.000+00:00","end":"2026-10-13T17:00:00.000+00:00"},"reasonCode":[{"coding":[{"system":"http://hl7.org/fhir/sid/icd-10-cm","code":"I21.21","display":"ST elevation (STEMI) myocardial infarction involving left circumflex coronary artery","userSelected":true}]}]},"request":{"method":"PUT","url":"Encounter/0ce9421b-0c97-4400-99dc-b56693571d12"}},{"fullUrl":"https://madie.cms.gov/Condition/0c2e3b1f-d02f-488f-9815-796d9416a963","resource":{"resourceType":"Condition","id":"0c2e3b1f-d02f-488f-9815-796d9416a963","meta":{"profile":["http://hl7.org/fhir/us/qicore/StructureDefinition/qicore-condition-problems-health-concerns"]},"clinicalStatus":{"coding":[{"system":"http://terminology.hl7.org/CodeSystem/condition-clinical","code":"active","display":"Active","userSelected":true}]},"category":[{"coding":[{"system":"http://terminology.hl7.org/CodeSystem/condition-category","code":"problem-list-item","display":"Problem List Item","userSelected":true}]}],"code":{"coding":[{"system":"http://hl7.org/fhir/sid/icd-10-cm","code":"I25.3","display":"Aneurysm of heart","userSelected":true}]},"subject":{"reference":"Patient/c85da3dc-b545-42f2-a5d5-d9c7ae88d944"},"onsetDateTime":"2026-10-08T05:00:00.000+00:00"},"request":{"method":"PUT","url":"Condition/0c2e3b1f-d02f-488f-9815-796d9416a963"}},{"fullUrl":"https://madie.cms.gov/MeasureReport/9bf76f35-1a73-4c30-8d04-316c39fce8d0","resource":{"resourceType":"MeasureReport","id":"9bf76f35-1a73-4c30-8d04-316c39fce8d0","meta":{"profile":["http://hl7.org/fhir/us/cqfmeasures/StructureDefinition/test-case-cqfm"]},"contained":[{"resourceType":"Parameters","id":"91e5ae84-fffc-4454-80ab-c2a223ca37b9-parameters","parameter":[{"name":"subject","valueString":"c85da3dc-b545-42f2-a5d5-d9c7ae88d944"}]}],"extension":[{"url":"http://hl7.org/fhir/StructureDefinition/cqf-inputParameters","valueReference":{"reference":"#91e5ae84-fffc-4454-80ab-c2a223ca37b9-parameters"}},{"url":"http://hl7.org/fhir/us/cqfmeasures/StructureDefinition/cqfm-testCaseDescription","valueMarkdown":"Patient has aneurysm of heart that started within 24 hours before start of ED encounter"}],"modifierExtension":[{"url":"http://hl7.org/fhir/us/cqfmeasures/StructureDefinition/cqfm-isTestCase","valueBoolean":true}],"status":"complete","type":"individual","measure":"https://madie.cms.gov/Measure/CMS996FHIRAptTxforSTEMI","period":{"start":"2026-01-01","end":"2026-12-31"},"group":[{"id":"Group_1","population":[{"id":"InitialPopulation_1","code":{"coding":[{"system":"http://terminology.hl7.org/CodeSystem/measure-population","code":"initial-population","display":"Initial Population"}]},"count":1},{"id":"Denominator_1","code":{"coding":[{"system":"http://terminology.hl7.org/CodeSystem/measure-population","code":"denominator","display":"Denominator"}]},"count":1},{"id":"DenominatorExclusion_1","code":{"coding":[{"system":"http://terminology.hl7.org/CodeSystem/measure-population","code":"denominator-exclusion","display":"Denominator Exclusion"}]},"count":1},{"id":"Numerator_1","code":{"coding":[{"system":"http://terminology.hl7.org/CodeSystem/measure-population","code":"numerator","display":"Numerator"}]},"count":0},{"id":"DenominatorException_1","code":{"coding":[{"system":"http://terminology.hl7.org/CodeSystem/measure-population","code":"denominator-exception","display":"Denominator Exception"}]},"count":0}],"measureScore":{"value":0.0}}],"evaluatedResource":[{"reference":"Patient/c85da3dc-b545-42f2-a5d5-d9c7ae88d944"},{"reference":"Encounter/0ce9421b-0c97-4400-99dc-b56693571d12"},{"reference":"Condition/0c2e3b1f-d02f-488f-9815-796d9416a963"}]},"request":{"method":"PUT","url":"MeasureReport/9bf76f35-1a73-4c30-8d04-316c39fce8d0"}}]},"request":{"method":"PUT","url":"Bundle/f1f044ef3e654daa9106"}},{"fullUrl":"MeasureReport/9bf76f35-1a73-4c30-8d04-316c39fce8d0","resource":{"resourceType":"MeasureReport","id":"9bf76f35-1a73-4c30-8d04-316c39fce8d0","meta":{"profile":["http://hl7.org/fhir/us/cqfmeasures/StructureDefinition/test-case-cqfm"]},"contained":[{"resourceType":"Parameters","id":"91e5ae84-fffc-4454-80ab-c2a223ca37b9-parameters","parameter":[{"name":"subject","valueString":"c85da3dc-b545-42f2-a5d5-d9c7ae88d944"}]}],"extension":[{"url":"http://hl7.org/fhir/StructureDefinition/cqf-inputParameters","valueReference":{"reference":"#91e5ae84-fffc-4454-80ab-c2a223ca37b9-parameters"}},{"url":"http://hl7.org/fhir/us/cqfmeasures/StructureDefinition/cqfm-testCaseDescription","valueMarkdown":"Patient has aneurysm of heart that started within 24 hours before start of ED encounter"}],"modifierExtension":[{"url":"http://hl7.org/fhir/us/cqfmeasures/StructureDefinition/cqfm-isTestCase","valueBoolean":true}],"status":"complete","type":"individual","measure":"https://madie.cms.gov/Measure/CMS996FHIRAptTxforSTEMI","period":{"start":"2026-01-01","end":"2026-12-31"},"group":[{"id":"Group_1","population":[{"id":"InitialPopulation_1","code":{"coding":[{"system":"http://terminology.hl7.org/CodeSystem/measure-population","code":"initial-population","display":"Initial Population"}]},"count":1},{"id":"Denominator_1","code":{"coding":[{"system":"http://terminology.hl7.org/CodeSystem/measure-population","code":"denominator","display":"Denominator"}]},"count":1},{"id":"DenominatorExclusion_1","code":{"coding":[{"system":"http://terminology.hl7.org/CodeSystem/measure-population","code":"denominator-exclusion","display":"Denominator Exclusion"}]},"count":1},{"id":"Numerator_1","code":{"coding":[{"system":"http://terminology.hl7.org/CodeSystem/measure-population","code":"numerator","display":"Numerator"}]},"count":0},{"id":"DenominatorException_1","code":{"coding":[{"system":"http://terminology.hl7.org/CodeSystem/measure-population","code":"denominator-exception","display":"Denominator Exception"}]},"count":0}],"measureScore":{"value":0.0}}],"evaluatedResource":[{"reference":"Patient/c85da3dc-b545-42f2-a5d5-d9c7ae88d944"},{"reference":"Encounter/0ce9421b-0c97-4400-99dc-b56693571d12"},{"reference":"Condition/0c2e3b1f-d02f-488f-9815-796d9416a963"}]},"request":{"method":"PUT","url":"MeasureReport/9bf76f35-1a73-4c30-8d04-316c39fce8d0"}},{"fullUrl":"Patient/c85da3dc-b545-42f2-a5d5-d9c7ae88d944","resource":{"resourceType":"Patient","id":"c85da3dc-b545-42f2-a5d5-d9c7ae88d944","meta":{"profile":["http://hl7.org/fhir/us/qicore/StructureDefinition/qicore-patient"]},"extension":[{"url":"http://hl7.org/fhir/us/core/StructureDefinition/us-core-race","extension":[{"url":"ombCategory","valueCoding":{"system":"urn:oid:2.16.840.1.113883.6.238","code":"1002-5","display":"American Indian or Alaska Native","userSelected":true}},{"url":"text","valueString":"American Indian or Alaska Native"}]},{"url":"http://hl7.org/fhir/us/core/StructureDefinition/us-core-ethnicity","extension":[{"url":"ombCategory","valueCoding":{"system":"urn:oid:2.16.840.1.113883.6.238","code":"2135-2","display":"Hispanic or Latino","userSelected":true}},{"url":"text","valueString":"Hispanic or Latino"}]},{"url":"http://hl7.org/fhir/us/core/StructureDefinition/us-core-sex","valueCode":"248152002"}],"identifier":[{"type":{"coding":[{"system":"http://terminology.hl7.org/CodeSystem/v2-0203","code":"MR"}]},"system":"https://bonnie-fhir.healthit.gov/","value":"f1f044ef3e654daa9106"}],"name":[{"family":"DENEXCL1PASS","given":["AneurysmOfHeartWithin24HoursBeforeED"]}],"gender":"female","birthDate":"1990-03-14"},"request":{"method":"PUT","url":"Patient/c85da3dc-b545-42f2-a5d5-d9c7ae88d944"}},{"fullUrl":"Condition/0c2e3b1f-d02f-488f-9815-796d9416a963","resource":{"resourceType":"Condition","id":"0c2e3b1f-d02f-488f-9815-796d9416a963","meta":{"profile":["http://hl7.org/fhir/us/qicore/StructureDefinition/qicore-condition-problems-health-concerns"]},"clinicalStatus":{"coding":[{"system":"http://terminology.hl7.org/CodeSystem/condition-clinical","code":"active","display":"Active","userSelected":true}]},"category":[{"coding":[{"system":"http://terminology.hl7.org/CodeSystem/condition-category","code":"problem-list-item","display":"Problem List Item","userSelected":true}]}],"code":{"coding":[{"system":"http://hl7.org/fhir/sid/icd-10-cm","code":"I25.3","display":"Aneurysm of heart","userSelected":true}]},"subject":{"reference":"Patient/c85da3dc-b545-42f2-a5d5-d9c7ae88d944"},"onsetDateTime":"2026-10-08T05:00:00.000+00:00"},"request":{"method":"PUT","url":"Condition/0c2e3b1f-d02f-488f-9815-796d9416a963"}},{"fullUrl":"Encounter/0ce9421b-0c97-4400-99dc-b56693571d12","resource":{"resourceType":"Encounter","id":"0ce9421b-0c97-4400-99dc-b56693571d12","meta":{"profile":["http://hl7.org/fhir/us/qicore/StructureDefinition/qicore-encounter"]},"status":"finished","class":{"system":"http://terminology.hl7.org/CodeSystem/v3-ActCode","code":"EMER","display":"emergency","userSelected":true},"type":[{"coding":[{"system":"http://snomed.info/sct","version":"2020-09","code":"4525004","display":"Emergency department patient visit","userSelected":true}]}],"subject":{"reference":"Patient/c85da3dc-b545-42f2-a5d5-d9c7ae88d944"},"period":{"start":"2026-10-09T05:00:00.000+00:00","end":"2026-10-13T17:00:00.000+00:00"},"reasonCode":[{"coding":[{"system":"http://hl7.org/fhir/sid/icd-10-cm","code":"I21.21","display":"ST elevation (STEMI) myocardial infarction involving left circumflex coronary artery","userSelected":true}]}]},"request":{"method":"PUT","url":"Encounter/0ce9421b-0c97-4400-99dc-b56693571d12"}}]}