{"resourceType":"Bundle","id":"tests-1bc5044a-c449-43be-929c-e1956fe9b983-bundle","type":"transaction","entry":[{"resource":{"resourceType":"MeasureReport","id":"2d1e1942-96f7-4fe6-ab0e-88a56d234dca","meta":{"profile":["http://hl7.org/fhir/us/cqfmeasures/StructureDefinition/test-case-cqfm"]},"contained":[{"resourceType":"Parameters","id":"38e8f8d6-c608-449f-89e8-b40f7d8f0740-parameters","parameter":[{"name":"subject","valueString":"1bc5044a-c449-43be-929c-e1956fe9b983"}]}],"extension":[{"url":"http://hl7.org/fhir/StructureDefinition/cqf-inputParameters","valueReference":{"reference":"#38e8f8d6-c608-449f-89e8-b40f7d8f0740-parameters"}},{"url":"http://hl7.org/fhir/us/cqfmeasures/StructureDefinition/cqfm-testCaseDescription","valueMarkdown":"Hospice Assessment before ED stay"}],"modifierExtension":[{"url":"http://hl7.org/fhir/us/cqfmeasures/StructureDefinition/cqfm-isTestCase","valueBoolean":true}],"status":"complete","type":"individual","measure":"https://madie.cms.gov/Measure/CMS996FHIRAptTxforSTEMI","period":{"start":"2026-01-01","end":"2026-12-31"},"group":[{"id":"Group_1","population":[{"id":"InitialPopulation_1","code":{"coding":[{"system":"http://terminology.hl7.org/CodeSystem/measure-population","code":"initial-population","display":"Initial Population"}]},"count":1},{"id":"Denominator_1","code":{"coding":[{"system":"http://terminology.hl7.org/CodeSystem/measure-population","code":"denominator","display":"Denominator"}]},"count":1},{"id":"DenominatorExclusion_1","code":{"coding":[{"system":"http://terminology.hl7.org/CodeSystem/measure-population","code":"denominator-exclusion","display":"Denominator Exclusion"}]},"count":1},{"id":"Numerator_1","code":{"coding":[{"system":"http://terminology.hl7.org/CodeSystem/measure-population","code":"numerator","display":"Numerator"}]},"count":0},{"id":"DenominatorException_1","code":{"coding":[{"system":"http://terminology.hl7.org/CodeSystem/measure-population","code":"denominator-exception","display":"Denominator Exception"}]},"count":0}],"measureScore":{"value":0.0}}],"evaluatedResource":[{"reference":"Patient/1bc5044a-c449-43be-929c-e1956fe9b983"},{"reference":"Encounter/a457bb10-fa63-46e8-8545-8418d317356d"},{"reference":"Observation/b0b93c91-5f29-49ee-aa41-22a2b379308f"}]},"request":{"method":"PUT","url":"MeasureReport/2d1e1942-96f7-4fe6-ab0e-88a56d234dca"}},{"resource":{"resourceType":"Encounter","id":"a457bb10-fa63-46e8-8545-8418d317356d","meta":{"profile":["http://hl7.org/fhir/us/qicore/StructureDefinition/qicore-encounter"]},"status":"finished","class":{"system":"http://terminology.hl7.org/CodeSystem/v3-ActCode","code":"EMER","display":"emergency","userSelected":true},"type":[{"coding":[{"system":"http://snomed.info/sct","version":"2020-09","code":"4525004","display":"Emergency department patient visit","userSelected":true}]}],"subject":{"reference":"Patient/1bc5044a-c449-43be-929c-e1956fe9b983"},"period":{"start":"2026-10-09T05:00:00.000+00:00","end":"2026-10-13T17:00:00.000+00:00"},"reasonCode":[{"coding":[{"system":"http://hl7.org/fhir/sid/icd-10-cm","code":"I21.21","display":"ST elevation (STEMI) myocardial infarction involving left circumflex coronary artery","userSelected":true}]}]},"request":{"method":"PUT","url":"Encounter/a457bb10-fa63-46e8-8545-8418d317356d"}},{"resource":{"resourceType":"Patient","id":"1bc5044a-c449-43be-929c-e1956fe9b983","meta":{"profile":["http://hl7.org/fhir/us/qicore/StructureDefinition/qicore-patient"]},"extension":[{"url":"http://hl7.org/fhir/us/core/StructureDefinition/us-core-race","extension":[{"url":"ombCategory","valueCoding":{"system":"urn:oid:2.16.840.1.113883.6.238","code":"1002-5","display":"American Indian or Alaska Native","userSelected":true}},{"url":"text","valueString":"American Indian or Alaska Native"}]},{"url":"http://hl7.org/fhir/us/core/StructureDefinition/us-core-ethnicity","extension":[{"url":"ombCategory","valueCoding":{"system":"urn:oid:2.16.840.1.113883.6.238","code":"2135-2","display":"Hispanic or Latino","userSelected":true}},{"url":"text","valueString":"Hispanic or Latino"}]},{"url":"http://hl7.org/fhir/us/core/StructureDefinition/us-core-sex","valueCode":"248153007"}],"identifier":[{"type":{"coding":[{"system":"http://terminology.hl7.org/CodeSystem/v2-0203","code":"MR"}]},"system":"https://bonnie-fhir.healthit.gov/","value":"c1f044ef3e654daa2249"}],"name":[{"family":"DENEXCL11PASS","given":["HospiceAssessmentBeforeED"]}],"gender":"male","birthDate":"1927-01-12"},"request":{"method":"PUT","url":"Patient/1bc5044a-c449-43be-929c-e1956fe9b983"}},{"resource":{"resourceType":"Observation","id":"b0b93c91-5f29-49ee-aa41-22a2b379308f","meta":{"profile":["http://hl7.org/fhir/us/qicore/StructureDefinition/qicore-observation-screening-assessment"]},"status":"final","category":[{"coding":[{"system":"http://terminology.hl7.org/CodeSystem/observation-category","code":"survey","display":"Survey","userSelected":true}]}],"code":{"coding":[{"system":"http://loinc.org","code":"45755-6","display":"Hospice care [Minimum Data Set]","userSelected":true}]},"subject":{"reference":"Patient/1bc5044a-c449-43be-929c-e1956fe9b983"},"effectivePeriod":{"start":"2026-08-03T02:00:00.000+00:00","end":"2026-08-03T02:00:00.000+00:00"},"valueCodeableConcept":{"coding":[{"system":"http://snomed.info/sct","code":"373066001","display":"Yes (qualifier value)","userSelected":true}]}},"request":{"method":"PUT","url":"Observation/b0b93c91-5f29-49ee-aa41-22a2b379308f"}},{"resource":{"resourceType":"Bundle","id":"c1f044ef3e654daa2249","type":"transaction","entry":[{"fullUrl":"https://madie.cms.gov/Patient/1bc5044a-c449-43be-929c-e1956fe9b983","resource":{"resourceType":"Patient","id":"1bc5044a-c449-43be-929c-e1956fe9b983","meta":{"profile":["http://hl7.org/fhir/us/qicore/StructureDefinition/qicore-patient"]},"extension":[{"url":"http://hl7.org/fhir/us/core/StructureDefinition/us-core-race","extension":[{"url":"ombCategory","valueCoding":{"system":"urn:oid:2.16.840.1.113883.6.238","code":"1002-5","display":"American Indian or Alaska Native","userSelected":true}},{"url":"text","valueString":"American Indian or Alaska Native"}]},{"url":"http://hl7.org/fhir/us/core/StructureDefinition/us-core-ethnicity","extension":[{"url":"ombCategory","valueCoding":{"system":"urn:oid:2.16.840.1.113883.6.238","code":"2135-2","display":"Hispanic or Latino","userSelected":true}},{"url":"text","valueString":"Hispanic or Latino"}]},{"url":"http://hl7.org/fhir/us/core/StructureDefinition/us-core-sex","valueCode":"248153007"}],"identifier":[{"type":{"coding":[{"system":"http://terminology.hl7.org/CodeSystem/v2-0203","code":"MR"}]},"system":"https://bonnie-fhir.healthit.gov/","value":"c1f044ef3e654daa2249"}],"name":[{"family":"DENEXCL11PASS","given":["HospiceAssessmentBeforeED"]}],"gender":"male","birthDate":"1927-01-12"},"request":{"method":"PUT","url":"Patient/1bc5044a-c449-43be-929c-e1956fe9b983"}},{"fullUrl":"https://madie.cms.gov/Encounter/a457bb10-fa63-46e8-8545-8418d317356d","resource":{"resourceType":"Encounter","id":"a457bb10-fa63-46e8-8545-8418d317356d","meta":{"profile":["http://hl7.org/fhir/us/qicore/StructureDefinition/qicore-encounter"]},"status":"finished","class":{"system":"http://terminology.hl7.org/CodeSystem/v3-ActCode","code":"EMER","display":"emergency","userSelected":true},"type":[{"coding":[{"system":"http://snomed.info/sct","version":"2020-09","code":"4525004","display":"Emergency department patient visit","userSelected":true}]}],"subject":{"reference":"Patient/1bc5044a-c449-43be-929c-e1956fe9b983"},"period":{"start":"2026-10-09T05:00:00.000+00:00","end":"2026-10-13T17:00:00.000+00:00"},"reasonCode":[{"coding":[{"system":"http://hl7.org/fhir/sid/icd-10-cm","code":"I21.21","display":"ST elevation (STEMI) myocardial infarction involving left circumflex coronary artery","userSelected":true}]}]},"request":{"method":"PUT","url":"Encounter/a457bb10-fa63-46e8-8545-8418d317356d"}},{"fullUrl":"https://madie.cms.gov/Observation/b0b93c91-5f29-49ee-aa41-22a2b379308f","resource":{"resourceType":"Observation","id":"b0b93c91-5f29-49ee-aa41-22a2b379308f","meta":{"profile":["http://hl7.org/fhir/us/qicore/StructureDefinition/qicore-observation-screening-assessment"]},"status":"final","category":[{"coding":[{"system":"http://terminology.hl7.org/CodeSystem/observation-category","code":"survey","display":"Survey","userSelected":true}]}],"code":{"coding":[{"system":"http://loinc.org","code":"45755-6","display":"Hospice care [Minimum Data Set]","userSelected":true}]},"subject":{"reference":"Patient/1bc5044a-c449-43be-929c-e1956fe9b983"},"effectivePeriod":{"start":"2026-08-03T02:00:00.000+00:00","end":"2026-08-03T02:00:00.000+00:00"},"valueCodeableConcept":{"coding":[{"system":"http://snomed.info/sct","code":"373066001","display":"Yes (qualifier value)","userSelected":true}]}},"request":{"method":"PUT","url":"Observation/b0b93c91-5f29-49ee-aa41-22a2b379308f"}},{"fullUrl":"https://madie.cms.gov/MeasureReport/2d1e1942-96f7-4fe6-ab0e-88a56d234dca","resource":{"resourceType":"MeasureReport","id":"2d1e1942-96f7-4fe6-ab0e-88a56d234dca","meta":{"profile":["http://hl7.org/fhir/us/cqfmeasures/StructureDefinition/test-case-cqfm"]},"contained":[{"resourceType":"Parameters","id":"38e8f8d6-c608-449f-89e8-b40f7d8f0740-parameters","parameter":[{"name":"subject","valueString":"1bc5044a-c449-43be-929c-e1956fe9b983"}]}],"extension":[{"url":"http://hl7.org/fhir/StructureDefinition/cqf-inputParameters","valueReference":{"reference":"#38e8f8d6-c608-449f-89e8-b40f7d8f0740-parameters"}},{"url":"http://hl7.org/fhir/us/cqfmeasures/StructureDefinition/cqfm-testCaseDescription","valueMarkdown":"Hospice Assessment before ED stay"}],"modifierExtension":[{"url":"http://hl7.org/fhir/us/cqfmeasures/StructureDefinition/cqfm-isTestCase","valueBoolean":true}],"status":"complete","type":"individual","measure":"https://madie.cms.gov/Measure/CMS996FHIRAptTxforSTEMI","period":{"start":"2026-01-01","end":"2026-12-31"},"group":[{"id":"Group_1","population":[{"id":"InitialPopulation_1","code":{"coding":[{"system":"http://terminology.hl7.org/CodeSystem/measure-population","code":"initial-population","display":"Initial Population"}]},"count":1},{"id":"Denominator_1","code":{"coding":[{"system":"http://terminology.hl7.org/CodeSystem/measure-population","code":"denominator","display":"Denominator"}]},"count":1},{"id":"DenominatorExclusion_1","code":{"coding":[{"system":"http://terminology.hl7.org/CodeSystem/measure-population","code":"denominator-exclusion","display":"Denominator Exclusion"}]},"count":1},{"id":"Numerator_1","code":{"coding":[{"system":"http://terminology.hl7.org/CodeSystem/measure-population","code":"numerator","display":"Numerator"}]},"count":0},{"id":"DenominatorException_1","code":{"coding":[{"system":"http://terminology.hl7.org/CodeSystem/measure-population","code":"denominator-exception","display":"Denominator Exception"}]},"count":0}],"measureScore":{"value":0.0}}],"evaluatedResource":[{"reference":"Patient/1bc5044a-c449-43be-929c-e1956fe9b983"},{"reference":"Encounter/a457bb10-fa63-46e8-8545-8418d317356d"},{"reference":"Observation/b0b93c91-5f29-49ee-aa41-22a2b379308f"}]},"request":{"method":"PUT","url":"MeasureReport/2d1e1942-96f7-4fe6-ab0e-88a56d234dca"}}]},"request":{"method":"PUT","url":"Bundle/c1f044ef3e654daa2249"}}]}