{"resourceType":"Bundle","id":"tests-8bb7c40b-7447-42ca-b662-161a7026ed8f-bundle","type":"transaction","entry":[{"fullUrl":"MedicationAdministration/a1cb9336-26b9-43ea-8425-f2b4464afe5d","resource":{"resourceType":"MedicationAdministration","id":"a1cb9336-26b9-43ea-8425-f2b4464afe5d","meta":{"profile":["http://hl7.org/fhir/us/qicore/StructureDefinition/qicore-medicationadministrationnotdone"]},"extension":[{"url":"http://hl7.org/fhir/us/qicore/StructureDefinition/qicore-recorded","valueDateTime":"2026-10-11T17:30:00.000+00:00"}],"status":"not-done","statusReason":[{"coding":[{"system":"http://snomed.info/sct","code":"183966005","display":"Drug treatment not indicated (situation)"}]}],"medicationCodeableConcept":{"coding":[{"system":"http://www.nlm.nih.gov/research/umls/rxnorm","code":"1804799","display":"alteplase 100 MG Injection","userSelected":true}]},"subject":{"reference":"Patient/8bb7c40b-7447-42ca-b662-161a7026ed8f"},"effectivePeriod":{"start":"2026-10-11T17:30:00.000+00:00"}},"request":{"method":"PUT","url":"MedicationAdministration/a1cb9336-26b9-43ea-8425-f2b4464afe5d"}},{"fullUrl":"Patient/8bb7c40b-7447-42ca-b662-161a7026ed8f","resource":{"resourceType":"Patient","id":"8bb7c40b-7447-42ca-b662-161a7026ed8f","meta":{"profile":["http://hl7.org/fhir/us/qicore/StructureDefinition/qicore-patient"]},"extension":[{"url":"http://hl7.org/fhir/us/core/StructureDefinition/us-core-race","extension":[{"url":"ombCategory","valueCoding":{"system":"urn:oid:2.16.840.1.113883.6.238","code":"2028-9","display":"Asian","userSelected":true}},{"url":"text","valueString":"Asian"}]},{"url":"http://hl7.org/fhir/us/core/StructureDefinition/us-core-ethnicity","extension":[{"url":"ombCategory","valueCoding":{"system":"urn:oid:2.16.840.1.113883.6.238","code":"2186-5","display":"Not Hispanic or Latino","userSelected":true}},{"url":"text","valueString":"Not Hispanic or Latino"}]},{"url":"http://hl7.org/fhir/us/core/StructureDefinition/us-core-sex","valueCode":"248153007"}],"identifier":[{"type":{"coding":[{"system":"http://terminology.hl7.org/CodeSystem/v2-0203","code":"MR"}]},"system":"https://bonnie-fhir.healthit.gov/","value":"x1f044ef3e654daa7200"}],"name":[{"family":"DENEXCL1PASS","given":["MedicalReasonForNoFibDuringED"]}],"gender":"male","birthDate":"1944-08-09"},"request":{"method":"PUT","url":"Patient/8bb7c40b-7447-42ca-b662-161a7026ed8f"}},{"fullUrl":"MeasureReport/ec558dce-695a-4cd3-b7dd-bb2003046da3","resource":{"resourceType":"MeasureReport","id":"ec558dce-695a-4cd3-b7dd-bb2003046da3","meta":{"profile":["http://hl7.org/fhir/us/cqfmeasures/StructureDefinition/test-case-cqfm"]},"contained":[{"resourceType":"Parameters","id":"221e8e60-70cf-4cad-96cf-c11b168d59e4-parameters","parameter":[{"name":"subject","valueString":"8bb7c40b-7447-42ca-b662-161a7026ed8f"}]}],"extension":[{"url":"http://hl7.org/fhir/StructureDefinition/cqf-inputParameters","valueReference":{"reference":"#221e8e60-70cf-4cad-96cf-c11b168d59e4-parameters"}},{"url":"http://hl7.org/fhir/us/cqfmeasures/StructureDefinition/cqfm-testCaseDescription","valueMarkdown":"Patient has a record of no fibrinolytic therapy administration for a valid medical reason "}],"modifierExtension":[{"url":"http://hl7.org/fhir/us/cqfmeasures/StructureDefinition/cqfm-isTestCase","valueBoolean":true}],"status":"complete","type":"individual","measure":"https://madie.cms.gov/Measure/CMS996FHIRAptTxforSTEMI","period":{"start":"2026-01-01","end":"2026-12-31"},"group":[{"id":"Group_1","population":[{"id":"InitialPopulation_1","code":{"coding":[{"system":"http://terminology.hl7.org/CodeSystem/measure-population","code":"initial-population","display":"Initial Population"}]},"count":1},{"id":"Denominator_1","code":{"coding":[{"system":"http://terminology.hl7.org/CodeSystem/measure-population","code":"denominator","display":"Denominator"}]},"count":1},{"id":"DenominatorExclusion_1","code":{"coding":[{"system":"http://terminology.hl7.org/CodeSystem/measure-population","code":"denominator-exclusion","display":"Denominator Exclusion"}]},"count":0},{"id":"Numerator_1","code":{"coding":[{"system":"http://terminology.hl7.org/CodeSystem/measure-population","code":"numerator","display":"Numerator"}]},"count":0},{"id":"DenominatorException_1","code":{"coding":[{"system":"http://terminology.hl7.org/CodeSystem/measure-population","code":"denominator-exception","display":"Denominator Exception"}]},"count":1}],"measureScore":{"value":0.0}}],"evaluatedResource":[{"reference":"Patient/8bb7c40b-7447-42ca-b662-161a7026ed8f"},{"reference":"Encounter/2fafcf56-a2e0-4234-8ffa-48659110d858"},{"reference":"Condition/7877cf8e-1840-4943-8687-474a2470118b"},{"reference":"MedicationAdministration/a1cb9336-26b9-43ea-8425-f2b4464afe5d"}]},"request":{"method":"PUT","url":"MeasureReport/ec558dce-695a-4cd3-b7dd-bb2003046da3"}},{"fullUrl":"Bundle/x1f044ef3e654daa7200","resource":{"resourceType":"Bundle","id":"x1f044ef3e654daa7200","type":"transaction","entry":[{"fullUrl":"https://madie.cms.gov/Patient/8bb7c40b-7447-42ca-b662-161a7026ed8f","resource":{"resourceType":"Patient","id":"8bb7c40b-7447-42ca-b662-161a7026ed8f","meta":{"profile":["http://hl7.org/fhir/us/qicore/StructureDefinition/qicore-patient"]},"extension":[{"url":"http://hl7.org/fhir/us/core/StructureDefinition/us-core-race","extension":[{"url":"ombCategory","valueCoding":{"system":"urn:oid:2.16.840.1.113883.6.238","code":"2028-9","display":"Asian","userSelected":true}},{"url":"text","valueString":"Asian"}]},{"url":"http://hl7.org/fhir/us/core/StructureDefinition/us-core-ethnicity","extension":[{"url":"ombCategory","valueCoding":{"system":"urn:oid:2.16.840.1.113883.6.238","code":"2186-5","display":"Not Hispanic or Latino","userSelected":true}},{"url":"text","valueString":"Not Hispanic or Latino"}]},{"url":"http://hl7.org/fhir/us/core/StructureDefinition/us-core-sex","valueCode":"248153007"}],"identifier":[{"type":{"coding":[{"system":"http://terminology.hl7.org/CodeSystem/v2-0203","code":"MR"}]},"system":"https://bonnie-fhir.healthit.gov/","value":"x1f044ef3e654daa7200"}],"name":[{"family":"DENEXCL1PASS","given":["MedicalReasonForNoFibDuringED"]}],"gender":"male","birthDate":"1944-08-09"},"request":{"method":"PUT","url":"Patient/8bb7c40b-7447-42ca-b662-161a7026ed8f"}},{"fullUrl":"https://madie.cms.gov/Encounter/2fafcf56-a2e0-4234-8ffa-48659110d858","resource":{"resourceType":"Encounter","id":"2fafcf56-a2e0-4234-8ffa-48659110d858","meta":{"profile":["http://hl7.org/fhir/us/qicore/StructureDefinition/qicore-encounter"]},"status":"finished","class":{"system":"http://terminology.hl7.org/CodeSystem/v3-ActCode","code":"EMER","display":"emergency","userSelected":true},"type":[{"coding":[{"system":"http://snomed.info/sct","version":"2020-09","code":"4525004","display":"Emergency department patient visit","userSelected":true}]}],"subject":{"reference":"Patient/8bb7c40b-7447-42ca-b662-161a7026ed8f"},"period":{"start":"2026-10-09T05:00:00.000+00:00","end":"2026-10-13T17:00:00.000+00:00"},"reasonReference":[{"reference":"Condition/7877cf8e-1840-4943-8687-474a2470118b"}]},"request":{"method":"PUT","url":"Encounter/2fafcf56-a2e0-4234-8ffa-48659110d858"}},{"fullUrl":"https://madie.cms.gov/Condition/7877cf8e-1840-4943-8687-474a2470118b","resource":{"resourceType":"Condition","id":"7877cf8e-1840-4943-8687-474a2470118b","meta":{"profile":["http://hl7.org/fhir/us/qicore/StructureDefinition/qicore-condition-encounter-diagnosis"]},"clinicalStatus":{"coding":[{"system":"http://terminology.hl7.org/CodeSystem/condition-clinical","code":"active","display":"Active","userSelected":true}]},"category":[{"coding":[{"system":"http://terminology.hl7.org/CodeSystem/condition-category","code":"encounter-diagnosis","display":"Encounter Diagnosis","userSelected":true}]}],"code":{"coding":[{"system":"http://hl7.org/fhir/sid/icd-10-cm","code":"I21.21","display":"ST elevation (STEMI) myocardial infarction involving left circumflex coronary artery","userSelected":true}]},"subject":{"reference":"Patient/8bb7c40b-7447-42ca-b662-161a7026ed8f"},"encounter":{"reference":"Encounter/2fafcf56-a2e0-4234-8ffa-48659110d858"},"onsetPeriod":{"start":"2026-10-09T05:00:00.000+00:00","end":"2026-10-09T17:00:00.000+00:00"}},"request":{"method":"PUT","url":"Condition/7877cf8e-1840-4943-8687-474a2470118b"}},{"fullUrl":"https://madie.cms.gov/MedicationAdministration/a1cb9336-26b9-43ea-8425-f2b4464afe5d","resource":{"resourceType":"MedicationAdministration","id":"a1cb9336-26b9-43ea-8425-f2b4464afe5d","meta":{"profile":["http://hl7.org/fhir/us/qicore/StructureDefinition/qicore-medicationadministrationnotdone"]},"extension":[{"url":"http://hl7.org/fhir/us/qicore/StructureDefinition/qicore-recorded","valueDateTime":"2026-10-11T17:30:00.000+00:00"}],"status":"not-done","statusReason":[{"coding":[{"system":"http://snomed.info/sct","code":"183966005","display":"Drug treatment not indicated (situation)"}]}],"medicationCodeableConcept":{"coding":[{"system":"http://www.nlm.nih.gov/research/umls/rxnorm","code":"1804799","display":"alteplase 100 MG Injection","userSelected":true}]},"subject":{"reference":"Patient/8bb7c40b-7447-42ca-b662-161a7026ed8f"},"effectivePeriod":{"start":"2026-10-11T17:30:00.000+00:00"}},"request":{"method":"PUT","url":"MedicationAdministration/a1cb9336-26b9-43ea-8425-f2b4464afe5d"}},{"fullUrl":"https://madie.cms.gov/MeasureReport/ec558dce-695a-4cd3-b7dd-bb2003046da3","resource":{"resourceType":"MeasureReport","id":"ec558dce-695a-4cd3-b7dd-bb2003046da3","meta":{"profile":["http://hl7.org/fhir/us/cqfmeasures/StructureDefinition/test-case-cqfm"]},"contained":[{"resourceType":"Parameters","id":"221e8e60-70cf-4cad-96cf-c11b168d59e4-parameters","parameter":[{"name":"subject","valueString":"8bb7c40b-7447-42ca-b662-161a7026ed8f"}]}],"extension":[{"url":"http://hl7.org/fhir/StructureDefinition/cqf-inputParameters","valueReference":{"reference":"#221e8e60-70cf-4cad-96cf-c11b168d59e4-parameters"}},{"url":"http://hl7.org/fhir/us/cqfmeasures/StructureDefinition/cqfm-testCaseDescription","valueMarkdown":"Patient has a record of no fibrinolytic therapy administration for a valid medical reason "}],"modifierExtension":[{"url":"http://hl7.org/fhir/us/cqfmeasures/StructureDefinition/cqfm-isTestCase","valueBoolean":true}],"status":"complete","type":"individual","measure":"https://madie.cms.gov/Measure/CMS996FHIRAptTxforSTEMI","period":{"start":"2026-01-01","end":"2026-12-31"},"group":[{"id":"Group_1","population":[{"id":"InitialPopulation_1","code":{"coding":[{"system":"http://terminology.hl7.org/CodeSystem/measure-population","code":"initial-population","display":"Initial Population"}]},"count":1},{"id":"Denominator_1","code":{"coding":[{"system":"http://terminology.hl7.org/CodeSystem/measure-population","code":"denominator","display":"Denominator"}]},"count":1},{"id":"DenominatorExclusion_1","code":{"coding":[{"system":"http://terminology.hl7.org/CodeSystem/measure-population","code":"denominator-exclusion","display":"Denominator Exclusion"}]},"count":0},{"id":"Numerator_1","code":{"coding":[{"system":"http://terminology.hl7.org/CodeSystem/measure-population","code":"numerator","display":"Numerator"}]},"count":0},{"id":"DenominatorException_1","code":{"coding":[{"system":"http://terminology.hl7.org/CodeSystem/measure-population","code":"denominator-exception","display":"Denominator Exception"}]},"count":1}],"measureScore":{"value":0.0}}],"evaluatedResource":[{"reference":"Patient/8bb7c40b-7447-42ca-b662-161a7026ed8f"},{"reference":"Encounter/2fafcf56-a2e0-4234-8ffa-48659110d858"},{"reference":"Condition/7877cf8e-1840-4943-8687-474a2470118b"},{"reference":"MedicationAdministration/a1cb9336-26b9-43ea-8425-f2b4464afe5d"}]},"request":{"method":"PUT","url":"MeasureReport/ec558dce-695a-4cd3-b7dd-bb2003046da3"}}]},"request":{"method":"PUT","url":"Bundle/x1f044ef3e654daa7200"}},{"fullUrl":"Encounter/2fafcf56-a2e0-4234-8ffa-48659110d858","resource":{"resourceType":"Encounter","id":"2fafcf56-a2e0-4234-8ffa-48659110d858","meta":{"profile":["http://hl7.org/fhir/us/qicore/StructureDefinition/qicore-encounter"]},"status":"finished","class":{"system":"http://terminology.hl7.org/CodeSystem/v3-ActCode","code":"EMER","display":"emergency","userSelected":true},"type":[{"coding":[{"system":"http://snomed.info/sct","version":"2020-09","code":"4525004","display":"Emergency department patient visit","userSelected":true}]}],"subject":{"reference":"Patient/8bb7c40b-7447-42ca-b662-161a7026ed8f"},"period":{"start":"2026-10-09T05:00:00.000+00:00","end":"2026-10-13T17:00:00.000+00:00"},"reasonReference":[{"reference":"Condition/7877cf8e-1840-4943-8687-474a2470118b"}]},"request":{"method":"PUT","url":"Encounter/2fafcf56-a2e0-4234-8ffa-48659110d858"}},{"fullUrl":"Condition/7877cf8e-1840-4943-8687-474a2470118b","resource":{"resourceType":"Condition","id":"7877cf8e-1840-4943-8687-474a2470118b","meta":{"profile":["http://hl7.org/fhir/us/qicore/StructureDefinition/qicore-condition-encounter-diagnosis"]},"clinicalStatus":{"coding":[{"system":"http://terminology.hl7.org/CodeSystem/condition-clinical","code":"active","display":"Active","userSelected":true}]},"category":[{"coding":[{"system":"http://terminology.hl7.org/CodeSystem/condition-category","code":"encounter-diagnosis","display":"Encounter Diagnosis","userSelected":true}]}],"code":{"coding":[{"system":"http://hl7.org/fhir/sid/icd-10-cm","code":"I21.21","display":"ST elevation (STEMI) myocardial infarction involving left circumflex coronary artery","userSelected":true}]},"subject":{"reference":"Patient/8bb7c40b-7447-42ca-b662-161a7026ed8f"},"encounter":{"reference":"Encounter/2fafcf56-a2e0-4234-8ffa-48659110d858"},"onsetPeriod":{"start":"2026-10-09T05:00:00.000+00:00","end":"2026-10-09T17:00:00.000+00:00"}},"request":{"method":"PUT","url":"Condition/7877cf8e-1840-4943-8687-474a2470118b"}}]}