{"resourceType":"Bundle","id":"tests-e050879d-9d2a-4ecc-855c-16e83906cde0-bundle","type":"transaction","entry":[{"fullUrl":"MeasureReport/c711dad4-2dbf-4d19-8486-211470aabf02","resource":{"resourceType":"MeasureReport","id":"c711dad4-2dbf-4d19-8486-211470aabf02","meta":{"profile":["http://hl7.org/fhir/us/cqfmeasures/StructureDefinition/test-case-cqfm"]},"contained":[{"resourceType":"Parameters","id":"8021255c-8f83-4954-a547-f6113ab62497-parameters","parameter":[{"name":"subject","valueString":"e050879d-9d2a-4ecc-855c-16e83906cde0"}]}],"extension":[{"url":"http://hl7.org/fhir/StructureDefinition/cqf-inputParameters","valueReference":{"reference":"#8021255c-8f83-4954-a547-f6113ab62497-parameters"}},{"url":"http://hl7.org/fhir/us/cqfmeasures/StructureDefinition/cqfm-testCaseDescription","valueMarkdown":"Hospice Assessment effective date time before ED stay"}],"modifierExtension":[{"url":"http://hl7.org/fhir/us/cqfmeasures/StructureDefinition/cqfm-isTestCase","valueBoolean":true}],"status":"complete","type":"individual","measure":"https://madie.cms.gov/Measure/CMS996FHIRAptTxforSTEMI","period":{"start":"2026-01-01","end":"2026-12-31"},"group":[{"id":"Group_1","population":[{"id":"InitialPopulation_1","code":{"coding":[{"system":"http://terminology.hl7.org/CodeSystem/measure-population","code":"initial-population","display":"Initial Population"}]},"count":1},{"id":"Denominator_1","code":{"coding":[{"system":"http://terminology.hl7.org/CodeSystem/measure-population","code":"denominator","display":"Denominator"}]},"count":1},{"id":"DenominatorExclusion_1","code":{"coding":[{"system":"http://terminology.hl7.org/CodeSystem/measure-population","code":"denominator-exclusion","display":"Denominator Exclusion"}]},"count":1},{"id":"Numerator_1","code":{"coding":[{"system":"http://terminology.hl7.org/CodeSystem/measure-population","code":"numerator","display":"Numerator"}]},"count":0},{"id":"DenominatorException_1","code":{"coding":[{"system":"http://terminology.hl7.org/CodeSystem/measure-population","code":"denominator-exception","display":"Denominator Exception"}]},"count":0}],"measureScore":{"value":0.0}}],"evaluatedResource":[{"reference":"Patient/e050879d-9d2a-4ecc-855c-16e83906cde0"},{"reference":"Encounter/69f4f80f-a1ce-4a13-b808-437ada89f2e8"},{"reference":"Observation/b22c383e-95bd-4583-a1cf-5d421a8430f0"}]},"request":{"method":"PUT","url":"MeasureReport/c711dad4-2dbf-4d19-8486-211470aabf02"}},{"fullUrl":"Encounter/69f4f80f-a1ce-4a13-b808-437ada89f2e8","resource":{"resourceType":"Encounter","id":"69f4f80f-a1ce-4a13-b808-437ada89f2e8","meta":{"profile":["http://hl7.org/fhir/us/qicore/StructureDefinition/qicore-encounter"]},"status":"finished","class":{"system":"http://terminology.hl7.org/CodeSystem/v3-ActCode","code":"EMER","display":"emergency","userSelected":true},"type":[{"coding":[{"system":"http://snomed.info/sct","version":"2020-09","code":"4525004","display":"Emergency department patient visit","userSelected":true}]}],"subject":{"reference":"Patient/e050879d-9d2a-4ecc-855c-16e83906cde0"},"period":{"start":"2026-10-09T05:00:00.000+00:00","end":"2026-10-13T17:00:00.000+00:00"},"reasonCode":[{"coding":[{"system":"http://hl7.org/fhir/sid/icd-10-cm","code":"I21.21","display":"ST elevation (STEMI) myocardial infarction involving left circumflex coronary artery","userSelected":true}]}]},"request":{"method":"PUT","url":"Encounter/69f4f80f-a1ce-4a13-b808-437ada89f2e8"}},{"fullUrl":"Patient/e050879d-9d2a-4ecc-855c-16e83906cde0","resource":{"resourceType":"Patient","id":"e050879d-9d2a-4ecc-855c-16e83906cde0","meta":{"profile":["http://hl7.org/fhir/us/qicore/StructureDefinition/qicore-patient"]},"extension":[{"url":"http://hl7.org/fhir/us/core/StructureDefinition/us-core-race","extension":[{"url":"ombCategory","valueCoding":{"system":"urn:oid:2.16.840.1.113883.6.238","code":"1002-5","display":"American Indian or Alaska Native","userSelected":true}},{"url":"text","valueString":"American Indian or Alaska Native"}]},{"url":"http://hl7.org/fhir/us/core/StructureDefinition/us-core-ethnicity","extension":[{"url":"ombCategory","valueCoding":{"system":"urn:oid:2.16.840.1.113883.6.238","code":"2135-2","display":"Hispanic or Latino","userSelected":true}},{"url":"text","valueString":"Hispanic or Latino"}]},{"url":"http://hl7.org/fhir/us/core/StructureDefinition/us-core-sex","valueCode":"248153007"}],"identifier":[{"type":{"coding":[{"system":"http://terminology.hl7.org/CodeSystem/v2-0203","code":"MR"}]},"system":"https://bonnie-fhir.healthit.gov/","value":"e1f044ef3e654daa2279"}],"name":[{"family":"DENEXCL11PASS","given":["HospiceAssessmentDateTimeBeforeED"]}],"gender":"male","birthDate":"1949-05-12"},"request":{"method":"PUT","url":"Patient/e050879d-9d2a-4ecc-855c-16e83906cde0"}},{"fullUrl":"Observation/b22c383e-95bd-4583-a1cf-5d421a8430f0","resource":{"resourceType":"Observation","id":"b22c383e-95bd-4583-a1cf-5d421a8430f0","meta":{"profile":["http://hl7.org/fhir/us/qicore/StructureDefinition/qicore-observation-screening-assessment"]},"status":"final","category":[{"coding":[{"system":"http://terminology.hl7.org/CodeSystem/observation-category","code":"survey","display":"Survey","userSelected":true}]}],"code":{"coding":[{"system":"http://loinc.org","code":"45755-6","display":"Hospice care [Minimum Data Set]","userSelected":true}]},"subject":{"reference":"Patient/e050879d-9d2a-4ecc-855c-16e83906cde0"},"effectiveDateTime":"2026-08-03T02:00:00.000+00:00","valueCodeableConcept":{"coding":[{"system":"http://snomed.info/sct","code":"373066001","display":"Yes (qualifier value)","userSelected":true}]}},"request":{"method":"PUT","url":"Observation/b22c383e-95bd-4583-a1cf-5d421a8430f0"}},{"fullUrl":"Bundle/e1f044ef3e654daa2279","resource":{"resourceType":"Bundle","id":"e1f044ef3e654daa2279","type":"transaction","entry":[{"fullUrl":"https://madie.cms.gov/Patient/e050879d-9d2a-4ecc-855c-16e83906cde0","resource":{"resourceType":"Patient","id":"e050879d-9d2a-4ecc-855c-16e83906cde0","meta":{"profile":["http://hl7.org/fhir/us/qicore/StructureDefinition/qicore-patient"]},"extension":[{"url":"http://hl7.org/fhir/us/core/StructureDefinition/us-core-race","extension":[{"url":"ombCategory","valueCoding":{"system":"urn:oid:2.16.840.1.113883.6.238","code":"1002-5","display":"American Indian or Alaska Native","userSelected":true}},{"url":"text","valueString":"American Indian or Alaska Native"}]},{"url":"http://hl7.org/fhir/us/core/StructureDefinition/us-core-ethnicity","extension":[{"url":"ombCategory","valueCoding":{"system":"urn:oid:2.16.840.1.113883.6.238","code":"2135-2","display":"Hispanic or Latino","userSelected":true}},{"url":"text","valueString":"Hispanic or Latino"}]},{"url":"http://hl7.org/fhir/us/core/StructureDefinition/us-core-sex","valueCode":"248153007"}],"identifier":[{"type":{"coding":[{"system":"http://terminology.hl7.org/CodeSystem/v2-0203","code":"MR"}]},"system":"https://bonnie-fhir.healthit.gov/","value":"e1f044ef3e654daa2279"}],"name":[{"family":"DENEXCL11PASS","given":["HospiceAssessmentDateTimeBeforeED"]}],"gender":"male","birthDate":"1949-05-12"},"request":{"method":"PUT","url":"Patient/e050879d-9d2a-4ecc-855c-16e83906cde0"}},{"fullUrl":"https://madie.cms.gov/Encounter/69f4f80f-a1ce-4a13-b808-437ada89f2e8","resource":{"resourceType":"Encounter","id":"69f4f80f-a1ce-4a13-b808-437ada89f2e8","meta":{"profile":["http://hl7.org/fhir/us/qicore/StructureDefinition/qicore-encounter"]},"status":"finished","class":{"system":"http://terminology.hl7.org/CodeSystem/v3-ActCode","code":"EMER","display":"emergency","userSelected":true},"type":[{"coding":[{"system":"http://snomed.info/sct","version":"2020-09","code":"4525004","display":"Emergency department patient visit","userSelected":true}]}],"subject":{"reference":"Patient/e050879d-9d2a-4ecc-855c-16e83906cde0"},"period":{"start":"2026-10-09T05:00:00.000+00:00","end":"2026-10-13T17:00:00.000+00:00"},"reasonCode":[{"coding":[{"system":"http://hl7.org/fhir/sid/icd-10-cm","code":"I21.21","display":"ST elevation (STEMI) myocardial infarction involving left circumflex coronary artery","userSelected":true}]}]},"request":{"method":"PUT","url":"Encounter/69f4f80f-a1ce-4a13-b808-437ada89f2e8"}},{"fullUrl":"https://madie.cms.gov/Observation/b22c383e-95bd-4583-a1cf-5d421a8430f0","resource":{"resourceType":"Observation","id":"b22c383e-95bd-4583-a1cf-5d421a8430f0","meta":{"profile":["http://hl7.org/fhir/us/qicore/StructureDefinition/qicore-observation-screening-assessment"]},"status":"final","category":[{"coding":[{"system":"http://terminology.hl7.org/CodeSystem/observation-category","code":"survey","display":"Survey","userSelected":true}]}],"code":{"coding":[{"system":"http://loinc.org","code":"45755-6","display":"Hospice care [Minimum Data Set]","userSelected":true}]},"subject":{"reference":"Patient/e050879d-9d2a-4ecc-855c-16e83906cde0"},"effectiveDateTime":"2026-08-03T02:00:00.000+00:00","valueCodeableConcept":{"coding":[{"system":"http://snomed.info/sct","code":"373066001","display":"Yes (qualifier value)","userSelected":true}]}},"request":{"method":"PUT","url":"Observation/b22c383e-95bd-4583-a1cf-5d421a8430f0"}},{"fullUrl":"https://madie.cms.gov/MeasureReport/c711dad4-2dbf-4d19-8486-211470aabf02","resource":{"resourceType":"MeasureReport","id":"c711dad4-2dbf-4d19-8486-211470aabf02","meta":{"profile":["http://hl7.org/fhir/us/cqfmeasures/StructureDefinition/test-case-cqfm"]},"contained":[{"resourceType":"Parameters","id":"8021255c-8f83-4954-a547-f6113ab62497-parameters","parameter":[{"name":"subject","valueString":"e050879d-9d2a-4ecc-855c-16e83906cde0"}]}],"extension":[{"url":"http://hl7.org/fhir/StructureDefinition/cqf-inputParameters","valueReference":{"reference":"#8021255c-8f83-4954-a547-f6113ab62497-parameters"}},{"url":"http://hl7.org/fhir/us/cqfmeasures/StructureDefinition/cqfm-testCaseDescription","valueMarkdown":"Hospice Assessment effective date time before ED stay"}],"modifierExtension":[{"url":"http://hl7.org/fhir/us/cqfmeasures/StructureDefinition/cqfm-isTestCase","valueBoolean":true}],"status":"complete","type":"individual","measure":"https://madie.cms.gov/Measure/CMS996FHIRAptTxforSTEMI","period":{"start":"2026-01-01","end":"2026-12-31"},"group":[{"id":"Group_1","population":[{"id":"InitialPopulation_1","code":{"coding":[{"system":"http://terminology.hl7.org/CodeSystem/measure-population","code":"initial-population","display":"Initial Population"}]},"count":1},{"id":"Denominator_1","code":{"coding":[{"system":"http://terminology.hl7.org/CodeSystem/measure-population","code":"denominator","display":"Denominator"}]},"count":1},{"id":"DenominatorExclusion_1","code":{"coding":[{"system":"http://terminology.hl7.org/CodeSystem/measure-population","code":"denominator-exclusion","display":"Denominator Exclusion"}]},"count":1},{"id":"Numerator_1","code":{"coding":[{"system":"http://terminology.hl7.org/CodeSystem/measure-population","code":"numerator","display":"Numerator"}]},"count":0},{"id":"DenominatorException_1","code":{"coding":[{"system":"http://terminology.hl7.org/CodeSystem/measure-population","code":"denominator-exception","display":"Denominator Exception"}]},"count":0}],"measureScore":{"value":0.0}}],"evaluatedResource":[{"reference":"Patient/e050879d-9d2a-4ecc-855c-16e83906cde0"},{"reference":"Encounter/69f4f80f-a1ce-4a13-b808-437ada89f2e8"},{"reference":"Observation/b22c383e-95bd-4583-a1cf-5d421a8430f0"}]},"request":{"method":"PUT","url":"MeasureReport/c711dad4-2dbf-4d19-8486-211470aabf02"}}]},"request":{"method":"PUT","url":"Bundle/e1f044ef3e654daa2279"}}]}