{"resourceType":"Bundle","id":"tests-9d98b629-9e2a-46f2-8f62-7d6208ee32a9-bundle","type":"transaction","entry":[{"resource":{"resourceType":"Bundle","id":"617be6441619a529957d62b3","type":"transaction","entry":[{"fullUrl":"https://madie.cms.gov/Patient/9d98b629-9e2a-46f2-8f62-7d6208ee32a9","resource":{"resourceType":"Patient","id":"9d98b629-9e2a-46f2-8f62-7d6208ee32a9","meta":{"profile":["http://hl7.org/fhir/us/qicore/StructureDefinition/qicore-patient"]},"extension":[{"url":"http://hl7.org/fhir/us/core/StructureDefinition/us-core-race","extension":[{"url":"ombCategory","valueCoding":{"system":"urn:oid:2.16.840.1.113883.6.238","code":"2028-9","display":"Asian","userSelected":true}},{"url":"text","valueString":"Asian"}]},{"url":"http://hl7.org/fhir/us/core/StructureDefinition/us-core-ethnicity","extension":[{"url":"ombCategory","valueCoding":{"system":"urn:oid:2.16.840.1.113883.6.238","code":"2186-5","display":"Not Hispanic or Latino","userSelected":true}},{"url":"text","valueString":"Not Hispanic or Latino"}]},{"url":"http://hl7.org/fhir/us/core/StructureDefinition/us-core-sex","valueCode":"248152002"}],"identifier":[{"type":{"coding":[{"system":"http://terminology.hl7.org/CodeSystem/v2-0203","code":"MR"}]},"system":"https://bonnie-fhir.healthit.gov/","value":"617be6441619a529957d62b3"}],"name":[{"family":"DenExcl6Pass","given":["MedStartsOnDayofED"]}],"gender":"female","birthDate":"1985-12-02"},"request":{"method":"PUT","url":"Patient/9d98b629-9e2a-46f2-8f62-7d6208ee32a9"}},{"fullUrl":"https://madie.cms.gov/Encounter/80c96a47-cc7f-43a4-9b72-16b843ccfa7a","resource":{"resourceType":"Encounter","id":"80c96a47-cc7f-43a4-9b72-16b843ccfa7a","meta":{"profile":["http://hl7.org/fhir/us/qicore/StructureDefinition/qicore-encounter"]},"status":"finished","class":{"system":"http://terminology.hl7.org/CodeSystem/v3-ActCode","code":"EMER","display":"emergency","userSelected":true},"type":[{"coding":[{"system":"http://snomed.info/sct","version":"2020-09","code":"4525004","display":"Emergency department patient visit (procedure)","userSelected":true}]}],"subject":{"reference":"Patient/9d98b629-9e2a-46f2-8f62-7d6208ee32a9"},"period":{"start":"2026-10-09T08:05:00.000+00:00","end":"2026-10-10T07:15:00.000+00:00"},"reasonCode":[{"coding":[{"system":"http://hl7.org/fhir/sid/icd-10-cm","version":"2021","code":"I21.02","display":"ST elevation (STEMI) myocardial infarction involving left anterior descending coronary artery","userSelected":true}]}]},"request":{"method":"PUT","url":"Encounter/80c96a47-cc7f-43a4-9b72-16b843ccfa7a"}},{"fullUrl":"https://madie.cms.gov/MedicationRequest/46ed78b4-34e9-4355-b6a2-fbc3c62c6815","resource":{"resourceType":"MedicationRequest","id":"46ed78b4-34e9-4355-b6a2-fbc3c62c6815","meta":{"profile":["http://hl7.org/fhir/us/qicore/StructureDefinition/qicore-medicationrequest"]},"status":"active","intent":"order","category":[{"coding":[{"system":"http://terminology.hl7.org/CodeSystem/medicationrequest-category","code":"inpatient","display":"Inpatient","userSelected":true}]}],"medicationCodeableConcept":{"coding":[{"system":"http://www.nlm.nih.gov/research/umls/rxnorm","code":"2059015","display":"rivaroxaban 2.5 MG Oral Tablet","userSelected":true}]},"subject":{"reference":"Patient/9d98b629-9e2a-46f2-8f62-7d6208ee32a9"},"authoredOn":"2026-10-09T08:03:00.000+00:00","requester":{"reference":"Practitioner/89533591-57e2-461f-8997-e9610c2af520"}},"request":{"method":"PUT","url":"MedicationRequest/46ed78b4-34e9-4355-b6a2-fbc3c62c6815"}},{"fullUrl":"https://madie.cms.gov/Practitioner/89533591-57e2-461f-8997-e9610c2af520","resource":{"resourceType":"Practitioner","id":"89533591-57e2-461f-8997-e9610c2af520","meta":{"profile":["http://hl7.org/fhir/us/qicore/StructureDefinition/qicore-practitioner"]},"identifier":[{"system":"http://hl7.org/fhir/sid/us-npi","value":"9999999896"}],"name":[{"family":"Evil","prefix":["Dr"]}]},"request":{"method":"PUT","url":"Practitioner/89533591-57e2-461f-8997-e9610c2af520"}},{"fullUrl":"https://madie.cms.gov/MeasureReport/9fccab83-5b40-481e-b40b-b8edeb3d070b","resource":{"resourceType":"MeasureReport","id":"9fccab83-5b40-481e-b40b-b8edeb3d070b","meta":{"profile":["http://hl7.org/fhir/us/cqfmeasures/StructureDefinition/test-case-cqfm"]},"contained":[{"resourceType":"Parameters","id":"f593d10a-14dc-43d3-86bc-18c0ed4e8f30-parameters","parameter":[{"name":"subject","valueString":"9d98b629-9e2a-46f2-8f62-7d6208ee32a9"}]}],"extension":[{"url":"http://hl7.org/fhir/StructureDefinition/cqf-inputParameters","valueReference":{"reference":"#f593d10a-14dc-43d3-86bc-18c0ed4e8f30-parameters"}},{"url":"http://hl7.org/fhir/us/cqfmeasures/StructureDefinition/cqfm-testCaseDescription","valueMarkdown":"Patient has anticoagulant medication starts on day of ED"}],"modifierExtension":[{"url":"http://hl7.org/fhir/us/cqfmeasures/StructureDefinition/cqfm-isTestCase","valueBoolean":true}],"status":"complete","type":"individual","measure":"https://madie.cms.gov/Measure/CMS996FHIRAptTxforSTEMI","period":{"start":"2026-01-01","end":"2026-12-31"},"group":[{"id":"Group_1","population":[{"id":"InitialPopulation_1","code":{"coding":[{"system":"http://terminology.hl7.org/CodeSystem/measure-population","code":"initial-population","display":"Initial Population"}]},"count":1},{"id":"Denominator_1","code":{"coding":[{"system":"http://terminology.hl7.org/CodeSystem/measure-population","code":"denominator","display":"Denominator"}]},"count":1},{"id":"DenominatorExclusion_1","code":{"coding":[{"system":"http://terminology.hl7.org/CodeSystem/measure-population","code":"denominator-exclusion","display":"Denominator Exclusion"}]},"count":1},{"id":"Numerator_1","code":{"coding":[{"system":"http://terminology.hl7.org/CodeSystem/measure-population","code":"numerator","display":"Numerator"}]},"count":0},{"id":"DenominatorException_1","code":{"coding":[{"system":"http://terminology.hl7.org/CodeSystem/measure-population","code":"denominator-exception","display":"Denominator Exception"}]},"count":0}],"measureScore":{"value":0.0}}],"evaluatedResource":[{"reference":"Patient/9d98b629-9e2a-46f2-8f62-7d6208ee32a9"},{"reference":"Encounter/80c96a47-cc7f-43a4-9b72-16b843ccfa7a"},{"reference":"MedicationRequest/46ed78b4-34e9-4355-b6a2-fbc3c62c6815"},{"reference":"Practitioner/89533591-57e2-461f-8997-e9610c2af520"}]},"request":{"method":"PUT","url":"MeasureReport/9fccab83-5b40-481e-b40b-b8edeb3d070b"}}]},"request":{"method":"PUT","url":"Bundle/617be6441619a529957d62b3"}},{"resource":{"resourceType":"MedicationRequest","id":"46ed78b4-34e9-4355-b6a2-fbc3c62c6815","meta":{"profile":["http://hl7.org/fhir/us/qicore/StructureDefinition/qicore-medicationrequest"]},"status":"active","intent":"order","category":[{"coding":[{"system":"http://terminology.hl7.org/CodeSystem/medicationrequest-category","code":"inpatient","display":"Inpatient","userSelected":true}]}],"medicationCodeableConcept":{"coding":[{"system":"http://www.nlm.nih.gov/research/umls/rxnorm","code":"2059015","display":"rivaroxaban 2.5 MG Oral Tablet","userSelected":true}]},"subject":{"reference":"Patient/9d98b629-9e2a-46f2-8f62-7d6208ee32a9"},"authoredOn":"2026-10-09T08:03:00.000+00:00","requester":{"reference":"Practitioner/89533591-57e2-461f-8997-e9610c2af520"}},"request":{"method":"PUT","url":"MedicationRequest/46ed78b4-34e9-4355-b6a2-fbc3c62c6815"}},{"resource":{"resourceType":"MeasureReport","id":"9fccab83-5b40-481e-b40b-b8edeb3d070b","meta":{"profile":["http://hl7.org/fhir/us/cqfmeasures/StructureDefinition/test-case-cqfm"]},"contained":[{"resourceType":"Parameters","id":"f593d10a-14dc-43d3-86bc-18c0ed4e8f30-parameters","parameter":[{"name":"subject","valueString":"9d98b629-9e2a-46f2-8f62-7d6208ee32a9"}]}],"extension":[{"url":"http://hl7.org/fhir/StructureDefinition/cqf-inputParameters","valueReference":{"reference":"#f593d10a-14dc-43d3-86bc-18c0ed4e8f30-parameters"}},{"url":"http://hl7.org/fhir/us/cqfmeasures/StructureDefinition/cqfm-testCaseDescription","valueMarkdown":"Patient has anticoagulant medication starts on day of ED"}],"modifierExtension":[{"url":"http://hl7.org/fhir/us/cqfmeasures/StructureDefinition/cqfm-isTestCase","valueBoolean":true}],"status":"complete","type":"individual","measure":"https://madie.cms.gov/Measure/CMS996FHIRAptTxforSTEMI","period":{"start":"2026-01-01","end":"2026-12-31"},"group":[{"id":"Group_1","population":[{"id":"InitialPopulation_1","code":{"coding":[{"system":"http://terminology.hl7.org/CodeSystem/measure-population","code":"initial-population","display":"Initial Population"}]},"count":1},{"id":"Denominator_1","code":{"coding":[{"system":"http://terminology.hl7.org/CodeSystem/measure-population","code":"denominator","display":"Denominator"}]},"count":1},{"id":"DenominatorExclusion_1","code":{"coding":[{"system":"http://terminology.hl7.org/CodeSystem/measure-population","code":"denominator-exclusion","display":"Denominator Exclusion"}]},"count":1},{"id":"Numerator_1","code":{"coding":[{"system":"http://terminology.hl7.org/CodeSystem/measure-population","code":"numerator","display":"Numerator"}]},"count":0},{"id":"DenominatorException_1","code":{"coding":[{"system":"http://terminology.hl7.org/CodeSystem/measure-population","code":"denominator-exception","display":"Denominator Exception"}]},"count":0}],"measureScore":{"value":0.0}}],"evaluatedResource":[{"reference":"Patient/9d98b629-9e2a-46f2-8f62-7d6208ee32a9"},{"reference":"Encounter/80c96a47-cc7f-43a4-9b72-16b843ccfa7a"},{"reference":"MedicationRequest/46ed78b4-34e9-4355-b6a2-fbc3c62c6815"},{"reference":"Practitioner/89533591-57e2-461f-8997-e9610c2af520"}]},"request":{"method":"PUT","url":"MeasureReport/9fccab83-5b40-481e-b40b-b8edeb3d070b"}},{"resource":{"resourceType":"Practitioner","id":"89533591-57e2-461f-8997-e9610c2af520","meta":{"profile":["http://hl7.org/fhir/us/qicore/StructureDefinition/qicore-practitioner"]},"identifier":[{"system":"http://hl7.org/fhir/sid/us-npi","value":"9999999896"}],"name":[{"family":"Evil","prefix":["Dr"]}]},"request":{"method":"PUT","url":"Practitioner/89533591-57e2-461f-8997-e9610c2af520"}},{"resource":{"resourceType":"Encounter","id":"80c96a47-cc7f-43a4-9b72-16b843ccfa7a","meta":{"profile":["http://hl7.org/fhir/us/qicore/StructureDefinition/qicore-encounter"]},"status":"finished","class":{"system":"http://terminology.hl7.org/CodeSystem/v3-ActCode","code":"EMER","display":"emergency","userSelected":true},"type":[{"coding":[{"system":"http://snomed.info/sct","version":"2020-09","code":"4525004","display":"Emergency department patient visit (procedure)","userSelected":true}]}],"subject":{"reference":"Patient/9d98b629-9e2a-46f2-8f62-7d6208ee32a9"},"period":{"start":"2026-10-09T08:05:00.000+00:00","end":"2026-10-10T07:15:00.000+00:00"},"reasonCode":[{"coding":[{"system":"http://hl7.org/fhir/sid/icd-10-cm","version":"2021","code":"I21.02","display":"ST elevation (STEMI) myocardial infarction involving left anterior descending coronary artery","userSelected":true}]}]},"request":{"method":"PUT","url":"Encounter/80c96a47-cc7f-43a4-9b72-16b843ccfa7a"}},{"resource":{"resourceType":"Patient","id":"9d98b629-9e2a-46f2-8f62-7d6208ee32a9","meta":{"profile":["http://hl7.org/fhir/us/qicore/StructureDefinition/qicore-patient"]},"extension":[{"url":"http://hl7.org/fhir/us/core/StructureDefinition/us-core-race","extension":[{"url":"ombCategory","valueCoding":{"system":"urn:oid:2.16.840.1.113883.6.238","code":"2028-9","display":"Asian","userSelected":true}},{"url":"text","valueString":"Asian"}]},{"url":"http://hl7.org/fhir/us/core/StructureDefinition/us-core-ethnicity","extension":[{"url":"ombCategory","valueCoding":{"system":"urn:oid:2.16.840.1.113883.6.238","code":"2186-5","display":"Not Hispanic or Latino","userSelected":true}},{"url":"text","valueString":"Not Hispanic or Latino"}]},{"url":"http://hl7.org/fhir/us/core/StructureDefinition/us-core-sex","valueCode":"248152002"}],"identifier":[{"type":{"coding":[{"system":"http://terminology.hl7.org/CodeSystem/v2-0203","code":"MR"}]},"system":"https://bonnie-fhir.healthit.gov/","value":"617be6441619a529957d62b3"}],"name":[{"family":"DenExcl6Pass","given":["MedStartsOnDayofED"]}],"gender":"female","birthDate":"1985-12-02"},"request":{"method":"PUT","url":"Patient/9d98b629-9e2a-46f2-8f62-7d6208ee32a9"}}]}