{"resourceType":"Bundle","id":"tests-b4219e21-be97-4f81-8a31-fee0035179c8-bundle","type":"transaction","entry":[{"fullUrl":"Organization/a4cb676e-fd08-472e-8da1-0fe6a50ff29d","resource":{"resourceType":"Organization","id":"a4cb676e-fd08-472e-8da1-0fe6a50ff29d","meta":{"profile":["http://hl7.org/fhir/us/qicore/StructureDefinition/qicore-organization"]},"identifier":[{"use":"temp","system":"urn:oid:2.16.840.1.113883.4.4","value":"21-3259825"}],"active":true,"type":[{"coding":[{"system":"http://terminology.hl7.org/CodeSystem/organization-type","code":"pay","display":"Payer"}]}],"name":"Blue Cross Blue Shield of Texas","telecom":[{"system":"phone","value":"(+1) 972-766-6900"}],"address":[{"use":"billing","type":"postal","line":["P.O. Box 660044"],"city":"Dallas","state":"TX","postalCode":"75266-0044","country":"USA"}]},"request":{"method":"PUT","url":"Organization/a4cb676e-fd08-472e-8da1-0fe6a50ff29d"}},{"fullUrl":"MedicationAdministration/a96960af-4403-4c5c-8a9e-d950e2df1476","resource":{"resourceType":"MedicationAdministration","id":"a96960af-4403-4c5c-8a9e-d950e2df1476","meta":{"profile":["http://hl7.org/fhir/us/qicore/StructureDefinition/qicore-medicationadministration"]},"status":"completed","medicationCodeableConcept":{"coding":[{"system":"http://www.nlm.nih.gov/research/umls/rxnorm","code":"1804804","display":"alteplase 50 MG Injection","userSelected":true}]},"subject":{"reference":"Patient/b4219e21-be97-4f81-8a31-fee0035179c8"},"effectiveDateTime":"2026-10-09T08:35:00.000+00:00"},"request":{"method":"PUT","url":"MedicationAdministration/a96960af-4403-4c5c-8a9e-d950e2df1476"}},{"fullUrl":"Coverage/4e6a2ff2-181a-40eb-a3ff-8739f176d440","resource":{"resourceType":"Coverage","id":"4e6a2ff2-181a-40eb-a3ff-8739f176d440","meta":{"profile":["http://hl7.org/fhir/us/qicore/StructureDefinition/qicore-coverage"]},"identifier":[{"type":{"coding":[{"system":"http://terminology.hl7.org/CodeSystem/v2-0203","code":"MB"}]}}],"status":"active","type":{"coding":[{"system":"https://nahdo.org/sopt","code":"1","display":"MEDICARE"}]},"beneficiary":{"reference":"Patient/b4219e21-be97-4f81-8a31-fee0035179c8"},"relationship":{"coding":[{"system":"http://terminology.hl7.org/CodeSystem/subscriber-relationship","code":"self"}]},"payor":[{"reference":"Organization/NUMERPass-Fibrinolytic30minofEDstart-98"}]},"request":{"method":"PUT","url":"Coverage/4e6a2ff2-181a-40eb-a3ff-8739f176d440"}},{"fullUrl":"Condition/084c3854-252a-4db3-956c-9c4c20028986","resource":{"resourceType":"Condition","id":"084c3854-252a-4db3-956c-9c4c20028986","meta":{"profile":["http://hl7.org/fhir/us/qicore/StructureDefinition/qicore-condition-encounter-diagnosis"]},"clinicalStatus":{"coding":[{"system":"http://terminology.hl7.org/CodeSystem/condition-clinical","code":"active","display":"Active","userSelected":true}]},"verificationStatus":{"coding":[{"system":"http://terminology.hl7.org/CodeSystem/condition-ver-status","code":"confirmed","display":"Confirmed","userSelected":true}]},"category":[{"coding":[{"system":"http://terminology.hl7.org/CodeSystem/condition-category","code":"encounter-diagnosis","display":"Encounter Diagnosis","userSelected":true}]}],"code":{"coding":[{"system":"http://snomed.info/sct","code":"401303003","display":"Acute ST segment elevation myocardial infarction (disorder)","userSelected":true}]},"subject":{"reference":"Patient/b4219e21-be97-4f81-8a31-fee0035179c8"},"onsetPeriod":{"start":"2026-10-09T08:10:00.000+00:00"}},"request":{"method":"PUT","url":"Condition/084c3854-252a-4db3-956c-9c4c20028986"}},{"fullUrl":"Bundle/NUMERPass-Fibrinolytic30minofEDstart","resource":{"resourceType":"Bundle","id":"NUMERPass-Fibrinolytic30minofEDstart","type":"transaction","entry":[{"fullUrl":"https://madie.cms.gov/Patient/b4219e21-be97-4f81-8a31-fee0035179c8","resource":{"resourceType":"Patient","id":"b4219e21-be97-4f81-8a31-fee0035179c8","meta":{"profile":["http://hl7.org/fhir/us/qicore/StructureDefinition/qicore-patient"]},"extension":[{"url":"http://hl7.org/fhir/us/core/StructureDefinition/us-core-race","extension":[{"url":"ombCategory","valueCoding":{"system":"urn:oid:2.16.840.1.113883.6.238","code":"2054-5","display":"Black or African American","userSelected":true}},{"url":"text","valueString":"Black or African American"}]},{"url":"http://hl7.org/fhir/us/core/StructureDefinition/us-core-ethnicity","extension":[{"url":"ombCategory","valueCoding":{"system":"urn:oid:2.16.840.1.113883.6.238","code":"2186-5","display":"Not Hispanic or Latino","userSelected":true}},{"url":"text","valueString":"Not Hispanic or Latino"}]},{"url":"http://hl7.org/fhir/us/core/StructureDefinition/us-core-sex","valueCode":"248152002"}],"identifier":[{"type":{"coding":[{"system":"http://terminology.hl7.org/CodeSystem/v2-0203","code":"MR"}]},"system":"https://bonnie-fhir.healthit.gov/","value":"NUMERPass-Fibrinolytic30minofEDstart"}],"name":[{"use":"usual","family":"NUMPass","given":["Fibrinolytic30minofEDstart"]}],"gender":"female","birthDate":"1985-12-02"},"request":{"method":"PUT","url":"Patient/b4219e21-be97-4f81-8a31-fee0035179c8"}},{"fullUrl":"https://madie.cms.gov/Location/b70db77d-c05b-4ae5-b214-bdcfb57d2d09","resource":{"resourceType":"Location","id":"b70db77d-c05b-4ae5-b214-bdcfb57d2d09","meta":{"profile":["http://hl7.org/fhir/us/qicore/StructureDefinition/qicore-location"]},"identifier":[{"use":"usual","system":"http://exampleoflocation.com","value":"ED-1.R3"}],"name":"Emergency Department, first floor","type":[{"coding":[{"system":"http://snomed.info/sct","version":"20210611","code":"4525004","display":"Emergency department patient visit (procedure)","userSelected":true}]},{"coding":[{"system":"http://terminology.hl7.org/CodeSystem/v3-RoleCode","version":"2019","code":"ER","display":"Emergency room","userSelected":true}]},{"coding":[{"system":"https://www.cdc.gov/nhsn/cdaportal/terminology/codesystem/hsloc.html","version":"2022","code":"1108-0","display":"Emergency Department","userSelected":true}]}]},"request":{"method":"PUT","url":"Location/b70db77d-c05b-4ae5-b214-bdcfb57d2d09"}},{"fullUrl":"https://madie.cms.gov/Encounter/888e18c7-350e-457f-9e56-974a01caa5a3","resource":{"resourceType":"Encounter","id":"888e18c7-350e-457f-9e56-974a01caa5a3","meta":{"profile":["http://hl7.org/fhir/us/qicore/StructureDefinition/qicore-encounter"]},"status":"finished","class":{"system":"http://terminology.hl7.org/CodeSystem/v3-ActCode","code":"EMER","display":"emergency"},"type":[{"coding":[{"system":"http://snomed.info/sct","code":"4525004","display":"Emergency department patient visit (procedure)"}]}],"subject":{"reference":"Patient/b4219e21-be97-4f81-8a31-fee0035179c8"},"period":{"start":"2026-10-09T08:05:00.000+00:00","end":"2026-10-10T07:15:00.000+00:00"},"reasonReference":[{"reference":"Condition/084c3854-252a-4db3-956c-9c4c20028986"}],"location":[{"location":{"reference":"Location/b70db77d-c05b-4ae5-b214-bdcfb57d2d09"},"period":{"start":"2026-10-09T08:05:00.000+00:00","end":"2026-10-10T07:15:00.000+00:00"}}]},"request":{"method":"PUT","url":"Encounter/888e18c7-350e-457f-9e56-974a01caa5a3"}},{"fullUrl":"https://madie.cms.gov/Condition/084c3854-252a-4db3-956c-9c4c20028986","resource":{"resourceType":"Condition","id":"084c3854-252a-4db3-956c-9c4c20028986","meta":{"profile":["http://hl7.org/fhir/us/qicore/StructureDefinition/qicore-condition-encounter-diagnosis"]},"clinicalStatus":{"coding":[{"system":"http://terminology.hl7.org/CodeSystem/condition-clinical","code":"active","display":"Active","userSelected":true}]},"verificationStatus":{"coding":[{"system":"http://terminology.hl7.org/CodeSystem/condition-ver-status","code":"confirmed","display":"Confirmed","userSelected":true}]},"category":[{"coding":[{"system":"http://terminology.hl7.org/CodeSystem/condition-category","code":"encounter-diagnosis","display":"Encounter Diagnosis","userSelected":true}]}],"code":{"coding":[{"system":"http://snomed.info/sct","code":"401303003","display":"Acute ST segment elevation myocardial infarction (disorder)","userSelected":true}]},"subject":{"reference":"Patient/b4219e21-be97-4f81-8a31-fee0035179c8"},"onsetPeriod":{"start":"2026-10-09T08:10:00.000+00:00"}},"request":{"method":"PUT","url":"Condition/084c3854-252a-4db3-956c-9c4c20028986"}},{"fullUrl":"https://madie.cms.gov/MedicationAdministration/a96960af-4403-4c5c-8a9e-d950e2df1476","resource":{"resourceType":"MedicationAdministration","id":"a96960af-4403-4c5c-8a9e-d950e2df1476","meta":{"profile":["http://hl7.org/fhir/us/qicore/StructureDefinition/qicore-medicationadministration"]},"status":"completed","medicationCodeableConcept":{"coding":[{"system":"http://www.nlm.nih.gov/research/umls/rxnorm","code":"1804804","display":"alteplase 50 MG Injection","userSelected":true}]},"subject":{"reference":"Patient/b4219e21-be97-4f81-8a31-fee0035179c8"},"effectiveDateTime":"2026-10-09T08:35:00.000+00:00"},"request":{"method":"PUT","url":"MedicationAdministration/a96960af-4403-4c5c-8a9e-d950e2df1476"}},{"fullUrl":"https://madie.cms.gov/Coverage/4e6a2ff2-181a-40eb-a3ff-8739f176d440","resource":{"resourceType":"Coverage","id":"4e6a2ff2-181a-40eb-a3ff-8739f176d440","meta":{"profile":["http://hl7.org/fhir/us/qicore/StructureDefinition/qicore-coverage"]},"identifier":[{"type":{"coding":[{"system":"http://terminology.hl7.org/CodeSystem/v2-0203","code":"MB"}]}}],"status":"active","type":{"coding":[{"system":"https://nahdo.org/sopt","code":"1","display":"MEDICARE"}]},"beneficiary":{"reference":"Patient/b4219e21-be97-4f81-8a31-fee0035179c8"},"relationship":{"coding":[{"system":"http://terminology.hl7.org/CodeSystem/subscriber-relationship","code":"self"}]},"payor":[{"reference":"Organization/NUMERPass-Fibrinolytic30minofEDstart-98"}]},"request":{"method":"PUT","url":"Coverage/4e6a2ff2-181a-40eb-a3ff-8739f176d440"}},{"fullUrl":"https://madie.cms.gov/Organization/a4cb676e-fd08-472e-8da1-0fe6a50ff29d","resource":{"resourceType":"Organization","id":"a4cb676e-fd08-472e-8da1-0fe6a50ff29d","meta":{"profile":["http://hl7.org/fhir/us/qicore/StructureDefinition/qicore-organization"]},"identifier":[{"use":"temp","system":"urn:oid:2.16.840.1.113883.4.4","value":"21-3259825"}],"active":true,"type":[{"coding":[{"system":"http://terminology.hl7.org/CodeSystem/organization-type","code":"pay","display":"Payer"}]}],"name":"Blue Cross Blue Shield of Texas","telecom":[{"system":"phone","value":"(+1) 972-766-6900"}],"address":[{"use":"billing","type":"postal","line":["P.O. Box 660044"],"city":"Dallas","state":"TX","postalCode":"75266-0044","country":"USA"}]},"request":{"method":"PUT","url":"Organization/a4cb676e-fd08-472e-8da1-0fe6a50ff29d"}},{"fullUrl":"https://madie.cms.gov/Practitioner/15bfc804-e2f6-42f9-b5c6-3fd8e185e645","resource":{"resourceType":"Practitioner","id":"15bfc804-e2f6-42f9-b5c6-3fd8e185e645","meta":{"profile":["http://hl7.org/fhir/us/qicore/StructureDefinition/qicore-practitioner"]},"identifier":[{"system":"http://hl7.org/fhir/sid/us-npi","value":"9999999896"}],"name":[{"family":"Evil","prefix":["Dr"]}]},"request":{"method":"PUT","url":"Practitioner/15bfc804-e2f6-42f9-b5c6-3fd8e185e645"}},{"fullUrl":"https://madie.cms.gov/MeasureReport/03dcd857-d947-4e99-82fc-ac8e23c8121b","resource":{"resourceType":"MeasureReport","id":"03dcd857-d947-4e99-82fc-ac8e23c8121b","meta":{"profile":["http://hl7.org/fhir/us/cqfmeasures/StructureDefinition/test-case-cqfm"]},"contained":[{"resourceType":"Parameters","id":"c5b43b0c-89db-4bdc-9cb9-fd94fcf4feb2-parameters","parameter":[{"name":"subject","valueString":"b4219e21-be97-4f81-8a31-fee0035179c8"}]}],"extension":[{"url":"http://hl7.org/fhir/StructureDefinition/cqf-inputParameters","valueReference":{"reference":"#c5b43b0c-89db-4bdc-9cb9-fd94fcf4feb2-parameters"}},{"url":"http://hl7.org/fhir/us/cqfmeasures/StructureDefinition/cqfm-testCaseDescription","valueMarkdown":"Fibrinolytic Therapy 30 minutes of ED start"}],"modifierExtension":[{"url":"http://hl7.org/fhir/us/cqfmeasures/StructureDefinition/cqfm-isTestCase","valueBoolean":true}],"status":"complete","type":"individual","measure":"https://madie.cms.gov/Measure/CMS996FHIRAptTxforSTEMI","period":{"start":"2026-01-01","end":"2026-12-31"},"group":[{"id":"Group_1","population":[{"id":"InitialPopulation_1","code":{"coding":[{"system":"http://terminology.hl7.org/CodeSystem/measure-population","code":"initial-population","display":"Initial Population"}]},"count":1},{"id":"Denominator_1","code":{"coding":[{"system":"http://terminology.hl7.org/CodeSystem/measure-population","code":"denominator","display":"Denominator"}]},"count":1},{"id":"DenominatorExclusion_1","code":{"coding":[{"system":"http://terminology.hl7.org/CodeSystem/measure-population","code":"denominator-exclusion","display":"Denominator Exclusion"}]},"count":0},{"id":"Numerator_1","code":{"coding":[{"system":"http://terminology.hl7.org/CodeSystem/measure-population","code":"numerator","display":"Numerator"}]},"count":1},{"id":"DenominatorException_1","code":{"coding":[{"system":"http://terminology.hl7.org/CodeSystem/measure-population","code":"denominator-exception","display":"Denominator Exception"}]},"count":0}],"measureScore":{"value":0.0}}],"evaluatedResource":[{"reference":"Patient/b4219e21-be97-4f81-8a31-fee0035179c8"},{"reference":"Location/b70db77d-c05b-4ae5-b214-bdcfb57d2d09"},{"reference":"Encounter/888e18c7-350e-457f-9e56-974a01caa5a3"},{"reference":"Condition/084c3854-252a-4db3-956c-9c4c20028986"},{"reference":"MedicationAdministration/a96960af-4403-4c5c-8a9e-d950e2df1476"},{"reference":"Coverage/4e6a2ff2-181a-40eb-a3ff-8739f176d440"},{"reference":"Organization/a4cb676e-fd08-472e-8da1-0fe6a50ff29d"},{"reference":"Practitioner/15bfc804-e2f6-42f9-b5c6-3fd8e185e645"}]},"request":{"method":"PUT","url":"MeasureReport/03dcd857-d947-4e99-82fc-ac8e23c8121b"}}]},"request":{"method":"PUT","url":"Bundle/NUMERPass-Fibrinolytic30minofEDstart"}},{"fullUrl":"Encounter/888e18c7-350e-457f-9e56-974a01caa5a3","resource":{"resourceType":"Encounter","id":"888e18c7-350e-457f-9e56-974a01caa5a3","meta":{"profile":["http://hl7.org/fhir/us/qicore/StructureDefinition/qicore-encounter"]},"status":"finished","class":{"system":"http://terminology.hl7.org/CodeSystem/v3-ActCode","code":"EMER","display":"emergency"},"type":[{"coding":[{"system":"http://snomed.info/sct","code":"4525004","display":"Emergency department patient visit (procedure)"}]}],"subject":{"reference":"Patient/b4219e21-be97-4f81-8a31-fee0035179c8"},"period":{"start":"2026-10-09T08:05:00.000+00:00","end":"2026-10-10T07:15:00.000+00:00"},"reasonReference":[{"reference":"Condition/084c3854-252a-4db3-956c-9c4c20028986"}],"location":[{"location":{"reference":"Location/b70db77d-c05b-4ae5-b214-bdcfb57d2d09"},"period":{"start":"2026-10-09T08:05:00.000+00:00","end":"2026-10-10T07:15:00.000+00:00"}}]},"request":{"method":"PUT","url":"Encounter/888e18c7-350e-457f-9e56-974a01caa5a3"}},{"fullUrl":"Patient/b4219e21-be97-4f81-8a31-fee0035179c8","resource":{"resourceType":"Patient","id":"b4219e21-be97-4f81-8a31-fee0035179c8","meta":{"profile":["http://hl7.org/fhir/us/qicore/StructureDefinition/qicore-patient"]},"extension":[{"url":"http://hl7.org/fhir/us/core/StructureDefinition/us-core-race","extension":[{"url":"ombCategory","valueCoding":{"system":"urn:oid:2.16.840.1.113883.6.238","code":"2054-5","display":"Black or African American","userSelected":true}},{"url":"text","valueString":"Black or African American"}]},{"url":"http://hl7.org/fhir/us/core/StructureDefinition/us-core-ethnicity","extension":[{"url":"ombCategory","valueCoding":{"system":"urn:oid:2.16.840.1.113883.6.238","code":"2186-5","display":"Not Hispanic or Latino","userSelected":true}},{"url":"text","valueString":"Not Hispanic or Latino"}]},{"url":"http://hl7.org/fhir/us/core/StructureDefinition/us-core-sex","valueCode":"248152002"}],"identifier":[{"type":{"coding":[{"system":"http://terminology.hl7.org/CodeSystem/v2-0203","code":"MR"}]},"system":"https://bonnie-fhir.healthit.gov/","value":"NUMERPass-Fibrinolytic30minofEDstart"}],"name":[{"use":"usual","family":"NUMPass","given":["Fibrinolytic30minofEDstart"]}],"gender":"female","birthDate":"1985-12-02"},"request":{"method":"PUT","url":"Patient/b4219e21-be97-4f81-8a31-fee0035179c8"}},{"fullUrl":"MeasureReport/03dcd857-d947-4e99-82fc-ac8e23c8121b","resource":{"resourceType":"MeasureReport","id":"03dcd857-d947-4e99-82fc-ac8e23c8121b","meta":{"profile":["http://hl7.org/fhir/us/cqfmeasures/StructureDefinition/test-case-cqfm"]},"contained":[{"resourceType":"Parameters","id":"c5b43b0c-89db-4bdc-9cb9-fd94fcf4feb2-parameters","parameter":[{"name":"subject","valueString":"b4219e21-be97-4f81-8a31-fee0035179c8"}]}],"extension":[{"url":"http://hl7.org/fhir/StructureDefinition/cqf-inputParameters","valueReference":{"reference":"#c5b43b0c-89db-4bdc-9cb9-fd94fcf4feb2-parameters"}},{"url":"http://hl7.org/fhir/us/cqfmeasures/StructureDefinition/cqfm-testCaseDescription","valueMarkdown":"Fibrinolytic Therapy 30 minutes of ED start"}],"modifierExtension":[{"url":"http://hl7.org/fhir/us/cqfmeasures/StructureDefinition/cqfm-isTestCase","valueBoolean":true}],"status":"complete","type":"individual","measure":"https://madie.cms.gov/Measure/CMS996FHIRAptTxforSTEMI","period":{"start":"2026-01-01","end":"2026-12-31"},"group":[{"id":"Group_1","population":[{"id":"InitialPopulation_1","code":{"coding":[{"system":"http://terminology.hl7.org/CodeSystem/measure-population","code":"initial-population","display":"Initial Population"}]},"count":1},{"id":"Denominator_1","code":{"coding":[{"system":"http://terminology.hl7.org/CodeSystem/measure-population","code":"denominator","display":"Denominator"}]},"count":1},{"id":"DenominatorExclusion_1","code":{"coding":[{"system":"http://terminology.hl7.org/CodeSystem/measure-population","code":"denominator-exclusion","display":"Denominator Exclusion"}]},"count":0},{"id":"Numerator_1","code":{"coding":[{"system":"http://terminology.hl7.org/CodeSystem/measure-population","code":"numerator","display":"Numerator"}]},"count":1},{"id":"DenominatorException_1","code":{"coding":[{"system":"http://terminology.hl7.org/CodeSystem/measure-population","code":"denominator-exception","display":"Denominator Exception"}]},"count":0}],"measureScore":{"value":0.0}}],"evaluatedResource":[{"reference":"Patient/b4219e21-be97-4f81-8a31-fee0035179c8"},{"reference":"Location/b70db77d-c05b-4ae5-b214-bdcfb57d2d09"},{"reference":"Encounter/888e18c7-350e-457f-9e56-974a01caa5a3"},{"reference":"Condition/084c3854-252a-4db3-956c-9c4c20028986"},{"reference":"MedicationAdministration/a96960af-4403-4c5c-8a9e-d950e2df1476"},{"reference":"Coverage/4e6a2ff2-181a-40eb-a3ff-8739f176d440"},{"reference":"Organization/a4cb676e-fd08-472e-8da1-0fe6a50ff29d"},{"reference":"Practitioner/15bfc804-e2f6-42f9-b5c6-3fd8e185e645"}]},"request":{"method":"PUT","url":"MeasureReport/03dcd857-d947-4e99-82fc-ac8e23c8121b"}},{"fullUrl":"Practitioner/15bfc804-e2f6-42f9-b5c6-3fd8e185e645","resource":{"resourceType":"Practitioner","id":"15bfc804-e2f6-42f9-b5c6-3fd8e185e645","meta":{"profile":["http://hl7.org/fhir/us/qicore/StructureDefinition/qicore-practitioner"]},"identifier":[{"system":"http://hl7.org/fhir/sid/us-npi","value":"9999999896"}],"name":[{"family":"Evil","prefix":["Dr"]}]},"request":{"method":"PUT","url":"Practitioner/15bfc804-e2f6-42f9-b5c6-3fd8e185e645"}},{"fullUrl":"Location/b70db77d-c05b-4ae5-b214-bdcfb57d2d09","resource":{"resourceType":"Location","id":"b70db77d-c05b-4ae5-b214-bdcfb57d2d09","meta":{"profile":["http://hl7.org/fhir/us/qicore/StructureDefinition/qicore-location"]},"identifier":[{"use":"usual","system":"http://exampleoflocation.com","value":"ED-1.R3"}],"name":"Emergency Department, first floor","type":[{"coding":[{"system":"http://snomed.info/sct","version":"20210611","code":"4525004","display":"Emergency department patient visit (procedure)","userSelected":true}]},{"coding":[{"system":"http://terminology.hl7.org/CodeSystem/v3-RoleCode","version":"2019","code":"ER","display":"Emergency room","userSelected":true}]},{"coding":[{"system":"https://www.cdc.gov/nhsn/cdaportal/terminology/codesystem/hsloc.html","version":"2022","code":"1108-0","display":"Emergency Department","userSelected":true}]}]},"request":{"method":"PUT","url":"Location/b70db77d-c05b-4ae5-b214-bdcfb57d2d09"}}]}