{"resourceType":"Bundle","id":"tests-baf1efce-a7e8-45d3-9a8b-50c8e5d8d802-bundle","type":"transaction","entry":[{"resource":{"resourceType":"Encounter","id":"81384624-d19f-4ae7-aff9-513b345029c1","meta":{"profile":["http://hl7.org/fhir/us/qicore/StructureDefinition/qicore-encounter"]},"status":"finished","class":{"system":"http://terminology.hl7.org/CodeSystem/v3-ActCode","code":"EMER","display":"emergency","userSelected":true},"type":[{"coding":[{"system":"http://snomed.info/sct","version":"2020-09","code":"4525004","display":"Emergency department patient visit","userSelected":true}]}],"subject":{"reference":"Patient/baf1efce-a7e8-45d3-9a8b-50c8e5d8d802"},"period":{"start":"2026-10-09T05:00:00.000+00:00","end":"2026-10-13T17:00:00.000+00:00"},"reasonReference":[{"reference":"Condition/a5dd4ac7-ee8a-409a-988c-ddfef9a8e632"}]},"request":{"method":"PUT","url":"Encounter/81384624-d19f-4ae7-aff9-513b345029c1"}},{"resource":{"resourceType":"Patient","id":"baf1efce-a7e8-45d3-9a8b-50c8e5d8d802","meta":{"profile":["http://hl7.org/fhir/us/qicore/StructureDefinition/qicore-patient"]},"extension":[{"url":"http://hl7.org/fhir/us/core/StructureDefinition/us-core-race","extension":[{"url":"ombCategory","valueCoding":{"system":"urn:oid:2.16.840.1.113883.6.238","code":"2028-9","display":"Asian","userSelected":true}},{"url":"text","valueString":"Asian"}]},{"url":"http://hl7.org/fhir/us/core/StructureDefinition/us-core-ethnicity","extension":[{"url":"ombCategory","valueCoding":{"system":"urn:oid:2.16.840.1.113883.6.238","code":"2186-5","display":"Not Hispanic or Latino","userSelected":true}},{"url":"text","valueString":"Not Hispanic or Latino"}]},{"url":"http://hl7.org/fhir/us/core/StructureDefinition/us-core-sex","valueCode":"248153007"}],"identifier":[{"type":{"coding":[{"system":"http://terminology.hl7.org/CodeSystem/v2-0203","code":"MR"}]},"system":"https://bonnie-fhir.healthit.gov/","value":"d1f044ef3e654daa9104"}],"name":[{"family":"DENEXCL1PASS","given":["VentricularAneurysmDueToAndFollowingAcuteMyocardialInfarctionStartsWithin24HoursBeforeED"]}],"gender":"male","birthDate":"1999-09-02"},"request":{"method":"PUT","url":"Patient/baf1efce-a7e8-45d3-9a8b-50c8e5d8d802"}},{"resource":{"resourceType":"MeasureReport","id":"8c43da5c-1eb4-43a9-ae6e-e80657269731","meta":{"profile":["http://hl7.org/fhir/us/cqfmeasures/StructureDefinition/test-case-cqfm"]},"contained":[{"resourceType":"Parameters","id":"a5b21f0b-1f7a-4889-a92d-4ef42b1af538-parameters","parameter":[{"name":"subject","valueString":"baf1efce-a7e8-45d3-9a8b-50c8e5d8d802"}]}],"extension":[{"url":"http://hl7.org/fhir/StructureDefinition/cqf-inputParameters","valueReference":{"reference":"#a5b21f0b-1f7a-4889-a92d-4ef42b1af538-parameters"}},{"url":"http://hl7.org/fhir/us/cqfmeasures/StructureDefinition/cqfm-testCaseDescription","valueMarkdown":"Patient has ventricular aneurysm as current complication following acute myocardial infarction that started within 24 hours before start of ED Encounter"}],"modifierExtension":[{"url":"http://hl7.org/fhir/us/cqfmeasures/StructureDefinition/cqfm-isTestCase","valueBoolean":true}],"status":"complete","type":"individual","measure":"https://madie.cms.gov/Measure/CMS996FHIRAptTxforSTEMI","period":{"start":"2026-01-01","end":"2026-12-31"},"group":[{"id":"Group_1","population":[{"id":"InitialPopulation_1","code":{"coding":[{"system":"http://terminology.hl7.org/CodeSystem/measure-population","code":"initial-population","display":"Initial Population"}]},"count":1},{"id":"Denominator_1","code":{"coding":[{"system":"http://terminology.hl7.org/CodeSystem/measure-population","code":"denominator","display":"Denominator"}]},"count":1},{"id":"DenominatorExclusion_1","code":{"coding":[{"system":"http://terminology.hl7.org/CodeSystem/measure-population","code":"denominator-exclusion","display":"Denominator Exclusion"}]},"count":1},{"id":"Numerator_1","code":{"coding":[{"system":"http://terminology.hl7.org/CodeSystem/measure-population","code":"numerator","display":"Numerator"}]},"count":0},{"id":"DenominatorException_1","code":{"coding":[{"system":"http://terminology.hl7.org/CodeSystem/measure-population","code":"denominator-exception","display":"Denominator Exception"}]},"count":0}],"measureScore":{"value":0.0}}],"evaluatedResource":[{"reference":"Patient/baf1efce-a7e8-45d3-9a8b-50c8e5d8d802"},{"reference":"Encounter/81384624-d19f-4ae7-aff9-513b345029c1"},{"reference":"Condition/a5dd4ac7-ee8a-409a-988c-ddfef9a8e632"},{"reference":"Condition/a1bad546-0117-412d-8f6f-70929c45c7bd"}]},"request":{"method":"PUT","url":"MeasureReport/8c43da5c-1eb4-43a9-ae6e-e80657269731"}},{"resource":{"resourceType":"Bundle","id":"d1f044ef3e654daa9104","type":"transaction","entry":[{"fullUrl":"https://madie.cms.gov/Patient/baf1efce-a7e8-45d3-9a8b-50c8e5d8d802","resource":{"resourceType":"Patient","id":"baf1efce-a7e8-45d3-9a8b-50c8e5d8d802","meta":{"profile":["http://hl7.org/fhir/us/qicore/StructureDefinition/qicore-patient"]},"extension":[{"url":"http://hl7.org/fhir/us/core/StructureDefinition/us-core-race","extension":[{"url":"ombCategory","valueCoding":{"system":"urn:oid:2.16.840.1.113883.6.238","code":"2028-9","display":"Asian","userSelected":true}},{"url":"text","valueString":"Asian"}]},{"url":"http://hl7.org/fhir/us/core/StructureDefinition/us-core-ethnicity","extension":[{"url":"ombCategory","valueCoding":{"system":"urn:oid:2.16.840.1.113883.6.238","code":"2186-5","display":"Not Hispanic or Latino","userSelected":true}},{"url":"text","valueString":"Not Hispanic or Latino"}]},{"url":"http://hl7.org/fhir/us/core/StructureDefinition/us-core-sex","valueCode":"248153007"}],"identifier":[{"type":{"coding":[{"system":"http://terminology.hl7.org/CodeSystem/v2-0203","code":"MR"}]},"system":"https://bonnie-fhir.healthit.gov/","value":"d1f044ef3e654daa9104"}],"name":[{"family":"DENEXCL1PASS","given":["VentricularAneurysmDueToAndFollowingAcuteMyocardialInfarctionStartsWithin24HoursBeforeED"]}],"gender":"male","birthDate":"1999-09-02"},"request":{"method":"PUT","url":"Patient/baf1efce-a7e8-45d3-9a8b-50c8e5d8d802"}},{"fullUrl":"https://madie.cms.gov/Encounter/81384624-d19f-4ae7-aff9-513b345029c1","resource":{"resourceType":"Encounter","id":"81384624-d19f-4ae7-aff9-513b345029c1","meta":{"profile":["http://hl7.org/fhir/us/qicore/StructureDefinition/qicore-encounter"]},"status":"finished","class":{"system":"http://terminology.hl7.org/CodeSystem/v3-ActCode","code":"EMER","display":"emergency","userSelected":true},"type":[{"coding":[{"system":"http://snomed.info/sct","version":"2020-09","code":"4525004","display":"Emergency department patient visit","userSelected":true}]}],"subject":{"reference":"Patient/baf1efce-a7e8-45d3-9a8b-50c8e5d8d802"},"period":{"start":"2026-10-09T05:00:00.000+00:00","end":"2026-10-13T17:00:00.000+00:00"},"reasonReference":[{"reference":"Condition/a5dd4ac7-ee8a-409a-988c-ddfef9a8e632"}]},"request":{"method":"PUT","url":"Encounter/81384624-d19f-4ae7-aff9-513b345029c1"}},{"fullUrl":"https://madie.cms.gov/Condition/a5dd4ac7-ee8a-409a-988c-ddfef9a8e632","resource":{"resourceType":"Condition","id":"a5dd4ac7-ee8a-409a-988c-ddfef9a8e632","meta":{"profile":["http://hl7.org/fhir/us/qicore/StructureDefinition/qicore-condition-problems-health-concerns"]},"clinicalStatus":{"coding":[{"system":"http://terminology.hl7.org/CodeSystem/condition-clinical","code":"active","display":"Active","userSelected":true}]},"category":[{"coding":[{"system":"http://terminology.hl7.org/CodeSystem/condition-category","code":"problem-list-item","display":"Problem List Item","userSelected":true}]}],"code":{"coding":[{"system":"http://hl7.org/fhir/sid/icd-10-cm","code":"I21.21","display":"ST elevation (STEMI) myocardial infarction involving left circumflex coronary artery","userSelected":true}]},"subject":{"reference":"Patient/baf1efce-a7e8-45d3-9a8b-50c8e5d8d802"},"encounter":{"reference":"Encounter/81384624-d19f-4ae7-aff9-513b345029c1"},"onsetPeriod":{"start":"2026-10-09T05:00:00.000+00:00","end":"2026-10-09T17:00:00.000+00:00"}},"request":{"method":"PUT","url":"Condition/a5dd4ac7-ee8a-409a-988c-ddfef9a8e632"}},{"fullUrl":"https://madie.cms.gov/Condition/a1bad546-0117-412d-8f6f-70929c45c7bd","resource":{"resourceType":"Condition","id":"a1bad546-0117-412d-8f6f-70929c45c7bd","meta":{"profile":["http://hl7.org/fhir/us/qicore/StructureDefinition/qicore-condition-problems-health-concerns"]},"clinicalStatus":{"coding":[{"system":"http://terminology.hl7.org/CodeSystem/condition-clinical","code":"active","display":"Active","userSelected":true}]},"category":[{"coding":[{"system":"http://terminology.hl7.org/CodeSystem/condition-category","code":"problem-list-item","display":"Problem List Item","userSelected":true}]}],"code":{"coding":[{"system":"http://snomed.info/sct","code":"723858002","display":"Ventricular aneurysm due to and following acute myocardial infarction (disorder)","userSelected":true}]},"subject":{"reference":"Patient/baf1efce-a7e8-45d3-9a8b-50c8e5d8d802"},"onsetDateTime":"2026-10-08T05:00:00.000+00:00"},"request":{"method":"PUT","url":"Condition/a1bad546-0117-412d-8f6f-70929c45c7bd"}},{"fullUrl":"https://madie.cms.gov/MeasureReport/8c43da5c-1eb4-43a9-ae6e-e80657269731","resource":{"resourceType":"MeasureReport","id":"8c43da5c-1eb4-43a9-ae6e-e80657269731","meta":{"profile":["http://hl7.org/fhir/us/cqfmeasures/StructureDefinition/test-case-cqfm"]},"contained":[{"resourceType":"Parameters","id":"a5b21f0b-1f7a-4889-a92d-4ef42b1af538-parameters","parameter":[{"name":"subject","valueString":"baf1efce-a7e8-45d3-9a8b-50c8e5d8d802"}]}],"extension":[{"url":"http://hl7.org/fhir/StructureDefinition/cqf-inputParameters","valueReference":{"reference":"#a5b21f0b-1f7a-4889-a92d-4ef42b1af538-parameters"}},{"url":"http://hl7.org/fhir/us/cqfmeasures/StructureDefinition/cqfm-testCaseDescription","valueMarkdown":"Patient has ventricular aneurysm as current complication following acute myocardial infarction that started within 24 hours before start of ED Encounter"}],"modifierExtension":[{"url":"http://hl7.org/fhir/us/cqfmeasures/StructureDefinition/cqfm-isTestCase","valueBoolean":true}],"status":"complete","type":"individual","measure":"https://madie.cms.gov/Measure/CMS996FHIRAptTxforSTEMI","period":{"start":"2026-01-01","end":"2026-12-31"},"group":[{"id":"Group_1","population":[{"id":"InitialPopulation_1","code":{"coding":[{"system":"http://terminology.hl7.org/CodeSystem/measure-population","code":"initial-population","display":"Initial Population"}]},"count":1},{"id":"Denominator_1","code":{"coding":[{"system":"http://terminology.hl7.org/CodeSystem/measure-population","code":"denominator","display":"Denominator"}]},"count":1},{"id":"DenominatorExclusion_1","code":{"coding":[{"system":"http://terminology.hl7.org/CodeSystem/measure-population","code":"denominator-exclusion","display":"Denominator Exclusion"}]},"count":1},{"id":"Numerator_1","code":{"coding":[{"system":"http://terminology.hl7.org/CodeSystem/measure-population","code":"numerator","display":"Numerator"}]},"count":0},{"id":"DenominatorException_1","code":{"coding":[{"system":"http://terminology.hl7.org/CodeSystem/measure-population","code":"denominator-exception","display":"Denominator Exception"}]},"count":0}],"measureScore":{"value":0.0}}],"evaluatedResource":[{"reference":"Patient/baf1efce-a7e8-45d3-9a8b-50c8e5d8d802"},{"reference":"Encounter/81384624-d19f-4ae7-aff9-513b345029c1"},{"reference":"Condition/a5dd4ac7-ee8a-409a-988c-ddfef9a8e632"},{"reference":"Condition/a1bad546-0117-412d-8f6f-70929c45c7bd"}]},"request":{"method":"PUT","url":"MeasureReport/8c43da5c-1eb4-43a9-ae6e-e80657269731"}}]},"request":{"method":"PUT","url":"Bundle/d1f044ef3e654daa9104"}},{"resource":{"resourceType":"Condition","id":"a5dd4ac7-ee8a-409a-988c-ddfef9a8e632","meta":{"profile":["http://hl7.org/fhir/us/qicore/StructureDefinition/qicore-condition-problems-health-concerns"]},"clinicalStatus":{"coding":[{"system":"http://terminology.hl7.org/CodeSystem/condition-clinical","code":"active","display":"Active","userSelected":true}]},"category":[{"coding":[{"system":"http://terminology.hl7.org/CodeSystem/condition-category","code":"problem-list-item","display":"Problem List Item","userSelected":true}]}],"code":{"coding":[{"system":"http://hl7.org/fhir/sid/icd-10-cm","code":"I21.21","display":"ST elevation (STEMI) myocardial infarction involving left circumflex coronary artery","userSelected":true}]},"subject":{"reference":"Patient/baf1efce-a7e8-45d3-9a8b-50c8e5d8d802"},"encounter":{"reference":"Encounter/81384624-d19f-4ae7-aff9-513b345029c1"},"onsetPeriod":{"start":"2026-10-09T05:00:00.000+00:00","end":"2026-10-09T17:00:00.000+00:00"}},"request":{"method":"PUT","url":"Condition/a5dd4ac7-ee8a-409a-988c-ddfef9a8e632"}},{"resource":{"resourceType":"Condition","id":"a1bad546-0117-412d-8f6f-70929c45c7bd","meta":{"profile":["http://hl7.org/fhir/us/qicore/StructureDefinition/qicore-condition-problems-health-concerns"]},"clinicalStatus":{"coding":[{"system":"http://terminology.hl7.org/CodeSystem/condition-clinical","code":"active","display":"Active","userSelected":true}]},"category":[{"coding":[{"system":"http://terminology.hl7.org/CodeSystem/condition-category","code":"problem-list-item","display":"Problem List Item","userSelected":true}]}],"code":{"coding":[{"system":"http://snomed.info/sct","code":"723858002","display":"Ventricular aneurysm due to and following acute myocardial infarction (disorder)","userSelected":true}]},"subject":{"reference":"Patient/baf1efce-a7e8-45d3-9a8b-50c8e5d8d802"},"onsetDateTime":"2026-10-08T05:00:00.000+00:00"},"request":{"method":"PUT","url":"Condition/a1bad546-0117-412d-8f6f-70929c45c7bd"}}]}