{"resourceType":"Bundle","id":"tests-c3e9651c-c028-4034-86b7-bbe5a0dd9567-bundle","type":"transaction","entry":[{"resource":{"resourceType":"MeasureReport","id":"038d0e29-4f4d-4d53-81a7-169536c0111e","meta":{"profile":["http://hl7.org/fhir/us/cqfmeasures/StructureDefinition/test-case-cqfm"]},"contained":[{"resourceType":"Parameters","id":"7819124e-f02b-48db-8afe-409ff60645e3-parameters","parameter":[{"name":"subject","valueString":"c3e9651c-c028-4034-86b7-bbe5a0dd9567"}]}],"extension":[{"url":"http://hl7.org/fhir/StructureDefinition/cqf-inputParameters","valueReference":{"reference":"#7819124e-f02b-48db-8afe-409ff60645e3-parameters"}},{"url":"http://hl7.org/fhir/us/cqfmeasures/StructureDefinition/cqfm-testCaseDescription","valueMarkdown":"Patient has cerebral vascular lesion (exclusion dx) starts during ED and ends during ED"}],"modifierExtension":[{"url":"http://hl7.org/fhir/us/cqfmeasures/StructureDefinition/cqfm-isTestCase","valueBoolean":true}],"status":"complete","type":"individual","measure":"https://madie.cms.gov/Measure/CMS996FHIRAptTxforSTEMI","period":{"start":"2026-01-01","end":"2026-12-31"},"group":[{"id":"Group_1","population":[{"id":"InitialPopulation_1","code":{"coding":[{"system":"http://terminology.hl7.org/CodeSystem/measure-population","code":"initial-population","display":"Initial Population"}]},"count":1},{"id":"Denominator_1","code":{"coding":[{"system":"http://terminology.hl7.org/CodeSystem/measure-population","code":"denominator","display":"Denominator"}]},"count":1},{"id":"DenominatorExclusion_1","code":{"coding":[{"system":"http://terminology.hl7.org/CodeSystem/measure-population","code":"denominator-exclusion","display":"Denominator Exclusion"}]},"count":0},{"id":"Numerator_1","code":{"coding":[{"system":"http://terminology.hl7.org/CodeSystem/measure-population","code":"numerator","display":"Numerator"}]},"count":0},{"id":"DenominatorException_1","code":{"coding":[{"system":"http://terminology.hl7.org/CodeSystem/measure-population","code":"denominator-exception","display":"Denominator Exception"}]},"count":0}],"measureScore":{"value":0.0}}],"evaluatedResource":[{"reference":"Patient/c3e9651c-c028-4034-86b7-bbe5a0dd9567"},{"reference":"Encounter/6375d35c-1002-43ca-bfc0-7257c41830ee"},{"reference":"Condition/e6dfd965-c48b-499f-bc8a-2edead8d211b"},{"reference":"Condition/8dbf3b3e-b58d-48d7-9943-edc417eaecfe"}]},"request":{"method":"PUT","url":"MeasureReport/038d0e29-4f4d-4d53-81a7-169536c0111e"}},{"resource":{"resourceType":"Patient","id":"c3e9651c-c028-4034-86b7-bbe5a0dd9567","meta":{"profile":["http://hl7.org/fhir/us/qicore/StructureDefinition/qicore-patient"]},"extension":[{"url":"http://hl7.org/fhir/us/core/StructureDefinition/us-core-race","extension":[{"url":"ombCategory","valueCoding":{"system":"urn:oid:2.16.840.1.113883.6.238","code":"2076-8","display":"Native Hawaiian or Other Pacific Islander","userSelected":true}},{"url":"text","valueString":"Native Hawaiian or Other Pacific Islander"}]},{"url":"http://hl7.org/fhir/us/core/StructureDefinition/us-core-ethnicity","extension":[{"url":"ombCategory","valueCoding":{"system":"urn:oid:2.16.840.1.113883.6.238","code":"2186-5","display":"Not Hispanic or Latino","userSelected":true}},{"url":"text","valueString":"Not Hispanic or Latino"}]},{"url":"http://hl7.org/fhir/us/core/StructureDefinition/us-core-sex","valueCode":"248153007"}],"identifier":[{"type":{"coding":[{"system":"http://terminology.hl7.org/CodeSystem/v2-0203","code":"MR"}]},"system":"https://bonnie-fhir.healthit.gov/","value":"617b1065513b5d1ee28b7579"}],"name":[{"family":"DenExcl4Fail","given":["DxStartsDuringEndsDuringED"]}],"gender":"male","birthDate":"1985-12-02"},"request":{"method":"PUT","url":"Patient/c3e9651c-c028-4034-86b7-bbe5a0dd9567"}},{"resource":{"resourceType":"Condition","id":"8dbf3b3e-b58d-48d7-9943-edc417eaecfe","meta":{"profile":["http://hl7.org/fhir/us/qicore/StructureDefinition/qicore-condition-problems-health-concerns"]},"clinicalStatus":{"coding":[{"system":"http://terminology.hl7.org/CodeSystem/condition-clinical","version":"4.0.1","code":"inactive","display":"Inactive","userSelected":true}]},"category":[{"coding":[{"system":"http://terminology.hl7.org/CodeSystem/condition-category","code":"problem-list-item","display":"Problem List Item","userSelected":true}]}],"code":{"coding":[{"system":"http://snomed.info/sct","version":"2020-09","code":"204493007","display":"Arteriovenous malformation of precerebral vessels (disorder)","userSelected":true}]},"subject":{"reference":"Patient/c3e9651c-c028-4034-86b7-bbe5a0dd9567"},"onsetDateTime":"2026-10-09T08:09:00.000+00:00","abatementDateTime":"2026-10-10T01:15:00.000+00:00"},"request":{"method":"PUT","url":"Condition/8dbf3b3e-b58d-48d7-9943-edc417eaecfe"}},{"resource":{"resourceType":"Bundle","id":"617b1065513b5d1ee28b7579","type":"transaction","entry":[{"fullUrl":"https://madie.cms.gov/Patient/c3e9651c-c028-4034-86b7-bbe5a0dd9567","resource":{"resourceType":"Patient","id":"c3e9651c-c028-4034-86b7-bbe5a0dd9567","meta":{"profile":["http://hl7.org/fhir/us/qicore/StructureDefinition/qicore-patient"]},"extension":[{"url":"http://hl7.org/fhir/us/core/StructureDefinition/us-core-race","extension":[{"url":"ombCategory","valueCoding":{"system":"urn:oid:2.16.840.1.113883.6.238","code":"2076-8","display":"Native Hawaiian or Other Pacific Islander","userSelected":true}},{"url":"text","valueString":"Native Hawaiian or Other Pacific Islander"}]},{"url":"http://hl7.org/fhir/us/core/StructureDefinition/us-core-ethnicity","extension":[{"url":"ombCategory","valueCoding":{"system":"urn:oid:2.16.840.1.113883.6.238","code":"2186-5","display":"Not Hispanic or Latino","userSelected":true}},{"url":"text","valueString":"Not Hispanic or Latino"}]},{"url":"http://hl7.org/fhir/us/core/StructureDefinition/us-core-sex","valueCode":"248153007"}],"identifier":[{"type":{"coding":[{"system":"http://terminology.hl7.org/CodeSystem/v2-0203","code":"MR"}]},"system":"https://bonnie-fhir.healthit.gov/","value":"617b1065513b5d1ee28b7579"}],"name":[{"family":"DenExcl4Fail","given":["DxStartsDuringEndsDuringED"]}],"gender":"male","birthDate":"1985-12-02"},"request":{"method":"PUT","url":"Patient/c3e9651c-c028-4034-86b7-bbe5a0dd9567"}},{"fullUrl":"https://madie.cms.gov/Encounter/6375d35c-1002-43ca-bfc0-7257c41830ee","resource":{"resourceType":"Encounter","id":"6375d35c-1002-43ca-bfc0-7257c41830ee","meta":{"profile":["http://hl7.org/fhir/us/qicore/StructureDefinition/qicore-encounter"]},"status":"finished","class":{"system":"http://terminology.hl7.org/CodeSystem/v3-ActCode","code":"EMER","display":"emergency","userSelected":true},"type":[{"coding":[{"system":"http://snomed.info/sct","version":"2020-09","code":"4525004","display":"Emergency department patient visit (procedure)","userSelected":true}]}],"subject":{"reference":"Patient/c3e9651c-c028-4034-86b7-bbe5a0dd9567"},"period":{"start":"2026-10-09T08:05:00.000+00:00","end":"2026-10-10T07:15:00.000+00:00"},"reasonReference":[{"reference":"Condition/e6dfd965-c48b-499f-bc8a-2edead8d211b"}]},"request":{"method":"PUT","url":"Encounter/6375d35c-1002-43ca-bfc0-7257c41830ee"}},{"fullUrl":"https://madie.cms.gov/Condition/e6dfd965-c48b-499f-bc8a-2edead8d211b","resource":{"resourceType":"Condition","id":"e6dfd965-c48b-499f-bc8a-2edead8d211b","meta":{"profile":["http://hl7.org/fhir/us/qicore/StructureDefinition/qicore-condition-problems-health-concerns"]},"clinicalStatus":{"coding":[{"system":"http://terminology.hl7.org/CodeSystem/condition-clinical","code":"active","display":"active","userSelected":true}]},"category":[{"coding":[{"system":"http://terminology.hl7.org/CodeSystem/condition-category","code":"problem-list-item","display":"Problem List Item","userSelected":true}]}],"code":{"coding":[{"system":"http://snomed.info/sct","version":"2020-09","code":"401303003","display":"Acute ST segment elevation myocardial infarction (disorder)","userSelected":true}]},"subject":{"reference":"Patient/c3e9651c-c028-4034-86b7-bbe5a0dd9567"},"onsetDateTime":"2026-10-09T08:30:00.000+00:00"},"request":{"method":"PUT","url":"Condition/e6dfd965-c48b-499f-bc8a-2edead8d211b"}},{"fullUrl":"https://madie.cms.gov/Condition/8dbf3b3e-b58d-48d7-9943-edc417eaecfe","resource":{"resourceType":"Condition","id":"8dbf3b3e-b58d-48d7-9943-edc417eaecfe","meta":{"profile":["http://hl7.org/fhir/us/qicore/StructureDefinition/qicore-condition-problems-health-concerns"]},"clinicalStatus":{"coding":[{"system":"http://terminology.hl7.org/CodeSystem/condition-clinical","version":"4.0.1","code":"inactive","display":"Inactive","userSelected":true}]},"category":[{"coding":[{"system":"http://terminology.hl7.org/CodeSystem/condition-category","code":"problem-list-item","display":"Problem List Item","userSelected":true}]}],"code":{"coding":[{"system":"http://snomed.info/sct","version":"2020-09","code":"204493007","display":"Arteriovenous malformation of precerebral vessels (disorder)","userSelected":true}]},"subject":{"reference":"Patient/c3e9651c-c028-4034-86b7-bbe5a0dd9567"},"onsetDateTime":"2026-10-09T08:09:00.000+00:00","abatementDateTime":"2026-10-10T01:15:00.000+00:00"},"request":{"method":"PUT","url":"Condition/8dbf3b3e-b58d-48d7-9943-edc417eaecfe"}},{"fullUrl":"https://madie.cms.gov/MeasureReport/038d0e29-4f4d-4d53-81a7-169536c0111e","resource":{"resourceType":"MeasureReport","id":"038d0e29-4f4d-4d53-81a7-169536c0111e","meta":{"profile":["http://hl7.org/fhir/us/cqfmeasures/StructureDefinition/test-case-cqfm"]},"contained":[{"resourceType":"Parameters","id":"7819124e-f02b-48db-8afe-409ff60645e3-parameters","parameter":[{"name":"subject","valueString":"c3e9651c-c028-4034-86b7-bbe5a0dd9567"}]}],"extension":[{"url":"http://hl7.org/fhir/StructureDefinition/cqf-inputParameters","valueReference":{"reference":"#7819124e-f02b-48db-8afe-409ff60645e3-parameters"}},{"url":"http://hl7.org/fhir/us/cqfmeasures/StructureDefinition/cqfm-testCaseDescription","valueMarkdown":"Patient has cerebral vascular lesion (exclusion dx) starts during ED and ends during ED"}],"modifierExtension":[{"url":"http://hl7.org/fhir/us/cqfmeasures/StructureDefinition/cqfm-isTestCase","valueBoolean":true}],"status":"complete","type":"individual","measure":"https://madie.cms.gov/Measure/CMS996FHIRAptTxforSTEMI","period":{"start":"2026-01-01","end":"2026-12-31"},"group":[{"id":"Group_1","population":[{"id":"InitialPopulation_1","code":{"coding":[{"system":"http://terminology.hl7.org/CodeSystem/measure-population","code":"initial-population","display":"Initial Population"}]},"count":1},{"id":"Denominator_1","code":{"coding":[{"system":"http://terminology.hl7.org/CodeSystem/measure-population","code":"denominator","display":"Denominator"}]},"count":1},{"id":"DenominatorExclusion_1","code":{"coding":[{"system":"http://terminology.hl7.org/CodeSystem/measure-population","code":"denominator-exclusion","display":"Denominator Exclusion"}]},"count":0},{"id":"Numerator_1","code":{"coding":[{"system":"http://terminology.hl7.org/CodeSystem/measure-population","code":"numerator","display":"Numerator"}]},"count":0},{"id":"DenominatorException_1","code":{"coding":[{"system":"http://terminology.hl7.org/CodeSystem/measure-population","code":"denominator-exception","display":"Denominator Exception"}]},"count":0}],"measureScore":{"value":0.0}}],"evaluatedResource":[{"reference":"Patient/c3e9651c-c028-4034-86b7-bbe5a0dd9567"},{"reference":"Encounter/6375d35c-1002-43ca-bfc0-7257c41830ee"},{"reference":"Condition/e6dfd965-c48b-499f-bc8a-2edead8d211b"},{"reference":"Condition/8dbf3b3e-b58d-48d7-9943-edc417eaecfe"}]},"request":{"method":"PUT","url":"MeasureReport/038d0e29-4f4d-4d53-81a7-169536c0111e"}}]},"request":{"method":"PUT","url":"Bundle/617b1065513b5d1ee28b7579"}},{"resource":{"resourceType":"Encounter","id":"6375d35c-1002-43ca-bfc0-7257c41830ee","meta":{"profile":["http://hl7.org/fhir/us/qicore/StructureDefinition/qicore-encounter"]},"status":"finished","class":{"system":"http://terminology.hl7.org/CodeSystem/v3-ActCode","code":"EMER","display":"emergency","userSelected":true},"type":[{"coding":[{"system":"http://snomed.info/sct","version":"2020-09","code":"4525004","display":"Emergency department patient visit (procedure)","userSelected":true}]}],"subject":{"reference":"Patient/c3e9651c-c028-4034-86b7-bbe5a0dd9567"},"period":{"start":"2026-10-09T08:05:00.000+00:00","end":"2026-10-10T07:15:00.000+00:00"},"reasonReference":[{"reference":"Condition/e6dfd965-c48b-499f-bc8a-2edead8d211b"}]},"request":{"method":"PUT","url":"Encounter/6375d35c-1002-43ca-bfc0-7257c41830ee"}},{"resource":{"resourceType":"Condition","id":"e6dfd965-c48b-499f-bc8a-2edead8d211b","meta":{"profile":["http://hl7.org/fhir/us/qicore/StructureDefinition/qicore-condition-problems-health-concerns"]},"clinicalStatus":{"coding":[{"system":"http://terminology.hl7.org/CodeSystem/condition-clinical","code":"active","display":"active","userSelected":true}]},"category":[{"coding":[{"system":"http://terminology.hl7.org/CodeSystem/condition-category","code":"problem-list-item","display":"Problem List Item","userSelected":true}]}],"code":{"coding":[{"system":"http://snomed.info/sct","version":"2020-09","code":"401303003","display":"Acute ST segment elevation myocardial infarction (disorder)","userSelected":true}]},"subject":{"reference":"Patient/c3e9651c-c028-4034-86b7-bbe5a0dd9567"},"onsetDateTime":"2026-10-09T08:30:00.000+00:00"},"request":{"method":"PUT","url":"Condition/e6dfd965-c48b-499f-bc8a-2edead8d211b"}}]}