{"resourceType":"Bundle","id":"tests-88d99809-90d6-4cbc-a4bb-d5d73375fc81-bundle","type":"transaction","entry":[{"fullUrl":"Encounter/da2d1042-8054-4480-8563-f5b413653c46","resource":{"resourceType":"Encounter","id":"da2d1042-8054-4480-8563-f5b413653c46","meta":{"profile":["http://hl7.org/fhir/us/qicore/StructureDefinition/qicore-encounter"]},"status":"finished","class":{"system":"http://terminology.hl7.org/CodeSystem/v3-ActCode","code":"EMER","display":"emergency","userSelected":true},"type":[{"coding":[{"system":"http://snomed.info/sct","version":"2020-09","code":"4525004","display":"Emergency department patient visit (procedure)","userSelected":true}]}],"subject":{"reference":"Patient/88d99809-90d6-4cbc-a4bb-d5d73375fc81"},"period":{"start":"2026-10-09T08:05:00.000+00:00","end":"2026-10-10T07:15:00.000+00:00"},"reasonReference":[{"reference":"Condition/3885a0f8-3e12-424e-bc09-6aa8ce80d0f0"}]},"request":{"method":"PUT","url":"Encounter/da2d1042-8054-4480-8563-f5b413653c46"}},{"fullUrl":"Patient/88d99809-90d6-4cbc-a4bb-d5d73375fc81","resource":{"resourceType":"Patient","id":"88d99809-90d6-4cbc-a4bb-d5d73375fc81","meta":{"profile":["http://hl7.org/fhir/us/qicore/StructureDefinition/qicore-patient"]},"extension":[{"url":"http://hl7.org/fhir/us/core/StructureDefinition/us-core-race","extension":[{"url":"ombCategory","valueCoding":{"system":"urn:oid:2.16.840.1.113883.6.238","code":"2076-8","display":"Native Hawaiian or Other Pacific Islander","userSelected":true}},{"url":"text","valueString":"Native Hawaiian or Other Pacific Islander"}]},{"url":"http://hl7.org/fhir/us/core/StructureDefinition/us-core-ethnicity","extension":[{"url":"ombCategory","valueCoding":{"system":"urn:oid:2.16.840.1.113883.6.238","code":"2186-5","display":"Not Hispanic or Latino","userSelected":true}},{"url":"text","valueString":"Not Hispanic or Latino"}]},{"url":"http://hl7.org/fhir/us/core/StructureDefinition/us-core-sex","valueCode":"248152002"}],"identifier":[{"type":{"coding":[{"system":"http://terminology.hl7.org/CodeSystem/v2-0203","code":"MR"}]},"system":"https://bonnie-fhir.healthit.gov/","value":"6179ed49ad1a790b7af75259"}],"name":[{"family":"DenExcl3Pass","given":["PxStarts8DBeforeEDEndsAfterED"]}],"gender":"female","birthDate":"1985-12-02"},"request":{"method":"PUT","url":"Patient/88d99809-90d6-4cbc-a4bb-d5d73375fc81"}},{"fullUrl":"Bundle/6179ed49ad1a790b7af75259","resource":{"resourceType":"Bundle","id":"6179ed49ad1a790b7af75259","type":"transaction","entry":[{"fullUrl":"https://madie.cms.gov/Patient/88d99809-90d6-4cbc-a4bb-d5d73375fc81","resource":{"resourceType":"Patient","id":"88d99809-90d6-4cbc-a4bb-d5d73375fc81","meta":{"profile":["http://hl7.org/fhir/us/qicore/StructureDefinition/qicore-patient"]},"extension":[{"url":"http://hl7.org/fhir/us/core/StructureDefinition/us-core-race","extension":[{"url":"ombCategory","valueCoding":{"system":"urn:oid:2.16.840.1.113883.6.238","code":"2076-8","display":"Native Hawaiian or Other Pacific Islander","userSelected":true}},{"url":"text","valueString":"Native Hawaiian or Other Pacific Islander"}]},{"url":"http://hl7.org/fhir/us/core/StructureDefinition/us-core-ethnicity","extension":[{"url":"ombCategory","valueCoding":{"system":"urn:oid:2.16.840.1.113883.6.238","code":"2186-5","display":"Not Hispanic or Latino","userSelected":true}},{"url":"text","valueString":"Not Hispanic or Latino"}]},{"url":"http://hl7.org/fhir/us/core/StructureDefinition/us-core-sex","valueCode":"248152002"}],"identifier":[{"type":{"coding":[{"system":"http://terminology.hl7.org/CodeSystem/v2-0203","code":"MR"}]},"system":"https://bonnie-fhir.healthit.gov/","value":"6179ed49ad1a790b7af75259"}],"name":[{"family":"DenExcl3Pass","given":["PxStarts8DBeforeEDEndsAfterED"]}],"gender":"female","birthDate":"1985-12-02"},"request":{"method":"PUT","url":"Patient/88d99809-90d6-4cbc-a4bb-d5d73375fc81"}},{"fullUrl":"https://madie.cms.gov/Encounter/da2d1042-8054-4480-8563-f5b413653c46","resource":{"resourceType":"Encounter","id":"da2d1042-8054-4480-8563-f5b413653c46","meta":{"profile":["http://hl7.org/fhir/us/qicore/StructureDefinition/qicore-encounter"]},"status":"finished","class":{"system":"http://terminology.hl7.org/CodeSystem/v3-ActCode","code":"EMER","display":"emergency","userSelected":true},"type":[{"coding":[{"system":"http://snomed.info/sct","version":"2020-09","code":"4525004","display":"Emergency department patient visit (procedure)","userSelected":true}]}],"subject":{"reference":"Patient/88d99809-90d6-4cbc-a4bb-d5d73375fc81"},"period":{"start":"2026-10-09T08:05:00.000+00:00","end":"2026-10-10T07:15:00.000+00:00"},"reasonReference":[{"reference":"Condition/3885a0f8-3e12-424e-bc09-6aa8ce80d0f0"}]},"request":{"method":"PUT","url":"Encounter/da2d1042-8054-4480-8563-f5b413653c46"}},{"fullUrl":"https://madie.cms.gov/Condition/3885a0f8-3e12-424e-bc09-6aa8ce80d0f0","resource":{"resourceType":"Condition","id":"3885a0f8-3e12-424e-bc09-6aa8ce80d0f0","meta":{"profile":["http://hl7.org/fhir/us/qicore/StructureDefinition/qicore-condition-problems-health-concerns"]},"clinicalStatus":{"coding":[{"system":"http://terminology.hl7.org/CodeSystem/condition-clinical","code":"active","display":"active","userSelected":true}]},"category":[{"coding":[{"system":"http://terminology.hl7.org/CodeSystem/condition-category","code":"problem-list-item","display":"Problem List Item","userSelected":true}]}],"code":{"coding":[{"system":"http://snomed.info/sct","version":"2020-09","code":"401303003","display":"Acute ST segment elevation myocardial infarction (disorder)","userSelected":true}]},"subject":{"reference":"Patient/88d99809-90d6-4cbc-a4bb-d5d73375fc81"},"onsetDateTime":"2026-10-09T08:30:00.000+00:00"},"request":{"method":"PUT","url":"Condition/3885a0f8-3e12-424e-bc09-6aa8ce80d0f0"}},{"fullUrl":"https://madie.cms.gov/Procedure/17b587bf-4848-461f-aab6-6457bb84e5a9","resource":{"resourceType":"Procedure","id":"17b587bf-4848-461f-aab6-6457bb84e5a9","meta":{"profile":["http://hl7.org/fhir/us/qicore/StructureDefinition/qicore-procedure"]},"extension":[{"url":"http://hl7.org/fhir/us/qicore/StructureDefinition/qicore-recorded","valueDateTime":"2026-10-30T08:15:00.000+00:00"}],"status":"completed","category":{"coding":[{"system":"http://snomed.info/sct","code":"387713003","display":"Surgical procedure","userSelected":true}]},"code":{"coding":[{"system":"http://snomed.info/sct","code":"10259007","userSelected":true}]},"subject":{"reference":"Patient/88d99809-90d6-4cbc-a4bb-d5d73375fc81"},"performedPeriod":{"start":"2026-10-01T08:00:00.000+00:00","end":"2026-10-30T08:15:00.000+00:00"}},"request":{"method":"PUT","url":"Procedure/17b587bf-4848-461f-aab6-6457bb84e5a9"}},{"fullUrl":"https://madie.cms.gov/MeasureReport/e5d0945a-6fe8-477a-8c8c-828f0f0d6259","resource":{"resourceType":"MeasureReport","id":"e5d0945a-6fe8-477a-8c8c-828f0f0d6259","meta":{"profile":["http://hl7.org/fhir/us/cqfmeasures/StructureDefinition/test-case-cqfm"]},"contained":[{"resourceType":"Parameters","id":"a3f7e010-6867-4b85-9fbf-594f4d94b46d-parameters","parameter":[{"name":"subject","valueString":"88d99809-90d6-4cbc-a4bb-d5d73375fc81"}]}],"extension":[{"url":"http://hl7.org/fhir/StructureDefinition/cqf-inputParameters","valueReference":{"reference":"#a3f7e010-6867-4b85-9fbf-594f4d94b46d-parameters"}},{"url":"http://hl7.org/fhir/us/cqfmeasures/StructureDefinition/cqfm-testCaseDescription","valueMarkdown":"Patient has Major Surgical Procedure (exclusion Px) starts 8 days before ED visit and ends after ED"}],"modifierExtension":[{"url":"http://hl7.org/fhir/us/cqfmeasures/StructureDefinition/cqfm-isTestCase","valueBoolean":true}],"status":"complete","type":"individual","measure":"https://madie.cms.gov/Measure/CMS996FHIRAptTxforSTEMI","period":{"start":"2026-01-01","end":"2026-12-31"},"group":[{"id":"Group_1","population":[{"id":"InitialPopulation_1","code":{"coding":[{"system":"http://terminology.hl7.org/CodeSystem/measure-population","code":"initial-population","display":"Initial Population"}]},"count":1},{"id":"Denominator_1","code":{"coding":[{"system":"http://terminology.hl7.org/CodeSystem/measure-population","code":"denominator","display":"Denominator"}]},"count":1},{"id":"DenominatorExclusion_1","code":{"coding":[{"system":"http://terminology.hl7.org/CodeSystem/measure-population","code":"denominator-exclusion","display":"Denominator Exclusion"}]},"count":1},{"id":"Numerator_1","code":{"coding":[{"system":"http://terminology.hl7.org/CodeSystem/measure-population","code":"numerator","display":"Numerator"}]},"count":0},{"id":"DenominatorException_1","code":{"coding":[{"system":"http://terminology.hl7.org/CodeSystem/measure-population","code":"denominator-exception","display":"Denominator Exception"}]},"count":0}],"measureScore":{"value":0.0}}],"evaluatedResource":[{"reference":"Patient/88d99809-90d6-4cbc-a4bb-d5d73375fc81"},{"reference":"Encounter/da2d1042-8054-4480-8563-f5b413653c46"},{"reference":"Condition/3885a0f8-3e12-424e-bc09-6aa8ce80d0f0"},{"reference":"Procedure/17b587bf-4848-461f-aab6-6457bb84e5a9"}]},"request":{"method":"PUT","url":"MeasureReport/e5d0945a-6fe8-477a-8c8c-828f0f0d6259"}}]},"request":{"method":"PUT","url":"Bundle/6179ed49ad1a790b7af75259"}},{"fullUrl":"Procedure/17b587bf-4848-461f-aab6-6457bb84e5a9","resource":{"resourceType":"Procedure","id":"17b587bf-4848-461f-aab6-6457bb84e5a9","meta":{"profile":["http://hl7.org/fhir/us/qicore/StructureDefinition/qicore-procedure"]},"extension":[{"url":"http://hl7.org/fhir/us/qicore/StructureDefinition/qicore-recorded","valueDateTime":"2026-10-30T08:15:00.000+00:00"}],"status":"completed","category":{"coding":[{"system":"http://snomed.info/sct","code":"387713003","display":"Surgical procedure","userSelected":true}]},"code":{"coding":[{"system":"http://snomed.info/sct","code":"10259007","userSelected":true}]},"subject":{"reference":"Patient/88d99809-90d6-4cbc-a4bb-d5d73375fc81"},"performedPeriod":{"start":"2026-10-01T08:00:00.000+00:00","end":"2026-10-30T08:15:00.000+00:00"}},"request":{"method":"PUT","url":"Procedure/17b587bf-4848-461f-aab6-6457bb84e5a9"}},{"fullUrl":"MeasureReport/e5d0945a-6fe8-477a-8c8c-828f0f0d6259","resource":{"resourceType":"MeasureReport","id":"e5d0945a-6fe8-477a-8c8c-828f0f0d6259","meta":{"profile":["http://hl7.org/fhir/us/cqfmeasures/StructureDefinition/test-case-cqfm"]},"contained":[{"resourceType":"Parameters","id":"a3f7e010-6867-4b85-9fbf-594f4d94b46d-parameters","parameter":[{"name":"subject","valueString":"88d99809-90d6-4cbc-a4bb-d5d73375fc81"}]}],"extension":[{"url":"http://hl7.org/fhir/StructureDefinition/cqf-inputParameters","valueReference":{"reference":"#a3f7e010-6867-4b85-9fbf-594f4d94b46d-parameters"}},{"url":"http://hl7.org/fhir/us/cqfmeasures/StructureDefinition/cqfm-testCaseDescription","valueMarkdown":"Patient has Major Surgical Procedure (exclusion Px) starts 8 days before ED visit and ends after ED"}],"modifierExtension":[{"url":"http://hl7.org/fhir/us/cqfmeasures/StructureDefinition/cqfm-isTestCase","valueBoolean":true}],"status":"complete","type":"individual","measure":"https://madie.cms.gov/Measure/CMS996FHIRAptTxforSTEMI","period":{"start":"2026-01-01","end":"2026-12-31"},"group":[{"id":"Group_1","population":[{"id":"InitialPopulation_1","code":{"coding":[{"system":"http://terminology.hl7.org/CodeSystem/measure-population","code":"initial-population","display":"Initial Population"}]},"count":1},{"id":"Denominator_1","code":{"coding":[{"system":"http://terminology.hl7.org/CodeSystem/measure-population","code":"denominator","display":"Denominator"}]},"count":1},{"id":"DenominatorExclusion_1","code":{"coding":[{"system":"http://terminology.hl7.org/CodeSystem/measure-population","code":"denominator-exclusion","display":"Denominator Exclusion"}]},"count":1},{"id":"Numerator_1","code":{"coding":[{"system":"http://terminology.hl7.org/CodeSystem/measure-population","code":"numerator","display":"Numerator"}]},"count":0},{"id":"DenominatorException_1","code":{"coding":[{"system":"http://terminology.hl7.org/CodeSystem/measure-population","code":"denominator-exception","display":"Denominator Exception"}]},"count":0}],"measureScore":{"value":0.0}}],"evaluatedResource":[{"reference":"Patient/88d99809-90d6-4cbc-a4bb-d5d73375fc81"},{"reference":"Encounter/da2d1042-8054-4480-8563-f5b413653c46"},{"reference":"Condition/3885a0f8-3e12-424e-bc09-6aa8ce80d0f0"},{"reference":"Procedure/17b587bf-4848-461f-aab6-6457bb84e5a9"}]},"request":{"method":"PUT","url":"MeasureReport/e5d0945a-6fe8-477a-8c8c-828f0f0d6259"}},{"fullUrl":"Condition/3885a0f8-3e12-424e-bc09-6aa8ce80d0f0","resource":{"resourceType":"Condition","id":"3885a0f8-3e12-424e-bc09-6aa8ce80d0f0","meta":{"profile":["http://hl7.org/fhir/us/qicore/StructureDefinition/qicore-condition-problems-health-concerns"]},"clinicalStatus":{"coding":[{"system":"http://terminology.hl7.org/CodeSystem/condition-clinical","code":"active","display":"active","userSelected":true}]},"category":[{"coding":[{"system":"http://terminology.hl7.org/CodeSystem/condition-category","code":"problem-list-item","display":"Problem List Item","userSelected":true}]}],"code":{"coding":[{"system":"http://snomed.info/sct","version":"2020-09","code":"401303003","display":"Acute ST segment elevation myocardial infarction (disorder)","userSelected":true}]},"subject":{"reference":"Patient/88d99809-90d6-4cbc-a4bb-d5d73375fc81"},"onsetDateTime":"2026-10-09T08:30:00.000+00:00"},"request":{"method":"PUT","url":"Condition/3885a0f8-3e12-424e-bc09-6aa8ce80d0f0"}}]}