{"resourceType":"Bundle","id":"tests-816296ad-a84a-48a9-89e4-38817c7e0c8b-bundle","type":"transaction","entry":[{"resource":{"resourceType":"Condition","id":"546908b6-ab36-448d-a6cd-4641254ba166","meta":{"profile":["http://hl7.org/fhir/us/qicore/StructureDefinition/qicore-condition-problems-health-concerns"]},"clinicalStatus":{"coding":[{"system":"http://terminology.hl7.org/CodeSystem/condition-clinical","code":"active","display":"active","userSelected":true}]},"category":[{"coding":[{"system":"http://terminology.hl7.org/CodeSystem/condition-category","code":"problem-list-item","display":"Problem List Item","userSelected":true}]}],"code":{"coding":[{"system":"http://snomed.info/sct","version":"2020-09","code":"405806007","display":"On examination - collapse -cardiac arrest (disorder)","userSelected":true}]},"subject":{"reference":"Patient/816296ad-a84a-48a9-89e4-38817c7e0c8b"},"onsetDateTime":"2026-10-09T06:00:00.000+00:00"},"request":{"method":"PUT","url":"Condition/546908b6-ab36-448d-a6cd-4641254ba166"}},{"resource":{"resourceType":"Patient","id":"816296ad-a84a-48a9-89e4-38817c7e0c8b","meta":{"profile":["http://hl7.org/fhir/us/qicore/StructureDefinition/qicore-patient"]},"extension":[{"url":"http://hl7.org/fhir/us/core/StructureDefinition/us-core-race","extension":[{"url":"ombCategory","valueCoding":{"system":"urn:oid:2.16.840.1.113883.6.238","code":"2076-8","display":"Native Hawaiian or Other Pacific Islander","userSelected":true}},{"url":"text","valueString":"Native Hawaiian or Other Pacific Islander"}]},{"url":"http://hl7.org/fhir/us/core/StructureDefinition/us-core-ethnicity","extension":[{"url":"ombCategory","valueCoding":{"system":"urn:oid:2.16.840.1.113883.6.238","code":"2186-5","display":"Not Hispanic or Latino","userSelected":true}},{"url":"text","valueString":"Not Hispanic or Latino"}]},{"url":"http://hl7.org/fhir/us/core/StructureDefinition/us-core-sex","valueCode":"248152002"}],"identifier":[{"type":{"coding":[{"system":"http://terminology.hl7.org/CodeSystem/v2-0203","code":"MR"}]},"system":"https://bonnie-fhir.healthit.gov/","value":"66328b236cea4124ba3e75a7"}],"name":[{"family":"DenExcl7Pass","given":["DxStartsDuring90DayPeriodNoAbatementCardiac"]}],"gender":"female","birthDate":"1985-12-02"},"request":{"method":"PUT","url":"Patient/816296ad-a84a-48a9-89e4-38817c7e0c8b"}},{"resource":{"resourceType":"Bundle","id":"66328b236cea4124ba3e75a7","type":"transaction","entry":[{"fullUrl":"https://madie.cms.gov/Patient/816296ad-a84a-48a9-89e4-38817c7e0c8b","resource":{"resourceType":"Patient","id":"816296ad-a84a-48a9-89e4-38817c7e0c8b","meta":{"profile":["http://hl7.org/fhir/us/qicore/StructureDefinition/qicore-patient"]},"extension":[{"url":"http://hl7.org/fhir/us/core/StructureDefinition/us-core-race","extension":[{"url":"ombCategory","valueCoding":{"system":"urn:oid:2.16.840.1.113883.6.238","code":"2076-8","display":"Native Hawaiian or Other Pacific Islander","userSelected":true}},{"url":"text","valueString":"Native Hawaiian or Other Pacific Islander"}]},{"url":"http://hl7.org/fhir/us/core/StructureDefinition/us-core-ethnicity","extension":[{"url":"ombCategory","valueCoding":{"system":"urn:oid:2.16.840.1.113883.6.238","code":"2186-5","display":"Not Hispanic or Latino","userSelected":true}},{"url":"text","valueString":"Not Hispanic or Latino"}]},{"url":"http://hl7.org/fhir/us/core/StructureDefinition/us-core-sex","valueCode":"248152002"}],"identifier":[{"type":{"coding":[{"system":"http://terminology.hl7.org/CodeSystem/v2-0203","code":"MR"}]},"system":"https://bonnie-fhir.healthit.gov/","value":"66328b236cea4124ba3e75a7"}],"name":[{"family":"DenExcl7Pass","given":["DxStartsDuring90DayPeriodNoAbatementCardiac"]}],"gender":"female","birthDate":"1985-12-02"},"request":{"method":"PUT","url":"Patient/816296ad-a84a-48a9-89e4-38817c7e0c8b"}},{"fullUrl":"https://madie.cms.gov/Encounter/12a526df-d95b-4804-8c35-d5e3f6fb9d94","resource":{"resourceType":"Encounter","id":"12a526df-d95b-4804-8c35-d5e3f6fb9d94","meta":{"profile":["http://hl7.org/fhir/us/qicore/StructureDefinition/qicore-encounter"]},"status":"finished","class":{"system":"http://terminology.hl7.org/CodeSystem/v3-ActCode","code":"EMER","display":"emergency","userSelected":true},"type":[{"coding":[{"system":"http://snomed.info/sct","version":"2020-09","code":"4525004","display":"Emergency department patient visit (procedure)","userSelected":true}]}],"subject":{"reference":"Patient/816296ad-a84a-48a9-89e4-38817c7e0c8b"},"period":{"start":"2026-10-09T08:05:00.000+00:00","end":"2026-10-10T07:15:00.000+00:00"},"reasonReference":[{"reference":"Condition/1df47f68-7bda-461c-83fd-efea58406eac"}]},"request":{"method":"PUT","url":"Encounter/12a526df-d95b-4804-8c35-d5e3f6fb9d94"}},{"fullUrl":"https://madie.cms.gov/Condition/1df47f68-7bda-461c-83fd-efea58406eac","resource":{"resourceType":"Condition","id":"1df47f68-7bda-461c-83fd-efea58406eac","meta":{"profile":["http://hl7.org/fhir/us/qicore/StructureDefinition/qicore-condition-problems-health-concerns"]},"clinicalStatus":{"coding":[{"system":"http://terminology.hl7.org/CodeSystem/condition-clinical","code":"active","display":"active","userSelected":true}]},"category":[{"coding":[{"system":"http://terminology.hl7.org/CodeSystem/condition-category","code":"problem-list-item","display":"Problem List Item","userSelected":true}]}],"code":{"coding":[{"system":"http://snomed.info/sct","version":"2020-09","code":"401303003","display":"Acute ST segment elevation myocardial infarction (disorder)","userSelected":true}]},"subject":{"reference":"Patient/816296ad-a84a-48a9-89e4-38817c7e0c8b"},"onsetDateTime":"2026-10-09T08:30:00.000+00:00"},"request":{"method":"PUT","url":"Condition/1df47f68-7bda-461c-83fd-efea58406eac"}},{"fullUrl":"https://madie.cms.gov/Condition/546908b6-ab36-448d-a6cd-4641254ba166","resource":{"resourceType":"Condition","id":"546908b6-ab36-448d-a6cd-4641254ba166","meta":{"profile":["http://hl7.org/fhir/us/qicore/StructureDefinition/qicore-condition-problems-health-concerns"]},"clinicalStatus":{"coding":[{"system":"http://terminology.hl7.org/CodeSystem/condition-clinical","code":"active","display":"active","userSelected":true}]},"category":[{"coding":[{"system":"http://terminology.hl7.org/CodeSystem/condition-category","code":"problem-list-item","display":"Problem List Item","userSelected":true}]}],"code":{"coding":[{"system":"http://snomed.info/sct","version":"2020-09","code":"405806007","display":"On examination - collapse -cardiac arrest (disorder)","userSelected":true}]},"subject":{"reference":"Patient/816296ad-a84a-48a9-89e4-38817c7e0c8b"},"onsetDateTime":"2026-10-09T06:00:00.000+00:00"},"request":{"method":"PUT","url":"Condition/546908b6-ab36-448d-a6cd-4641254ba166"}},{"fullUrl":"https://madie.cms.gov/Coverage/40044c4c-6635-4e0a-b9e2-88362870182a","resource":{"resourceType":"Coverage","id":"40044c4c-6635-4e0a-b9e2-88362870182a","meta":{"profile":["http://hl7.org/fhir/us/qicore/StructureDefinition/qicore-coverage"]},"identifier":[{"type":{"coding":[{"system":"http://terminology.hl7.org/CodeSystem/v2-0203","code":"MB"}]}}],"status":"active","beneficiary":{"reference":"Patient/816296ad-a84a-48a9-89e4-38817c7e0c8b"},"relationship":{"coding":[{"system":"http://terminology.hl7.org/CodeSystem/subscriber-relationship","code":"self"}]},"payor":[{"reference":"Organization/44d4ae99-1df1-4f0f-aa6f-aac5eefd10e6"}]},"request":{"method":"PUT","url":"Coverage/40044c4c-6635-4e0a-b9e2-88362870182a"}},{"fullUrl":"https://madie.cms.gov/Organization/44d4ae99-1df1-4f0f-aa6f-aac5eefd10e6","resource":{"resourceType":"Organization","id":"44d4ae99-1df1-4f0f-aa6f-aac5eefd10e6","meta":{"profile":["http://hl7.org/fhir/us/qicore/StructureDefinition/qicore-organization"]},"identifier":[{"use":"temp","system":"urn:oid:2.16.840.1.113883.4.4","value":"21-3259825"}],"active":true,"type":[{"coding":[{"system":"http://terminology.hl7.org/CodeSystem/organization-type","code":"pay","display":"Payer"}]}],"name":"Blue Cross Blue Shield of Texas","telecom":[{"system":"phone","value":"(+1) 972-766-6900"}],"address":[{"use":"billing","type":"postal","line":["P.O. Box 660044"],"city":"Dallas","state":"TX","postalCode":"75266-0044","country":"USA"}]},"request":{"method":"PUT","url":"Organization/44d4ae99-1df1-4f0f-aa6f-aac5eefd10e6"}},{"fullUrl":"https://madie.cms.gov/Practitioner/3cf7dedf-e17a-4992-8951-f7126b1447b9","resource":{"resourceType":"Practitioner","id":"3cf7dedf-e17a-4992-8951-f7126b1447b9","meta":{"profile":["http://hl7.org/fhir/us/qicore/StructureDefinition/qicore-practitioner"]},"identifier":[{"system":"http://hl7.org/fhir/sid/us-npi","value":"9999999896"}],"name":[{"family":"Evil","prefix":["Dr"]}]},"request":{"method":"PUT","url":"Practitioner/3cf7dedf-e17a-4992-8951-f7126b1447b9"}},{"fullUrl":"https://madie.cms.gov/MeasureReport/370d6d82-4d1a-49e5-a61d-8d2cc2cf6517","resource":{"resourceType":"MeasureReport","id":"370d6d82-4d1a-49e5-a61d-8d2cc2cf6517","meta":{"profile":["http://hl7.org/fhir/us/cqfmeasures/StructureDefinition/test-case-cqfm"]},"contained":[{"resourceType":"Parameters","id":"b6343093-1a6b-4292-abbd-acee25a7536f-parameters","parameter":[{"name":"subject","valueString":"816296ad-a84a-48a9-89e4-38817c7e0c8b"}]}],"extension":[{"url":"http://hl7.org/fhir/StructureDefinition/cqf-inputParameters","valueReference":{"reference":"#b6343093-1a6b-4292-abbd-acee25a7536f-parameters"}},{"url":"http://hl7.org/fhir/us/cqfmeasures/StructureDefinition/cqfm-testCaseDescription","valueMarkdown":"Patient has STEMI diagnosis during ED Encounter with Cardiopulmonary arrest diagnosis within 24 hours before and no abatement."}],"modifierExtension":[{"url":"http://hl7.org/fhir/us/cqfmeasures/StructureDefinition/cqfm-isTestCase","valueBoolean":true}],"status":"complete","type":"individual","measure":"https://madie.cms.gov/Measure/CMS996FHIRAptTxforSTEMI","period":{"start":"2026-01-01","end":"2026-12-31"},"group":[{"id":"Group_1","population":[{"id":"InitialPopulation_1","code":{"coding":[{"system":"http://terminology.hl7.org/CodeSystem/measure-population","code":"initial-population","display":"Initial Population"}]},"count":1},{"id":"Denominator_1","code":{"coding":[{"system":"http://terminology.hl7.org/CodeSystem/measure-population","code":"denominator","display":"Denominator"}]},"count":1},{"id":"DenominatorExclusion_1","code":{"coding":[{"system":"http://terminology.hl7.org/CodeSystem/measure-population","code":"denominator-exclusion","display":"Denominator Exclusion"}]},"count":1},{"id":"Numerator_1","code":{"coding":[{"system":"http://terminology.hl7.org/CodeSystem/measure-population","code":"numerator","display":"Numerator"}]},"count":0},{"id":"DenominatorException_1","code":{"coding":[{"system":"http://terminology.hl7.org/CodeSystem/measure-population","code":"denominator-exception","display":"Denominator Exception"}]},"count":0}],"measureScore":{"value":0.0}}],"evaluatedResource":[{"reference":"Patient/816296ad-a84a-48a9-89e4-38817c7e0c8b"},{"reference":"Encounter/12a526df-d95b-4804-8c35-d5e3f6fb9d94"},{"reference":"Condition/1df47f68-7bda-461c-83fd-efea58406eac"},{"reference":"Condition/546908b6-ab36-448d-a6cd-4641254ba166"},{"reference":"Coverage/40044c4c-6635-4e0a-b9e2-88362870182a"},{"reference":"Organization/44d4ae99-1df1-4f0f-aa6f-aac5eefd10e6"},{"reference":"Practitioner/3cf7dedf-e17a-4992-8951-f7126b1447b9"}]},"request":{"method":"PUT","url":"MeasureReport/370d6d82-4d1a-49e5-a61d-8d2cc2cf6517"}}]},"request":{"method":"PUT","url":"Bundle/66328b236cea4124ba3e75a7"}},{"resource":{"resourceType":"MeasureReport","id":"370d6d82-4d1a-49e5-a61d-8d2cc2cf6517","meta":{"profile":["http://hl7.org/fhir/us/cqfmeasures/StructureDefinition/test-case-cqfm"]},"contained":[{"resourceType":"Parameters","id":"b6343093-1a6b-4292-abbd-acee25a7536f-parameters","parameter":[{"name":"subject","valueString":"816296ad-a84a-48a9-89e4-38817c7e0c8b"}]}],"extension":[{"url":"http://hl7.org/fhir/StructureDefinition/cqf-inputParameters","valueReference":{"reference":"#b6343093-1a6b-4292-abbd-acee25a7536f-parameters"}},{"url":"http://hl7.org/fhir/us/cqfmeasures/StructureDefinition/cqfm-testCaseDescription","valueMarkdown":"Patient has STEMI diagnosis during ED Encounter with Cardiopulmonary arrest diagnosis within 24 hours before and no abatement."}],"modifierExtension":[{"url":"http://hl7.org/fhir/us/cqfmeasures/StructureDefinition/cqfm-isTestCase","valueBoolean":true}],"status":"complete","type":"individual","measure":"https://madie.cms.gov/Measure/CMS996FHIRAptTxforSTEMI","period":{"start":"2026-01-01","end":"2026-12-31"},"group":[{"id":"Group_1","population":[{"id":"InitialPopulation_1","code":{"coding":[{"system":"http://terminology.hl7.org/CodeSystem/measure-population","code":"initial-population","display":"Initial Population"}]},"count":1},{"id":"Denominator_1","code":{"coding":[{"system":"http://terminology.hl7.org/CodeSystem/measure-population","code":"denominator","display":"Denominator"}]},"count":1},{"id":"DenominatorExclusion_1","code":{"coding":[{"system":"http://terminology.hl7.org/CodeSystem/measure-population","code":"denominator-exclusion","display":"Denominator Exclusion"}]},"count":1},{"id":"Numerator_1","code":{"coding":[{"system":"http://terminology.hl7.org/CodeSystem/measure-population","code":"numerator","display":"Numerator"}]},"count":0},{"id":"DenominatorException_1","code":{"coding":[{"system":"http://terminology.hl7.org/CodeSystem/measure-population","code":"denominator-exception","display":"Denominator Exception"}]},"count":0}],"measureScore":{"value":0.0}}],"evaluatedResource":[{"reference":"Patient/816296ad-a84a-48a9-89e4-38817c7e0c8b"},{"reference":"Encounter/12a526df-d95b-4804-8c35-d5e3f6fb9d94"},{"reference":"Condition/1df47f68-7bda-461c-83fd-efea58406eac"},{"reference":"Condition/546908b6-ab36-448d-a6cd-4641254ba166"},{"reference":"Coverage/40044c4c-6635-4e0a-b9e2-88362870182a"},{"reference":"Organization/44d4ae99-1df1-4f0f-aa6f-aac5eefd10e6"},{"reference":"Practitioner/3cf7dedf-e17a-4992-8951-f7126b1447b9"}]},"request":{"method":"PUT","url":"MeasureReport/370d6d82-4d1a-49e5-a61d-8d2cc2cf6517"}},{"resource":{"resourceType":"Organization","id":"44d4ae99-1df1-4f0f-aa6f-aac5eefd10e6","meta":{"profile":["http://hl7.org/fhir/us/qicore/StructureDefinition/qicore-organization"]},"identifier":[{"use":"temp","system":"urn:oid:2.16.840.1.113883.4.4","value":"21-3259825"}],"active":true,"type":[{"coding":[{"system":"http://terminology.hl7.org/CodeSystem/organization-type","code":"pay","display":"Payer"}]}],"name":"Blue Cross Blue Shield of Texas","telecom":[{"system":"phone","value":"(+1) 972-766-6900"}],"address":[{"use":"billing","type":"postal","line":["P.O. Box 660044"],"city":"Dallas","state":"TX","postalCode":"75266-0044","country":"USA"}]},"request":{"method":"PUT","url":"Organization/44d4ae99-1df1-4f0f-aa6f-aac5eefd10e6"}},{"resource":{"resourceType":"Practitioner","id":"3cf7dedf-e17a-4992-8951-f7126b1447b9","meta":{"profile":["http://hl7.org/fhir/us/qicore/StructureDefinition/qicore-practitioner"]},"identifier":[{"system":"http://hl7.org/fhir/sid/us-npi","value":"9999999896"}],"name":[{"family":"Evil","prefix":["Dr"]}]},"request":{"method":"PUT","url":"Practitioner/3cf7dedf-e17a-4992-8951-f7126b1447b9"}},{"resource":{"resourceType":"Encounter","id":"12a526df-d95b-4804-8c35-d5e3f6fb9d94","meta":{"profile":["http://hl7.org/fhir/us/qicore/StructureDefinition/qicore-encounter"]},"status":"finished","class":{"system":"http://terminology.hl7.org/CodeSystem/v3-ActCode","code":"EMER","display":"emergency","userSelected":true},"type":[{"coding":[{"system":"http://snomed.info/sct","version":"2020-09","code":"4525004","display":"Emergency department patient visit (procedure)","userSelected":true}]}],"subject":{"reference":"Patient/816296ad-a84a-48a9-89e4-38817c7e0c8b"},"period":{"start":"2026-10-09T08:05:00.000+00:00","end":"2026-10-10T07:15:00.000+00:00"},"reasonReference":[{"reference":"Condition/1df47f68-7bda-461c-83fd-efea58406eac"}]},"request":{"method":"PUT","url":"Encounter/12a526df-d95b-4804-8c35-d5e3f6fb9d94"}},{"resource":{"resourceType":"Condition","id":"1df47f68-7bda-461c-83fd-efea58406eac","meta":{"profile":["http://hl7.org/fhir/us/qicore/StructureDefinition/qicore-condition-problems-health-concerns"]},"clinicalStatus":{"coding":[{"system":"http://terminology.hl7.org/CodeSystem/condition-clinical","code":"active","display":"active","userSelected":true}]},"category":[{"coding":[{"system":"http://terminology.hl7.org/CodeSystem/condition-category","code":"problem-list-item","display":"Problem List Item","userSelected":true}]}],"code":{"coding":[{"system":"http://snomed.info/sct","version":"2020-09","code":"401303003","display":"Acute ST segment elevation myocardial infarction (disorder)","userSelected":true}]},"subject":{"reference":"Patient/816296ad-a84a-48a9-89e4-38817c7e0c8b"},"onsetDateTime":"2026-10-09T08:30:00.000+00:00"},"request":{"method":"PUT","url":"Condition/1df47f68-7bda-461c-83fd-efea58406eac"}},{"resource":{"resourceType":"Coverage","id":"40044c4c-6635-4e0a-b9e2-88362870182a","meta":{"profile":["http://hl7.org/fhir/us/qicore/StructureDefinition/qicore-coverage"]},"identifier":[{"type":{"coding":[{"system":"http://terminology.hl7.org/CodeSystem/v2-0203","code":"MB"}]}}],"status":"active","beneficiary":{"reference":"Patient/816296ad-a84a-48a9-89e4-38817c7e0c8b"},"relationship":{"coding":[{"system":"http://terminology.hl7.org/CodeSystem/subscriber-relationship","code":"self"}]},"payor":[{"reference":"Organization/44d4ae99-1df1-4f0f-aa6f-aac5eefd10e6"}]},"request":{"method":"PUT","url":"Coverage/40044c4c-6635-4e0a-b9e2-88362870182a"}}]}