{"resourceType":"Bundle","id":"tests-a0de0e88-9054-45d4-a417-3b9ea5ebe78a-bundle","type":"transaction","entry":[{"resource":{"resourceType":"Bundle","id":"s1f044ef3e654daa2669","type":"transaction","entry":[{"fullUrl":"https://madie.cms.gov/Patient/a0de0e88-9054-45d4-a417-3b9ea5ebe78a","resource":{"resourceType":"Patient","id":"a0de0e88-9054-45d4-a417-3b9ea5ebe78a","meta":{"profile":["http://hl7.org/fhir/us/qicore/StructureDefinition/qicore-patient"]},"extension":[{"url":"http://hl7.org/fhir/us/core/StructureDefinition/us-core-race","extension":[{"url":"ombCategory","valueCoding":{"system":"urn:oid:2.16.840.1.113883.6.238","code":"1002-5","display":"American Indian or Alaska Native","userSelected":true}},{"url":"text","valueString":"American Indian or Alaska Native"}]},{"url":"http://hl7.org/fhir/us/core/StructureDefinition/us-core-ethnicity","extension":[{"url":"ombCategory","valueCoding":{"system":"urn:oid:2.16.840.1.113883.6.238","code":"2135-2","display":"Hispanic or Latino","userSelected":true}},{"url":"text","valueString":"Hispanic or Latino"}]},{"url":"http://hl7.org/fhir/us/core/StructureDefinition/us-core-sex","valueCode":"248153007"}],"identifier":[{"type":{"coding":[{"system":"http://terminology.hl7.org/CodeSystem/v2-0203","code":"MR"}]},"system":"https://bonnie-fhir.healthit.gov/","value":"s1f044ef3e654daa2669"}],"name":[{"family":"DENEXCL11PASS","given":["HospiceInterventionRelevantPeriodPerformedOverlapsED"]}],"gender":"male","birthDate":"1978-05-03"},"request":{"method":"PUT","url":"Patient/a0de0e88-9054-45d4-a417-3b9ea5ebe78a"}},{"fullUrl":"https://madie.cms.gov/Encounter/fed33f1e-ec98-4047-8ca4-23cd516c498a","resource":{"resourceType":"Encounter","id":"fed33f1e-ec98-4047-8ca4-23cd516c498a","meta":{"profile":["http://hl7.org/fhir/us/qicore/StructureDefinition/qicore-encounter"]},"status":"finished","class":{"system":"http://terminology.hl7.org/CodeSystem/v3-ActCode","code":"EMER","display":"emergency","userSelected":true},"type":[{"coding":[{"system":"http://snomed.info/sct","version":"2020-09","code":"4525004","display":"Emergency department patient visit","userSelected":true}]}],"subject":{"reference":"Patient/a0de0e88-9054-45d4-a417-3b9ea5ebe78a"},"period":{"start":"2026-10-09T05:00:00.000+00:00","end":"2026-10-13T17:00:00.000+00:00"},"reasonCode":[{"coding":[{"system":"http://hl7.org/fhir/sid/icd-10-cm","code":"I21.21","display":"ST elevation (STEMI) myocardial infarction involving left circumflex coronary artery","userSelected":true}]}]},"request":{"method":"PUT","url":"Encounter/fed33f1e-ec98-4047-8ca4-23cd516c498a"}},{"fullUrl":"https://madie.cms.gov/Procedure/5f3a0197-edc5-487d-a43c-410be3a74608","resource":{"resourceType":"Procedure","id":"5f3a0197-edc5-487d-a43c-410be3a74608","meta":{"profile":["http://hl7.org/fhir/us/qicore/StructureDefinition/qicore-procedure"]},"extension":[{"url":"http://hl7.org/fhir/us/qicore/StructureDefinition/qicore-recorded","valueDateTime":"2026-10-09T12:15:00.000+00:00"}],"status":"completed","code":{"coding":[{"system":"http://snomed.info/sct","code":"385763009","display":"Hospice care (regime/therapy)","userSelected":true}]},"subject":{"reference":"Patient/a0de0e88-9054-45d4-a417-3b9ea5ebe78a"},"performedPeriod":{"start":"2026-10-01T14:00:00.000+00:00"}},"request":{"method":"PUT","url":"Procedure/5f3a0197-edc5-487d-a43c-410be3a74608"}},{"fullUrl":"https://madie.cms.gov/MeasureReport/f290357d-e5c0-4e7d-85ef-5dc4ef638698","resource":{"resourceType":"MeasureReport","id":"f290357d-e5c0-4e7d-85ef-5dc4ef638698","meta":{"profile":["http://hl7.org/fhir/us/cqfmeasures/StructureDefinition/test-case-cqfm"]},"contained":[{"resourceType":"Parameters","id":"e2dbfddb-cb88-4852-a7ab-1e26e4758e3a-parameters","parameter":[{"name":"subject","valueString":"a0de0e88-9054-45d4-a417-3b9ea5ebe78a"}]}],"extension":[{"url":"http://hl7.org/fhir/StructureDefinition/cqf-inputParameters","valueReference":{"reference":"#e2dbfddb-cb88-4852-a7ab-1e26e4758e3a-parameters"}},{"url":"http://hl7.org/fhir/us/cqfmeasures/StructureDefinition/cqfm-testCaseDescription","valueMarkdown":"Patients has hospice services (intervention, procedure| Relevant Period) overlaps ED (missing intervention performed ends)"}],"modifierExtension":[{"url":"http://hl7.org/fhir/us/cqfmeasures/StructureDefinition/cqfm-isTestCase","valueBoolean":true}],"status":"complete","type":"individual","measure":"https://madie.cms.gov/Measure/CMS996FHIRAptTxforSTEMI","period":{"start":"2026-01-01","end":"2026-12-31"},"group":[{"id":"Group_1","population":[{"id":"InitialPopulation_1","code":{"coding":[{"system":"http://terminology.hl7.org/CodeSystem/measure-population","code":"initial-population","display":"Initial Population"}]},"count":1},{"id":"Denominator_1","code":{"coding":[{"system":"http://terminology.hl7.org/CodeSystem/measure-population","code":"denominator","display":"Denominator"}]},"count":1},{"id":"DenominatorExclusion_1","code":{"coding":[{"system":"http://terminology.hl7.org/CodeSystem/measure-population","code":"denominator-exclusion","display":"Denominator Exclusion"}]},"count":1},{"id":"Numerator_1","code":{"coding":[{"system":"http://terminology.hl7.org/CodeSystem/measure-population","code":"numerator","display":"Numerator"}]},"count":0},{"id":"DenominatorException_1","code":{"coding":[{"system":"http://terminology.hl7.org/CodeSystem/measure-population","code":"denominator-exception","display":"Denominator Exception"}]},"count":0}],"measureScore":{"value":0.0}}],"evaluatedResource":[{"reference":"Patient/a0de0e88-9054-45d4-a417-3b9ea5ebe78a"},{"reference":"Encounter/fed33f1e-ec98-4047-8ca4-23cd516c498a"},{"reference":"Procedure/5f3a0197-edc5-487d-a43c-410be3a74608"}]},"request":{"method":"PUT","url":"MeasureReport/f290357d-e5c0-4e7d-85ef-5dc4ef638698"}}]},"request":{"method":"PUT","url":"Bundle/s1f044ef3e654daa2669"}},{"resource":{"resourceType":"MeasureReport","id":"f290357d-e5c0-4e7d-85ef-5dc4ef638698","meta":{"profile":["http://hl7.org/fhir/us/cqfmeasures/StructureDefinition/test-case-cqfm"]},"contained":[{"resourceType":"Parameters","id":"e2dbfddb-cb88-4852-a7ab-1e26e4758e3a-parameters","parameter":[{"name":"subject","valueString":"a0de0e88-9054-45d4-a417-3b9ea5ebe78a"}]}],"extension":[{"url":"http://hl7.org/fhir/StructureDefinition/cqf-inputParameters","valueReference":{"reference":"#e2dbfddb-cb88-4852-a7ab-1e26e4758e3a-parameters"}},{"url":"http://hl7.org/fhir/us/cqfmeasures/StructureDefinition/cqfm-testCaseDescription","valueMarkdown":"Patients has hospice services (intervention, procedure| Relevant Period) overlaps ED (missing intervention performed ends)"}],"modifierExtension":[{"url":"http://hl7.org/fhir/us/cqfmeasures/StructureDefinition/cqfm-isTestCase","valueBoolean":true}],"status":"complete","type":"individual","measure":"https://madie.cms.gov/Measure/CMS996FHIRAptTxforSTEMI","period":{"start":"2026-01-01","end":"2026-12-31"},"group":[{"id":"Group_1","population":[{"id":"InitialPopulation_1","code":{"coding":[{"system":"http://terminology.hl7.org/CodeSystem/measure-population","code":"initial-population","display":"Initial Population"}]},"count":1},{"id":"Denominator_1","code":{"coding":[{"system":"http://terminology.hl7.org/CodeSystem/measure-population","code":"denominator","display":"Denominator"}]},"count":1},{"id":"DenominatorExclusion_1","code":{"coding":[{"system":"http://terminology.hl7.org/CodeSystem/measure-population","code":"denominator-exclusion","display":"Denominator Exclusion"}]},"count":1},{"id":"Numerator_1","code":{"coding":[{"system":"http://terminology.hl7.org/CodeSystem/measure-population","code":"numerator","display":"Numerator"}]},"count":0},{"id":"DenominatorException_1","code":{"coding":[{"system":"http://terminology.hl7.org/CodeSystem/measure-population","code":"denominator-exception","display":"Denominator Exception"}]},"count":0}],"measureScore":{"value":0.0}}],"evaluatedResource":[{"reference":"Patient/a0de0e88-9054-45d4-a417-3b9ea5ebe78a"},{"reference":"Encounter/fed33f1e-ec98-4047-8ca4-23cd516c498a"},{"reference":"Procedure/5f3a0197-edc5-487d-a43c-410be3a74608"}]},"request":{"method":"PUT","url":"MeasureReport/f290357d-e5c0-4e7d-85ef-5dc4ef638698"}},{"resource":{"resourceType":"Procedure","id":"5f3a0197-edc5-487d-a43c-410be3a74608","meta":{"profile":["http://hl7.org/fhir/us/qicore/StructureDefinition/qicore-procedure"]},"extension":[{"url":"http://hl7.org/fhir/us/qicore/StructureDefinition/qicore-recorded","valueDateTime":"2026-10-09T12:15:00.000+00:00"}],"status":"completed","code":{"coding":[{"system":"http://snomed.info/sct","code":"385763009","display":"Hospice care (regime/therapy)","userSelected":true}]},"subject":{"reference":"Patient/a0de0e88-9054-45d4-a417-3b9ea5ebe78a"},"performedPeriod":{"start":"2026-10-01T14:00:00.000+00:00"}},"request":{"method":"PUT","url":"Procedure/5f3a0197-edc5-487d-a43c-410be3a74608"}},{"resource":{"resourceType":"Patient","id":"a0de0e88-9054-45d4-a417-3b9ea5ebe78a","meta":{"profile":["http://hl7.org/fhir/us/qicore/StructureDefinition/qicore-patient"]},"extension":[{"url":"http://hl7.org/fhir/us/core/StructureDefinition/us-core-race","extension":[{"url":"ombCategory","valueCoding":{"system":"urn:oid:2.16.840.1.113883.6.238","code":"1002-5","display":"American Indian or Alaska Native","userSelected":true}},{"url":"text","valueString":"American Indian or Alaska Native"}]},{"url":"http://hl7.org/fhir/us/core/StructureDefinition/us-core-ethnicity","extension":[{"url":"ombCategory","valueCoding":{"system":"urn:oid:2.16.840.1.113883.6.238","code":"2135-2","display":"Hispanic or Latino","userSelected":true}},{"url":"text","valueString":"Hispanic or Latino"}]},{"url":"http://hl7.org/fhir/us/core/StructureDefinition/us-core-sex","valueCode":"248153007"}],"identifier":[{"type":{"coding":[{"system":"http://terminology.hl7.org/CodeSystem/v2-0203","code":"MR"}]},"system":"https://bonnie-fhir.healthit.gov/","value":"s1f044ef3e654daa2669"}],"name":[{"family":"DENEXCL11PASS","given":["HospiceInterventionRelevantPeriodPerformedOverlapsED"]}],"gender":"male","birthDate":"1978-05-03"},"request":{"method":"PUT","url":"Patient/a0de0e88-9054-45d4-a417-3b9ea5ebe78a"}},{"resource":{"resourceType":"Encounter","id":"fed33f1e-ec98-4047-8ca4-23cd516c498a","meta":{"profile":["http://hl7.org/fhir/us/qicore/StructureDefinition/qicore-encounter"]},"status":"finished","class":{"system":"http://terminology.hl7.org/CodeSystem/v3-ActCode","code":"EMER","display":"emergency","userSelected":true},"type":[{"coding":[{"system":"http://snomed.info/sct","version":"2020-09","code":"4525004","display":"Emergency department patient visit","userSelected":true}]}],"subject":{"reference":"Patient/a0de0e88-9054-45d4-a417-3b9ea5ebe78a"},"period":{"start":"2026-10-09T05:00:00.000+00:00","end":"2026-10-13T17:00:00.000+00:00"},"reasonCode":[{"coding":[{"system":"http://hl7.org/fhir/sid/icd-10-cm","code":"I21.21","display":"ST elevation (STEMI) myocardial infarction involving left circumflex coronary artery","userSelected":true}]}]},"request":{"method":"PUT","url":"Encounter/fed33f1e-ec98-4047-8ca4-23cd516c498a"}}]}