{"resourceType":"Bundle","id":"tests-cffad22d-5ac8-40a2-a677-a746687b0744-bundle","type":"transaction","entry":[{"fullUrl":"Encounter/ed142047-2f00-4cf0-a99c-de5f0d05bcae","resource":{"resourceType":"Encounter","id":"ed142047-2f00-4cf0-a99c-de5f0d05bcae","meta":{"profile":["http://hl7.org/fhir/us/qicore/StructureDefinition/qicore-encounter"]},"status":"finished","class":{"system":"http://terminology.hl7.org/CodeSystem/v3-ActCode","code":"EMER","display":"emergency","userSelected":true},"type":[{"coding":[{"system":"http://snomed.info/sct","version":"2020-09","code":"4525004","display":"Emergency department patient visit (procedure)","userSelected":true}]}],"subject":{"reference":"Patient/cffad22d-5ac8-40a2-a677-a746687b0744"},"period":{"start":"2026-10-09T08:05:00.000+00:00","end":"2026-10-10T07:15:00.000+00:00"},"reasonReference":[{"reference":"Condition/616b4221-1902-412a-ba4d-24ffb098cb6c"}]},"request":{"method":"PUT","url":"Encounter/ed142047-2f00-4cf0-a99c-de5f0d05bcae"}},{"fullUrl":"MeasureReport/a363ebb8-721d-4f54-ad04-76a6693ee42d","resource":{"resourceType":"MeasureReport","id":"a363ebb8-721d-4f54-ad04-76a6693ee42d","meta":{"profile":["http://hl7.org/fhir/us/cqfmeasures/StructureDefinition/test-case-cqfm"]},"contained":[{"resourceType":"Parameters","id":"21ae1953-04e4-4694-b45f-68da68c0386c-parameters","parameter":[{"name":"subject","valueString":"cffad22d-5ac8-40a2-a677-a746687b0744"}]}],"extension":[{"url":"http://hl7.org/fhir/StructureDefinition/cqf-inputParameters","valueReference":{"reference":"#21ae1953-04e4-4694-b45f-68da68c0386c-parameters"}},{"url":"http://hl7.org/fhir/us/cqfmeasures/StructureDefinition/cqfm-testCaseDescription","valueMarkdown":"Patient has closed head trauma (exclusion diagnosis) starts before and ends before 90 day period  ED"}],"modifierExtension":[{"url":"http://hl7.org/fhir/us/cqfmeasures/StructureDefinition/cqfm-isTestCase","valueBoolean":true}],"status":"complete","type":"individual","measure":"https://madie.cms.gov/Measure/CMS996FHIRAptTxforSTEMI","period":{"start":"2026-01-01","end":"2026-12-31"},"group":[{"id":"Group_1","population":[{"id":"InitialPopulation_1","code":{"coding":[{"system":"http://terminology.hl7.org/CodeSystem/measure-population","code":"initial-population","display":"Initial Population"}]},"count":1},{"id":"Denominator_1","code":{"coding":[{"system":"http://terminology.hl7.org/CodeSystem/measure-population","code":"denominator","display":"Denominator"}]},"count":1},{"id":"DenominatorExclusion_1","code":{"coding":[{"system":"http://terminology.hl7.org/CodeSystem/measure-population","code":"denominator-exclusion","display":"Denominator Exclusion"}]},"count":0},{"id":"Numerator_1","code":{"coding":[{"system":"http://terminology.hl7.org/CodeSystem/measure-population","code":"numerator","display":"Numerator"}]},"count":0},{"id":"DenominatorException_1","code":{"coding":[{"system":"http://terminology.hl7.org/CodeSystem/measure-population","code":"denominator-exception","display":"Denominator Exception"}]},"count":0}],"measureScore":{"value":0.0}}],"evaluatedResource":[{"reference":"Patient/cffad22d-5ac8-40a2-a677-a746687b0744"},{"reference":"Encounter/ed142047-2f00-4cf0-a99c-de5f0d05bcae"},{"reference":"Condition/616b4221-1902-412a-ba4d-24ffb098cb6c"},{"reference":"Condition/ce9ceb20-a401-4c46-860f-26e01a45a743"}]},"request":{"method":"PUT","url":"MeasureReport/a363ebb8-721d-4f54-ad04-76a6693ee42d"}},{"fullUrl":"Bundle/617be86a1619a529957d62b9","resource":{"resourceType":"Bundle","id":"617be86a1619a529957d62b9","type":"transaction","entry":[{"fullUrl":"https://madie.cms.gov/Patient/cffad22d-5ac8-40a2-a677-a746687b0744","resource":{"resourceType":"Patient","id":"cffad22d-5ac8-40a2-a677-a746687b0744","meta":{"profile":["http://hl7.org/fhir/us/qicore/StructureDefinition/qicore-patient"]},"extension":[{"url":"http://hl7.org/fhir/us/core/StructureDefinition/us-core-race","extension":[{"url":"ombCategory","valueCoding":{"system":"urn:oid:2.16.840.1.113883.6.238","code":"2076-8","display":"Native Hawaiian or Other Pacific Islander","userSelected":true}},{"url":"text","valueString":"Native Hawaiian or Other Pacific Islander"}]},{"url":"http://hl7.org/fhir/us/core/StructureDefinition/us-core-ethnicity","extension":[{"url":"ombCategory","valueCoding":{"system":"urn:oid:2.16.840.1.113883.6.238","code":"2186-5","display":"Not Hispanic or Latino","userSelected":true}},{"url":"text","valueString":"Not Hispanic or Latino"}]},{"url":"http://hl7.org/fhir/us/core/StructureDefinition/us-core-sex","valueCode":"248152002"}],"identifier":[{"type":{"coding":[{"system":"http://terminology.hl7.org/CodeSystem/v2-0203","code":"MR"}]},"system":"https://bonnie-fhir.healthit.gov/","value":"617be86a1619a529957d62b9"}],"name":[{"family":"DenExcl7Fail","given":["DxStartsBeforeEndsBefore90dayPeriod"]}],"gender":"female","birthDate":"1985-12-02"},"request":{"method":"PUT","url":"Patient/cffad22d-5ac8-40a2-a677-a746687b0744"}},{"fullUrl":"https://madie.cms.gov/Encounter/ed142047-2f00-4cf0-a99c-de5f0d05bcae","resource":{"resourceType":"Encounter","id":"ed142047-2f00-4cf0-a99c-de5f0d05bcae","meta":{"profile":["http://hl7.org/fhir/us/qicore/StructureDefinition/qicore-encounter"]},"status":"finished","class":{"system":"http://terminology.hl7.org/CodeSystem/v3-ActCode","code":"EMER","display":"emergency","userSelected":true},"type":[{"coding":[{"system":"http://snomed.info/sct","version":"2020-09","code":"4525004","display":"Emergency department patient visit (procedure)","userSelected":true}]}],"subject":{"reference":"Patient/cffad22d-5ac8-40a2-a677-a746687b0744"},"period":{"start":"2026-10-09T08:05:00.000+00:00","end":"2026-10-10T07:15:00.000+00:00"},"reasonReference":[{"reference":"Condition/616b4221-1902-412a-ba4d-24ffb098cb6c"}]},"request":{"method":"PUT","url":"Encounter/ed142047-2f00-4cf0-a99c-de5f0d05bcae"}},{"fullUrl":"https://madie.cms.gov/Condition/616b4221-1902-412a-ba4d-24ffb098cb6c","resource":{"resourceType":"Condition","id":"616b4221-1902-412a-ba4d-24ffb098cb6c","meta":{"profile":["http://hl7.org/fhir/us/qicore/StructureDefinition/qicore-condition-problems-health-concerns"]},"clinicalStatus":{"coding":[{"system":"http://terminology.hl7.org/CodeSystem/condition-clinical","code":"active","display":"active","userSelected":true}]},"category":[{"coding":[{"system":"http://terminology.hl7.org/CodeSystem/condition-category","code":"problem-list-item","display":"Problem List Item","userSelected":true}]}],"code":{"coding":[{"system":"http://snomed.info/sct","version":"2020-09","code":"401303003","display":"Acute ST segment elevation myocardial infarction (disorder)","userSelected":true}]},"subject":{"reference":"Patient/cffad22d-5ac8-40a2-a677-a746687b0744"},"onsetDateTime":"2026-10-09T08:30:00.000+00:00"},"request":{"method":"PUT","url":"Condition/616b4221-1902-412a-ba4d-24ffb098cb6c"}},{"fullUrl":"https://madie.cms.gov/Condition/ce9ceb20-a401-4c46-860f-26e01a45a743","resource":{"resourceType":"Condition","id":"ce9ceb20-a401-4c46-860f-26e01a45a743","meta":{"profile":["http://hl7.org/fhir/us/qicore/StructureDefinition/qicore-condition-problems-health-concerns"]},"clinicalStatus":{"coding":[{"system":"http://terminology.hl7.org/CodeSystem/condition-clinical","version":"4.0.1","code":"inactive","display":"Inactive","userSelected":true}]},"category":[{"coding":[{"system":"http://terminology.hl7.org/CodeSystem/condition-category","code":"problem-list-item","display":"Problem List Item","userSelected":true}]}],"code":{"coding":[{"system":"http://snomed.info/sct","version":"2020-03","code":"110030002","display":"Concussion injury of brain (disorder)","userSelected":true}]},"subject":{"reference":"Patient/cffad22d-5ac8-40a2-a677-a746687b0744"},"onsetDateTime":"2026-01-01T08:00:00.000+00:00","abatementDateTime":"2026-05-20T09:30:00.000+00:00"},"request":{"method":"PUT","url":"Condition/ce9ceb20-a401-4c46-860f-26e01a45a743"}},{"fullUrl":"https://madie.cms.gov/MeasureReport/a363ebb8-721d-4f54-ad04-76a6693ee42d","resource":{"resourceType":"MeasureReport","id":"a363ebb8-721d-4f54-ad04-76a6693ee42d","meta":{"profile":["http://hl7.org/fhir/us/cqfmeasures/StructureDefinition/test-case-cqfm"]},"contained":[{"resourceType":"Parameters","id":"21ae1953-04e4-4694-b45f-68da68c0386c-parameters","parameter":[{"name":"subject","valueString":"cffad22d-5ac8-40a2-a677-a746687b0744"}]}],"extension":[{"url":"http://hl7.org/fhir/StructureDefinition/cqf-inputParameters","valueReference":{"reference":"#21ae1953-04e4-4694-b45f-68da68c0386c-parameters"}},{"url":"http://hl7.org/fhir/us/cqfmeasures/StructureDefinition/cqfm-testCaseDescription","valueMarkdown":"Patient has closed head trauma (exclusion diagnosis) starts before and ends before 90 day period  ED"}],"modifierExtension":[{"url":"http://hl7.org/fhir/us/cqfmeasures/StructureDefinition/cqfm-isTestCase","valueBoolean":true}],"status":"complete","type":"individual","measure":"https://madie.cms.gov/Measure/CMS996FHIRAptTxforSTEMI","period":{"start":"2026-01-01","end":"2026-12-31"},"group":[{"id":"Group_1","population":[{"id":"InitialPopulation_1","code":{"coding":[{"system":"http://terminology.hl7.org/CodeSystem/measure-population","code":"initial-population","display":"Initial Population"}]},"count":1},{"id":"Denominator_1","code":{"coding":[{"system":"http://terminology.hl7.org/CodeSystem/measure-population","code":"denominator","display":"Denominator"}]},"count":1},{"id":"DenominatorExclusion_1","code":{"coding":[{"system":"http://terminology.hl7.org/CodeSystem/measure-population","code":"denominator-exclusion","display":"Denominator Exclusion"}]},"count":0},{"id":"Numerator_1","code":{"coding":[{"system":"http://terminology.hl7.org/CodeSystem/measure-population","code":"numerator","display":"Numerator"}]},"count":0},{"id":"DenominatorException_1","code":{"coding":[{"system":"http://terminology.hl7.org/CodeSystem/measure-population","code":"denominator-exception","display":"Denominator Exception"}]},"count":0}],"measureScore":{"value":0.0}}],"evaluatedResource":[{"reference":"Patient/cffad22d-5ac8-40a2-a677-a746687b0744"},{"reference":"Encounter/ed142047-2f00-4cf0-a99c-de5f0d05bcae"},{"reference":"Condition/616b4221-1902-412a-ba4d-24ffb098cb6c"},{"reference":"Condition/ce9ceb20-a401-4c46-860f-26e01a45a743"}]},"request":{"method":"PUT","url":"MeasureReport/a363ebb8-721d-4f54-ad04-76a6693ee42d"}}]},"request":{"method":"PUT","url":"Bundle/617be86a1619a529957d62b9"}},{"fullUrl":"Condition/ce9ceb20-a401-4c46-860f-26e01a45a743","resource":{"resourceType":"Condition","id":"ce9ceb20-a401-4c46-860f-26e01a45a743","meta":{"profile":["http://hl7.org/fhir/us/qicore/StructureDefinition/qicore-condition-problems-health-concerns"]},"clinicalStatus":{"coding":[{"system":"http://terminology.hl7.org/CodeSystem/condition-clinical","version":"4.0.1","code":"inactive","display":"Inactive","userSelected":true}]},"category":[{"coding":[{"system":"http://terminology.hl7.org/CodeSystem/condition-category","code":"problem-list-item","display":"Problem List Item","userSelected":true}]}],"code":{"coding":[{"system":"http://snomed.info/sct","version":"2020-03","code":"110030002","display":"Concussion injury of brain (disorder)","userSelected":true}]},"subject":{"reference":"Patient/cffad22d-5ac8-40a2-a677-a746687b0744"},"onsetDateTime":"2026-01-01T08:00:00.000+00:00","abatementDateTime":"2026-05-20T09:30:00.000+00:00"},"request":{"method":"PUT","url":"Condition/ce9ceb20-a401-4c46-860f-26e01a45a743"}},{"fullUrl":"Condition/616b4221-1902-412a-ba4d-24ffb098cb6c","resource":{"resourceType":"Condition","id":"616b4221-1902-412a-ba4d-24ffb098cb6c","meta":{"profile":["http://hl7.org/fhir/us/qicore/StructureDefinition/qicore-condition-problems-health-concerns"]},"clinicalStatus":{"coding":[{"system":"http://terminology.hl7.org/CodeSystem/condition-clinical","code":"active","display":"active","userSelected":true}]},"category":[{"coding":[{"system":"http://terminology.hl7.org/CodeSystem/condition-category","code":"problem-list-item","display":"Problem List Item","userSelected":true}]}],"code":{"coding":[{"system":"http://snomed.info/sct","version":"2020-09","code":"401303003","display":"Acute ST segment elevation myocardial infarction (disorder)","userSelected":true}]},"subject":{"reference":"Patient/cffad22d-5ac8-40a2-a677-a746687b0744"},"onsetDateTime":"2026-10-09T08:30:00.000+00:00"},"request":{"method":"PUT","url":"Condition/616b4221-1902-412a-ba4d-24ffb098cb6c"}},{"fullUrl":"Patient/cffad22d-5ac8-40a2-a677-a746687b0744","resource":{"resourceType":"Patient","id":"cffad22d-5ac8-40a2-a677-a746687b0744","meta":{"profile":["http://hl7.org/fhir/us/qicore/StructureDefinition/qicore-patient"]},"extension":[{"url":"http://hl7.org/fhir/us/core/StructureDefinition/us-core-race","extension":[{"url":"ombCategory","valueCoding":{"system":"urn:oid:2.16.840.1.113883.6.238","code":"2076-8","display":"Native Hawaiian or Other Pacific Islander","userSelected":true}},{"url":"text","valueString":"Native Hawaiian or Other Pacific Islander"}]},{"url":"http://hl7.org/fhir/us/core/StructureDefinition/us-core-ethnicity","extension":[{"url":"ombCategory","valueCoding":{"system":"urn:oid:2.16.840.1.113883.6.238","code":"2186-5","display":"Not Hispanic or Latino","userSelected":true}},{"url":"text","valueString":"Not Hispanic or Latino"}]},{"url":"http://hl7.org/fhir/us/core/StructureDefinition/us-core-sex","valueCode":"248152002"}],"identifier":[{"type":{"coding":[{"system":"http://terminology.hl7.org/CodeSystem/v2-0203","code":"MR"}]},"system":"https://bonnie-fhir.healthit.gov/","value":"617be86a1619a529957d62b9"}],"name":[{"family":"DenExcl7Fail","given":["DxStartsBeforeEndsBefore90dayPeriod"]}],"gender":"female","birthDate":"1985-12-02"},"request":{"method":"PUT","url":"Patient/cffad22d-5ac8-40a2-a677-a746687b0744"}}]}