{"resourceType":"Bundle","id":"tests-7edab122-3af3-4172-9231-7c1470ecc1e0-bundle","type":"transaction","entry":[{"fullUrl":"Patient/7edab122-3af3-4172-9231-7c1470ecc1e0","resource":{"resourceType":"Patient","id":"7edab122-3af3-4172-9231-7c1470ecc1e0","meta":{"profile":["http://hl7.org/fhir/us/qicore/StructureDefinition/qicore-patient"]},"extension":[{"url":"http://hl7.org/fhir/us/core/StructureDefinition/us-core-race","extension":[{"url":"ombCategory","valueCoding":{"system":"urn:oid:2.16.840.1.113883.6.238","code":"2028-9","display":"Asian","userSelected":true}},{"url":"text","valueString":"Asian"}]},{"url":"http://hl7.org/fhir/us/core/StructureDefinition/us-core-ethnicity","extension":[{"url":"ombCategory","valueCoding":{"system":"urn:oid:2.16.840.1.113883.6.238","code":"2186-5","display":"Not Hispanic or Latino","userSelected":true}},{"url":"text","valueString":"Not Hispanic or Latino"}]},{"url":"http://hl7.org/fhir/us/core/StructureDefinition/us-core-sex","valueCode":"248152002"}],"identifier":[{"type":{"coding":[{"system":"http://terminology.hl7.org/CodeSystem/v2-0203","code":"MR"}]},"system":"https://bonnie-fhir.healthit.gov/","value":"h1f044ef3e654daa9111"}],"name":[{"family":"DENEXCEP2PASS","given":["PCIRefusalDuringED"]}],"gender":"female","birthDate":"1979-11-16"},"request":{"method":"PUT","url":"Patient/7edab122-3af3-4172-9231-7c1470ecc1e0"}},{"fullUrl":"Encounter/e54113ff-3329-4e30-be45-5bfaaabf560b","resource":{"resourceType":"Encounter","id":"e54113ff-3329-4e30-be45-5bfaaabf560b","meta":{"profile":["http://hl7.org/fhir/us/qicore/StructureDefinition/qicore-encounter"]},"status":"finished","class":{"system":"http://terminology.hl7.org/CodeSystem/v3-ActCode","code":"EMER","display":"emergency","userSelected":true},"type":[{"coding":[{"system":"http://snomed.info/sct","version":"2020-09","code":"4525004","display":"Emergency department patient visit","userSelected":true}]}],"subject":{"reference":"Patient/7edab122-3af3-4172-9231-7c1470ecc1e0"},"period":{"start":"2026-10-09T05:00:00.000+00:00","end":"2026-10-13T17:00:00.000+00:00"},"reasonReference":[{"reference":"Condition/95a6e1ad-4650-4785-84eb-73e49b603046"}]},"request":{"method":"PUT","url":"Encounter/e54113ff-3329-4e30-be45-5bfaaabf560b"}},{"fullUrl":"MeasureReport/fed34624-88a1-4673-a5cb-4108c23009ee","resource":{"resourceType":"MeasureReport","id":"fed34624-88a1-4673-a5cb-4108c23009ee","meta":{"profile":["http://hl7.org/fhir/us/cqfmeasures/StructureDefinition/test-case-cqfm"]},"contained":[{"resourceType":"Parameters","id":"62cf0e40-b7da-442d-8351-a027e88ac9e5-parameters","parameter":[{"name":"subject","valueString":"7edab122-3af3-4172-9231-7c1470ecc1e0"}]}],"extension":[{"url":"http://hl7.org/fhir/StructureDefinition/cqf-inputParameters","valueReference":{"reference":"#62cf0e40-b7da-442d-8351-a027e88ac9e5-parameters"}},{"url":"http://hl7.org/fhir/us/cqfmeasures/StructureDefinition/cqfm-testCaseDescription","valueMarkdown":"Patient has PCI in ED but refuses treatment during ED"}],"modifierExtension":[{"url":"http://hl7.org/fhir/us/cqfmeasures/StructureDefinition/cqfm-isTestCase","valueBoolean":true}],"status":"complete","type":"individual","measure":"https://madie.cms.gov/Measure/CMS996FHIRAptTxforSTEMI","period":{"start":"2026-01-01","end":"2026-12-31"},"group":[{"id":"Group_1","population":[{"id":"InitialPopulation_1","code":{"coding":[{"system":"http://terminology.hl7.org/CodeSystem/measure-population","code":"initial-population","display":"Initial Population"}]},"count":1},{"id":"Denominator_1","code":{"coding":[{"system":"http://terminology.hl7.org/CodeSystem/measure-population","code":"denominator","display":"Denominator"}]},"count":1},{"id":"DenominatorExclusion_1","code":{"coding":[{"system":"http://terminology.hl7.org/CodeSystem/measure-population","code":"denominator-exclusion","display":"Denominator Exclusion"}]},"count":0},{"id":"Numerator_1","code":{"coding":[{"system":"http://terminology.hl7.org/CodeSystem/measure-population","code":"numerator","display":"Numerator"}]},"count":0},{"id":"DenominatorException_1","code":{"coding":[{"system":"http://terminology.hl7.org/CodeSystem/measure-population","code":"denominator-exception","display":"Denominator Exception"}]},"count":1}],"measureScore":{"value":0.0}}],"evaluatedResource":[{"reference":"Patient/7edab122-3af3-4172-9231-7c1470ecc1e0"},{"reference":"Encounter/e54113ff-3329-4e30-be45-5bfaaabf560b"},{"reference":"Condition/95a6e1ad-4650-4785-84eb-73e49b603046"},{"reference":"Procedure/746fcfde-2076-459f-b281-cc6fc15b37e0"}]},"request":{"method":"PUT","url":"MeasureReport/fed34624-88a1-4673-a5cb-4108c23009ee"}},{"fullUrl":"Procedure/746fcfde-2076-459f-b281-cc6fc15b37e0","resource":{"resourceType":"Procedure","id":"746fcfde-2076-459f-b281-cc6fc15b37e0","meta":{"profile":["http://hl7.org/fhir/us/qicore/StructureDefinition/qicore-procedurenotdone"]},"extension":[{"url":"http://hl7.org/fhir/us/qicore/StructureDefinition/qicore-recorded","valueDateTime":"2026-10-09T09:36:00.000+00:00"}],"status":"not-done","statusReason":{"coding":[{"system":"http://snomed.info/sct","code":"443390004","display":"Refused (qualifier value)","userSelected":true}]},"code":{"coding":[{"system":"http://www.cms.gov/Medicare/Coding/ICD10","code":"0270346","display":"Dilation of Coronary Artery, One Artery, Bifurcation, with Drug-eluting Intraluminal Device, Percutaneous Approach","userSelected":true}]},"subject":{"reference":"Patient/7edab122-3af3-4172-9231-7c1470ecc1e0"},"_performedDateTime":{"extension":[{"url":"http://hl7.org/fhir/StructureDefinition/data-absent-reason","valueCode":"not-performed"}]}},"request":{"method":"PUT","url":"Procedure/746fcfde-2076-459f-b281-cc6fc15b37e0"}},{"fullUrl":"Condition/95a6e1ad-4650-4785-84eb-73e49b603046","resource":{"resourceType":"Condition","id":"95a6e1ad-4650-4785-84eb-73e49b603046","meta":{"profile":["http://hl7.org/fhir/us/qicore/StructureDefinition/qicore-condition-encounter-diagnosis"]},"clinicalStatus":{"coding":[{"system":"http://terminology.hl7.org/CodeSystem/condition-clinical","code":"active","display":"Active","userSelected":true}]},"category":[{"coding":[{"system":"http://terminology.hl7.org/CodeSystem/condition-category","code":"encounter-diagnosis","display":"Encounter Diagnosis","userSelected":true}]}],"code":{"coding":[{"system":"http://hl7.org/fhir/sid/icd-10-cm","code":"I21.21","display":"ST elevation (STEMI) myocardial infarction involving left circumflex coronary artery","userSelected":true}]},"subject":{"reference":"Patient/7edab122-3af3-4172-9231-7c1470ecc1e0"},"encounter":{"reference":"Encounter/e54113ff-3329-4e30-be45-5bfaaabf560b"},"onsetPeriod":{"start":"2026-10-09T05:00:00.000+00:00","end":"2026-10-09T17:00:00.000+00:00"}},"request":{"method":"PUT","url":"Condition/95a6e1ad-4650-4785-84eb-73e49b603046"}},{"fullUrl":"Bundle/h1f044ef3e654daa9111","resource":{"resourceType":"Bundle","id":"h1f044ef3e654daa9111","type":"transaction","entry":[{"fullUrl":"https://madie.cms.gov/Patient/7edab122-3af3-4172-9231-7c1470ecc1e0","resource":{"resourceType":"Patient","id":"7edab122-3af3-4172-9231-7c1470ecc1e0","meta":{"profile":["http://hl7.org/fhir/us/qicore/StructureDefinition/qicore-patient"]},"extension":[{"url":"http://hl7.org/fhir/us/core/StructureDefinition/us-core-race","extension":[{"url":"ombCategory","valueCoding":{"system":"urn:oid:2.16.840.1.113883.6.238","code":"2028-9","display":"Asian","userSelected":true}},{"url":"text","valueString":"Asian"}]},{"url":"http://hl7.org/fhir/us/core/StructureDefinition/us-core-ethnicity","extension":[{"url":"ombCategory","valueCoding":{"system":"urn:oid:2.16.840.1.113883.6.238","code":"2186-5","display":"Not Hispanic or Latino","userSelected":true}},{"url":"text","valueString":"Not Hispanic or Latino"}]},{"url":"http://hl7.org/fhir/us/core/StructureDefinition/us-core-sex","valueCode":"248152002"}],"identifier":[{"type":{"coding":[{"system":"http://terminology.hl7.org/CodeSystem/v2-0203","code":"MR"}]},"system":"https://bonnie-fhir.healthit.gov/","value":"h1f044ef3e654daa9111"}],"name":[{"family":"DENEXCEP2PASS","given":["PCIRefusalDuringED"]}],"gender":"female","birthDate":"1979-11-16"},"request":{"method":"PUT","url":"Patient/7edab122-3af3-4172-9231-7c1470ecc1e0"}},{"fullUrl":"https://madie.cms.gov/Encounter/e54113ff-3329-4e30-be45-5bfaaabf560b","resource":{"resourceType":"Encounter","id":"e54113ff-3329-4e30-be45-5bfaaabf560b","meta":{"profile":["http://hl7.org/fhir/us/qicore/StructureDefinition/qicore-encounter"]},"status":"finished","class":{"system":"http://terminology.hl7.org/CodeSystem/v3-ActCode","code":"EMER","display":"emergency","userSelected":true},"type":[{"coding":[{"system":"http://snomed.info/sct","version":"2020-09","code":"4525004","display":"Emergency department patient visit","userSelected":true}]}],"subject":{"reference":"Patient/7edab122-3af3-4172-9231-7c1470ecc1e0"},"period":{"start":"2026-10-09T05:00:00.000+00:00","end":"2026-10-13T17:00:00.000+00:00"},"reasonReference":[{"reference":"Condition/95a6e1ad-4650-4785-84eb-73e49b603046"}]},"request":{"method":"PUT","url":"Encounter/e54113ff-3329-4e30-be45-5bfaaabf560b"}},{"fullUrl":"https://madie.cms.gov/Condition/95a6e1ad-4650-4785-84eb-73e49b603046","resource":{"resourceType":"Condition","id":"95a6e1ad-4650-4785-84eb-73e49b603046","meta":{"profile":["http://hl7.org/fhir/us/qicore/StructureDefinition/qicore-condition-encounter-diagnosis"]},"clinicalStatus":{"coding":[{"system":"http://terminology.hl7.org/CodeSystem/condition-clinical","code":"active","display":"Active","userSelected":true}]},"category":[{"coding":[{"system":"http://terminology.hl7.org/CodeSystem/condition-category","code":"encounter-diagnosis","display":"Encounter Diagnosis","userSelected":true}]}],"code":{"coding":[{"system":"http://hl7.org/fhir/sid/icd-10-cm","code":"I21.21","display":"ST elevation (STEMI) myocardial infarction involving left circumflex coronary artery","userSelected":true}]},"subject":{"reference":"Patient/7edab122-3af3-4172-9231-7c1470ecc1e0"},"encounter":{"reference":"Encounter/e54113ff-3329-4e30-be45-5bfaaabf560b"},"onsetPeriod":{"start":"2026-10-09T05:00:00.000+00:00","end":"2026-10-09T17:00:00.000+00:00"}},"request":{"method":"PUT","url":"Condition/95a6e1ad-4650-4785-84eb-73e49b603046"}},{"fullUrl":"https://madie.cms.gov/Procedure/746fcfde-2076-459f-b281-cc6fc15b37e0","resource":{"resourceType":"Procedure","id":"746fcfde-2076-459f-b281-cc6fc15b37e0","meta":{"profile":["http://hl7.org/fhir/us/qicore/StructureDefinition/qicore-procedurenotdone"]},"extension":[{"url":"http://hl7.org/fhir/us/qicore/StructureDefinition/qicore-recorded","valueDateTime":"2026-10-09T09:36:00.000+00:00"}],"status":"not-done","statusReason":{"coding":[{"system":"http://snomed.info/sct","code":"443390004","display":"Refused (qualifier value)","userSelected":true}]},"code":{"coding":[{"system":"http://www.cms.gov/Medicare/Coding/ICD10","code":"0270346","display":"Dilation of Coronary Artery, One Artery, Bifurcation, with Drug-eluting Intraluminal Device, Percutaneous Approach","userSelected":true}]},"subject":{"reference":"Patient/7edab122-3af3-4172-9231-7c1470ecc1e0"},"_performedDateTime":{"extension":[{"url":"http://hl7.org/fhir/StructureDefinition/data-absent-reason","valueCode":"not-performed"}]}},"request":{"method":"PUT","url":"Procedure/746fcfde-2076-459f-b281-cc6fc15b37e0"}},{"fullUrl":"https://madie.cms.gov/MeasureReport/fed34624-88a1-4673-a5cb-4108c23009ee","resource":{"resourceType":"MeasureReport","id":"fed34624-88a1-4673-a5cb-4108c23009ee","meta":{"profile":["http://hl7.org/fhir/us/cqfmeasures/StructureDefinition/test-case-cqfm"]},"contained":[{"resourceType":"Parameters","id":"62cf0e40-b7da-442d-8351-a027e88ac9e5-parameters","parameter":[{"name":"subject","valueString":"7edab122-3af3-4172-9231-7c1470ecc1e0"}]}],"extension":[{"url":"http://hl7.org/fhir/StructureDefinition/cqf-inputParameters","valueReference":{"reference":"#62cf0e40-b7da-442d-8351-a027e88ac9e5-parameters"}},{"url":"http://hl7.org/fhir/us/cqfmeasures/StructureDefinition/cqfm-testCaseDescription","valueMarkdown":"Patient has PCI in ED but refuses treatment during ED"}],"modifierExtension":[{"url":"http://hl7.org/fhir/us/cqfmeasures/StructureDefinition/cqfm-isTestCase","valueBoolean":true}],"status":"complete","type":"individual","measure":"https://madie.cms.gov/Measure/CMS996FHIRAptTxforSTEMI","period":{"start":"2026-01-01","end":"2026-12-31"},"group":[{"id":"Group_1","population":[{"id":"InitialPopulation_1","code":{"coding":[{"system":"http://terminology.hl7.org/CodeSystem/measure-population","code":"initial-population","display":"Initial Population"}]},"count":1},{"id":"Denominator_1","code":{"coding":[{"system":"http://terminology.hl7.org/CodeSystem/measure-population","code":"denominator","display":"Denominator"}]},"count":1},{"id":"DenominatorExclusion_1","code":{"coding":[{"system":"http://terminology.hl7.org/CodeSystem/measure-population","code":"denominator-exclusion","display":"Denominator Exclusion"}]},"count":0},{"id":"Numerator_1","code":{"coding":[{"system":"http://terminology.hl7.org/CodeSystem/measure-population","code":"numerator","display":"Numerator"}]},"count":0},{"id":"DenominatorException_1","code":{"coding":[{"system":"http://terminology.hl7.org/CodeSystem/measure-population","code":"denominator-exception","display":"Denominator Exception"}]},"count":1}],"measureScore":{"value":0.0}}],"evaluatedResource":[{"reference":"Patient/7edab122-3af3-4172-9231-7c1470ecc1e0"},{"reference":"Encounter/e54113ff-3329-4e30-be45-5bfaaabf560b"},{"reference":"Condition/95a6e1ad-4650-4785-84eb-73e49b603046"},{"reference":"Procedure/746fcfde-2076-459f-b281-cc6fc15b37e0"}]},"request":{"method":"PUT","url":"MeasureReport/fed34624-88a1-4673-a5cb-4108c23009ee"}}]},"request":{"method":"PUT","url":"Bundle/h1f044ef3e654daa9111"}}]}