{"resourceType":"Bundle","id":"tests-e592576b-4078-4793-b3d2-0b7256f306a3-bundle","type":"transaction","entry":[{"resource":{"resourceType":"Encounter","id":"0f0d115f-b4c0-42bd-a199-e5a0fcd92661","meta":{"profile":["http://hl7.org/fhir/us/qicore/StructureDefinition/qicore-encounter"]},"status":"finished","class":{"system":"http://terminology.hl7.org/CodeSystem/v3-ActCode","code":"EMER","display":"emergency","userSelected":true},"type":[{"coding":[{"system":"http://snomed.info/sct","version":"2020-09","code":"4525004","display":"Emergency department patient visit (procedure)","userSelected":true}]}],"subject":{"reference":"Patient/e592576b-4078-4793-b3d2-0b7256f306a3"},"period":{"start":"2026-10-09T08:05:00.000+00:00","end":"2026-10-10T07:15:00.000+00:00"},"reasonCode":[{"coding":[{"system":"http://snomed.info/sct","version":"2020-09","code":"703211006","display":"Subsequent ST segment elevation myocardial infarction (disorder)","userSelected":true}]}]},"request":{"method":"PUT","url":"Encounter/0f0d115f-b4c0-42bd-a199-e5a0fcd92661"}},{"resource":{"resourceType":"MeasureReport","id":"93162c63-ef2a-48e9-9ca0-99fe89cd946e","meta":{"profile":["http://hl7.org/fhir/us/cqfmeasures/StructureDefinition/test-case-cqfm"]},"contained":[{"resourceType":"Parameters","id":"bfbef00e-10ae-444a-bbb3-9f89ea8bb875-parameters","parameter":[{"name":"subject","valueString":"e592576b-4078-4793-b3d2-0b7256f306a3"}]}],"extension":[{"url":"http://hl7.org/fhir/StructureDefinition/cqf-inputParameters","valueReference":{"reference":"#bfbef00e-10ae-444a-bbb3-9f89ea8bb875-parameters"}},{"url":"http://hl7.org/fhir/us/cqfmeasures/StructureDefinition/cqfm-testCaseDescription","valueMarkdown":"Patient has allergy to medication ingredient starts during and ends during ED"}],"modifierExtension":[{"url":"http://hl7.org/fhir/us/cqfmeasures/StructureDefinition/cqfm-isTestCase","valueBoolean":true}],"status":"complete","type":"individual","measure":"https://madie.cms.gov/Measure/CMS996FHIRAptTxforSTEMI","period":{"start":"2026-01-01","end":"2026-12-31"},"group":[{"id":"Group_1","population":[{"id":"InitialPopulation_1","code":{"coding":[{"system":"http://terminology.hl7.org/CodeSystem/measure-population","code":"initial-population","display":"Initial Population"}]},"count":1},{"id":"Denominator_1","code":{"coding":[{"system":"http://terminology.hl7.org/CodeSystem/measure-population","code":"denominator","display":"Denominator"}]},"count":1},{"id":"DenominatorExclusion_1","code":{"coding":[{"system":"http://terminology.hl7.org/CodeSystem/measure-population","code":"denominator-exclusion","display":"Denominator Exclusion"}]},"count":1},{"id":"Numerator_1","code":{"coding":[{"system":"http://terminology.hl7.org/CodeSystem/measure-population","code":"numerator","display":"Numerator"}]},"count":0},{"id":"DenominatorException_1","code":{"coding":[{"system":"http://terminology.hl7.org/CodeSystem/measure-population","code":"denominator-exception","display":"Denominator Exception"}]},"count":0}],"measureScore":{"value":0.0}}],"evaluatedResource":[{"reference":"Patient/e592576b-4078-4793-b3d2-0b7256f306a3"},{"reference":"Encounter/0f0d115f-b4c0-42bd-a199-e5a0fcd92661"},{"reference":"AllergyIntolerance/d761be34-7fc0-4def-bd57-22e3a25b4a7b"}]},"request":{"method":"PUT","url":"MeasureReport/93162c63-ef2a-48e9-9ca0-99fe89cd946e"}},{"resource":{"resourceType":"Patient","id":"e592576b-4078-4793-b3d2-0b7256f306a3","meta":{"profile":["http://hl7.org/fhir/us/qicore/StructureDefinition/qicore-patient"]},"extension":[{"url":"http://hl7.org/fhir/us/core/StructureDefinition/us-core-race","extension":[{"url":"ombCategory","valueCoding":{"system":"urn:oid:2.16.840.1.113883.6.238","code":"2028-9","display":"Asian","userSelected":true}},{"url":"text","valueString":"Asian"}]},{"url":"http://hl7.org/fhir/us/core/StructureDefinition/us-core-ethnicity","extension":[{"url":"ombCategory","valueCoding":{"system":"urn:oid:2.16.840.1.113883.6.238","code":"2135-2","display":"Hispanic or Latino","userSelected":true}},{"url":"text","valueString":"Hispanic or Latino"}]},{"url":"http://hl7.org/fhir/us/core/StructureDefinition/us-core-sex","valueCode":"248153007"}],"identifier":[{"type":{"coding":[{"system":"http://terminology.hl7.org/CodeSystem/v2-0203","code":"MR"}]},"system":"https://bonnie-fhir.healthit.gov/","value":"617bf3e61619a529957d62cc"}],"name":[{"family":"DenExcl8Fail","given":["AllergyStartsDuringEndsDuringED"]}],"gender":"male","birthDate":"1985-12-02"},"request":{"method":"PUT","url":"Patient/e592576b-4078-4793-b3d2-0b7256f306a3"}},{"resource":{"resourceType":"Bundle","id":"617bf3e61619a529957d62cc","type":"transaction","entry":[{"fullUrl":"https://madie.cms.gov/Patient/e592576b-4078-4793-b3d2-0b7256f306a3","resource":{"resourceType":"Patient","id":"e592576b-4078-4793-b3d2-0b7256f306a3","meta":{"profile":["http://hl7.org/fhir/us/qicore/StructureDefinition/qicore-patient"]},"extension":[{"url":"http://hl7.org/fhir/us/core/StructureDefinition/us-core-race","extension":[{"url":"ombCategory","valueCoding":{"system":"urn:oid:2.16.840.1.113883.6.238","code":"2028-9","display":"Asian","userSelected":true}},{"url":"text","valueString":"Asian"}]},{"url":"http://hl7.org/fhir/us/core/StructureDefinition/us-core-ethnicity","extension":[{"url":"ombCategory","valueCoding":{"system":"urn:oid:2.16.840.1.113883.6.238","code":"2135-2","display":"Hispanic or Latino","userSelected":true}},{"url":"text","valueString":"Hispanic or Latino"}]},{"url":"http://hl7.org/fhir/us/core/StructureDefinition/us-core-sex","valueCode":"248153007"}],"identifier":[{"type":{"coding":[{"system":"http://terminology.hl7.org/CodeSystem/v2-0203","code":"MR"}]},"system":"https://bonnie-fhir.healthit.gov/","value":"617bf3e61619a529957d62cc"}],"name":[{"family":"DenExcl8Fail","given":["AllergyStartsDuringEndsDuringED"]}],"gender":"male","birthDate":"1985-12-02"},"request":{"method":"PUT","url":"Patient/e592576b-4078-4793-b3d2-0b7256f306a3"}},{"fullUrl":"https://madie.cms.gov/Encounter/0f0d115f-b4c0-42bd-a199-e5a0fcd92661","resource":{"resourceType":"Encounter","id":"0f0d115f-b4c0-42bd-a199-e5a0fcd92661","meta":{"profile":["http://hl7.org/fhir/us/qicore/StructureDefinition/qicore-encounter"]},"status":"finished","class":{"system":"http://terminology.hl7.org/CodeSystem/v3-ActCode","code":"EMER","display":"emergency","userSelected":true},"type":[{"coding":[{"system":"http://snomed.info/sct","version":"2020-09","code":"4525004","display":"Emergency department patient visit (procedure)","userSelected":true}]}],"subject":{"reference":"Patient/e592576b-4078-4793-b3d2-0b7256f306a3"},"period":{"start":"2026-10-09T08:05:00.000+00:00","end":"2026-10-10T07:15:00.000+00:00"},"reasonCode":[{"coding":[{"system":"http://snomed.info/sct","version":"2020-09","code":"703211006","display":"Subsequent ST segment elevation myocardial infarction (disorder)","userSelected":true}]}]},"request":{"method":"PUT","url":"Encounter/0f0d115f-b4c0-42bd-a199-e5a0fcd92661"}},{"fullUrl":"https://madie.cms.gov/AllergyIntolerance/d761be34-7fc0-4def-bd57-22e3a25b4a7b","resource":{"resourceType":"AllergyIntolerance","id":"d761be34-7fc0-4def-bd57-22e3a25b4a7b","meta":{"profile":["http://hl7.org/fhir/us/qicore/StructureDefinition/qicore-allergyintolerance"]},"clinicalStatus":{"coding":[{"system":"http://terminology.hl7.org/CodeSystem/allergyintolerance-clinical","code":"active","display":"Active","userSelected":true}]},"code":{"coding":[{"system":"http://www.nlm.nih.gov/research/umls/rxnorm","version":"2021-01","code":"10106","display":"streptokinase","userSelected":true}]},"patient":{"reference":"Patient/e592576b-4078-4793-b3d2-0b7256f306a3"},"onsetPeriod":{"start":"2026-10-09T08:30:00.000+00:00","end":"2026-10-09T10:15:00.000+00:00"}},"request":{"method":"PUT","url":"AllergyIntolerance/d761be34-7fc0-4def-bd57-22e3a25b4a7b"}},{"fullUrl":"https://madie.cms.gov/MeasureReport/93162c63-ef2a-48e9-9ca0-99fe89cd946e","resource":{"resourceType":"MeasureReport","id":"93162c63-ef2a-48e9-9ca0-99fe89cd946e","meta":{"profile":["http://hl7.org/fhir/us/cqfmeasures/StructureDefinition/test-case-cqfm"]},"contained":[{"resourceType":"Parameters","id":"bfbef00e-10ae-444a-bbb3-9f89ea8bb875-parameters","parameter":[{"name":"subject","valueString":"e592576b-4078-4793-b3d2-0b7256f306a3"}]}],"extension":[{"url":"http://hl7.org/fhir/StructureDefinition/cqf-inputParameters","valueReference":{"reference":"#bfbef00e-10ae-444a-bbb3-9f89ea8bb875-parameters"}},{"url":"http://hl7.org/fhir/us/cqfmeasures/StructureDefinition/cqfm-testCaseDescription","valueMarkdown":"Patient has allergy to medication ingredient starts during and ends during ED"}],"modifierExtension":[{"url":"http://hl7.org/fhir/us/cqfmeasures/StructureDefinition/cqfm-isTestCase","valueBoolean":true}],"status":"complete","type":"individual","measure":"https://madie.cms.gov/Measure/CMS996FHIRAptTxforSTEMI","period":{"start":"2026-01-01","end":"2026-12-31"},"group":[{"id":"Group_1","population":[{"id":"InitialPopulation_1","code":{"coding":[{"system":"http://terminology.hl7.org/CodeSystem/measure-population","code":"initial-population","display":"Initial Population"}]},"count":1},{"id":"Denominator_1","code":{"coding":[{"system":"http://terminology.hl7.org/CodeSystem/measure-population","code":"denominator","display":"Denominator"}]},"count":1},{"id":"DenominatorExclusion_1","code":{"coding":[{"system":"http://terminology.hl7.org/CodeSystem/measure-population","code":"denominator-exclusion","display":"Denominator Exclusion"}]},"count":1},{"id":"Numerator_1","code":{"coding":[{"system":"http://terminology.hl7.org/CodeSystem/measure-population","code":"numerator","display":"Numerator"}]},"count":0},{"id":"DenominatorException_1","code":{"coding":[{"system":"http://terminology.hl7.org/CodeSystem/measure-population","code":"denominator-exception","display":"Denominator Exception"}]},"count":0}],"measureScore":{"value":0.0}}],"evaluatedResource":[{"reference":"Patient/e592576b-4078-4793-b3d2-0b7256f306a3"},{"reference":"Encounter/0f0d115f-b4c0-42bd-a199-e5a0fcd92661"},{"reference":"AllergyIntolerance/d761be34-7fc0-4def-bd57-22e3a25b4a7b"}]},"request":{"method":"PUT","url":"MeasureReport/93162c63-ef2a-48e9-9ca0-99fe89cd946e"}}]},"request":{"method":"PUT","url":"Bundle/617bf3e61619a529957d62cc"}},{"resource":{"resourceType":"AllergyIntolerance","id":"d761be34-7fc0-4def-bd57-22e3a25b4a7b","meta":{"profile":["http://hl7.org/fhir/us/qicore/StructureDefinition/qicore-allergyintolerance"]},"clinicalStatus":{"coding":[{"system":"http://terminology.hl7.org/CodeSystem/allergyintolerance-clinical","code":"active","display":"Active","userSelected":true}]},"code":{"coding":[{"system":"http://www.nlm.nih.gov/research/umls/rxnorm","version":"2021-01","code":"10106","display":"streptokinase","userSelected":true}]},"patient":{"reference":"Patient/e592576b-4078-4793-b3d2-0b7256f306a3"},"onsetPeriod":{"start":"2026-10-09T08:30:00.000+00:00","end":"2026-10-09T10:15:00.000+00:00"}},"request":{"method":"PUT","url":"AllergyIntolerance/d761be34-7fc0-4def-bd57-22e3a25b4a7b"}}]}