{"resourceType":"Bundle","id":"tests-5230ea22-66f1-4132-9acf-0e810f578472-bundle","type":"transaction","entry":[{"fullUrl":"Bundle/617bfb091289f5673c8ceffb","resource":{"resourceType":"Bundle","id":"617bfb091289f5673c8ceffb","type":"transaction","entry":[{"fullUrl":"https://madie.cms.gov/Patient/5230ea22-66f1-4132-9acf-0e810f578472","resource":{"resourceType":"Patient","id":"5230ea22-66f1-4132-9acf-0e810f578472","meta":{"profile":["http://hl7.org/fhir/us/qicore/StructureDefinition/qicore-patient"]},"extension":[{"url":"http://hl7.org/fhir/us/core/StructureDefinition/us-core-race","extension":[{"url":"ombCategory","valueCoding":{"system":"urn:oid:2.16.840.1.113883.6.238","code":"2076-8","display":"Native Hawaiian or Other Pacific Islander","userSelected":true}},{"url":"text","valueString":"Native Hawaiian or Other Pacific Islander"}]},{"url":"http://hl7.org/fhir/us/core/StructureDefinition/us-core-ethnicity","extension":[{"url":"ombCategory","valueCoding":{"system":"urn:oid:2.16.840.1.113883.6.238","code":"2135-2","display":"Hispanic or Latino","userSelected":true}},{"url":"text","valueString":"Hispanic or Latino"}]},{"url":"http://hl7.org/fhir/us/core/StructureDefinition/us-core-sex","valueCode":"248152002"}],"identifier":[{"type":{"coding":[{"system":"http://terminology.hl7.org/CodeSystem/v2-0203","code":"MR"}]},"system":"https://bonnie-fhir.healthit.gov/","value":"617bfb091289f5673c8ceffb"}],"name":[{"family":"DenExcl9Pass","given":["AdverseEventStartsBeforeEDStart"]}],"gender":"female","birthDate":"1985-12-02"},"request":{"method":"PUT","url":"Patient/5230ea22-66f1-4132-9acf-0e810f578472"}},{"fullUrl":"https://madie.cms.gov/Encounter/4a8dcbae-67bd-44e7-b4eb-2a2562a6a6e2","resource":{"resourceType":"Encounter","id":"4a8dcbae-67bd-44e7-b4eb-2a2562a6a6e2","meta":{"profile":["http://hl7.org/fhir/us/qicore/StructureDefinition/qicore-encounter"]},"status":"finished","class":{"system":"http://terminology.hl7.org/CodeSystem/v3-ActCode","code":"EMER","display":"emergency","userSelected":true},"type":[{"coding":[{"system":"http://snomed.info/sct","version":"2020-09","code":"4525004","display":"Emergency department patient visit (procedure)","userSelected":true}]}],"subject":{"reference":"Patient/5230ea22-66f1-4132-9acf-0e810f578472"},"period":{"start":"2026-10-09T08:05:00.000+00:00","end":"2026-10-10T07:15:00.000+00:00"},"reasonCode":[{"coding":[{"system":"http://hl7.org/fhir/sid/icd-10-cm","version":"2021","code":"I21.21","display":"ST elevation (STEMI) myocardial infarction involving left circumflex coronary artery","userSelected":true}]}]},"request":{"method":"PUT","url":"Encounter/4a8dcbae-67bd-44e7-b4eb-2a2562a6a6e2"}},{"fullUrl":"https://madie.cms.gov/AdverseEvent/54a1af77-2819-495c-a488-c0626d289ef7","resource":{"resourceType":"AdverseEvent","id":"54a1af77-2819-495c-a488-c0626d289ef7","meta":{"profile":["http://hl7.org/fhir/us/qicore/StructureDefinition/qicore-adverseevent"]},"actuality":"actual","event":{"coding":[{"system":"http://snomed.info/sct","version":"2020-09","code":"293572000","display":"Urokinase adverse reaction (disorder)","userSelected":true}]},"subject":{"reference":"Patient/5230ea22-66f1-4132-9acf-0e810f578472"},"recordedDate":"2026-10-08T08:00:00.000+00:00"},"request":{"method":"PUT","url":"AdverseEvent/54a1af77-2819-495c-a488-c0626d289ef7"}},{"fullUrl":"https://madie.cms.gov/MeasureReport/782309ee-43ed-4f5b-9842-fd5bad91403f","resource":{"resourceType":"MeasureReport","id":"782309ee-43ed-4f5b-9842-fd5bad91403f","meta":{"profile":["http://hl7.org/fhir/us/cqfmeasures/StructureDefinition/test-case-cqfm"]},"contained":[{"resourceType":"Parameters","id":"052e9fd6-2d20-48a7-9371-46a444af7dec-parameters","parameter":[{"name":"subject","valueString":"5230ea22-66f1-4132-9acf-0e810f578472"}]}],"extension":[{"url":"http://hl7.org/fhir/StructureDefinition/cqf-inputParameters","valueReference":{"reference":"#052e9fd6-2d20-48a7-9371-46a444af7dec-parameters"}},{"url":"http://hl7.org/fhir/us/cqfmeasures/StructureDefinition/cqfm-testCaseDescription","valueMarkdown":"Patient has adverse event starts before start of ED"}],"modifierExtension":[{"url":"http://hl7.org/fhir/us/cqfmeasures/StructureDefinition/cqfm-isTestCase","valueBoolean":true}],"status":"complete","type":"individual","measure":"https://madie.cms.gov/Measure/CMS996FHIRAptTxforSTEMI","period":{"start":"2026-01-01","end":"2026-12-31"},"group":[{"id":"Group_1","population":[{"id":"InitialPopulation_1","code":{"coding":[{"system":"http://terminology.hl7.org/CodeSystem/measure-population","code":"initial-population","display":"Initial Population"}]},"count":1},{"id":"Denominator_1","code":{"coding":[{"system":"http://terminology.hl7.org/CodeSystem/measure-population","code":"denominator","display":"Denominator"}]},"count":1},{"id":"DenominatorExclusion_1","code":{"coding":[{"system":"http://terminology.hl7.org/CodeSystem/measure-population","code":"denominator-exclusion","display":"Denominator Exclusion"}]},"count":1},{"id":"Numerator_1","code":{"coding":[{"system":"http://terminology.hl7.org/CodeSystem/measure-population","code":"numerator","display":"Numerator"}]},"count":0},{"id":"DenominatorException_1","code":{"coding":[{"system":"http://terminology.hl7.org/CodeSystem/measure-population","code":"denominator-exception","display":"Denominator Exception"}]},"count":0}],"measureScore":{"value":0.0}}],"evaluatedResource":[{"reference":"Patient/5230ea22-66f1-4132-9acf-0e810f578472"},{"reference":"Encounter/4a8dcbae-67bd-44e7-b4eb-2a2562a6a6e2"},{"reference":"AdverseEvent/54a1af77-2819-495c-a488-c0626d289ef7"}]},"request":{"method":"PUT","url":"MeasureReport/782309ee-43ed-4f5b-9842-fd5bad91403f"}}]},"request":{"method":"PUT","url":"Bundle/617bfb091289f5673c8ceffb"}},{"fullUrl":"MeasureReport/782309ee-43ed-4f5b-9842-fd5bad91403f","resource":{"resourceType":"MeasureReport","id":"782309ee-43ed-4f5b-9842-fd5bad91403f","meta":{"profile":["http://hl7.org/fhir/us/cqfmeasures/StructureDefinition/test-case-cqfm"]},"contained":[{"resourceType":"Parameters","id":"052e9fd6-2d20-48a7-9371-46a444af7dec-parameters","parameter":[{"name":"subject","valueString":"5230ea22-66f1-4132-9acf-0e810f578472"}]}],"extension":[{"url":"http://hl7.org/fhir/StructureDefinition/cqf-inputParameters","valueReference":{"reference":"#052e9fd6-2d20-48a7-9371-46a444af7dec-parameters"}},{"url":"http://hl7.org/fhir/us/cqfmeasures/StructureDefinition/cqfm-testCaseDescription","valueMarkdown":"Patient has adverse event starts before start of ED"}],"modifierExtension":[{"url":"http://hl7.org/fhir/us/cqfmeasures/StructureDefinition/cqfm-isTestCase","valueBoolean":true}],"status":"complete","type":"individual","measure":"https://madie.cms.gov/Measure/CMS996FHIRAptTxforSTEMI","period":{"start":"2026-01-01","end":"2026-12-31"},"group":[{"id":"Group_1","population":[{"id":"InitialPopulation_1","code":{"coding":[{"system":"http://terminology.hl7.org/CodeSystem/measure-population","code":"initial-population","display":"Initial Population"}]},"count":1},{"id":"Denominator_1","code":{"coding":[{"system":"http://terminology.hl7.org/CodeSystem/measure-population","code":"denominator","display":"Denominator"}]},"count":1},{"id":"DenominatorExclusion_1","code":{"coding":[{"system":"http://terminology.hl7.org/CodeSystem/measure-population","code":"denominator-exclusion","display":"Denominator Exclusion"}]},"count":1},{"id":"Numerator_1","code":{"coding":[{"system":"http://terminology.hl7.org/CodeSystem/measure-population","code":"numerator","display":"Numerator"}]},"count":0},{"id":"DenominatorException_1","code":{"coding":[{"system":"http://terminology.hl7.org/CodeSystem/measure-population","code":"denominator-exception","display":"Denominator Exception"}]},"count":0}],"measureScore":{"value":0.0}}],"evaluatedResource":[{"reference":"Patient/5230ea22-66f1-4132-9acf-0e810f578472"},{"reference":"Encounter/4a8dcbae-67bd-44e7-b4eb-2a2562a6a6e2"},{"reference":"AdverseEvent/54a1af77-2819-495c-a488-c0626d289ef7"}]},"request":{"method":"PUT","url":"MeasureReport/782309ee-43ed-4f5b-9842-fd5bad91403f"}},{"fullUrl":"Encounter/4a8dcbae-67bd-44e7-b4eb-2a2562a6a6e2","resource":{"resourceType":"Encounter","id":"4a8dcbae-67bd-44e7-b4eb-2a2562a6a6e2","meta":{"profile":["http://hl7.org/fhir/us/qicore/StructureDefinition/qicore-encounter"]},"status":"finished","class":{"system":"http://terminology.hl7.org/CodeSystem/v3-ActCode","code":"EMER","display":"emergency","userSelected":true},"type":[{"coding":[{"system":"http://snomed.info/sct","version":"2020-09","code":"4525004","display":"Emergency department patient visit (procedure)","userSelected":true}]}],"subject":{"reference":"Patient/5230ea22-66f1-4132-9acf-0e810f578472"},"period":{"start":"2026-10-09T08:05:00.000+00:00","end":"2026-10-10T07:15:00.000+00:00"},"reasonCode":[{"coding":[{"system":"http://hl7.org/fhir/sid/icd-10-cm","version":"2021","code":"I21.21","display":"ST elevation (STEMI) myocardial infarction involving left circumflex coronary artery","userSelected":true}]}]},"request":{"method":"PUT","url":"Encounter/4a8dcbae-67bd-44e7-b4eb-2a2562a6a6e2"}},{"fullUrl":"Patient/5230ea22-66f1-4132-9acf-0e810f578472","resource":{"resourceType":"Patient","id":"5230ea22-66f1-4132-9acf-0e810f578472","meta":{"profile":["http://hl7.org/fhir/us/qicore/StructureDefinition/qicore-patient"]},"extension":[{"url":"http://hl7.org/fhir/us/core/StructureDefinition/us-core-race","extension":[{"url":"ombCategory","valueCoding":{"system":"urn:oid:2.16.840.1.113883.6.238","code":"2076-8","display":"Native Hawaiian or Other Pacific Islander","userSelected":true}},{"url":"text","valueString":"Native Hawaiian or Other Pacific Islander"}]},{"url":"http://hl7.org/fhir/us/core/StructureDefinition/us-core-ethnicity","extension":[{"url":"ombCategory","valueCoding":{"system":"urn:oid:2.16.840.1.113883.6.238","code":"2135-2","display":"Hispanic or Latino","userSelected":true}},{"url":"text","valueString":"Hispanic or Latino"}]},{"url":"http://hl7.org/fhir/us/core/StructureDefinition/us-core-sex","valueCode":"248152002"}],"identifier":[{"type":{"coding":[{"system":"http://terminology.hl7.org/CodeSystem/v2-0203","code":"MR"}]},"system":"https://bonnie-fhir.healthit.gov/","value":"617bfb091289f5673c8ceffb"}],"name":[{"family":"DenExcl9Pass","given":["AdverseEventStartsBeforeEDStart"]}],"gender":"female","birthDate":"1985-12-02"},"request":{"method":"PUT","url":"Patient/5230ea22-66f1-4132-9acf-0e810f578472"}},{"fullUrl":"AdverseEvent/54a1af77-2819-495c-a488-c0626d289ef7","resource":{"resourceType":"AdverseEvent","id":"54a1af77-2819-495c-a488-c0626d289ef7","meta":{"profile":["http://hl7.org/fhir/us/qicore/StructureDefinition/qicore-adverseevent"]},"actuality":"actual","event":{"coding":[{"system":"http://snomed.info/sct","version":"2020-09","code":"293572000","display":"Urokinase adverse reaction (disorder)","userSelected":true}]},"subject":{"reference":"Patient/5230ea22-66f1-4132-9acf-0e810f578472"},"recordedDate":"2026-10-08T08:00:00.000+00:00"},"request":{"method":"PUT","url":"AdverseEvent/54a1af77-2819-495c-a488-c0626d289ef7"}}]}