{"resourceType":"Bundle","id":"tests-acbb3f41-f15e-4166-9f9b-d4f73318cb34-bundle","type":"transaction","entry":[{"fullUrl":"Patient/acbb3f41-f15e-4166-9f9b-d4f73318cb34","resource":{"resourceType":"Patient","id":"acbb3f41-f15e-4166-9f9b-d4f73318cb34","meta":{"profile":["http://hl7.org/fhir/us/qicore/StructureDefinition/qicore-patient"]},"extension":[{"url":"http://hl7.org/fhir/us/core/StructureDefinition/us-core-race","extension":[{"url":"ombCategory","valueCoding":{"system":"urn:oid:2.16.840.1.113883.6.238","code":"1002-5","display":"American Indian or Alaska Native","userSelected":true}},{"url":"text","valueString":"American Indian or Alaska Native"}]},{"url":"http://hl7.org/fhir/us/core/StructureDefinition/us-core-ethnicity","extension":[{"url":"ombCategory","valueCoding":{"system":"urn:oid:2.16.840.1.113883.6.238","code":"2135-2","display":"Hispanic or Latino","userSelected":true}},{"url":"text","valueString":"Hispanic or Latino"}]},{"url":"http://hl7.org/fhir/us/core/StructureDefinition/us-core-sex","valueCode":"248153007"}],"identifier":[{"type":{"coding":[{"system":"http://terminology.hl7.org/CodeSystem/v2-0203","code":"MR"}]},"system":"https://bonnie-fhir.healthit.gov/","value":"m1f044ef3e654daa2559"}],"name":[{"family":"DENEXCL11PASS","given":["HospiceDiagnosisOverlapEDStart"]}],"gender":"male","birthDate":"1986-09-15"},"request":{"method":"PUT","url":"Patient/acbb3f41-f15e-4166-9f9b-d4f73318cb34"}},{"fullUrl":"Encounter/43cc4250-6294-4b2d-ab03-1d7aed38cb51","resource":{"resourceType":"Encounter","id":"43cc4250-6294-4b2d-ab03-1d7aed38cb51","meta":{"profile":["http://hl7.org/fhir/us/qicore/StructureDefinition/qicore-encounter"]},"status":"finished","class":{"system":"http://terminology.hl7.org/CodeSystem/v3-ActCode","code":"EMER","display":"emergency","userSelected":true},"type":[{"coding":[{"system":"http://snomed.info/sct","version":"2020-09","code":"4525004","display":"Emergency department patient visit","userSelected":true}]}],"subject":{"reference":"Patient/acbb3f41-f15e-4166-9f9b-d4f73318cb34"},"period":{"start":"2026-10-09T05:00:00.000+00:00","end":"2026-10-13T17:00:00.000+00:00"},"reasonCode":[{"coding":[{"system":"http://hl7.org/fhir/sid/icd-10-cm","code":"I21.21","display":"ST elevation (STEMI) myocardial infarction involving left circumflex coronary artery","userSelected":true}]}]},"request":{"method":"PUT","url":"Encounter/43cc4250-6294-4b2d-ab03-1d7aed38cb51"}},{"fullUrl":"Condition/7887aedd-0170-4589-9cdc-b1c1c32dfc52","resource":{"resourceType":"Condition","id":"7887aedd-0170-4589-9cdc-b1c1c32dfc52","meta":{"profile":["http://hl7.org/fhir/us/qicore/StructureDefinition/qicore-condition-problems-health-concerns"]},"clinicalStatus":{"coding":[{"system":"http://terminology.hl7.org/CodeSystem/condition-clinical","code":"inactive","display":"Inactive","userSelected":true}]},"verificationStatus":{"coding":[{"system":"http://terminology.hl7.org/CodeSystem/condition-ver-status","code":"provisional"}]},"category":[{"coding":[{"system":"http://terminology.hl7.org/CodeSystem/condition-category","code":"problem-list-item","display":"Problem List Item","userSelected":true}]}],"code":{"coding":[{"system":"http://snomed.info/sct","code":"170936009","display":"Shared care - hospice and general practitioner (finding)","userSelected":true}]},"subject":{"reference":"Patient/acbb3f41-f15e-4166-9f9b-d4f73318cb34"},"onsetDateTime":"2026-10-08T12:00:00.000+00:00","abatementDateTime":"2026-11-30T02:00:00.000+00:00"},"request":{"method":"PUT","url":"Condition/7887aedd-0170-4589-9cdc-b1c1c32dfc52"}},{"fullUrl":"Bundle/m1f044ef3e654daa2559","resource":{"resourceType":"Bundle","id":"m1f044ef3e654daa2559","type":"transaction","entry":[{"fullUrl":"https://madie.cms.gov/Patient/acbb3f41-f15e-4166-9f9b-d4f73318cb34","resource":{"resourceType":"Patient","id":"acbb3f41-f15e-4166-9f9b-d4f73318cb34","meta":{"profile":["http://hl7.org/fhir/us/qicore/StructureDefinition/qicore-patient"]},"extension":[{"url":"http://hl7.org/fhir/us/core/StructureDefinition/us-core-race","extension":[{"url":"ombCategory","valueCoding":{"system":"urn:oid:2.16.840.1.113883.6.238","code":"1002-5","display":"American Indian or Alaska Native","userSelected":true}},{"url":"text","valueString":"American Indian or Alaska Native"}]},{"url":"http://hl7.org/fhir/us/core/StructureDefinition/us-core-ethnicity","extension":[{"url":"ombCategory","valueCoding":{"system":"urn:oid:2.16.840.1.113883.6.238","code":"2135-2","display":"Hispanic or Latino","userSelected":true}},{"url":"text","valueString":"Hispanic or Latino"}]},{"url":"http://hl7.org/fhir/us/core/StructureDefinition/us-core-sex","valueCode":"248153007"}],"identifier":[{"type":{"coding":[{"system":"http://terminology.hl7.org/CodeSystem/v2-0203","code":"MR"}]},"system":"https://bonnie-fhir.healthit.gov/","value":"m1f044ef3e654daa2559"}],"name":[{"family":"DENEXCL11PASS","given":["HospiceDiagnosisOverlapEDStart"]}],"gender":"male","birthDate":"1986-09-15"},"request":{"method":"PUT","url":"Patient/acbb3f41-f15e-4166-9f9b-d4f73318cb34"}},{"fullUrl":"https://madie.cms.gov/Encounter/43cc4250-6294-4b2d-ab03-1d7aed38cb51","resource":{"resourceType":"Encounter","id":"43cc4250-6294-4b2d-ab03-1d7aed38cb51","meta":{"profile":["http://hl7.org/fhir/us/qicore/StructureDefinition/qicore-encounter"]},"status":"finished","class":{"system":"http://terminology.hl7.org/CodeSystem/v3-ActCode","code":"EMER","display":"emergency","userSelected":true},"type":[{"coding":[{"system":"http://snomed.info/sct","version":"2020-09","code":"4525004","display":"Emergency department patient visit","userSelected":true}]}],"subject":{"reference":"Patient/acbb3f41-f15e-4166-9f9b-d4f73318cb34"},"period":{"start":"2026-10-09T05:00:00.000+00:00","end":"2026-10-13T17:00:00.000+00:00"},"reasonCode":[{"coding":[{"system":"http://hl7.org/fhir/sid/icd-10-cm","code":"I21.21","display":"ST elevation (STEMI) myocardial infarction involving left circumflex coronary artery","userSelected":true}]}]},"request":{"method":"PUT","url":"Encounter/43cc4250-6294-4b2d-ab03-1d7aed38cb51"}},{"fullUrl":"https://madie.cms.gov/Condition/7887aedd-0170-4589-9cdc-b1c1c32dfc52","resource":{"resourceType":"Condition","id":"7887aedd-0170-4589-9cdc-b1c1c32dfc52","meta":{"profile":["http://hl7.org/fhir/us/qicore/StructureDefinition/qicore-condition-problems-health-concerns"]},"clinicalStatus":{"coding":[{"system":"http://terminology.hl7.org/CodeSystem/condition-clinical","code":"inactive","display":"Inactive","userSelected":true}]},"verificationStatus":{"coding":[{"system":"http://terminology.hl7.org/CodeSystem/condition-ver-status","code":"provisional"}]},"category":[{"coding":[{"system":"http://terminology.hl7.org/CodeSystem/condition-category","code":"problem-list-item","display":"Problem List Item","userSelected":true}]}],"code":{"coding":[{"system":"http://snomed.info/sct","code":"170936009","display":"Shared care - hospice and general practitioner (finding)","userSelected":true}]},"subject":{"reference":"Patient/acbb3f41-f15e-4166-9f9b-d4f73318cb34"},"onsetDateTime":"2026-10-08T12:00:00.000+00:00","abatementDateTime":"2026-11-30T02:00:00.000+00:00"},"request":{"method":"PUT","url":"Condition/7887aedd-0170-4589-9cdc-b1c1c32dfc52"}},{"fullUrl":"https://madie.cms.gov/MeasureReport/f64cc934-1352-4965-8bbf-10bc4e1898af","resource":{"resourceType":"MeasureReport","id":"f64cc934-1352-4965-8bbf-10bc4e1898af","meta":{"profile":["http://hl7.org/fhir/us/cqfmeasures/StructureDefinition/test-case-cqfm"]},"contained":[{"resourceType":"Parameters","id":"0192ee6b-8f46-4571-9d13-21f08c20e1cd-parameters","parameter":[{"name":"subject","valueString":"acbb3f41-f15e-4166-9f9b-d4f73318cb34"}]}],"extension":[{"url":"http://hl7.org/fhir/StructureDefinition/cqf-inputParameters","valueReference":{"reference":"#0192ee6b-8f46-4571-9d13-21f08c20e1cd-parameters"}},{"url":"http://hl7.org/fhir/us/cqfmeasures/StructureDefinition/cqfm-testCaseDescription","valueMarkdown":"Patients has hospice diagnosis that overlaps ED start"}],"modifierExtension":[{"url":"http://hl7.org/fhir/us/cqfmeasures/StructureDefinition/cqfm-isTestCase","valueBoolean":true}],"status":"complete","type":"individual","measure":"https://madie.cms.gov/Measure/CMS996FHIRAptTxforSTEMI","period":{"start":"2026-01-01","end":"2026-12-31"},"group":[{"id":"Group_1","population":[{"id":"InitialPopulation_1","code":{"coding":[{"system":"http://terminology.hl7.org/CodeSystem/measure-population","code":"initial-population","display":"Initial Population"}]},"count":1},{"id":"Denominator_1","code":{"coding":[{"system":"http://terminology.hl7.org/CodeSystem/measure-population","code":"denominator","display":"Denominator"}]},"count":1},{"id":"DenominatorExclusion_1","code":{"coding":[{"system":"http://terminology.hl7.org/CodeSystem/measure-population","code":"denominator-exclusion","display":"Denominator Exclusion"}]},"count":1},{"id":"Numerator_1","code":{"coding":[{"system":"http://terminology.hl7.org/CodeSystem/measure-population","code":"numerator","display":"Numerator"}]},"count":0},{"id":"DenominatorException_1","code":{"coding":[{"system":"http://terminology.hl7.org/CodeSystem/measure-population","code":"denominator-exception","display":"Denominator Exception"}]},"count":0}],"measureScore":{"value":0.0}}],"evaluatedResource":[{"reference":"Patient/acbb3f41-f15e-4166-9f9b-d4f73318cb34"},{"reference":"Encounter/43cc4250-6294-4b2d-ab03-1d7aed38cb51"},{"reference":"Condition/7887aedd-0170-4589-9cdc-b1c1c32dfc52"}]},"request":{"method":"PUT","url":"MeasureReport/f64cc934-1352-4965-8bbf-10bc4e1898af"}}]},"request":{"method":"PUT","url":"Bundle/m1f044ef3e654daa2559"}},{"fullUrl":"MeasureReport/f64cc934-1352-4965-8bbf-10bc4e1898af","resource":{"resourceType":"MeasureReport","id":"f64cc934-1352-4965-8bbf-10bc4e1898af","meta":{"profile":["http://hl7.org/fhir/us/cqfmeasures/StructureDefinition/test-case-cqfm"]},"contained":[{"resourceType":"Parameters","id":"0192ee6b-8f46-4571-9d13-21f08c20e1cd-parameters","parameter":[{"name":"subject","valueString":"acbb3f41-f15e-4166-9f9b-d4f73318cb34"}]}],"extension":[{"url":"http://hl7.org/fhir/StructureDefinition/cqf-inputParameters","valueReference":{"reference":"#0192ee6b-8f46-4571-9d13-21f08c20e1cd-parameters"}},{"url":"http://hl7.org/fhir/us/cqfmeasures/StructureDefinition/cqfm-testCaseDescription","valueMarkdown":"Patients has hospice diagnosis that overlaps ED start"}],"modifierExtension":[{"url":"http://hl7.org/fhir/us/cqfmeasures/StructureDefinition/cqfm-isTestCase","valueBoolean":true}],"status":"complete","type":"individual","measure":"https://madie.cms.gov/Measure/CMS996FHIRAptTxforSTEMI","period":{"start":"2026-01-01","end":"2026-12-31"},"group":[{"id":"Group_1","population":[{"id":"InitialPopulation_1","code":{"coding":[{"system":"http://terminology.hl7.org/CodeSystem/measure-population","code":"initial-population","display":"Initial Population"}]},"count":1},{"id":"Denominator_1","code":{"coding":[{"system":"http://terminology.hl7.org/CodeSystem/measure-population","code":"denominator","display":"Denominator"}]},"count":1},{"id":"DenominatorExclusion_1","code":{"coding":[{"system":"http://terminology.hl7.org/CodeSystem/measure-population","code":"denominator-exclusion","display":"Denominator Exclusion"}]},"count":1},{"id":"Numerator_1","code":{"coding":[{"system":"http://terminology.hl7.org/CodeSystem/measure-population","code":"numerator","display":"Numerator"}]},"count":0},{"id":"DenominatorException_1","code":{"coding":[{"system":"http://terminology.hl7.org/CodeSystem/measure-population","code":"denominator-exception","display":"Denominator Exception"}]},"count":0}],"measureScore":{"value":0.0}}],"evaluatedResource":[{"reference":"Patient/acbb3f41-f15e-4166-9f9b-d4f73318cb34"},{"reference":"Encounter/43cc4250-6294-4b2d-ab03-1d7aed38cb51"},{"reference":"Condition/7887aedd-0170-4589-9cdc-b1c1c32dfc52"}]},"request":{"method":"PUT","url":"MeasureReport/f64cc934-1352-4965-8bbf-10bc4e1898af"}}]}