{"resourceType":"Bundle","id":"tests-872dbe15-b15d-4baf-b202-874278bbb317-bundle","type":"transaction","entry":[{"fullUrl":"Encounter/029b3039-bafd-4685-9193-40319b181541","resource":{"resourceType":"Encounter","id":"029b3039-bafd-4685-9193-40319b181541","meta":{"profile":["http://hl7.org/fhir/us/qicore/StructureDefinition/qicore-encounter"]},"status":"finished","class":{"system":"http://terminology.hl7.org/CodeSystem/v3-ActCode","code":"EMER","display":"emergency","userSelected":true},"type":[{"coding":[{"system":"http://snomed.info/sct","version":"2020-09","code":"4525004","display":"Emergency department patient visit","userSelected":true}]}],"subject":{"reference":"Patient/872dbe15-b15d-4baf-b202-874278bbb317"},"period":{"start":"2026-10-09T05:00:00.000+00:00","end":"2026-10-13T17:00:00.000+00:00"},"reasonCode":[{"coding":[{"system":"http://hl7.org/fhir/sid/icd-10-cm","code":"I21.21","display":"ST elevation (STEMI) myocardial infarction involving left circumflex coronary artery","userSelected":true}]}]},"request":{"method":"PUT","url":"Encounter/029b3039-bafd-4685-9193-40319b181541"}},{"fullUrl":"Bundle/e1f044ef3e654daa9105","resource":{"resourceType":"Bundle","id":"e1f044ef3e654daa9105","type":"transaction","entry":[{"fullUrl":"https://madie.cms.gov/Patient/872dbe15-b15d-4baf-b202-874278bbb317","resource":{"resourceType":"Patient","id":"872dbe15-b15d-4baf-b202-874278bbb317","meta":{"profile":["http://hl7.org/fhir/us/qicore/StructureDefinition/qicore-patient"]},"extension":[{"url":"http://hl7.org/fhir/us/core/StructureDefinition/us-core-race","extension":[{"url":"ombCategory","valueCoding":{"system":"urn:oid:2.16.840.1.113883.6.238","code":"1002-5","display":"American Indian or Alaska Native","userSelected":true}},{"url":"text","valueString":"American Indian or Alaska Native"}]},{"url":"http://hl7.org/fhir/us/core/StructureDefinition/us-core-ethnicity","extension":[{"url":"ombCategory","valueCoding":{"system":"urn:oid:2.16.840.1.113883.6.238","code":"2135-2","display":"Hispanic or Latino","userSelected":true}},{"url":"text","valueString":"Hispanic or Latino"}]},{"url":"http://hl7.org/fhir/us/core/StructureDefinition/us-core-sex","valueCode":"248152002"}],"identifier":[{"type":{"coding":[{"system":"http://terminology.hl7.org/CodeSystem/v2-0203","code":"MR"}]},"system":"https://bonnie-fhir.healthit.gov/","value":"ae55d327-23df-40b7-84e3-8de10cf2f478"}],"name":[{"family":"DENEXCL1PASS","given":["TakotsuboSyndromeWithin24HoursBeforeED"]}],"gender":"female","birthDate":"1990-03-14"},"request":{"method":"PUT","url":"Patient/872dbe15-b15d-4baf-b202-874278bbb317"}},{"fullUrl":"https://madie.cms.gov/Encounter/029b3039-bafd-4685-9193-40319b181541","resource":{"resourceType":"Encounter","id":"029b3039-bafd-4685-9193-40319b181541","meta":{"profile":["http://hl7.org/fhir/us/qicore/StructureDefinition/qicore-encounter"]},"status":"finished","class":{"system":"http://terminology.hl7.org/CodeSystem/v3-ActCode","code":"EMER","display":"emergency","userSelected":true},"type":[{"coding":[{"system":"http://snomed.info/sct","version":"2020-09","code":"4525004","display":"Emergency department patient visit","userSelected":true}]}],"subject":{"reference":"Patient/872dbe15-b15d-4baf-b202-874278bbb317"},"period":{"start":"2026-10-09T05:00:00.000+00:00","end":"2026-10-13T17:00:00.000+00:00"},"reasonCode":[{"coding":[{"system":"http://hl7.org/fhir/sid/icd-10-cm","code":"I21.21","display":"ST elevation (STEMI) myocardial infarction involving left circumflex coronary artery","userSelected":true}]}]},"request":{"method":"PUT","url":"Encounter/029b3039-bafd-4685-9193-40319b181541"}},{"fullUrl":"https://madie.cms.gov/Condition/a58f1210-b0dd-416c-a6e3-238ff8bfe338","resource":{"resourceType":"Condition","id":"a58f1210-b0dd-416c-a6e3-238ff8bfe338","meta":{"profile":["http://hl7.org/fhir/us/qicore/StructureDefinition/qicore-condition-problems-health-concerns"]},"clinicalStatus":{"coding":[{"system":"http://terminology.hl7.org/CodeSystem/condition-clinical","code":"active","display":"Active","userSelected":true}]},"category":[{"coding":[{"system":"http://terminology.hl7.org/CodeSystem/condition-category","code":"problem-list-item","display":"Problem List Item","userSelected":true}]}],"code":{"coding":[{"system":"http://hl7.org/fhir/sid/icd-10-cm","code":"I51.81","display":"Takotsubo syndrome","userSelected":true}]},"subject":{"reference":"Patient/872dbe15-b15d-4baf-b202-874278bbb317"},"onsetDateTime":"2026-10-08T05:00:00.000+00:00"},"request":{"method":"PUT","url":"Condition/a58f1210-b0dd-416c-a6e3-238ff8bfe338"}},{"fullUrl":"https://madie.cms.gov/MeasureReport/3401ba8f-f812-4fda-8070-ec489dbdc99d","resource":{"resourceType":"MeasureReport","id":"3401ba8f-f812-4fda-8070-ec489dbdc99d","meta":{"profile":["http://hl7.org/fhir/us/cqfmeasures/StructureDefinition/test-case-cqfm"]},"contained":[{"resourceType":"Parameters","id":"ed204990-1894-468d-8fd2-95d4b9e22c4f-parameters","parameter":[{"name":"subject","valueString":"872dbe15-b15d-4baf-b202-874278bbb317"}]}],"extension":[{"url":"http://hl7.org/fhir/StructureDefinition/cqf-inputParameters","valueReference":{"reference":"#ed204990-1894-468d-8fd2-95d4b9e22c4f-parameters"}},{"url":"http://hl7.org/fhir/us/cqfmeasures/StructureDefinition/cqfm-testCaseDescription","valueMarkdown":"Patient has Takotsubo syndrome that started within 24 hours before start of ED encounter"}],"modifierExtension":[{"url":"http://hl7.org/fhir/us/cqfmeasures/StructureDefinition/cqfm-isTestCase","valueBoolean":true}],"status":"complete","type":"individual","measure":"https://madie.cms.gov/Measure/CMS996FHIRAptTxforSTEMI","period":{"start":"2026-01-01","end":"2026-12-31"},"group":[{"id":"Group_1","population":[{"id":"InitialPopulation_1","code":{"coding":[{"system":"http://terminology.hl7.org/CodeSystem/measure-population","code":"initial-population","display":"Initial Population"}]},"count":1},{"id":"Denominator_1","code":{"coding":[{"system":"http://terminology.hl7.org/CodeSystem/measure-population","code":"denominator","display":"Denominator"}]},"count":1},{"id":"DenominatorExclusion_1","code":{"coding":[{"system":"http://terminology.hl7.org/CodeSystem/measure-population","code":"denominator-exclusion","display":"Denominator Exclusion"}]},"count":1},{"id":"Numerator_1","code":{"coding":[{"system":"http://terminology.hl7.org/CodeSystem/measure-population","code":"numerator","display":"Numerator"}]},"count":0},{"id":"DenominatorException_1","code":{"coding":[{"system":"http://terminology.hl7.org/CodeSystem/measure-population","code":"denominator-exception","display":"Denominator Exception"}]},"count":0}],"measureScore":{"value":0.0}}],"evaluatedResource":[{"reference":"Patient/872dbe15-b15d-4baf-b202-874278bbb317"},{"reference":"Encounter/029b3039-bafd-4685-9193-40319b181541"},{"reference":"Condition/a58f1210-b0dd-416c-a6e3-238ff8bfe338"}]},"request":{"method":"PUT","url":"MeasureReport/3401ba8f-f812-4fda-8070-ec489dbdc99d"}}]},"request":{"method":"PUT","url":"Bundle/e1f044ef3e654daa9105"}},{"fullUrl":"MeasureReport/3401ba8f-f812-4fda-8070-ec489dbdc99d","resource":{"resourceType":"MeasureReport","id":"3401ba8f-f812-4fda-8070-ec489dbdc99d","meta":{"profile":["http://hl7.org/fhir/us/cqfmeasures/StructureDefinition/test-case-cqfm"]},"contained":[{"resourceType":"Parameters","id":"ed204990-1894-468d-8fd2-95d4b9e22c4f-parameters","parameter":[{"name":"subject","valueString":"872dbe15-b15d-4baf-b202-874278bbb317"}]}],"extension":[{"url":"http://hl7.org/fhir/StructureDefinition/cqf-inputParameters","valueReference":{"reference":"#ed204990-1894-468d-8fd2-95d4b9e22c4f-parameters"}},{"url":"http://hl7.org/fhir/us/cqfmeasures/StructureDefinition/cqfm-testCaseDescription","valueMarkdown":"Patient has Takotsubo syndrome that started within 24 hours before start of ED encounter"}],"modifierExtension":[{"url":"http://hl7.org/fhir/us/cqfmeasures/StructureDefinition/cqfm-isTestCase","valueBoolean":true}],"status":"complete","type":"individual","measure":"https://madie.cms.gov/Measure/CMS996FHIRAptTxforSTEMI","period":{"start":"2026-01-01","end":"2026-12-31"},"group":[{"id":"Group_1","population":[{"id":"InitialPopulation_1","code":{"coding":[{"system":"http://terminology.hl7.org/CodeSystem/measure-population","code":"initial-population","display":"Initial Population"}]},"count":1},{"id":"Denominator_1","code":{"coding":[{"system":"http://terminology.hl7.org/CodeSystem/measure-population","code":"denominator","display":"Denominator"}]},"count":1},{"id":"DenominatorExclusion_1","code":{"coding":[{"system":"http://terminology.hl7.org/CodeSystem/measure-population","code":"denominator-exclusion","display":"Denominator Exclusion"}]},"count":1},{"id":"Numerator_1","code":{"coding":[{"system":"http://terminology.hl7.org/CodeSystem/measure-population","code":"numerator","display":"Numerator"}]},"count":0},{"id":"DenominatorException_1","code":{"coding":[{"system":"http://terminology.hl7.org/CodeSystem/measure-population","code":"denominator-exception","display":"Denominator Exception"}]},"count":0}],"measureScore":{"value":0.0}}],"evaluatedResource":[{"reference":"Patient/872dbe15-b15d-4baf-b202-874278bbb317"},{"reference":"Encounter/029b3039-bafd-4685-9193-40319b181541"},{"reference":"Condition/a58f1210-b0dd-416c-a6e3-238ff8bfe338"}]},"request":{"method":"PUT","url":"MeasureReport/3401ba8f-f812-4fda-8070-ec489dbdc99d"}},{"fullUrl":"Patient/872dbe15-b15d-4baf-b202-874278bbb317","resource":{"resourceType":"Patient","id":"872dbe15-b15d-4baf-b202-874278bbb317","meta":{"profile":["http://hl7.org/fhir/us/qicore/StructureDefinition/qicore-patient"]},"extension":[{"url":"http://hl7.org/fhir/us/core/StructureDefinition/us-core-race","extension":[{"url":"ombCategory","valueCoding":{"system":"urn:oid:2.16.840.1.113883.6.238","code":"1002-5","display":"American Indian or Alaska Native","userSelected":true}},{"url":"text","valueString":"American Indian or Alaska Native"}]},{"url":"http://hl7.org/fhir/us/core/StructureDefinition/us-core-ethnicity","extension":[{"url":"ombCategory","valueCoding":{"system":"urn:oid:2.16.840.1.113883.6.238","code":"2135-2","display":"Hispanic or Latino","userSelected":true}},{"url":"text","valueString":"Hispanic or Latino"}]},{"url":"http://hl7.org/fhir/us/core/StructureDefinition/us-core-sex","valueCode":"248152002"}],"identifier":[{"type":{"coding":[{"system":"http://terminology.hl7.org/CodeSystem/v2-0203","code":"MR"}]},"system":"https://bonnie-fhir.healthit.gov/","value":"ae55d327-23df-40b7-84e3-8de10cf2f478"}],"name":[{"family":"DENEXCL1PASS","given":["TakotsuboSyndromeWithin24HoursBeforeED"]}],"gender":"female","birthDate":"1990-03-14"},"request":{"method":"PUT","url":"Patient/872dbe15-b15d-4baf-b202-874278bbb317"}},{"fullUrl":"Condition/a58f1210-b0dd-416c-a6e3-238ff8bfe338","resource":{"resourceType":"Condition","id":"a58f1210-b0dd-416c-a6e3-238ff8bfe338","meta":{"profile":["http://hl7.org/fhir/us/qicore/StructureDefinition/qicore-condition-problems-health-concerns"]},"clinicalStatus":{"coding":[{"system":"http://terminology.hl7.org/CodeSystem/condition-clinical","code":"active","display":"Active","userSelected":true}]},"category":[{"coding":[{"system":"http://terminology.hl7.org/CodeSystem/condition-category","code":"problem-list-item","display":"Problem List Item","userSelected":true}]}],"code":{"coding":[{"system":"http://hl7.org/fhir/sid/icd-10-cm","code":"I51.81","display":"Takotsubo syndrome","userSelected":true}]},"subject":{"reference":"Patient/872dbe15-b15d-4baf-b202-874278bbb317"},"onsetDateTime":"2026-10-08T05:00:00.000+00:00"},"request":{"method":"PUT","url":"Condition/a58f1210-b0dd-416c-a6e3-238ff8bfe338"}}]}