{"resourceType":"Bundle","id":"tests-de428bd5-59d6-4d0f-a8ee-c581cf94b5e4-bundle","type":"transaction","entry":[{"resource":{"resourceType":"Encounter","id":"b2c7ae81-3968-4b3a-ac82-513e613188b3","meta":{"profile":["http://hl7.org/fhir/us/qicore/StructureDefinition/qicore-encounter"]},"status":"finished","class":{"system":"http://terminology.hl7.org/CodeSystem/v3-ActCode","code":"EMER","display":"emergency","userSelected":true},"type":[{"coding":[{"system":"http://snomed.info/sct","version":"2020-09","code":"4525004","display":"Emergency department patient visit (procedure)","userSelected":true}]}],"subject":{"reference":"Patient/de428bd5-59d6-4d0f-a8ee-c581cf94b5e4"},"period":{"start":"2024-10-09T08:05:00.000+00:00","end":"2024-10-10T07:15:00.000+00:00"},"reasonReference":[{"reference":"Condition/509525b0-7eba-43f1-a5a2-56e980fbf912"}]},"request":{"method":"PUT","url":"Encounter/b2c7ae81-3968-4b3a-ac82-513e613188b3"}},{"resource":{"resourceType":"Bundle","id":"617ad5c91e8170ac98fce636","type":"transaction","entry":[{"fullUrl":"https://madie.cms.gov/Patient/de428bd5-59d6-4d0f-a8ee-c581cf94b5e4","resource":{"resourceType":"Patient","id":"de428bd5-59d6-4d0f-a8ee-c581cf94b5e4","meta":{"profile":["http://hl7.org/fhir/us/qicore/StructureDefinition/qicore-patient"]},"extension":[{"url":"http://hl7.org/fhir/us/core/StructureDefinition/us-core-race","extension":[{"url":"ombCategory","valueCoding":{"system":"urn:oid:2.16.840.1.113883.6.238","code":"2076-8","display":"Native Hawaiian or Other Pacific Islander","userSelected":true}},{"url":"text","valueString":"Native Hawaiian or Other Pacific Islander"}]},{"url":"http://hl7.org/fhir/us/core/StructureDefinition/us-core-ethnicity","extension":[{"url":"ombCategory","valueCoding":{"system":"urn:oid:2.16.840.1.113883.6.238","code":"2186-5","display":"Not Hispanic or Latino","userSelected":true}},{"url":"text","valueString":"Not Hispanic or Latino"}]},{"url":"http://hl7.org/fhir/us/core/StructureDefinition/us-core-sex","valueCode":"248152002"}],"identifier":[{"type":{"coding":[{"system":"http://terminology.hl7.org/CodeSystem/v2-0203","code":"MR"}]},"system":"https://bonnie-fhir.healthit.gov/","value":"617ad5c91e8170ac98fce636"}],"name":[{"family":"IPFail","given":["EncBeforeMP"]}],"gender":"female","birthDate":"1985-12-02"},"request":{"method":"PUT","url":"Patient/de428bd5-59d6-4d0f-a8ee-c581cf94b5e4"}},{"fullUrl":"https://madie.cms.gov/Encounter/b2c7ae81-3968-4b3a-ac82-513e613188b3","resource":{"resourceType":"Encounter","id":"b2c7ae81-3968-4b3a-ac82-513e613188b3","meta":{"profile":["http://hl7.org/fhir/us/qicore/StructureDefinition/qicore-encounter"]},"status":"finished","class":{"system":"http://terminology.hl7.org/CodeSystem/v3-ActCode","code":"EMER","display":"emergency","userSelected":true},"type":[{"coding":[{"system":"http://snomed.info/sct","version":"2020-09","code":"4525004","display":"Emergency department patient visit (procedure)","userSelected":true}]}],"subject":{"reference":"Patient/de428bd5-59d6-4d0f-a8ee-c581cf94b5e4"},"period":{"start":"2024-10-09T08:05:00.000+00:00","end":"2024-10-10T07:15:00.000+00:00"},"reasonReference":[{"reference":"Condition/509525b0-7eba-43f1-a5a2-56e980fbf912"}]},"request":{"method":"PUT","url":"Encounter/b2c7ae81-3968-4b3a-ac82-513e613188b3"}},{"fullUrl":"https://madie.cms.gov/Condition/509525b0-7eba-43f1-a5a2-56e980fbf912","resource":{"resourceType":"Condition","id":"509525b0-7eba-43f1-a5a2-56e980fbf912","meta":{"profile":["http://hl7.org/fhir/us/qicore/StructureDefinition/qicore-condition-encounter-diagnosis"]},"clinicalStatus":{"coding":[{"system":"http://terminology.hl7.org/CodeSystem/condition-clinical","code":"active","display":"active","userSelected":true}]},"category":[{"coding":[{"system":"http://terminology.hl7.org/CodeSystem/condition-category","code":"encounter-diagnosis","display":"Encounter Diagnosis","userSelected":true}]}],"code":{"coding":[{"system":"http://snomed.info/sct","version":"2020-09","code":"401303003","display":"Acute ST segment elevation myocardial infarction (disorder)","userSelected":true}]},"subject":{"reference":"Patient/de428bd5-59d6-4d0f-a8ee-c581cf94b5e4"},"encounter":{"reference":"Encounter/b2c7ae81-3968-4b3a-ac82-513e613188b3"},"recordedDate":"2026-10-09T08:00:00.000+00:00"},"request":{"method":"PUT","url":"Condition/509525b0-7eba-43f1-a5a2-56e980fbf912"}},{"fullUrl":"https://madie.cms.gov/MeasureReport/fdf345ba-2567-4329-b121-e0714e5db8ef","resource":{"resourceType":"MeasureReport","id":"fdf345ba-2567-4329-b121-e0714e5db8ef","meta":{"profile":["http://hl7.org/fhir/us/cqfmeasures/StructureDefinition/test-case-cqfm"]},"contained":[{"resourceType":"Parameters","id":"038cab31-6a68-43d4-8154-2cc8e23d4bdc-parameters","parameter":[{"name":"subject","valueString":"de428bd5-59d6-4d0f-a8ee-c581cf94b5e4"}]}],"extension":[{"url":"http://hl7.org/fhir/StructureDefinition/cqf-inputParameters","valueReference":{"reference":"#038cab31-6a68-43d4-8154-2cc8e23d4bdc-parameters"}},{"url":"http://hl7.org/fhir/us/cqfmeasures/StructureDefinition/cqfm-testCaseDescription","valueMarkdown":"Patient is over 18 years old and has an encounter before the MP"}],"modifierExtension":[{"url":"http://hl7.org/fhir/us/cqfmeasures/StructureDefinition/cqfm-isTestCase","valueBoolean":true}],"status":"complete","type":"individual","measure":"https://madie.cms.gov/Measure/CMS996FHIRAptTxforSTEMI","period":{"start":"2026-01-01","end":"2026-12-31"},"group":[{"id":"Group_1","population":[{"id":"InitialPopulation_1","code":{"coding":[{"system":"http://terminology.hl7.org/CodeSystem/measure-population","code":"initial-population","display":"Initial Population"}]},"count":0},{"id":"Denominator_1","code":{"coding":[{"system":"http://terminology.hl7.org/CodeSystem/measure-population","code":"denominator","display":"Denominator"}]},"count":0},{"id":"DenominatorExclusion_1","code":{"coding":[{"system":"http://terminology.hl7.org/CodeSystem/measure-population","code":"denominator-exclusion","display":"Denominator Exclusion"}]},"count":0},{"id":"Numerator_1","code":{"coding":[{"system":"http://terminology.hl7.org/CodeSystem/measure-population","code":"numerator","display":"Numerator"}]},"count":0},{"id":"DenominatorException_1","code":{"coding":[{"system":"http://terminology.hl7.org/CodeSystem/measure-population","code":"denominator-exception","display":"Denominator Exception"}]},"count":0}],"measureScore":{"value":0.0}}],"evaluatedResource":[{"reference":"Patient/de428bd5-59d6-4d0f-a8ee-c581cf94b5e4"},{"reference":"Encounter/b2c7ae81-3968-4b3a-ac82-513e613188b3"},{"reference":"Condition/509525b0-7eba-43f1-a5a2-56e980fbf912"}]},"request":{"method":"PUT","url":"MeasureReport/fdf345ba-2567-4329-b121-e0714e5db8ef"}}]},"request":{"method":"PUT","url":"Bundle/617ad5c91e8170ac98fce636"}},{"resource":{"resourceType":"Patient","id":"de428bd5-59d6-4d0f-a8ee-c581cf94b5e4","meta":{"profile":["http://hl7.org/fhir/us/qicore/StructureDefinition/qicore-patient"]},"extension":[{"url":"http://hl7.org/fhir/us/core/StructureDefinition/us-core-race","extension":[{"url":"ombCategory","valueCoding":{"system":"urn:oid:2.16.840.1.113883.6.238","code":"2076-8","display":"Native Hawaiian or Other Pacific Islander","userSelected":true}},{"url":"text","valueString":"Native Hawaiian or Other Pacific Islander"}]},{"url":"http://hl7.org/fhir/us/core/StructureDefinition/us-core-ethnicity","extension":[{"url":"ombCategory","valueCoding":{"system":"urn:oid:2.16.840.1.113883.6.238","code":"2186-5","display":"Not Hispanic or Latino","userSelected":true}},{"url":"text","valueString":"Not Hispanic or Latino"}]},{"url":"http://hl7.org/fhir/us/core/StructureDefinition/us-core-sex","valueCode":"248152002"}],"identifier":[{"type":{"coding":[{"system":"http://terminology.hl7.org/CodeSystem/v2-0203","code":"MR"}]},"system":"https://bonnie-fhir.healthit.gov/","value":"617ad5c91e8170ac98fce636"}],"name":[{"family":"IPFail","given":["EncBeforeMP"]}],"gender":"female","birthDate":"1985-12-02"},"request":{"method":"PUT","url":"Patient/de428bd5-59d6-4d0f-a8ee-c581cf94b5e4"}},{"resource":{"resourceType":"Condition","id":"509525b0-7eba-43f1-a5a2-56e980fbf912","meta":{"profile":["http://hl7.org/fhir/us/qicore/StructureDefinition/qicore-condition-encounter-diagnosis"]},"clinicalStatus":{"coding":[{"system":"http://terminology.hl7.org/CodeSystem/condition-clinical","code":"active","display":"active","userSelected":true}]},"category":[{"coding":[{"system":"http://terminology.hl7.org/CodeSystem/condition-category","code":"encounter-diagnosis","display":"Encounter Diagnosis","userSelected":true}]}],"code":{"coding":[{"system":"http://snomed.info/sct","version":"2020-09","code":"401303003","display":"Acute ST segment elevation myocardial infarction (disorder)","userSelected":true}]},"subject":{"reference":"Patient/de428bd5-59d6-4d0f-a8ee-c581cf94b5e4"},"encounter":{"reference":"Encounter/b2c7ae81-3968-4b3a-ac82-513e613188b3"},"recordedDate":"2026-10-09T08:00:00.000+00:00"},"request":{"method":"PUT","url":"Condition/509525b0-7eba-43f1-a5a2-56e980fbf912"}},{"resource":{"resourceType":"MeasureReport","id":"fdf345ba-2567-4329-b121-e0714e5db8ef","meta":{"profile":["http://hl7.org/fhir/us/cqfmeasures/StructureDefinition/test-case-cqfm"]},"contained":[{"resourceType":"Parameters","id":"038cab31-6a68-43d4-8154-2cc8e23d4bdc-parameters","parameter":[{"name":"subject","valueString":"de428bd5-59d6-4d0f-a8ee-c581cf94b5e4"}]}],"extension":[{"url":"http://hl7.org/fhir/StructureDefinition/cqf-inputParameters","valueReference":{"reference":"#038cab31-6a68-43d4-8154-2cc8e23d4bdc-parameters"}},{"url":"http://hl7.org/fhir/us/cqfmeasures/StructureDefinition/cqfm-testCaseDescription","valueMarkdown":"Patient is over 18 years old and has an encounter before the MP"}],"modifierExtension":[{"url":"http://hl7.org/fhir/us/cqfmeasures/StructureDefinition/cqfm-isTestCase","valueBoolean":true}],"status":"complete","type":"individual","measure":"https://madie.cms.gov/Measure/CMS996FHIRAptTxforSTEMI","period":{"start":"2026-01-01","end":"2026-12-31"},"group":[{"id":"Group_1","population":[{"id":"InitialPopulation_1","code":{"coding":[{"system":"http://terminology.hl7.org/CodeSystem/measure-population","code":"initial-population","display":"Initial Population"}]},"count":0},{"id":"Denominator_1","code":{"coding":[{"system":"http://terminology.hl7.org/CodeSystem/measure-population","code":"denominator","display":"Denominator"}]},"count":0},{"id":"DenominatorExclusion_1","code":{"coding":[{"system":"http://terminology.hl7.org/CodeSystem/measure-population","code":"denominator-exclusion","display":"Denominator Exclusion"}]},"count":0},{"id":"Numerator_1","code":{"coding":[{"system":"http://terminology.hl7.org/CodeSystem/measure-population","code":"numerator","display":"Numerator"}]},"count":0},{"id":"DenominatorException_1","code":{"coding":[{"system":"http://terminology.hl7.org/CodeSystem/measure-population","code":"denominator-exception","display":"Denominator Exception"}]},"count":0}],"measureScore":{"value":0.0}}],"evaluatedResource":[{"reference":"Patient/de428bd5-59d6-4d0f-a8ee-c581cf94b5e4"},{"reference":"Encounter/b2c7ae81-3968-4b3a-ac82-513e613188b3"},{"reference":"Condition/509525b0-7eba-43f1-a5a2-56e980fbf912"}]},"request":{"method":"PUT","url":"MeasureReport/fdf345ba-2567-4329-b121-e0714e5db8ef"}}]}