{"resourceType":"Bundle","id":"tests-4a3a512c-b5bd-4da7-a8ed-a4cf56dfec29-bundle","type":"transaction","entry":[{"fullUrl":"Patient/4a3a512c-b5bd-4da7-a8ed-a4cf56dfec29","resource":{"resourceType":"Patient","id":"4a3a512c-b5bd-4da7-a8ed-a4cf56dfec29","meta":{"profile":["http://hl7.org/fhir/us/qicore/StructureDefinition/qicore-patient"]},"extension":[{"url":"http://hl7.org/fhir/us/core/StructureDefinition/us-core-race","extension":[{"url":"ombCategory","valueCoding":{"system":"urn:oid:2.16.840.1.113883.6.238","code":"2076-8","display":"Native Hawaiian or Other Pacific Islander","userSelected":true}},{"url":"text","valueString":"Native Hawaiian or Other Pacific Islander"}]},{"url":"http://hl7.org/fhir/us/core/StructureDefinition/us-core-ethnicity","extension":[{"url":"ombCategory","valueCoding":{"system":"urn:oid:2.16.840.1.113883.6.238","code":"2186-5","display":"Not Hispanic or Latino","userSelected":true}},{"url":"text","valueString":"Not Hispanic or Latino"}]},{"url":"http://hl7.org/fhir/us/core/StructureDefinition/us-core-sex","valueCode":"248153007"}],"identifier":[{"type":{"coding":[{"system":"http://terminology.hl7.org/CodeSystem/v2-0203","code":"MR"}]},"system":"https://bonnie-fhir.healthit.gov/","value":"617835c74bf8e25b8f204e27"}],"name":[{"family":"NumPass","given":["Depart45minsfromEDstart"]}],"gender":"female","birthDate":"1985-12-02"},"request":{"method":"PUT","url":"Patient/4a3a512c-b5bd-4da7-a8ed-a4cf56dfec29"}},{"fullUrl":"Encounter/a08501ed-b1f0-45f5-9dd3-c610ffbd6a08","resource":{"resourceType":"Encounter","id":"a08501ed-b1f0-45f5-9dd3-c610ffbd6a08","meta":{"profile":["http://hl7.org/fhir/us/qicore/StructureDefinition/qicore-encounter"]},"status":"finished","class":{"system":"http://terminology.hl7.org/CodeSystem/v3-ActCode","code":"EMER","display":"emergency","userSelected":true},"type":[{"coding":[{"system":"http://snomed.info/sct","version":"2020-09","code":"4525004","display":"Emergency department patient visit (procedure)","userSelected":true}]}],"subject":{"reference":"Patient/4a3a512c-b5bd-4da7-a8ed-a4cf56dfec29"},"period":{"start":"2026-10-09T08:00:00.000+00:00","end":"2026-10-09T08:50:00.000+00:00"},"reasonReference":[{"reference":"Condition/aeded2e5-86e2-4c12-b21d-e80e1a50083c"}],"hospitalization":{"dischargeDisposition":{"coding":[{"system":"http://snomed.info/sct","version":"2020-09","code":"306703003","display":"Discharge to tertiary referral hospital (procedure)","userSelected":true}]}},"location":[{"location":{"reference":"Location/965b139e-e6d2-4c3e-ba6e-d16e2b24a92a"},"period":{"start":"2026-10-09T08:05:00.000+00:00","end":"2026-10-09T08:50:00.000+00:00"}}]},"request":{"method":"PUT","url":"Encounter/a08501ed-b1f0-45f5-9dd3-c610ffbd6a08"}},{"fullUrl":"Bundle/617835c74bf8e25b8f204e27","resource":{"resourceType":"Bundle","id":"617835c74bf8e25b8f204e27","type":"transaction","entry":[{"fullUrl":"https://madie.cms.gov/Patient/4a3a512c-b5bd-4da7-a8ed-a4cf56dfec29","resource":{"resourceType":"Patient","id":"4a3a512c-b5bd-4da7-a8ed-a4cf56dfec29","meta":{"profile":["http://hl7.org/fhir/us/qicore/StructureDefinition/qicore-patient"]},"extension":[{"url":"http://hl7.org/fhir/us/core/StructureDefinition/us-core-race","extension":[{"url":"ombCategory","valueCoding":{"system":"urn:oid:2.16.840.1.113883.6.238","code":"2076-8","display":"Native Hawaiian or Other Pacific Islander","userSelected":true}},{"url":"text","valueString":"Native Hawaiian or Other Pacific Islander"}]},{"url":"http://hl7.org/fhir/us/core/StructureDefinition/us-core-ethnicity","extension":[{"url":"ombCategory","valueCoding":{"system":"urn:oid:2.16.840.1.113883.6.238","code":"2186-5","display":"Not Hispanic or Latino","userSelected":true}},{"url":"text","valueString":"Not Hispanic or Latino"}]},{"url":"http://hl7.org/fhir/us/core/StructureDefinition/us-core-sex","valueCode":"248153007"}],"identifier":[{"type":{"coding":[{"system":"http://terminology.hl7.org/CodeSystem/v2-0203","code":"MR"}]},"system":"https://bonnie-fhir.healthit.gov/","value":"617835c74bf8e25b8f204e27"}],"name":[{"family":"NumPass","given":["Depart45minsfromEDstart"]}],"gender":"female","birthDate":"1985-12-02"},"request":{"method":"PUT","url":"Patient/4a3a512c-b5bd-4da7-a8ed-a4cf56dfec29"}},{"fullUrl":"https://madie.cms.gov/Encounter/a08501ed-b1f0-45f5-9dd3-c610ffbd6a08","resource":{"resourceType":"Encounter","id":"a08501ed-b1f0-45f5-9dd3-c610ffbd6a08","meta":{"profile":["http://hl7.org/fhir/us/qicore/StructureDefinition/qicore-encounter"]},"status":"finished","class":{"system":"http://terminology.hl7.org/CodeSystem/v3-ActCode","code":"EMER","display":"emergency","userSelected":true},"type":[{"coding":[{"system":"http://snomed.info/sct","version":"2020-09","code":"4525004","display":"Emergency department patient visit (procedure)","userSelected":true}]}],"subject":{"reference":"Patient/4a3a512c-b5bd-4da7-a8ed-a4cf56dfec29"},"period":{"start":"2026-10-09T08:00:00.000+00:00","end":"2026-10-09T08:50:00.000+00:00"},"reasonReference":[{"reference":"Condition/aeded2e5-86e2-4c12-b21d-e80e1a50083c"}],"hospitalization":{"dischargeDisposition":{"coding":[{"system":"http://snomed.info/sct","version":"2020-09","code":"306703003","display":"Discharge to tertiary referral hospital (procedure)","userSelected":true}]}},"location":[{"location":{"reference":"Location/965b139e-e6d2-4c3e-ba6e-d16e2b24a92a"},"period":{"start":"2026-10-09T08:05:00.000+00:00","end":"2026-10-09T08:50:00.000+00:00"}}]},"request":{"method":"PUT","url":"Encounter/a08501ed-b1f0-45f5-9dd3-c610ffbd6a08"}},{"fullUrl":"https://madie.cms.gov/Location/965b139e-e6d2-4c3e-ba6e-d16e2b24a92a","resource":{"resourceType":"Location","id":"965b139e-e6d2-4c3e-ba6e-d16e2b24a92a","meta":{"profile":["http://hl7.org/fhir/us/qicore/StructureDefinition/qicore-location"]},"identifier":[{"use":"usual","system":"http://exampleoflocation.com","value":"ED-1.R3"}],"name":"Emergency Department, first floor","type":[{"coding":[{"system":"http://snomed.info/sct","version":"20210611","code":"4525004","display":"Emergency department patient visit (procedure)","userSelected":true}]},{"coding":[{"system":"http://terminology.hl7.org/CodeSystem/v3-RoleCode","version":"2019","code":"ER","display":"Emergency room","userSelected":true}]}]},"request":{"method":"PUT","url":"Location/965b139e-e6d2-4c3e-ba6e-d16e2b24a92a"}},{"fullUrl":"https://madie.cms.gov/Condition/aeded2e5-86e2-4c12-b21d-e80e1a50083c","resource":{"resourceType":"Condition","id":"aeded2e5-86e2-4c12-b21d-e80e1a50083c","meta":{"profile":["http://hl7.org/fhir/us/qicore/StructureDefinition/qicore-condition-encounter-diagnosis"]},"clinicalStatus":{"coding":[{"system":"http://terminology.hl7.org/CodeSystem/condition-clinical","code":"active","display":"active","userSelected":true}]},"category":[{"coding":[{"system":"http://terminology.hl7.org/CodeSystem/condition-category","code":"encounter-diagnosis","display":"Encounter Diagnosis","userSelected":true}]}],"code":{"coding":[{"system":"http://hl7.org/fhir/sid/icd-10-cm","code":"I21.3","userSelected":true}]},"subject":{"reference":"Patient/4a3a512c-b5bd-4da7-a8ed-a4cf56dfec29"},"onsetDateTime":"2026-10-09T08:11:00.000+00:00"},"request":{"method":"PUT","url":"Condition/aeded2e5-86e2-4c12-b21d-e80e1a50083c"}},{"fullUrl":"https://madie.cms.gov/MeasureReport/69a520e0-f40e-47e5-857a-dd1670b86bcf","resource":{"resourceType":"MeasureReport","id":"69a520e0-f40e-47e5-857a-dd1670b86bcf","meta":{"profile":["http://hl7.org/fhir/us/cqfmeasures/StructureDefinition/test-case-cqfm"]},"contained":[{"resourceType":"Parameters","id":"c21a6f1d-dcd7-4d85-b5b2-ee6d5d85514a-parameters","parameter":[{"name":"subject","valueString":"4a3a512c-b5bd-4da7-a8ed-a4cf56dfec29"}]}],"extension":[{"url":"http://hl7.org/fhir/StructureDefinition/cqf-inputParameters","valueReference":{"reference":"#c21a6f1d-dcd7-4d85-b5b2-ee6d5d85514a-parameters"}},{"url":"http://hl7.org/fhir/us/cqfmeasures/StructureDefinition/cqfm-testCaseDescription","valueMarkdown":"ED ends 45 minutes after start time to be transferred to acute care facility"}],"modifierExtension":[{"url":"http://hl7.org/fhir/us/cqfmeasures/StructureDefinition/cqfm-isTestCase","valueBoolean":true}],"status":"complete","type":"individual","measure":"https://madie.cms.gov/Measure/CMS996FHIRAptTxforSTEMI","period":{"start":"2026-01-01","end":"2026-12-31"},"group":[{"id":"Group_1","population":[{"id":"InitialPopulation_1","code":{"coding":[{"system":"http://terminology.hl7.org/CodeSystem/measure-population","code":"initial-population","display":"Initial Population"}]},"count":1},{"id":"Denominator_1","code":{"coding":[{"system":"http://terminology.hl7.org/CodeSystem/measure-population","code":"denominator","display":"Denominator"}]},"count":1},{"id":"DenominatorExclusion_1","code":{"coding":[{"system":"http://terminology.hl7.org/CodeSystem/measure-population","code":"denominator-exclusion","display":"Denominator Exclusion"}]},"count":0},{"id":"Numerator_1","code":{"coding":[{"system":"http://terminology.hl7.org/CodeSystem/measure-population","code":"numerator","display":"Numerator"}]},"count":1},{"id":"DenominatorException_1","code":{"coding":[{"system":"http://terminology.hl7.org/CodeSystem/measure-population","code":"denominator-exception","display":"Denominator Exception"}]},"count":0}],"measureScore":{"value":0.0}}],"evaluatedResource":[{"reference":"Patient/4a3a512c-b5bd-4da7-a8ed-a4cf56dfec29"},{"reference":"Encounter/a08501ed-b1f0-45f5-9dd3-c610ffbd6a08"},{"reference":"Location/965b139e-e6d2-4c3e-ba6e-d16e2b24a92a"},{"reference":"Condition/aeded2e5-86e2-4c12-b21d-e80e1a50083c"}]},"request":{"method":"PUT","url":"MeasureReport/69a520e0-f40e-47e5-857a-dd1670b86bcf"}}]},"request":{"method":"PUT","url":"Bundle/617835c74bf8e25b8f204e27"}},{"fullUrl":"MeasureReport/69a520e0-f40e-47e5-857a-dd1670b86bcf","resource":{"resourceType":"MeasureReport","id":"69a520e0-f40e-47e5-857a-dd1670b86bcf","meta":{"profile":["http://hl7.org/fhir/us/cqfmeasures/StructureDefinition/test-case-cqfm"]},"contained":[{"resourceType":"Parameters","id":"c21a6f1d-dcd7-4d85-b5b2-ee6d5d85514a-parameters","parameter":[{"name":"subject","valueString":"4a3a512c-b5bd-4da7-a8ed-a4cf56dfec29"}]}],"extension":[{"url":"http://hl7.org/fhir/StructureDefinition/cqf-inputParameters","valueReference":{"reference":"#c21a6f1d-dcd7-4d85-b5b2-ee6d5d85514a-parameters"}},{"url":"http://hl7.org/fhir/us/cqfmeasures/StructureDefinition/cqfm-testCaseDescription","valueMarkdown":"ED ends 45 minutes after start time to be transferred to acute care facility"}],"modifierExtension":[{"url":"http://hl7.org/fhir/us/cqfmeasures/StructureDefinition/cqfm-isTestCase","valueBoolean":true}],"status":"complete","type":"individual","measure":"https://madie.cms.gov/Measure/CMS996FHIRAptTxforSTEMI","period":{"start":"2026-01-01","end":"2026-12-31"},"group":[{"id":"Group_1","population":[{"id":"InitialPopulation_1","code":{"coding":[{"system":"http://terminology.hl7.org/CodeSystem/measure-population","code":"initial-population","display":"Initial Population"}]},"count":1},{"id":"Denominator_1","code":{"coding":[{"system":"http://terminology.hl7.org/CodeSystem/measure-population","code":"denominator","display":"Denominator"}]},"count":1},{"id":"DenominatorExclusion_1","code":{"coding":[{"system":"http://terminology.hl7.org/CodeSystem/measure-population","code":"denominator-exclusion","display":"Denominator Exclusion"}]},"count":0},{"id":"Numerator_1","code":{"coding":[{"system":"http://terminology.hl7.org/CodeSystem/measure-population","code":"numerator","display":"Numerator"}]},"count":1},{"id":"DenominatorException_1","code":{"coding":[{"system":"http://terminology.hl7.org/CodeSystem/measure-population","code":"denominator-exception","display":"Denominator Exception"}]},"count":0}],"measureScore":{"value":0.0}}],"evaluatedResource":[{"reference":"Patient/4a3a512c-b5bd-4da7-a8ed-a4cf56dfec29"},{"reference":"Encounter/a08501ed-b1f0-45f5-9dd3-c610ffbd6a08"},{"reference":"Location/965b139e-e6d2-4c3e-ba6e-d16e2b24a92a"},{"reference":"Condition/aeded2e5-86e2-4c12-b21d-e80e1a50083c"}]},"request":{"method":"PUT","url":"MeasureReport/69a520e0-f40e-47e5-857a-dd1670b86bcf"}},{"fullUrl":"Location/965b139e-e6d2-4c3e-ba6e-d16e2b24a92a","resource":{"resourceType":"Location","id":"965b139e-e6d2-4c3e-ba6e-d16e2b24a92a","meta":{"profile":["http://hl7.org/fhir/us/qicore/StructureDefinition/qicore-location"]},"identifier":[{"use":"usual","system":"http://exampleoflocation.com","value":"ED-1.R3"}],"name":"Emergency Department, first floor","type":[{"coding":[{"system":"http://snomed.info/sct","version":"20210611","code":"4525004","display":"Emergency department patient visit (procedure)","userSelected":true}]},{"coding":[{"system":"http://terminology.hl7.org/CodeSystem/v3-RoleCode","version":"2019","code":"ER","display":"Emergency room","userSelected":true}]}]},"request":{"method":"PUT","url":"Location/965b139e-e6d2-4c3e-ba6e-d16e2b24a92a"}},{"fullUrl":"Condition/aeded2e5-86e2-4c12-b21d-e80e1a50083c","resource":{"resourceType":"Condition","id":"aeded2e5-86e2-4c12-b21d-e80e1a50083c","meta":{"profile":["http://hl7.org/fhir/us/qicore/StructureDefinition/qicore-condition-encounter-diagnosis"]},"clinicalStatus":{"coding":[{"system":"http://terminology.hl7.org/CodeSystem/condition-clinical","code":"active","display":"active","userSelected":true}]},"category":[{"coding":[{"system":"http://terminology.hl7.org/CodeSystem/condition-category","code":"encounter-diagnosis","display":"Encounter Diagnosis","userSelected":true}]}],"code":{"coding":[{"system":"http://hl7.org/fhir/sid/icd-10-cm","code":"I21.3","userSelected":true}]},"subject":{"reference":"Patient/4a3a512c-b5bd-4da7-a8ed-a4cf56dfec29"},"onsetDateTime":"2026-10-09T08:11:00.000+00:00"},"request":{"method":"PUT","url":"Condition/aeded2e5-86e2-4c12-b21d-e80e1a50083c"}}]}