{"resourceType":"Bundle","id":"tests-362e7398-e10b-46d5-8a2d-d3355f9ca0ca-bundle","type":"transaction","entry":[{"fullUrl":"Bundle/i1f044ef3e654daa9112","resource":{"resourceType":"Bundle","id":"i1f044ef3e654daa9112","type":"transaction","entry":[{"fullUrl":"https://madie.cms.gov/Patient/362e7398-e10b-46d5-8a2d-d3355f9ca0ca","resource":{"resourceType":"Patient","id":"362e7398-e10b-46d5-8a2d-d3355f9ca0ca","meta":{"profile":["http://hl7.org/fhir/us/qicore/StructureDefinition/qicore-patient"]},"extension":[{"url":"http://hl7.org/fhir/us/core/StructureDefinition/us-core-race","extension":[{"url":"ombCategory","valueCoding":{"system":"urn:oid:2.16.840.1.113883.6.238","code":"1002-5","display":"American Indian or Alaska Native","userSelected":true}},{"url":"text","valueString":"American Indian or Alaska Native"}]},{"url":"http://hl7.org/fhir/us/core/StructureDefinition/us-core-ethnicity","extension":[{"url":"ombCategory","valueCoding":{"system":"urn:oid:2.16.840.1.113883.6.238","code":"2135-2","display":"Hispanic or Latino","userSelected":true}},{"url":"text","valueString":"Hispanic or Latino"}]},{"url":"http://hl7.org/fhir/us/core/StructureDefinition/us-core-sex","valueCode":"248153007"}],"identifier":[{"type":{"coding":[{"system":"http://terminology.hl7.org/CodeSystem/v2-0203","code":"MR"}]},"system":"https://bonnie-fhir.healthit.gov/","value":"i1f044ef3e654daa9112"}],"name":[{"family":"DENEXCL6PASS","given":["LongTermAnticoagulantUseMeetsBeforeED"]}],"gender":"male","birthDate":"1976-09-23"},"request":{"method":"PUT","url":"Patient/362e7398-e10b-46d5-8a2d-d3355f9ca0ca"}},{"fullUrl":"https://madie.cms.gov/Encounter/4adb372a-3df0-47e3-9d53-9a727d0e10e0","resource":{"resourceType":"Encounter","id":"4adb372a-3df0-47e3-9d53-9a727d0e10e0","meta":{"profile":["http://hl7.org/fhir/us/qicore/StructureDefinition/qicore-encounter"]},"status":"finished","class":{"system":"http://terminology.hl7.org/CodeSystem/v3-ActCode","code":"EMER","display":"emergency","userSelected":true},"type":[{"coding":[{"system":"http://snomed.info/sct","version":"2020-09","code":"4525004","display":"Emergency department patient visit","userSelected":true}]}],"subject":{"reference":"Patient/362e7398-e10b-46d5-8a2d-d3355f9ca0ca"},"period":{"start":"2026-10-09T05:00:00.000+00:00","end":"2026-10-13T17:00:00.000+00:00"},"reasonCode":[{"coding":[{"system":"http://hl7.org/fhir/sid/icd-10-cm","code":"I21.21","display":"ST elevation (STEMI) myocardial infarction involving left circumflex coronary artery","userSelected":true}]}]},"request":{"method":"PUT","url":"Encounter/4adb372a-3df0-47e3-9d53-9a727d0e10e0"}},{"fullUrl":"https://madie.cms.gov/Condition/60ddce39-947a-422b-beff-27ed40e44fc0","resource":{"resourceType":"Condition","id":"60ddce39-947a-422b-beff-27ed40e44fc0","meta":{"profile":["http://hl7.org/fhir/us/qicore/StructureDefinition/qicore-condition-problems-health-concerns"]},"clinicalStatus":{"coding":[{"system":"http://terminology.hl7.org/CodeSystem/condition-clinical","code":"inactive","display":"Inactive","userSelected":true}]},"verificationStatus":{"coding":[{"system":"http://terminology.hl7.org/CodeSystem/condition-ver-status","code":"confirmed"}]},"category":[{"coding":[{"system":"http://terminology.hl7.org/CodeSystem/condition-category","code":"problem-list-item","display":"Problem List Item","userSelected":true}]}],"code":{"coding":[{"system":"http://hl7.org/fhir/sid/icd-10-cm","code":"Z79.01","display":"Long term (current) use of anticoagulants","userSelected":true}]},"subject":{"reference":"Patient/362e7398-e10b-46d5-8a2d-d3355f9ca0ca"},"onsetDateTime":"2026-01-08T08:00:00.000+00:00","abatementDateTime":"2026-10-09T05:30:00.000+00:00"},"request":{"method":"PUT","url":"Condition/60ddce39-947a-422b-beff-27ed40e44fc0"}},{"fullUrl":"https://madie.cms.gov/MeasureReport/840f78a3-fc78-4eb4-9708-741eb700553b","resource":{"resourceType":"MeasureReport","id":"840f78a3-fc78-4eb4-9708-741eb700553b","meta":{"profile":["http://hl7.org/fhir/us/cqfmeasures/StructureDefinition/test-case-cqfm"]},"contained":[{"resourceType":"Parameters","id":"cf045a10-c5e1-4bc9-9a69-511dc885e1a0-parameters","parameter":[{"name":"subject","valueString":"362e7398-e10b-46d5-8a2d-d3355f9ca0ca"}]}],"extension":[{"url":"http://hl7.org/fhir/StructureDefinition/cqf-inputParameters","valueReference":{"reference":"#cf045a10-c5e1-4bc9-9a69-511dc885e1a0-parameters"}},{"url":"http://hl7.org/fhir/us/cqfmeasures/StructureDefinition/cqfm-testCaseDescription","valueMarkdown":"Patient has long term anticoagulant use before ED that ends during ED encounter start"}],"modifierExtension":[{"url":"http://hl7.org/fhir/us/cqfmeasures/StructureDefinition/cqfm-isTestCase","valueBoolean":true}],"status":"complete","type":"individual","measure":"https://madie.cms.gov/Measure/CMS996FHIRAptTxforSTEMI","period":{"start":"2026-01-01","end":"2026-12-31"},"group":[{"id":"Group_1","population":[{"id":"InitialPopulation_1","code":{"coding":[{"system":"http://terminology.hl7.org/CodeSystem/measure-population","code":"initial-population","display":"Initial Population"}]},"count":1},{"id":"Denominator_1","code":{"coding":[{"system":"http://terminology.hl7.org/CodeSystem/measure-population","code":"denominator","display":"Denominator"}]},"count":1},{"id":"DenominatorExclusion_1","code":{"coding":[{"system":"http://terminology.hl7.org/CodeSystem/measure-population","code":"denominator-exclusion","display":"Denominator Exclusion"}]},"count":1},{"id":"Numerator_1","code":{"coding":[{"system":"http://terminology.hl7.org/CodeSystem/measure-population","code":"numerator","display":"Numerator"}]},"count":0},{"id":"DenominatorException_1","code":{"coding":[{"system":"http://terminology.hl7.org/CodeSystem/measure-population","code":"denominator-exception","display":"Denominator Exception"}]},"count":0}],"measureScore":{"value":0.0}}],"evaluatedResource":[{"reference":"Patient/362e7398-e10b-46d5-8a2d-d3355f9ca0ca"},{"reference":"Encounter/4adb372a-3df0-47e3-9d53-9a727d0e10e0"},{"reference":"Condition/60ddce39-947a-422b-beff-27ed40e44fc0"}]},"request":{"method":"PUT","url":"MeasureReport/840f78a3-fc78-4eb4-9708-741eb700553b"}}]},"request":{"method":"PUT","url":"Bundle/i1f044ef3e654daa9112"}},{"fullUrl":"Encounter/4adb372a-3df0-47e3-9d53-9a727d0e10e0","resource":{"resourceType":"Encounter","id":"4adb372a-3df0-47e3-9d53-9a727d0e10e0","meta":{"profile":["http://hl7.org/fhir/us/qicore/StructureDefinition/qicore-encounter"]},"status":"finished","class":{"system":"http://terminology.hl7.org/CodeSystem/v3-ActCode","code":"EMER","display":"emergency","userSelected":true},"type":[{"coding":[{"system":"http://snomed.info/sct","version":"2020-09","code":"4525004","display":"Emergency department patient visit","userSelected":true}]}],"subject":{"reference":"Patient/362e7398-e10b-46d5-8a2d-d3355f9ca0ca"},"period":{"start":"2026-10-09T05:00:00.000+00:00","end":"2026-10-13T17:00:00.000+00:00"},"reasonCode":[{"coding":[{"system":"http://hl7.org/fhir/sid/icd-10-cm","code":"I21.21","display":"ST elevation (STEMI) myocardial infarction involving left circumflex coronary artery","userSelected":true}]}]},"request":{"method":"PUT","url":"Encounter/4adb372a-3df0-47e3-9d53-9a727d0e10e0"}},{"fullUrl":"MeasureReport/840f78a3-fc78-4eb4-9708-741eb700553b","resource":{"resourceType":"MeasureReport","id":"840f78a3-fc78-4eb4-9708-741eb700553b","meta":{"profile":["http://hl7.org/fhir/us/cqfmeasures/StructureDefinition/test-case-cqfm"]},"contained":[{"resourceType":"Parameters","id":"cf045a10-c5e1-4bc9-9a69-511dc885e1a0-parameters","parameter":[{"name":"subject","valueString":"362e7398-e10b-46d5-8a2d-d3355f9ca0ca"}]}],"extension":[{"url":"http://hl7.org/fhir/StructureDefinition/cqf-inputParameters","valueReference":{"reference":"#cf045a10-c5e1-4bc9-9a69-511dc885e1a0-parameters"}},{"url":"http://hl7.org/fhir/us/cqfmeasures/StructureDefinition/cqfm-testCaseDescription","valueMarkdown":"Patient has long term anticoagulant use before ED that ends during ED encounter start"}],"modifierExtension":[{"url":"http://hl7.org/fhir/us/cqfmeasures/StructureDefinition/cqfm-isTestCase","valueBoolean":true}],"status":"complete","type":"individual","measure":"https://madie.cms.gov/Measure/CMS996FHIRAptTxforSTEMI","period":{"start":"2026-01-01","end":"2026-12-31"},"group":[{"id":"Group_1","population":[{"id":"InitialPopulation_1","code":{"coding":[{"system":"http://terminology.hl7.org/CodeSystem/measure-population","code":"initial-population","display":"Initial Population"}]},"count":1},{"id":"Denominator_1","code":{"coding":[{"system":"http://terminology.hl7.org/CodeSystem/measure-population","code":"denominator","display":"Denominator"}]},"count":1},{"id":"DenominatorExclusion_1","code":{"coding":[{"system":"http://terminology.hl7.org/CodeSystem/measure-population","code":"denominator-exclusion","display":"Denominator Exclusion"}]},"count":1},{"id":"Numerator_1","code":{"coding":[{"system":"http://terminology.hl7.org/CodeSystem/measure-population","code":"numerator","display":"Numerator"}]},"count":0},{"id":"DenominatorException_1","code":{"coding":[{"system":"http://terminology.hl7.org/CodeSystem/measure-population","code":"denominator-exception","display":"Denominator Exception"}]},"count":0}],"measureScore":{"value":0.0}}],"evaluatedResource":[{"reference":"Patient/362e7398-e10b-46d5-8a2d-d3355f9ca0ca"},{"reference":"Encounter/4adb372a-3df0-47e3-9d53-9a727d0e10e0"},{"reference":"Condition/60ddce39-947a-422b-beff-27ed40e44fc0"}]},"request":{"method":"PUT","url":"MeasureReport/840f78a3-fc78-4eb4-9708-741eb700553b"}},{"fullUrl":"Patient/362e7398-e10b-46d5-8a2d-d3355f9ca0ca","resource":{"resourceType":"Patient","id":"362e7398-e10b-46d5-8a2d-d3355f9ca0ca","meta":{"profile":["http://hl7.org/fhir/us/qicore/StructureDefinition/qicore-patient"]},"extension":[{"url":"http://hl7.org/fhir/us/core/StructureDefinition/us-core-race","extension":[{"url":"ombCategory","valueCoding":{"system":"urn:oid:2.16.840.1.113883.6.238","code":"1002-5","display":"American Indian or Alaska Native","userSelected":true}},{"url":"text","valueString":"American Indian or Alaska Native"}]},{"url":"http://hl7.org/fhir/us/core/StructureDefinition/us-core-ethnicity","extension":[{"url":"ombCategory","valueCoding":{"system":"urn:oid:2.16.840.1.113883.6.238","code":"2135-2","display":"Hispanic or Latino","userSelected":true}},{"url":"text","valueString":"Hispanic or Latino"}]},{"url":"http://hl7.org/fhir/us/core/StructureDefinition/us-core-sex","valueCode":"248153007"}],"identifier":[{"type":{"coding":[{"system":"http://terminology.hl7.org/CodeSystem/v2-0203","code":"MR"}]},"system":"https://bonnie-fhir.healthit.gov/","value":"i1f044ef3e654daa9112"}],"name":[{"family":"DENEXCL6PASS","given":["LongTermAnticoagulantUseMeetsBeforeED"]}],"gender":"male","birthDate":"1976-09-23"},"request":{"method":"PUT","url":"Patient/362e7398-e10b-46d5-8a2d-d3355f9ca0ca"}},{"fullUrl":"Condition/60ddce39-947a-422b-beff-27ed40e44fc0","resource":{"resourceType":"Condition","id":"60ddce39-947a-422b-beff-27ed40e44fc0","meta":{"profile":["http://hl7.org/fhir/us/qicore/StructureDefinition/qicore-condition-problems-health-concerns"]},"clinicalStatus":{"coding":[{"system":"http://terminology.hl7.org/CodeSystem/condition-clinical","code":"inactive","display":"Inactive","userSelected":true}]},"verificationStatus":{"coding":[{"system":"http://terminology.hl7.org/CodeSystem/condition-ver-status","code":"confirmed"}]},"category":[{"coding":[{"system":"http://terminology.hl7.org/CodeSystem/condition-category","code":"problem-list-item","display":"Problem List Item","userSelected":true}]}],"code":{"coding":[{"system":"http://hl7.org/fhir/sid/icd-10-cm","code":"Z79.01","display":"Long term (current) use of anticoagulants","userSelected":true}]},"subject":{"reference":"Patient/362e7398-e10b-46d5-8a2d-d3355f9ca0ca"},"onsetDateTime":"2026-01-08T08:00:00.000+00:00","abatementDateTime":"2026-10-09T05:30:00.000+00:00"},"request":{"method":"PUT","url":"Condition/60ddce39-947a-422b-beff-27ed40e44fc0"}}]}