{"resourceType":"Bundle","id":"tests-9a0727fd-6922-4fcc-9d7f-0bfd5c2f473b-bundle","type":"transaction","entry":[{"fullUrl":"Bundle/6179e1a9e2011aa9929f330d","resource":{"resourceType":"Bundle","id":"6179e1a9e2011aa9929f330d","type":"transaction","entry":[{"fullUrl":"https://madie.cms.gov/Patient/9a0727fd-6922-4fcc-9d7f-0bfd5c2f473b","resource":{"resourceType":"Patient","id":"9a0727fd-6922-4fcc-9d7f-0bfd5c2f473b","meta":{"profile":["http://hl7.org/fhir/us/qicore/StructureDefinition/qicore-patient"]},"extension":[{"url":"http://hl7.org/fhir/us/core/StructureDefinition/us-core-race","extension":[{"url":"ombCategory","valueCoding":{"system":"urn:oid:2.16.840.1.113883.6.238","code":"2076-8","display":"Native Hawaiian or Other Pacific Islander","userSelected":true}},{"url":"text","valueString":"Native Hawaiian or Other Pacific Islander"}]},{"url":"http://hl7.org/fhir/us/core/StructureDefinition/us-core-ethnicity","extension":[{"url":"ombCategory","valueCoding":{"system":"urn:oid:2.16.840.1.113883.6.238","code":"2186-5","display":"Not Hispanic or Latino","userSelected":true}},{"url":"text","valueString":"Not Hispanic or Latino"}]},{"url":"http://hl7.org/fhir/us/core/StructureDefinition/us-core-sex","valueCode":"248152002"}],"identifier":[{"type":{"coding":[{"system":"http://terminology.hl7.org/CodeSystem/v2-0203","code":"MR"}]},"system":"https://bonnie-fhir.healthit.gov/","value":"6179e1a9e2011aa9929f330d"}],"name":[{"family":"DenExcl1Fail","given":["DxExclStartsBeforeEndsBeforeED"]}],"gender":"female","birthDate":"1985-12-02"},"request":{"method":"PUT","url":"Patient/9a0727fd-6922-4fcc-9d7f-0bfd5c2f473b"}},{"fullUrl":"https://madie.cms.gov/Encounter/1884bdc0-8fef-4a3c-b6d1-c4b635f9bcfa","resource":{"resourceType":"Encounter","id":"1884bdc0-8fef-4a3c-b6d1-c4b635f9bcfa","meta":{"profile":["http://hl7.org/fhir/us/qicore/StructureDefinition/qicore-encounter"]},"status":"finished","class":{"system":"http://terminology.hl7.org/CodeSystem/v3-ActCode","code":"EMER","display":"emergency","userSelected":true},"type":[{"coding":[{"system":"http://snomed.info/sct","version":"2020-09","code":"4525004","display":"Emergency department patient visit (procedure)","userSelected":true}]}],"subject":{"reference":"Patient/9a0727fd-6922-4fcc-9d7f-0bfd5c2f473b"},"period":{"start":"2026-10-09T08:05:00.000+00:00","end":"2026-10-10T07:15:00.000+00:00"},"reasonReference":[{"reference":"Condition/092e0f02-6d4d-4b37-a436-5eb6d81f3c5d"}]},"request":{"method":"PUT","url":"Encounter/1884bdc0-8fef-4a3c-b6d1-c4b635f9bcfa"}},{"fullUrl":"https://madie.cms.gov/Condition/092e0f02-6d4d-4b37-a436-5eb6d81f3c5d","resource":{"resourceType":"Condition","id":"092e0f02-6d4d-4b37-a436-5eb6d81f3c5d","meta":{"profile":["http://hl7.org/fhir/us/qicore/StructureDefinition/qicore-condition-problems-health-concerns"]},"clinicalStatus":{"coding":[{"system":"http://terminology.hl7.org/CodeSystem/condition-clinical","code":"active","display":"active","userSelected":true}]},"category":[{"coding":[{"system":"http://terminology.hl7.org/CodeSystem/condition-category","code":"problem-list-item","display":"Problem List Item","userSelected":true}]}],"code":{"coding":[{"system":"http://snomed.info/sct","version":"2020-09","code":"401303003","display":"Acute ST segment elevation myocardial infarction (disorder)","userSelected":true}]},"subject":{"reference":"Patient/9a0727fd-6922-4fcc-9d7f-0bfd5c2f473b"},"onsetDateTime":"2026-10-09T08:30:00.000+00:00"},"request":{"method":"PUT","url":"Condition/092e0f02-6d4d-4b37-a436-5eb6d81f3c5d"}},{"fullUrl":"https://madie.cms.gov/Condition/2f963ced-1900-4a0e-9d07-b127fab04b3e","resource":{"resourceType":"Condition","id":"2f963ced-1900-4a0e-9d07-b127fab04b3e","meta":{"profile":["http://hl7.org/fhir/us/qicore/StructureDefinition/qicore-condition-problems-health-concerns"]},"clinicalStatus":{"coding":[{"system":"http://terminology.hl7.org/CodeSystem/condition-clinical","version":"4.0.1","code":"inactive","display":"Inactive","userSelected":true}]},"category":[{"coding":[{"system":"http://terminology.hl7.org/CodeSystem/condition-category","code":"problem-list-item","display":"Problem List Item","userSelected":true}]}],"code":{"coding":[{"system":"http://snomed.info/sct","version":"2020-09","code":"111633007","display":"Open fracture of sacrum AND/OR coccyx with complete cauda equina lesion (disorder)","userSelected":true}]},"subject":{"reference":"Patient/9a0727fd-6922-4fcc-9d7f-0bfd5c2f473b"},"onsetDateTime":"2026-01-08T08:00:00.000+00:00","abatementDateTime":"2026-04-08T08:15:00.000+00:00"},"request":{"method":"PUT","url":"Condition/2f963ced-1900-4a0e-9d07-b127fab04b3e"}},{"fullUrl":"https://madie.cms.gov/MeasureReport/67007ab8-ccbd-4d8a-aa20-11b4e609c9a7","resource":{"resourceType":"MeasureReport","id":"67007ab8-ccbd-4d8a-aa20-11b4e609c9a7","meta":{"profile":["http://hl7.org/fhir/us/cqfmeasures/StructureDefinition/test-case-cqfm"]},"contained":[{"resourceType":"Parameters","id":"58c81c4a-149c-48f0-befc-dd540e5e1ea7-parameters","parameter":[{"name":"subject","valueString":"9a0727fd-6922-4fcc-9d7f-0bfd5c2f473b"}]}],"extension":[{"url":"http://hl7.org/fhir/StructureDefinition/cqf-inputParameters","valueReference":{"reference":"#58c81c4a-149c-48f0-befc-dd540e5e1ea7-parameters"}},{"url":"http://hl7.org/fhir/us/cqfmeasures/StructureDefinition/cqfm-testCaseDescription","valueMarkdown":"Patient has Neurologic Impairment (exclusion diagnosis) that starts before ED encounter and ends before ED"}],"modifierExtension":[{"url":"http://hl7.org/fhir/us/cqfmeasures/StructureDefinition/cqfm-isTestCase","valueBoolean":true}],"status":"complete","type":"individual","measure":"https://madie.cms.gov/Measure/CMS996FHIRAptTxforSTEMI","period":{"start":"2026-01-01","end":"2026-12-31"},"group":[{"id":"Group_1","population":[{"id":"InitialPopulation_1","code":{"coding":[{"system":"http://terminology.hl7.org/CodeSystem/measure-population","code":"initial-population","display":"Initial Population"}]},"count":1},{"id":"Denominator_1","code":{"coding":[{"system":"http://terminology.hl7.org/CodeSystem/measure-population","code":"denominator","display":"Denominator"}]},"count":1},{"id":"DenominatorExclusion_1","code":{"coding":[{"system":"http://terminology.hl7.org/CodeSystem/measure-population","code":"denominator-exclusion","display":"Denominator Exclusion"}]},"count":0},{"id":"Numerator_1","code":{"coding":[{"system":"http://terminology.hl7.org/CodeSystem/measure-population","code":"numerator","display":"Numerator"}]},"count":0},{"id":"DenominatorException_1","code":{"coding":[{"system":"http://terminology.hl7.org/CodeSystem/measure-population","code":"denominator-exception","display":"Denominator Exception"}]},"count":0}],"measureScore":{"value":0.0}}],"evaluatedResource":[{"reference":"Patient/9a0727fd-6922-4fcc-9d7f-0bfd5c2f473b"},{"reference":"Encounter/1884bdc0-8fef-4a3c-b6d1-c4b635f9bcfa"},{"reference":"Condition/092e0f02-6d4d-4b37-a436-5eb6d81f3c5d"},{"reference":"Condition/2f963ced-1900-4a0e-9d07-b127fab04b3e"}]},"request":{"method":"PUT","url":"MeasureReport/67007ab8-ccbd-4d8a-aa20-11b4e609c9a7"}}]},"request":{"method":"PUT","url":"Bundle/6179e1a9e2011aa9929f330d"}},{"fullUrl":"MeasureReport/67007ab8-ccbd-4d8a-aa20-11b4e609c9a7","resource":{"resourceType":"MeasureReport","id":"67007ab8-ccbd-4d8a-aa20-11b4e609c9a7","meta":{"profile":["http://hl7.org/fhir/us/cqfmeasures/StructureDefinition/test-case-cqfm"]},"contained":[{"resourceType":"Parameters","id":"58c81c4a-149c-48f0-befc-dd540e5e1ea7-parameters","parameter":[{"name":"subject","valueString":"9a0727fd-6922-4fcc-9d7f-0bfd5c2f473b"}]}],"extension":[{"url":"http://hl7.org/fhir/StructureDefinition/cqf-inputParameters","valueReference":{"reference":"#58c81c4a-149c-48f0-befc-dd540e5e1ea7-parameters"}},{"url":"http://hl7.org/fhir/us/cqfmeasures/StructureDefinition/cqfm-testCaseDescription","valueMarkdown":"Patient has Neurologic Impairment (exclusion diagnosis) that starts before ED encounter and ends before ED"}],"modifierExtension":[{"url":"http://hl7.org/fhir/us/cqfmeasures/StructureDefinition/cqfm-isTestCase","valueBoolean":true}],"status":"complete","type":"individual","measure":"https://madie.cms.gov/Measure/CMS996FHIRAptTxforSTEMI","period":{"start":"2026-01-01","end":"2026-12-31"},"group":[{"id":"Group_1","population":[{"id":"InitialPopulation_1","code":{"coding":[{"system":"http://terminology.hl7.org/CodeSystem/measure-population","code":"initial-population","display":"Initial Population"}]},"count":1},{"id":"Denominator_1","code":{"coding":[{"system":"http://terminology.hl7.org/CodeSystem/measure-population","code":"denominator","display":"Denominator"}]},"count":1},{"id":"DenominatorExclusion_1","code":{"coding":[{"system":"http://terminology.hl7.org/CodeSystem/measure-population","code":"denominator-exclusion","display":"Denominator Exclusion"}]},"count":0},{"id":"Numerator_1","code":{"coding":[{"system":"http://terminology.hl7.org/CodeSystem/measure-population","code":"numerator","display":"Numerator"}]},"count":0},{"id":"DenominatorException_1","code":{"coding":[{"system":"http://terminology.hl7.org/CodeSystem/measure-population","code":"denominator-exception","display":"Denominator Exception"}]},"count":0}],"measureScore":{"value":0.0}}],"evaluatedResource":[{"reference":"Patient/9a0727fd-6922-4fcc-9d7f-0bfd5c2f473b"},{"reference":"Encounter/1884bdc0-8fef-4a3c-b6d1-c4b635f9bcfa"},{"reference":"Condition/092e0f02-6d4d-4b37-a436-5eb6d81f3c5d"},{"reference":"Condition/2f963ced-1900-4a0e-9d07-b127fab04b3e"}]},"request":{"method":"PUT","url":"MeasureReport/67007ab8-ccbd-4d8a-aa20-11b4e609c9a7"}},{"fullUrl":"Condition/2f963ced-1900-4a0e-9d07-b127fab04b3e","resource":{"resourceType":"Condition","id":"2f963ced-1900-4a0e-9d07-b127fab04b3e","meta":{"profile":["http://hl7.org/fhir/us/qicore/StructureDefinition/qicore-condition-problems-health-concerns"]},"clinicalStatus":{"coding":[{"system":"http://terminology.hl7.org/CodeSystem/condition-clinical","version":"4.0.1","code":"inactive","display":"Inactive","userSelected":true}]},"category":[{"coding":[{"system":"http://terminology.hl7.org/CodeSystem/condition-category","code":"problem-list-item","display":"Problem List Item","userSelected":true}]}],"code":{"coding":[{"system":"http://snomed.info/sct","version":"2020-09","code":"111633007","display":"Open fracture of sacrum AND/OR coccyx with complete cauda equina lesion (disorder)","userSelected":true}]},"subject":{"reference":"Patient/9a0727fd-6922-4fcc-9d7f-0bfd5c2f473b"},"onsetDateTime":"2026-01-08T08:00:00.000+00:00","abatementDateTime":"2026-04-08T08:15:00.000+00:00"},"request":{"method":"PUT","url":"Condition/2f963ced-1900-4a0e-9d07-b127fab04b3e"}},{"fullUrl":"Encounter/1884bdc0-8fef-4a3c-b6d1-c4b635f9bcfa","resource":{"resourceType":"Encounter","id":"1884bdc0-8fef-4a3c-b6d1-c4b635f9bcfa","meta":{"profile":["http://hl7.org/fhir/us/qicore/StructureDefinition/qicore-encounter"]},"status":"finished","class":{"system":"http://terminology.hl7.org/CodeSystem/v3-ActCode","code":"EMER","display":"emergency","userSelected":true},"type":[{"coding":[{"system":"http://snomed.info/sct","version":"2020-09","code":"4525004","display":"Emergency department patient visit (procedure)","userSelected":true}]}],"subject":{"reference":"Patient/9a0727fd-6922-4fcc-9d7f-0bfd5c2f473b"},"period":{"start":"2026-10-09T08:05:00.000+00:00","end":"2026-10-10T07:15:00.000+00:00"},"reasonReference":[{"reference":"Condition/092e0f02-6d4d-4b37-a436-5eb6d81f3c5d"}]},"request":{"method":"PUT","url":"Encounter/1884bdc0-8fef-4a3c-b6d1-c4b635f9bcfa"}},{"fullUrl":"Condition/092e0f02-6d4d-4b37-a436-5eb6d81f3c5d","resource":{"resourceType":"Condition","id":"092e0f02-6d4d-4b37-a436-5eb6d81f3c5d","meta":{"profile":["http://hl7.org/fhir/us/qicore/StructureDefinition/qicore-condition-problems-health-concerns"]},"clinicalStatus":{"coding":[{"system":"http://terminology.hl7.org/CodeSystem/condition-clinical","code":"active","display":"active","userSelected":true}]},"category":[{"coding":[{"system":"http://terminology.hl7.org/CodeSystem/condition-category","code":"problem-list-item","display":"Problem List Item","userSelected":true}]}],"code":{"coding":[{"system":"http://snomed.info/sct","version":"2020-09","code":"401303003","display":"Acute ST segment elevation myocardial infarction (disorder)","userSelected":true}]},"subject":{"reference":"Patient/9a0727fd-6922-4fcc-9d7f-0bfd5c2f473b"},"onsetDateTime":"2026-10-09T08:30:00.000+00:00"},"request":{"method":"PUT","url":"Condition/092e0f02-6d4d-4b37-a436-5eb6d81f3c5d"}},{"fullUrl":"Patient/9a0727fd-6922-4fcc-9d7f-0bfd5c2f473b","resource":{"resourceType":"Patient","id":"9a0727fd-6922-4fcc-9d7f-0bfd5c2f473b","meta":{"profile":["http://hl7.org/fhir/us/qicore/StructureDefinition/qicore-patient"]},"extension":[{"url":"http://hl7.org/fhir/us/core/StructureDefinition/us-core-race","extension":[{"url":"ombCategory","valueCoding":{"system":"urn:oid:2.16.840.1.113883.6.238","code":"2076-8","display":"Native Hawaiian or Other Pacific Islander","userSelected":true}},{"url":"text","valueString":"Native Hawaiian or Other Pacific Islander"}]},{"url":"http://hl7.org/fhir/us/core/StructureDefinition/us-core-ethnicity","extension":[{"url":"ombCategory","valueCoding":{"system":"urn:oid:2.16.840.1.113883.6.238","code":"2186-5","display":"Not Hispanic or Latino","userSelected":true}},{"url":"text","valueString":"Not Hispanic or Latino"}]},{"url":"http://hl7.org/fhir/us/core/StructureDefinition/us-core-sex","valueCode":"248152002"}],"identifier":[{"type":{"coding":[{"system":"http://terminology.hl7.org/CodeSystem/v2-0203","code":"MR"}]},"system":"https://bonnie-fhir.healthit.gov/","value":"6179e1a9e2011aa9929f330d"}],"name":[{"family":"DenExcl1Fail","given":["DxExclStartsBeforeEndsBeforeED"]}],"gender":"female","birthDate":"1985-12-02"},"request":{"method":"PUT","url":"Patient/9a0727fd-6922-4fcc-9d7f-0bfd5c2f473b"}}]}