{"resourceType":"Bundle","id":"tests-a1b8c5f2-f17a-411e-bf2f-7da72f4a5f12-bundle","type":"transaction","entry":[{"resource":{"resourceType":"MeasureReport","id":"01f7e544-5ab4-479f-b616-01009a980133","meta":{"profile":["http://hl7.org/fhir/us/cqfmeasures/StructureDefinition/test-case-cqfm"]},"contained":[{"resourceType":"Parameters","id":"0e94e10c-e4a3-4986-94ed-69352a5a409c-parameters","parameter":[{"name":"subject","valueString":"a1b8c5f2-f17a-411e-bf2f-7da72f4a5f12"}]}],"extension":[{"url":"http://hl7.org/fhir/StructureDefinition/cqf-inputParameters","valueReference":{"reference":"#0e94e10c-e4a3-4986-94ed-69352a5a409c-parameters"}},{"url":"http://hl7.org/fhir/us/cqfmeasures/StructureDefinition/cqfm-testCaseDescription","valueMarkdown":"Patient has allergy to medication ingredient starts before and ends during ED"}],"modifierExtension":[{"url":"http://hl7.org/fhir/us/cqfmeasures/StructureDefinition/cqfm-isTestCase","valueBoolean":true}],"status":"complete","type":"individual","measure":"https://madie.cms.gov/Measure/CMS996FHIRAptTxforSTEMI","period":{"start":"2026-01-01","end":"2026-12-31"},"group":[{"id":"Group_1","population":[{"id":"InitialPopulation_1","code":{"coding":[{"system":"http://terminology.hl7.org/CodeSystem/measure-population","code":"initial-population","display":"Initial Population"}]},"count":1},{"id":"Denominator_1","code":{"coding":[{"system":"http://terminology.hl7.org/CodeSystem/measure-population","code":"denominator","display":"Denominator"}]},"count":1},{"id":"DenominatorExclusion_1","code":{"coding":[{"system":"http://terminology.hl7.org/CodeSystem/measure-population","code":"denominator-exclusion","display":"Denominator Exclusion"}]},"count":1},{"id":"Numerator_1","code":{"coding":[{"system":"http://terminology.hl7.org/CodeSystem/measure-population","code":"numerator","display":"Numerator"}]},"count":0},{"id":"DenominatorException_1","code":{"coding":[{"system":"http://terminology.hl7.org/CodeSystem/measure-population","code":"denominator-exception","display":"Denominator Exception"}]},"count":0}],"measureScore":{"value":0.0}}],"evaluatedResource":[{"reference":"Patient/a1b8c5f2-f17a-411e-bf2f-7da72f4a5f12"},{"reference":"Encounter/46f8ea41-3a7a-4610-8e5e-5f8818acaf89"},{"reference":"AllergyIntolerance/3e6bb07d-ab40-4164-a843-26e160935d93"}]},"request":{"method":"PUT","url":"MeasureReport/01f7e544-5ab4-479f-b616-01009a980133"}},{"resource":{"resourceType":"Encounter","id":"46f8ea41-3a7a-4610-8e5e-5f8818acaf89","meta":{"profile":["http://hl7.org/fhir/us/qicore/StructureDefinition/qicore-encounter"]},"status":"finished","class":{"system":"http://terminology.hl7.org/CodeSystem/v3-ActCode","code":"EMER","display":"emergency","userSelected":true},"type":[{"coding":[{"system":"http://snomed.info/sct","version":"2020-09","code":"4525004","display":"Emergency department patient visit (procedure)","userSelected":true}]}],"subject":{"reference":"Patient/a1b8c5f2-f17a-411e-bf2f-7da72f4a5f12"},"period":{"start":"2026-10-09T08:05:00.000+00:00","end":"2026-10-10T07:15:00.000+00:00"},"reasonCode":[{"coding":[{"system":"http://snomed.info/sct","version":"2020-09","code":"703211006","display":"Subsequent ST segment elevation myocardial infarction (disorder)","userSelected":true}]}]},"request":{"method":"PUT","url":"Encounter/46f8ea41-3a7a-4610-8e5e-5f8818acaf89"}},{"resource":{"resourceType":"Patient","id":"a1b8c5f2-f17a-411e-bf2f-7da72f4a5f12","meta":{"profile":["http://hl7.org/fhir/us/qicore/StructureDefinition/qicore-patient"]},"extension":[{"url":"http://hl7.org/fhir/us/core/StructureDefinition/us-core-race","extension":[{"url":"ombCategory","valueCoding":{"system":"urn:oid:2.16.840.1.113883.6.238","code":"2028-9","display":"Asian","userSelected":true}},{"url":"text","valueString":"Asian"}]},{"url":"http://hl7.org/fhir/us/core/StructureDefinition/us-core-ethnicity","extension":[{"url":"ombCategory","valueCoding":{"system":"urn:oid:2.16.840.1.113883.6.238","code":"2135-2","display":"Hispanic or Latino","userSelected":true}},{"url":"text","valueString":"Hispanic or Latino"}]},{"url":"http://hl7.org/fhir/us/core/StructureDefinition/us-core-sex","valueCode":"248153007"}],"identifier":[{"type":{"coding":[{"system":"http://terminology.hl7.org/CodeSystem/v2-0203","code":"MR"}]},"system":"https://bonnie-fhir.healthit.gov/","value":"617bf3ae1619a529957d62cb"}],"name":[{"family":"DenExcl8Fail","given":["AllergyStartsBeforeEndsDuringED"]}],"gender":"male","birthDate":"1985-12-02"},"request":{"method":"PUT","url":"Patient/a1b8c5f2-f17a-411e-bf2f-7da72f4a5f12"}},{"resource":{"resourceType":"Bundle","id":"617bf3ae1619a529957d62cb","type":"transaction","entry":[{"fullUrl":"https://madie.cms.gov/Patient/a1b8c5f2-f17a-411e-bf2f-7da72f4a5f12","resource":{"resourceType":"Patient","id":"a1b8c5f2-f17a-411e-bf2f-7da72f4a5f12","meta":{"profile":["http://hl7.org/fhir/us/qicore/StructureDefinition/qicore-patient"]},"extension":[{"url":"http://hl7.org/fhir/us/core/StructureDefinition/us-core-race","extension":[{"url":"ombCategory","valueCoding":{"system":"urn:oid:2.16.840.1.113883.6.238","code":"2028-9","display":"Asian","userSelected":true}},{"url":"text","valueString":"Asian"}]},{"url":"http://hl7.org/fhir/us/core/StructureDefinition/us-core-ethnicity","extension":[{"url":"ombCategory","valueCoding":{"system":"urn:oid:2.16.840.1.113883.6.238","code":"2135-2","display":"Hispanic or Latino","userSelected":true}},{"url":"text","valueString":"Hispanic or Latino"}]},{"url":"http://hl7.org/fhir/us/core/StructureDefinition/us-core-sex","valueCode":"248153007"}],"identifier":[{"type":{"coding":[{"system":"http://terminology.hl7.org/CodeSystem/v2-0203","code":"MR"}]},"system":"https://bonnie-fhir.healthit.gov/","value":"617bf3ae1619a529957d62cb"}],"name":[{"family":"DenExcl8Fail","given":["AllergyStartsBeforeEndsDuringED"]}],"gender":"male","birthDate":"1985-12-02"},"request":{"method":"PUT","url":"Patient/a1b8c5f2-f17a-411e-bf2f-7da72f4a5f12"}},{"fullUrl":"https://madie.cms.gov/Encounter/46f8ea41-3a7a-4610-8e5e-5f8818acaf89","resource":{"resourceType":"Encounter","id":"46f8ea41-3a7a-4610-8e5e-5f8818acaf89","meta":{"profile":["http://hl7.org/fhir/us/qicore/StructureDefinition/qicore-encounter"]},"status":"finished","class":{"system":"http://terminology.hl7.org/CodeSystem/v3-ActCode","code":"EMER","display":"emergency","userSelected":true},"type":[{"coding":[{"system":"http://snomed.info/sct","version":"2020-09","code":"4525004","display":"Emergency department patient visit (procedure)","userSelected":true}]}],"subject":{"reference":"Patient/a1b8c5f2-f17a-411e-bf2f-7da72f4a5f12"},"period":{"start":"2026-10-09T08:05:00.000+00:00","end":"2026-10-10T07:15:00.000+00:00"},"reasonCode":[{"coding":[{"system":"http://snomed.info/sct","version":"2020-09","code":"703211006","display":"Subsequent ST segment elevation myocardial infarction (disorder)","userSelected":true}]}]},"request":{"method":"PUT","url":"Encounter/46f8ea41-3a7a-4610-8e5e-5f8818acaf89"}},{"fullUrl":"https://madie.cms.gov/AllergyIntolerance/3e6bb07d-ab40-4164-a843-26e160935d93","resource":{"resourceType":"AllergyIntolerance","id":"3e6bb07d-ab40-4164-a843-26e160935d93","meta":{"profile":["http://hl7.org/fhir/us/qicore/StructureDefinition/qicore-allergyintolerance"]},"clinicalStatus":{"coding":[{"system":"http://terminology.hl7.org/CodeSystem/allergyintolerance-clinical","code":"active","display":"Active","userSelected":true}]},"verificationStatus":{"coding":[{"system":"http://terminology.hl7.org/CodeSystem/allergyintolerance-verification","code":"unconfirmed"}]},"code":{"coding":[{"system":"http://www.nlm.nih.gov/research/umls/rxnorm","version":"2021-01","code":"10106","display":"streptokinase","userSelected":true}]},"patient":{"reference":"Patient/a1b8c5f2-f17a-411e-bf2f-7da72f4a5f12"},"onsetPeriod":{"start":"2021-01-10T08:00:00.000+00:00","end":"2026-10-09T10:15:00.000+00:00"}},"request":{"method":"PUT","url":"AllergyIntolerance/3e6bb07d-ab40-4164-a843-26e160935d93"}},{"fullUrl":"https://madie.cms.gov/MeasureReport/01f7e544-5ab4-479f-b616-01009a980133","resource":{"resourceType":"MeasureReport","id":"01f7e544-5ab4-479f-b616-01009a980133","meta":{"profile":["http://hl7.org/fhir/us/cqfmeasures/StructureDefinition/test-case-cqfm"]},"contained":[{"resourceType":"Parameters","id":"0e94e10c-e4a3-4986-94ed-69352a5a409c-parameters","parameter":[{"name":"subject","valueString":"a1b8c5f2-f17a-411e-bf2f-7da72f4a5f12"}]}],"extension":[{"url":"http://hl7.org/fhir/StructureDefinition/cqf-inputParameters","valueReference":{"reference":"#0e94e10c-e4a3-4986-94ed-69352a5a409c-parameters"}},{"url":"http://hl7.org/fhir/us/cqfmeasures/StructureDefinition/cqfm-testCaseDescription","valueMarkdown":"Patient has allergy to medication ingredient starts before and ends during ED"}],"modifierExtension":[{"url":"http://hl7.org/fhir/us/cqfmeasures/StructureDefinition/cqfm-isTestCase","valueBoolean":true}],"status":"complete","type":"individual","measure":"https://madie.cms.gov/Measure/CMS996FHIRAptTxforSTEMI","period":{"start":"2026-01-01","end":"2026-12-31"},"group":[{"id":"Group_1","population":[{"id":"InitialPopulation_1","code":{"coding":[{"system":"http://terminology.hl7.org/CodeSystem/measure-population","code":"initial-population","display":"Initial Population"}]},"count":1},{"id":"Denominator_1","code":{"coding":[{"system":"http://terminology.hl7.org/CodeSystem/measure-population","code":"denominator","display":"Denominator"}]},"count":1},{"id":"DenominatorExclusion_1","code":{"coding":[{"system":"http://terminology.hl7.org/CodeSystem/measure-population","code":"denominator-exclusion","display":"Denominator Exclusion"}]},"count":1},{"id":"Numerator_1","code":{"coding":[{"system":"http://terminology.hl7.org/CodeSystem/measure-population","code":"numerator","display":"Numerator"}]},"count":0},{"id":"DenominatorException_1","code":{"coding":[{"system":"http://terminology.hl7.org/CodeSystem/measure-population","code":"denominator-exception","display":"Denominator Exception"}]},"count":0}],"measureScore":{"value":0.0}}],"evaluatedResource":[{"reference":"Patient/a1b8c5f2-f17a-411e-bf2f-7da72f4a5f12"},{"reference":"Encounter/46f8ea41-3a7a-4610-8e5e-5f8818acaf89"},{"reference":"AllergyIntolerance/3e6bb07d-ab40-4164-a843-26e160935d93"}]},"request":{"method":"PUT","url":"MeasureReport/01f7e544-5ab4-479f-b616-01009a980133"}}]},"request":{"method":"PUT","url":"Bundle/617bf3ae1619a529957d62cb"}},{"resource":{"resourceType":"AllergyIntolerance","id":"3e6bb07d-ab40-4164-a843-26e160935d93","meta":{"profile":["http://hl7.org/fhir/us/qicore/StructureDefinition/qicore-allergyintolerance"]},"clinicalStatus":{"coding":[{"system":"http://terminology.hl7.org/CodeSystem/allergyintolerance-clinical","code":"active","display":"Active","userSelected":true}]},"verificationStatus":{"coding":[{"system":"http://terminology.hl7.org/CodeSystem/allergyintolerance-verification","code":"unconfirmed"}]},"code":{"coding":[{"system":"http://www.nlm.nih.gov/research/umls/rxnorm","version":"2021-01","code":"10106","display":"streptokinase","userSelected":true}]},"patient":{"reference":"Patient/a1b8c5f2-f17a-411e-bf2f-7da72f4a5f12"},"onsetPeriod":{"start":"2021-01-10T08:00:00.000+00:00","end":"2026-10-09T10:15:00.000+00:00"}},"request":{"method":"PUT","url":"AllergyIntolerance/3e6bb07d-ab40-4164-a843-26e160935d93"}}]}