{"resourceType":"Bundle","id":"tests-c453e51c-aa59-4755-b872-28b2f05f3552-bundle","type":"transaction","entry":[{"fullUrl":"MeasureReport/37bbc320-072a-48fe-b043-a575d7f00891","resource":{"resourceType":"MeasureReport","id":"37bbc320-072a-48fe-b043-a575d7f00891","meta":{"profile":["http://hl7.org/fhir/us/cqfmeasures/StructureDefinition/test-case-cqfm"]},"contained":[{"resourceType":"Parameters","id":"caa40d7c-c7d0-430c-9105-524a7c5da968-parameters","parameter":[{"name":"subject","valueString":"c453e51c-aa59-4755-b872-28b2f05f3552"}]}],"extension":[{"url":"http://hl7.org/fhir/StructureDefinition/cqf-inputParameters","valueReference":{"reference":"#caa40d7c-c7d0-430c-9105-524a7c5da968-parameters"}},{"url":"http://hl7.org/fhir/us/cqfmeasures/StructureDefinition/cqfm-testCaseDescription","valueMarkdown":"pregnancy starts before and ends after ED visit"}],"modifierExtension":[{"url":"http://hl7.org/fhir/us/cqfmeasures/StructureDefinition/cqfm-isTestCase","valueBoolean":true}],"status":"complete","type":"individual","measure":"https://madie.cms.gov/Measure/CMS996FHIRAptTxforSTEMI","period":{"start":"2026-01-01","end":"2026-12-31"},"group":[{"id":"Group_1","population":[{"id":"InitialPopulation_1","code":{"coding":[{"system":"http://terminology.hl7.org/CodeSystem/measure-population","code":"initial-population","display":"Initial Population"}]},"count":1},{"id":"Denominator_1","code":{"coding":[{"system":"http://terminology.hl7.org/CodeSystem/measure-population","code":"denominator","display":"Denominator"}]},"count":1},{"id":"DenominatorExclusion_1","code":{"coding":[{"system":"http://terminology.hl7.org/CodeSystem/measure-population","code":"denominator-exclusion","display":"Denominator Exclusion"}]},"count":1},{"id":"Numerator_1","code":{"coding":[{"system":"http://terminology.hl7.org/CodeSystem/measure-population","code":"numerator","display":"Numerator"}]},"count":0},{"id":"DenominatorException_1","code":{"coding":[{"system":"http://terminology.hl7.org/CodeSystem/measure-population","code":"denominator-exception","display":"Denominator Exception"}]},"count":0}],"measureScore":{"value":0.0}}],"evaluatedResource":[{"reference":"Patient/c453e51c-aa59-4755-b872-28b2f05f3552"},{"reference":"Encounter/9175208f-fe46-48a4-a661-41f13df3f9c9"},{"reference":"Condition/7ed1a5b9-7b29-42c3-91d3-8b2e1a5923f8"},{"reference":"Condition/fd134b64-03f6-4207-ab62-8ac4fd281531"}]},"request":{"method":"PUT","url":"MeasureReport/37bbc320-072a-48fe-b043-a575d7f00891"}},{"fullUrl":"Patient/c453e51c-aa59-4755-b872-28b2f05f3552","resource":{"resourceType":"Patient","id":"c453e51c-aa59-4755-b872-28b2f05f3552","meta":{"profile":["http://hl7.org/fhir/us/qicore/StructureDefinition/qicore-patient"]},"extension":[{"url":"http://hl7.org/fhir/us/core/StructureDefinition/us-core-race","extension":[{"url":"ombCategory","valueCoding":{"system":"urn:oid:2.16.840.1.113883.6.238","code":"2028-9","display":"Asian","userSelected":true}},{"url":"text","valueString":"Asian"}]},{"url":"http://hl7.org/fhir/us/core/StructureDefinition/us-core-ethnicity","extension":[{"url":"ombCategory","valueCoding":{"system":"urn:oid:2.16.840.1.113883.6.238","code":"2186-5","display":"Not Hispanic or Latino","userSelected":true}},{"url":"text","valueString":"Not Hispanic or Latino"}]},{"url":"http://hl7.org/fhir/us/core/StructureDefinition/us-core-sex","valueCode":"248153007"}],"identifier":[{"type":{"coding":[{"system":"http://terminology.hl7.org/CodeSystem/v2-0203","code":"MR"}]},"system":"https://bonnie-fhir.healthit.gov/","value":"617b1149513b5d1ee28b757d"}],"name":[{"family":"DenExcl4Pass","given":["DxStartsBeforeEndsAfterED"]}],"gender":"female","birthDate":"1985-12-02"},"request":{"method":"PUT","url":"Patient/c453e51c-aa59-4755-b872-28b2f05f3552"}},{"fullUrl":"Condition/fd134b64-03f6-4207-ab62-8ac4fd281531","resource":{"resourceType":"Condition","id":"fd134b64-03f6-4207-ab62-8ac4fd281531","meta":{"profile":["http://hl7.org/fhir/us/qicore/StructureDefinition/qicore-condition-problems-health-concerns"]},"clinicalStatus":{"coding":[{"system":"http://terminology.hl7.org/CodeSystem/condition-clinical","version":"4.0.1","code":"inactive","display":"inactive","userSelected":true}]},"verificationStatus":{"coding":[{"system":"http://terminology.hl7.org/CodeSystem/condition-ver-status","code":"differential"}]},"category":[{"coding":[{"system":"http://terminology.hl7.org/CodeSystem/condition-category","code":"problem-list-item","display":"Problem List Item","userSelected":true}]}],"code":{"coding":[{"system":"http://snomed.info/sct","version":"2020-09","code":"77386006","display":"Pregnant woman (person)","userSelected":true}]},"subject":{"reference":"Patient/c453e51c-aa59-4755-b872-28b2f05f3552"},"onsetDateTime":"2024-10-01T08:00:00.000+00:00","abatementDateTime":"2026-10-31T08:15:00.000+00:00"},"request":{"method":"PUT","url":"Condition/fd134b64-03f6-4207-ab62-8ac4fd281531"}},{"fullUrl":"Encounter/9175208f-fe46-48a4-a661-41f13df3f9c9","resource":{"resourceType":"Encounter","id":"9175208f-fe46-48a4-a661-41f13df3f9c9","meta":{"profile":["http://hl7.org/fhir/us/qicore/StructureDefinition/qicore-encounter"]},"status":"finished","class":{"system":"http://terminology.hl7.org/CodeSystem/v3-ActCode","code":"EMER","display":"emergency","userSelected":true},"type":[{"coding":[{"system":"http://snomed.info/sct","version":"2020-09","code":"4525004","display":"Emergency department patient visit (procedure)","userSelected":true}]}],"subject":{"reference":"Patient/c453e51c-aa59-4755-b872-28b2f05f3552"},"period":{"start":"2026-10-09T08:05:00.000+00:00","end":"2026-10-10T07:15:00.000+00:00"},"reasonReference":[{"reference":"Condition/7ed1a5b9-7b29-42c3-91d3-8b2e1a5923f8"}]},"request":{"method":"PUT","url":"Encounter/9175208f-fe46-48a4-a661-41f13df3f9c9"}},{"fullUrl":"Condition/7ed1a5b9-7b29-42c3-91d3-8b2e1a5923f8","resource":{"resourceType":"Condition","id":"7ed1a5b9-7b29-42c3-91d3-8b2e1a5923f8","meta":{"profile":["http://hl7.org/fhir/us/qicore/StructureDefinition/qicore-condition-problems-health-concerns"]},"clinicalStatus":{"coding":[{"system":"http://terminology.hl7.org/CodeSystem/condition-clinical","code":"active","display":"active","userSelected":true}]},"category":[{"coding":[{"system":"http://terminology.hl7.org/CodeSystem/condition-category","code":"problem-list-item","display":"Problem List Item","userSelected":true}]}],"code":{"coding":[{"system":"http://snomed.info/sct","version":"2020-09","code":"401303003","display":"Acute ST segment elevation myocardial infarction (disorder)","userSelected":true}]},"subject":{"reference":"Patient/c453e51c-aa59-4755-b872-28b2f05f3552"},"onsetDateTime":"2026-10-09T08:30:00.000+00:00"},"request":{"method":"PUT","url":"Condition/7ed1a5b9-7b29-42c3-91d3-8b2e1a5923f8"}},{"fullUrl":"Bundle/617b1149513b5d1ee28b757d","resource":{"resourceType":"Bundle","id":"617b1149513b5d1ee28b757d","type":"transaction","entry":[{"fullUrl":"https://madie.cms.gov/Patient/c453e51c-aa59-4755-b872-28b2f05f3552","resource":{"resourceType":"Patient","id":"c453e51c-aa59-4755-b872-28b2f05f3552","meta":{"profile":["http://hl7.org/fhir/us/qicore/StructureDefinition/qicore-patient"]},"extension":[{"url":"http://hl7.org/fhir/us/core/StructureDefinition/us-core-race","extension":[{"url":"ombCategory","valueCoding":{"system":"urn:oid:2.16.840.1.113883.6.238","code":"2028-9","display":"Asian","userSelected":true}},{"url":"text","valueString":"Asian"}]},{"url":"http://hl7.org/fhir/us/core/StructureDefinition/us-core-ethnicity","extension":[{"url":"ombCategory","valueCoding":{"system":"urn:oid:2.16.840.1.113883.6.238","code":"2186-5","display":"Not Hispanic or Latino","userSelected":true}},{"url":"text","valueString":"Not Hispanic or Latino"}]},{"url":"http://hl7.org/fhir/us/core/StructureDefinition/us-core-sex","valueCode":"248153007"}],"identifier":[{"type":{"coding":[{"system":"http://terminology.hl7.org/CodeSystem/v2-0203","code":"MR"}]},"system":"https://bonnie-fhir.healthit.gov/","value":"617b1149513b5d1ee28b757d"}],"name":[{"family":"DenExcl4Pass","given":["DxStartsBeforeEndsAfterED"]}],"gender":"female","birthDate":"1985-12-02"},"request":{"method":"PUT","url":"Patient/c453e51c-aa59-4755-b872-28b2f05f3552"}},{"fullUrl":"https://madie.cms.gov/Encounter/9175208f-fe46-48a4-a661-41f13df3f9c9","resource":{"resourceType":"Encounter","id":"9175208f-fe46-48a4-a661-41f13df3f9c9","meta":{"profile":["http://hl7.org/fhir/us/qicore/StructureDefinition/qicore-encounter"]},"status":"finished","class":{"system":"http://terminology.hl7.org/CodeSystem/v3-ActCode","code":"EMER","display":"emergency","userSelected":true},"type":[{"coding":[{"system":"http://snomed.info/sct","version":"2020-09","code":"4525004","display":"Emergency department patient visit (procedure)","userSelected":true}]}],"subject":{"reference":"Patient/c453e51c-aa59-4755-b872-28b2f05f3552"},"period":{"start":"2026-10-09T08:05:00.000+00:00","end":"2026-10-10T07:15:00.000+00:00"},"reasonReference":[{"reference":"Condition/7ed1a5b9-7b29-42c3-91d3-8b2e1a5923f8"}]},"request":{"method":"PUT","url":"Encounter/9175208f-fe46-48a4-a661-41f13df3f9c9"}},{"fullUrl":"https://madie.cms.gov/Condition/7ed1a5b9-7b29-42c3-91d3-8b2e1a5923f8","resource":{"resourceType":"Condition","id":"7ed1a5b9-7b29-42c3-91d3-8b2e1a5923f8","meta":{"profile":["http://hl7.org/fhir/us/qicore/StructureDefinition/qicore-condition-problems-health-concerns"]},"clinicalStatus":{"coding":[{"system":"http://terminology.hl7.org/CodeSystem/condition-clinical","code":"active","display":"active","userSelected":true}]},"category":[{"coding":[{"system":"http://terminology.hl7.org/CodeSystem/condition-category","code":"problem-list-item","display":"Problem List Item","userSelected":true}]}],"code":{"coding":[{"system":"http://snomed.info/sct","version":"2020-09","code":"401303003","display":"Acute ST segment elevation myocardial infarction (disorder)","userSelected":true}]},"subject":{"reference":"Patient/c453e51c-aa59-4755-b872-28b2f05f3552"},"onsetDateTime":"2026-10-09T08:30:00.000+00:00"},"request":{"method":"PUT","url":"Condition/7ed1a5b9-7b29-42c3-91d3-8b2e1a5923f8"}},{"fullUrl":"https://madie.cms.gov/Condition/fd134b64-03f6-4207-ab62-8ac4fd281531","resource":{"resourceType":"Condition","id":"fd134b64-03f6-4207-ab62-8ac4fd281531","meta":{"profile":["http://hl7.org/fhir/us/qicore/StructureDefinition/qicore-condition-problems-health-concerns"]},"clinicalStatus":{"coding":[{"system":"http://terminology.hl7.org/CodeSystem/condition-clinical","version":"4.0.1","code":"inactive","display":"inactive","userSelected":true}]},"verificationStatus":{"coding":[{"system":"http://terminology.hl7.org/CodeSystem/condition-ver-status","code":"differential"}]},"category":[{"coding":[{"system":"http://terminology.hl7.org/CodeSystem/condition-category","code":"problem-list-item","display":"Problem List Item","userSelected":true}]}],"code":{"coding":[{"system":"http://snomed.info/sct","version":"2020-09","code":"77386006","display":"Pregnant woman (person)","userSelected":true}]},"subject":{"reference":"Patient/c453e51c-aa59-4755-b872-28b2f05f3552"},"onsetDateTime":"2024-10-01T08:00:00.000+00:00","abatementDateTime":"2026-10-31T08:15:00.000+00:00"},"request":{"method":"PUT","url":"Condition/fd134b64-03f6-4207-ab62-8ac4fd281531"}},{"fullUrl":"https://madie.cms.gov/MeasureReport/37bbc320-072a-48fe-b043-a575d7f00891","resource":{"resourceType":"MeasureReport","id":"37bbc320-072a-48fe-b043-a575d7f00891","meta":{"profile":["http://hl7.org/fhir/us/cqfmeasures/StructureDefinition/test-case-cqfm"]},"contained":[{"resourceType":"Parameters","id":"caa40d7c-c7d0-430c-9105-524a7c5da968-parameters","parameter":[{"name":"subject","valueString":"c453e51c-aa59-4755-b872-28b2f05f3552"}]}],"extension":[{"url":"http://hl7.org/fhir/StructureDefinition/cqf-inputParameters","valueReference":{"reference":"#caa40d7c-c7d0-430c-9105-524a7c5da968-parameters"}},{"url":"http://hl7.org/fhir/us/cqfmeasures/StructureDefinition/cqfm-testCaseDescription","valueMarkdown":"pregnancy starts before and ends after ED visit"}],"modifierExtension":[{"url":"http://hl7.org/fhir/us/cqfmeasures/StructureDefinition/cqfm-isTestCase","valueBoolean":true}],"status":"complete","type":"individual","measure":"https://madie.cms.gov/Measure/CMS996FHIRAptTxforSTEMI","period":{"start":"2026-01-01","end":"2026-12-31"},"group":[{"id":"Group_1","population":[{"id":"InitialPopulation_1","code":{"coding":[{"system":"http://terminology.hl7.org/CodeSystem/measure-population","code":"initial-population","display":"Initial Population"}]},"count":1},{"id":"Denominator_1","code":{"coding":[{"system":"http://terminology.hl7.org/CodeSystem/measure-population","code":"denominator","display":"Denominator"}]},"count":1},{"id":"DenominatorExclusion_1","code":{"coding":[{"system":"http://terminology.hl7.org/CodeSystem/measure-population","code":"denominator-exclusion","display":"Denominator Exclusion"}]},"count":1},{"id":"Numerator_1","code":{"coding":[{"system":"http://terminology.hl7.org/CodeSystem/measure-population","code":"numerator","display":"Numerator"}]},"count":0},{"id":"DenominatorException_1","code":{"coding":[{"system":"http://terminology.hl7.org/CodeSystem/measure-population","code":"denominator-exception","display":"Denominator Exception"}]},"count":0}],"measureScore":{"value":0.0}}],"evaluatedResource":[{"reference":"Patient/c453e51c-aa59-4755-b872-28b2f05f3552"},{"reference":"Encounter/9175208f-fe46-48a4-a661-41f13df3f9c9"},{"reference":"Condition/7ed1a5b9-7b29-42c3-91d3-8b2e1a5923f8"},{"reference":"Condition/fd134b64-03f6-4207-ab62-8ac4fd281531"}]},"request":{"method":"PUT","url":"MeasureReport/37bbc320-072a-48fe-b043-a575d7f00891"}}]},"request":{"method":"PUT","url":"Bundle/617b1149513b5d1ee28b757d"}}]}