{"resourceType":"Bundle","id":"tests-afb2d04b-f766-465a-9215-79cb8dfafd73-bundle","type":"transaction","entry":[{"fullUrl":"MeasureReport/b742cdaa-4a05-47f0-983c-335a5efcf211","resource":{"resourceType":"MeasureReport","id":"b742cdaa-4a05-47f0-983c-335a5efcf211","meta":{"profile":["http://hl7.org/fhir/us/cqfmeasures/StructureDefinition/test-case-cqfm"]},"contained":[{"resourceType":"Parameters","id":"e994fc93-3c93-469a-bd5d-937dbe438fef-parameters","parameter":[{"name":"subject","valueString":"afb2d04b-f766-465a-9215-79cb8dfafd73"}]}],"extension":[{"url":"http://hl7.org/fhir/StructureDefinition/cqf-inputParameters","valueReference":{"reference":"#e994fc93-3c93-469a-bd5d-937dbe438fef-parameters"}},{"url":"http://hl7.org/fhir/us/cqfmeasures/StructureDefinition/cqfm-testCaseDescription","valueMarkdown":"Patient has anticoagulant medication starts after ED"}],"modifierExtension":[{"url":"http://hl7.org/fhir/us/cqfmeasures/StructureDefinition/cqfm-isTestCase","valueBoolean":true}],"status":"complete","type":"individual","measure":"https://madie.cms.gov/Measure/CMS996FHIRAptTxforSTEMI","period":{"start":"2026-01-01","end":"2026-12-31"},"group":[{"id":"Group_1","population":[{"id":"InitialPopulation_1","code":{"coding":[{"system":"http://terminology.hl7.org/CodeSystem/measure-population","code":"initial-population","display":"Initial Population"}]},"count":1},{"id":"Denominator_1","code":{"coding":[{"system":"http://terminology.hl7.org/CodeSystem/measure-population","code":"denominator","display":"Denominator"}]},"count":1},{"id":"DenominatorExclusion_1","code":{"coding":[{"system":"http://terminology.hl7.org/CodeSystem/measure-population","code":"denominator-exclusion","display":"Denominator Exclusion"}]},"count":0},{"id":"Numerator_1","code":{"coding":[{"system":"http://terminology.hl7.org/CodeSystem/measure-population","code":"numerator","display":"Numerator"}]},"count":0},{"id":"DenominatorException_1","code":{"coding":[{"system":"http://terminology.hl7.org/CodeSystem/measure-population","code":"denominator-exception","display":"Denominator Exception"}]},"count":0}],"measureScore":{"value":0.0}}],"evaluatedResource":[{"reference":"Patient/afb2d04b-f766-465a-9215-79cb8dfafd73"},{"reference":"Encounter/9c03d399-432e-4853-a12d-7a1b77280a05"},{"reference":"MedicationRequest/8618fdd8-9bcc-4284-a285-f9d7b092ee15"},{"reference":"Practitioner/62350356-bdc9-4860-ab5e-6fca48b47589"}]},"request":{"method":"PUT","url":"MeasureReport/b742cdaa-4a05-47f0-983c-335a5efcf211"}},{"fullUrl":"Practitioner/62350356-bdc9-4860-ab5e-6fca48b47589","resource":{"resourceType":"Practitioner","id":"62350356-bdc9-4860-ab5e-6fca48b47589","meta":{"profile":["http://hl7.org/fhir/us/qicore/StructureDefinition/qicore-practitioner"]},"identifier":[{"system":"http://hl7.org/fhir/sid/us-npi","value":"9999999896"}],"name":[{"family":"Evil","prefix":["Dr"]}]},"request":{"method":"PUT","url":"Practitioner/62350356-bdc9-4860-ab5e-6fca48b47589"}},{"fullUrl":"MedicationRequest/8618fdd8-9bcc-4284-a285-f9d7b092ee15","resource":{"resourceType":"MedicationRequest","id":"8618fdd8-9bcc-4284-a285-f9d7b092ee15","meta":{"profile":["http://hl7.org/fhir/us/qicore/StructureDefinition/qicore-medicationrequest"]},"status":"active","intent":"order","category":[{"coding":[{"system":"http://terminology.hl7.org/CodeSystem/medicationrequest-category","code":"inpatient","display":"Inpatient","userSelected":true}]}],"medicationCodeableConcept":{"coding":[{"system":"http://www.nlm.nih.gov/research/umls/rxnorm","code":"1037045","display":"dabigatran etexilate 150 MG Oral Capsule","userSelected":true}]},"subject":{"reference":"Patient/afb2d04b-f766-465a-9215-79cb8dfafd73"},"authoredOn":"2026-10-11T08:00:00.000+00:00","requester":{"reference":"Practitioner/62350356-bdc9-4860-ab5e-6fca48b47589"}},"request":{"method":"PUT","url":"MedicationRequest/8618fdd8-9bcc-4284-a285-f9d7b092ee15"}},{"fullUrl":"Bundle/617be46f1619a529957d62af","resource":{"resourceType":"Bundle","id":"617be46f1619a529957d62af","type":"transaction","entry":[{"fullUrl":"https://madie.cms.gov/Patient/afb2d04b-f766-465a-9215-79cb8dfafd73","resource":{"resourceType":"Patient","id":"afb2d04b-f766-465a-9215-79cb8dfafd73","meta":{"profile":["http://hl7.org/fhir/us/qicore/StructureDefinition/qicore-patient"]},"extension":[{"url":"http://hl7.org/fhir/us/core/StructureDefinition/us-core-race","extension":[{"url":"ombCategory","valueCoding":{"system":"urn:oid:2.16.840.1.113883.6.238","code":"2028-9","display":"Asian","userSelected":true}},{"url":"text","valueString":"Asian"}]},{"url":"http://hl7.org/fhir/us/core/StructureDefinition/us-core-ethnicity","extension":[{"url":"ombCategory","valueCoding":{"system":"urn:oid:2.16.840.1.113883.6.238","code":"2186-5","display":"Not Hispanic or Latino","userSelected":true}},{"url":"text","valueString":"Not Hispanic or Latino"}]},{"url":"http://hl7.org/fhir/us/core/StructureDefinition/us-core-sex","valueCode":"248152002"}],"identifier":[{"type":{"coding":[{"system":"http://terminology.hl7.org/CodeSystem/v2-0203","code":"MR"}]},"system":"https://bonnie-fhir.healthit.gov/","value":"617be46f1619a529957d62af"}],"name":[{"family":"DenExcl6Fail","given":["MedStartsAfterED"]}],"gender":"female","birthDate":"1985-12-02"},"request":{"method":"PUT","url":"Patient/afb2d04b-f766-465a-9215-79cb8dfafd73"}},{"fullUrl":"https://madie.cms.gov/Encounter/9c03d399-432e-4853-a12d-7a1b77280a05","resource":{"resourceType":"Encounter","id":"9c03d399-432e-4853-a12d-7a1b77280a05","meta":{"profile":["http://hl7.org/fhir/us/qicore/StructureDefinition/qicore-encounter"]},"status":"finished","class":{"system":"http://terminology.hl7.org/CodeSystem/v3-ActCode","code":"EMER","display":"emergency","userSelected":true},"type":[{"coding":[{"system":"http://snomed.info/sct","version":"2020-09","code":"4525004","display":"Emergency department patient visit (procedure)","userSelected":true}]}],"subject":{"reference":"Patient/afb2d04b-f766-465a-9215-79cb8dfafd73"},"period":{"start":"2026-10-09T08:05:00.000+00:00","end":"2026-10-10T07:15:00.000+00:00"},"reasonCode":[{"coding":[{"system":"http://hl7.org/fhir/sid/icd-10-cm","version":"2021","code":"I21.02","display":"ST elevation (STEMI) myocardial infarction involving left anterior descending coronary artery","userSelected":true}]}]},"request":{"method":"PUT","url":"Encounter/9c03d399-432e-4853-a12d-7a1b77280a05"}},{"fullUrl":"https://madie.cms.gov/MedicationRequest/8618fdd8-9bcc-4284-a285-f9d7b092ee15","resource":{"resourceType":"MedicationRequest","id":"8618fdd8-9bcc-4284-a285-f9d7b092ee15","meta":{"profile":["http://hl7.org/fhir/us/qicore/StructureDefinition/qicore-medicationrequest"]},"status":"active","intent":"order","category":[{"coding":[{"system":"http://terminology.hl7.org/CodeSystem/medicationrequest-category","code":"inpatient","display":"Inpatient","userSelected":true}]}],"medicationCodeableConcept":{"coding":[{"system":"http://www.nlm.nih.gov/research/umls/rxnorm","code":"1037045","display":"dabigatran etexilate 150 MG Oral Capsule","userSelected":true}]},"subject":{"reference":"Patient/afb2d04b-f766-465a-9215-79cb8dfafd73"},"authoredOn":"2026-10-11T08:00:00.000+00:00","requester":{"reference":"Practitioner/62350356-bdc9-4860-ab5e-6fca48b47589"}},"request":{"method":"PUT","url":"MedicationRequest/8618fdd8-9bcc-4284-a285-f9d7b092ee15"}},{"fullUrl":"https://madie.cms.gov/Practitioner/62350356-bdc9-4860-ab5e-6fca48b47589","resource":{"resourceType":"Practitioner","id":"62350356-bdc9-4860-ab5e-6fca48b47589","meta":{"profile":["http://hl7.org/fhir/us/qicore/StructureDefinition/qicore-practitioner"]},"identifier":[{"system":"http://hl7.org/fhir/sid/us-npi","value":"9999999896"}],"name":[{"family":"Evil","prefix":["Dr"]}]},"request":{"method":"PUT","url":"Practitioner/62350356-bdc9-4860-ab5e-6fca48b47589"}},{"fullUrl":"https://madie.cms.gov/MeasureReport/b742cdaa-4a05-47f0-983c-335a5efcf211","resource":{"resourceType":"MeasureReport","id":"b742cdaa-4a05-47f0-983c-335a5efcf211","meta":{"profile":["http://hl7.org/fhir/us/cqfmeasures/StructureDefinition/test-case-cqfm"]},"contained":[{"resourceType":"Parameters","id":"e994fc93-3c93-469a-bd5d-937dbe438fef-parameters","parameter":[{"name":"subject","valueString":"afb2d04b-f766-465a-9215-79cb8dfafd73"}]}],"extension":[{"url":"http://hl7.org/fhir/StructureDefinition/cqf-inputParameters","valueReference":{"reference":"#e994fc93-3c93-469a-bd5d-937dbe438fef-parameters"}},{"url":"http://hl7.org/fhir/us/cqfmeasures/StructureDefinition/cqfm-testCaseDescription","valueMarkdown":"Patient has anticoagulant medication starts after ED"}],"modifierExtension":[{"url":"http://hl7.org/fhir/us/cqfmeasures/StructureDefinition/cqfm-isTestCase","valueBoolean":true}],"status":"complete","type":"individual","measure":"https://madie.cms.gov/Measure/CMS996FHIRAptTxforSTEMI","period":{"start":"2026-01-01","end":"2026-12-31"},"group":[{"id":"Group_1","population":[{"id":"InitialPopulation_1","code":{"coding":[{"system":"http://terminology.hl7.org/CodeSystem/measure-population","code":"initial-population","display":"Initial Population"}]},"count":1},{"id":"Denominator_1","code":{"coding":[{"system":"http://terminology.hl7.org/CodeSystem/measure-population","code":"denominator","display":"Denominator"}]},"count":1},{"id":"DenominatorExclusion_1","code":{"coding":[{"system":"http://terminology.hl7.org/CodeSystem/measure-population","code":"denominator-exclusion","display":"Denominator Exclusion"}]},"count":0},{"id":"Numerator_1","code":{"coding":[{"system":"http://terminology.hl7.org/CodeSystem/measure-population","code":"numerator","display":"Numerator"}]},"count":0},{"id":"DenominatorException_1","code":{"coding":[{"system":"http://terminology.hl7.org/CodeSystem/measure-population","code":"denominator-exception","display":"Denominator Exception"}]},"count":0}],"measureScore":{"value":0.0}}],"evaluatedResource":[{"reference":"Patient/afb2d04b-f766-465a-9215-79cb8dfafd73"},{"reference":"Encounter/9c03d399-432e-4853-a12d-7a1b77280a05"},{"reference":"MedicationRequest/8618fdd8-9bcc-4284-a285-f9d7b092ee15"},{"reference":"Practitioner/62350356-bdc9-4860-ab5e-6fca48b47589"}]},"request":{"method":"PUT","url":"MeasureReport/b742cdaa-4a05-47f0-983c-335a5efcf211"}}]},"request":{"method":"PUT","url":"Bundle/617be46f1619a529957d62af"}},{"fullUrl":"Encounter/9c03d399-432e-4853-a12d-7a1b77280a05","resource":{"resourceType":"Encounter","id":"9c03d399-432e-4853-a12d-7a1b77280a05","meta":{"profile":["http://hl7.org/fhir/us/qicore/StructureDefinition/qicore-encounter"]},"status":"finished","class":{"system":"http://terminology.hl7.org/CodeSystem/v3-ActCode","code":"EMER","display":"emergency","userSelected":true},"type":[{"coding":[{"system":"http://snomed.info/sct","version":"2020-09","code":"4525004","display":"Emergency department patient visit (procedure)","userSelected":true}]}],"subject":{"reference":"Patient/afb2d04b-f766-465a-9215-79cb8dfafd73"},"period":{"start":"2026-10-09T08:05:00.000+00:00","end":"2026-10-10T07:15:00.000+00:00"},"reasonCode":[{"coding":[{"system":"http://hl7.org/fhir/sid/icd-10-cm","version":"2021","code":"I21.02","display":"ST elevation (STEMI) myocardial infarction involving left anterior descending coronary artery","userSelected":true}]}]},"request":{"method":"PUT","url":"Encounter/9c03d399-432e-4853-a12d-7a1b77280a05"}},{"fullUrl":"Patient/afb2d04b-f766-465a-9215-79cb8dfafd73","resource":{"resourceType":"Patient","id":"afb2d04b-f766-465a-9215-79cb8dfafd73","meta":{"profile":["http://hl7.org/fhir/us/qicore/StructureDefinition/qicore-patient"]},"extension":[{"url":"http://hl7.org/fhir/us/core/StructureDefinition/us-core-race","extension":[{"url":"ombCategory","valueCoding":{"system":"urn:oid:2.16.840.1.113883.6.238","code":"2028-9","display":"Asian","userSelected":true}},{"url":"text","valueString":"Asian"}]},{"url":"http://hl7.org/fhir/us/core/StructureDefinition/us-core-ethnicity","extension":[{"url":"ombCategory","valueCoding":{"system":"urn:oid:2.16.840.1.113883.6.238","code":"2186-5","display":"Not Hispanic or Latino","userSelected":true}},{"url":"text","valueString":"Not Hispanic or Latino"}]},{"url":"http://hl7.org/fhir/us/core/StructureDefinition/us-core-sex","valueCode":"248152002"}],"identifier":[{"type":{"coding":[{"system":"http://terminology.hl7.org/CodeSystem/v2-0203","code":"MR"}]},"system":"https://bonnie-fhir.healthit.gov/","value":"617be46f1619a529957d62af"}],"name":[{"family":"DenExcl6Fail","given":["MedStartsAfterED"]}],"gender":"female","birthDate":"1985-12-02"},"request":{"method":"PUT","url":"Patient/afb2d04b-f766-465a-9215-79cb8dfafd73"}}]}