{"resourceType":"Bundle","id":"tests-8fd4eb55-cb9d-435c-869b-c49e3d7bf8ac-bundle","type":"transaction","entry":[{"fullUrl":"Bundle/6179dfd9e2011aa9929f3309","resource":{"resourceType":"Bundle","id":"6179dfd9e2011aa9929f3309","type":"transaction","entry":[{"fullUrl":"https://madie.cms.gov/Patient/8fd4eb55-cb9d-435c-869b-c49e3d7bf8ac","resource":{"resourceType":"Patient","id":"8fd4eb55-cb9d-435c-869b-c49e3d7bf8ac","meta":{"profile":["http://hl7.org/fhir/us/qicore/StructureDefinition/qicore-patient"]},"extension":[{"url":"http://hl7.org/fhir/us/core/StructureDefinition/us-core-race","extension":[{"url":"ombCategory","valueCoding":{"system":"urn:oid:2.16.840.1.113883.6.238","code":"2076-8","display":"Native Hawaiian or Other Pacific Islander","userSelected":true}},{"url":"text","valueString":"Native Hawaiian or Other Pacific Islander"}]},{"url":"http://hl7.org/fhir/us/core/StructureDefinition/us-core-ethnicity","extension":[{"url":"ombCategory","valueCoding":{"system":"urn:oid:2.16.840.1.113883.6.238","code":"2186-5","display":"Not Hispanic or Latino","userSelected":true}},{"url":"text","valueString":"Not Hispanic or Latino"}]},{"url":"http://hl7.org/fhir/us/core/StructureDefinition/us-core-sex","valueCode":"248152002"}],"identifier":[{"type":{"coding":[{"system":"http://terminology.hl7.org/CodeSystem/v2-0203","code":"MR"}]},"system":"https://bonnie-fhir.healthit.gov/","value":"6179dfd9e2011aa9929f3309"}],"name":[{"family":"DenExcl1Fail","given":["DxExclStartsBeforeEndsAfterED"]}],"gender":"female","birthDate":"1985-12-02"},"request":{"method":"PUT","url":"Patient/8fd4eb55-cb9d-435c-869b-c49e3d7bf8ac"}},{"fullUrl":"https://madie.cms.gov/Encounter/66ca3221-d2f5-475b-a151-ce237a864c1e","resource":{"resourceType":"Encounter","id":"66ca3221-d2f5-475b-a151-ce237a864c1e","meta":{"profile":["http://hl7.org/fhir/us/qicore/StructureDefinition/qicore-encounter"]},"status":"finished","class":{"system":"http://terminology.hl7.org/CodeSystem/v3-ActCode","code":"EMER","display":"emergency","userSelected":true},"type":[{"coding":[{"system":"http://snomed.info/sct","version":"2020-09","code":"4525004","display":"Emergency department patient visit (procedure)","userSelected":true}]}],"subject":{"reference":"Patient/8fd4eb55-cb9d-435c-869b-c49e3d7bf8ac"},"period":{"start":"2026-10-09T08:05:00.000+00:00","end":"2026-10-10T07:15:00.000+00:00"},"reasonReference":[{"reference":"Condition/412f3bb3-5e11-4add-9db5-32cda42067b3"}]},"request":{"method":"PUT","url":"Encounter/66ca3221-d2f5-475b-a151-ce237a864c1e"}},{"fullUrl":"https://madie.cms.gov/Condition/412f3bb3-5e11-4add-9db5-32cda42067b3","resource":{"resourceType":"Condition","id":"412f3bb3-5e11-4add-9db5-32cda42067b3","meta":{"profile":["http://hl7.org/fhir/us/qicore/StructureDefinition/qicore-condition-problems-health-concerns"]},"clinicalStatus":{"coding":[{"system":"http://terminology.hl7.org/CodeSystem/condition-clinical","code":"active","display":"active","userSelected":true}]},"category":[{"coding":[{"system":"http://terminology.hl7.org/CodeSystem/condition-category","code":"problem-list-item","display":"Problem List Item","userSelected":true}]}],"code":{"coding":[{"system":"http://snomed.info/sct","version":"2020-09","code":"401303003","display":"Acute ST segment elevation myocardial infarction (disorder)","userSelected":true}]},"subject":{"reference":"Patient/8fd4eb55-cb9d-435c-869b-c49e3d7bf8ac"},"onsetDateTime":"2026-10-09T08:30:00.000+00:00"},"request":{"method":"PUT","url":"Condition/412f3bb3-5e11-4add-9db5-32cda42067b3"}},{"fullUrl":"https://madie.cms.gov/Condition/2991200a-3ba7-412b-9076-eb5142d2ed17","resource":{"resourceType":"Condition","id":"2991200a-3ba7-412b-9076-eb5142d2ed17","meta":{"profile":["http://hl7.org/fhir/us/qicore/StructureDefinition/qicore-condition-problems-health-concerns"]},"clinicalStatus":{"coding":[{"system":"http://terminology.hl7.org/CodeSystem/condition-clinical","version":"4.0.1","code":"inactive","display":"Inactive","userSelected":true}]},"category":[{"coding":[{"system":"http://terminology.hl7.org/CodeSystem/condition-category","code":"problem-list-item","display":"Problem List Item","userSelected":true}]}],"code":{"coding":[{"system":"http://snomed.info/sct","version":"2020-09","code":"111633007","display":"Open fracture of sacrum AND/OR coccyx with complete cauda equina lesion (disorder)","userSelected":true}]},"subject":{"reference":"Patient/8fd4eb55-cb9d-435c-869b-c49e3d7bf8ac"},"onsetDateTime":"2026-01-08T08:00:00.000+00:00","abatementDateTime":"2026-11-08T08:15:00.000+00:00"},"request":{"method":"PUT","url":"Condition/2991200a-3ba7-412b-9076-eb5142d2ed17"}},{"fullUrl":"https://madie.cms.gov/MeasureReport/daee4a54-cb97-428f-9c79-da928adae3b8","resource":{"resourceType":"MeasureReport","id":"daee4a54-cb97-428f-9c79-da928adae3b8","meta":{"profile":["http://hl7.org/fhir/us/cqfmeasures/StructureDefinition/test-case-cqfm"]},"contained":[{"resourceType":"Parameters","id":"61ddc1c0-3949-4b02-9f9e-3eee87dce61f-parameters","parameter":[{"name":"subject","valueString":"8fd4eb55-cb9d-435c-869b-c49e3d7bf8ac"}]}],"extension":[{"url":"http://hl7.org/fhir/StructureDefinition/cqf-inputParameters","valueReference":{"reference":"#61ddc1c0-3949-4b02-9f9e-3eee87dce61f-parameters"}},{"url":"http://hl7.org/fhir/us/cqfmeasures/StructureDefinition/cqfm-testCaseDescription","valueMarkdown":"Patient has Neurologic Impairment (exclusion diagnosis) that starts before ED encounter and ends after ED"}],"modifierExtension":[{"url":"http://hl7.org/fhir/us/cqfmeasures/StructureDefinition/cqfm-isTestCase","valueBoolean":true}],"status":"complete","type":"individual","measure":"https://madie.cms.gov/Measure/CMS996FHIRAptTxforSTEMI","period":{"start":"2026-01-01","end":"2026-12-31"},"group":[{"id":"Group_1","population":[{"id":"InitialPopulation_1","code":{"coding":[{"system":"http://terminology.hl7.org/CodeSystem/measure-population","code":"initial-population","display":"Initial Population"}]},"count":1},{"id":"Denominator_1","code":{"coding":[{"system":"http://terminology.hl7.org/CodeSystem/measure-population","code":"denominator","display":"Denominator"}]},"count":1},{"id":"DenominatorExclusion_1","code":{"coding":[{"system":"http://terminology.hl7.org/CodeSystem/measure-population","code":"denominator-exclusion","display":"Denominator Exclusion"}]},"count":0},{"id":"Numerator_1","code":{"coding":[{"system":"http://terminology.hl7.org/CodeSystem/measure-population","code":"numerator","display":"Numerator"}]},"count":0},{"id":"DenominatorException_1","code":{"coding":[{"system":"http://terminology.hl7.org/CodeSystem/measure-population","code":"denominator-exception","display":"Denominator Exception"}]},"count":0}],"measureScore":{"value":0.0}}],"evaluatedResource":[{"reference":"Patient/8fd4eb55-cb9d-435c-869b-c49e3d7bf8ac"},{"reference":"Encounter/66ca3221-d2f5-475b-a151-ce237a864c1e"},{"reference":"Condition/412f3bb3-5e11-4add-9db5-32cda42067b3"},{"reference":"Condition/2991200a-3ba7-412b-9076-eb5142d2ed17"}]},"request":{"method":"PUT","url":"MeasureReport/daee4a54-cb97-428f-9c79-da928adae3b8"}}]},"request":{"method":"PUT","url":"Bundle/6179dfd9e2011aa9929f3309"}},{"fullUrl":"MeasureReport/daee4a54-cb97-428f-9c79-da928adae3b8","resource":{"resourceType":"MeasureReport","id":"daee4a54-cb97-428f-9c79-da928adae3b8","meta":{"profile":["http://hl7.org/fhir/us/cqfmeasures/StructureDefinition/test-case-cqfm"]},"contained":[{"resourceType":"Parameters","id":"61ddc1c0-3949-4b02-9f9e-3eee87dce61f-parameters","parameter":[{"name":"subject","valueString":"8fd4eb55-cb9d-435c-869b-c49e3d7bf8ac"}]}],"extension":[{"url":"http://hl7.org/fhir/StructureDefinition/cqf-inputParameters","valueReference":{"reference":"#61ddc1c0-3949-4b02-9f9e-3eee87dce61f-parameters"}},{"url":"http://hl7.org/fhir/us/cqfmeasures/StructureDefinition/cqfm-testCaseDescription","valueMarkdown":"Patient has Neurologic Impairment (exclusion diagnosis) that starts before ED encounter and ends after ED"}],"modifierExtension":[{"url":"http://hl7.org/fhir/us/cqfmeasures/StructureDefinition/cqfm-isTestCase","valueBoolean":true}],"status":"complete","type":"individual","measure":"https://madie.cms.gov/Measure/CMS996FHIRAptTxforSTEMI","period":{"start":"2026-01-01","end":"2026-12-31"},"group":[{"id":"Group_1","population":[{"id":"InitialPopulation_1","code":{"coding":[{"system":"http://terminology.hl7.org/CodeSystem/measure-population","code":"initial-population","display":"Initial Population"}]},"count":1},{"id":"Denominator_1","code":{"coding":[{"system":"http://terminology.hl7.org/CodeSystem/measure-population","code":"denominator","display":"Denominator"}]},"count":1},{"id":"DenominatorExclusion_1","code":{"coding":[{"system":"http://terminology.hl7.org/CodeSystem/measure-population","code":"denominator-exclusion","display":"Denominator Exclusion"}]},"count":0},{"id":"Numerator_1","code":{"coding":[{"system":"http://terminology.hl7.org/CodeSystem/measure-population","code":"numerator","display":"Numerator"}]},"count":0},{"id":"DenominatorException_1","code":{"coding":[{"system":"http://terminology.hl7.org/CodeSystem/measure-population","code":"denominator-exception","display":"Denominator Exception"}]},"count":0}],"measureScore":{"value":0.0}}],"evaluatedResource":[{"reference":"Patient/8fd4eb55-cb9d-435c-869b-c49e3d7bf8ac"},{"reference":"Encounter/66ca3221-d2f5-475b-a151-ce237a864c1e"},{"reference":"Condition/412f3bb3-5e11-4add-9db5-32cda42067b3"},{"reference":"Condition/2991200a-3ba7-412b-9076-eb5142d2ed17"}]},"request":{"method":"PUT","url":"MeasureReport/daee4a54-cb97-428f-9c79-da928adae3b8"}},{"fullUrl":"Condition/412f3bb3-5e11-4add-9db5-32cda42067b3","resource":{"resourceType":"Condition","id":"412f3bb3-5e11-4add-9db5-32cda42067b3","meta":{"profile":["http://hl7.org/fhir/us/qicore/StructureDefinition/qicore-condition-problems-health-concerns"]},"clinicalStatus":{"coding":[{"system":"http://terminology.hl7.org/CodeSystem/condition-clinical","code":"active","display":"active","userSelected":true}]},"category":[{"coding":[{"system":"http://terminology.hl7.org/CodeSystem/condition-category","code":"problem-list-item","display":"Problem List Item","userSelected":true}]}],"code":{"coding":[{"system":"http://snomed.info/sct","version":"2020-09","code":"401303003","display":"Acute ST segment elevation myocardial infarction (disorder)","userSelected":true}]},"subject":{"reference":"Patient/8fd4eb55-cb9d-435c-869b-c49e3d7bf8ac"},"onsetDateTime":"2026-10-09T08:30:00.000+00:00"},"request":{"method":"PUT","url":"Condition/412f3bb3-5e11-4add-9db5-32cda42067b3"}},{"fullUrl":"Patient/8fd4eb55-cb9d-435c-869b-c49e3d7bf8ac","resource":{"resourceType":"Patient","id":"8fd4eb55-cb9d-435c-869b-c49e3d7bf8ac","meta":{"profile":["http://hl7.org/fhir/us/qicore/StructureDefinition/qicore-patient"]},"extension":[{"url":"http://hl7.org/fhir/us/core/StructureDefinition/us-core-race","extension":[{"url":"ombCategory","valueCoding":{"system":"urn:oid:2.16.840.1.113883.6.238","code":"2076-8","display":"Native Hawaiian or Other Pacific Islander","userSelected":true}},{"url":"text","valueString":"Native Hawaiian or Other Pacific Islander"}]},{"url":"http://hl7.org/fhir/us/core/StructureDefinition/us-core-ethnicity","extension":[{"url":"ombCategory","valueCoding":{"system":"urn:oid:2.16.840.1.113883.6.238","code":"2186-5","display":"Not Hispanic or Latino","userSelected":true}},{"url":"text","valueString":"Not Hispanic or Latino"}]},{"url":"http://hl7.org/fhir/us/core/StructureDefinition/us-core-sex","valueCode":"248152002"}],"identifier":[{"type":{"coding":[{"system":"http://terminology.hl7.org/CodeSystem/v2-0203","code":"MR"}]},"system":"https://bonnie-fhir.healthit.gov/","value":"6179dfd9e2011aa9929f3309"}],"name":[{"family":"DenExcl1Fail","given":["DxExclStartsBeforeEndsAfterED"]}],"gender":"female","birthDate":"1985-12-02"},"request":{"method":"PUT","url":"Patient/8fd4eb55-cb9d-435c-869b-c49e3d7bf8ac"}},{"fullUrl":"Encounter/66ca3221-d2f5-475b-a151-ce237a864c1e","resource":{"resourceType":"Encounter","id":"66ca3221-d2f5-475b-a151-ce237a864c1e","meta":{"profile":["http://hl7.org/fhir/us/qicore/StructureDefinition/qicore-encounter"]},"status":"finished","class":{"system":"http://terminology.hl7.org/CodeSystem/v3-ActCode","code":"EMER","display":"emergency","userSelected":true},"type":[{"coding":[{"system":"http://snomed.info/sct","version":"2020-09","code":"4525004","display":"Emergency department patient visit (procedure)","userSelected":true}]}],"subject":{"reference":"Patient/8fd4eb55-cb9d-435c-869b-c49e3d7bf8ac"},"period":{"start":"2026-10-09T08:05:00.000+00:00","end":"2026-10-10T07:15:00.000+00:00"},"reasonReference":[{"reference":"Condition/412f3bb3-5e11-4add-9db5-32cda42067b3"}]},"request":{"method":"PUT","url":"Encounter/66ca3221-d2f5-475b-a151-ce237a864c1e"}},{"fullUrl":"Condition/2991200a-3ba7-412b-9076-eb5142d2ed17","resource":{"resourceType":"Condition","id":"2991200a-3ba7-412b-9076-eb5142d2ed17","meta":{"profile":["http://hl7.org/fhir/us/qicore/StructureDefinition/qicore-condition-problems-health-concerns"]},"clinicalStatus":{"coding":[{"system":"http://terminology.hl7.org/CodeSystem/condition-clinical","version":"4.0.1","code":"inactive","display":"Inactive","userSelected":true}]},"category":[{"coding":[{"system":"http://terminology.hl7.org/CodeSystem/condition-category","code":"problem-list-item","display":"Problem List Item","userSelected":true}]}],"code":{"coding":[{"system":"http://snomed.info/sct","version":"2020-09","code":"111633007","display":"Open fracture of sacrum AND/OR coccyx with complete cauda equina lesion (disorder)","userSelected":true}]},"subject":{"reference":"Patient/8fd4eb55-cb9d-435c-869b-c49e3d7bf8ac"},"onsetDateTime":"2026-01-08T08:00:00.000+00:00","abatementDateTime":"2026-11-08T08:15:00.000+00:00"},"request":{"method":"PUT","url":"Condition/2991200a-3ba7-412b-9076-eb5142d2ed17"}}]}