{"resourceType":"Bundle","id":"tests-e26dfcc6-88ac-4532-bbab-e180d2b04e6b-bundle","type":"transaction","entry":[{"fullUrl":"Practitioner/389263c9-d5ec-4231-b606-8b48d9f4d9e1","resource":{"resourceType":"Practitioner","id":"389263c9-d5ec-4231-b606-8b48d9f4d9e1","meta":{"profile":["http://hl7.org/fhir/us/qicore/StructureDefinition/qicore-practitioner"]},"identifier":[{"system":"http://hl7.org/fhir/sid/us-npi","value":"9999999896"}],"name":[{"family":"Evil","prefix":["Dr"]}]},"request":{"method":"PUT","url":"Practitioner/389263c9-d5ec-4231-b606-8b48d9f4d9e1"}},{"fullUrl":"Encounter/ba21b76c-4dba-4c41-8c9d-628af470f3e4","resource":{"resourceType":"Encounter","id":"ba21b76c-4dba-4c41-8c9d-628af470f3e4","meta":{"profile":["http://hl7.org/fhir/us/qicore/StructureDefinition/qicore-encounter"]},"status":"finished","class":{"system":"http://terminology.hl7.org/CodeSystem/v3-ActCode","code":"EMER","display":"emergency","userSelected":true},"type":[{"coding":[{"system":"http://snomed.info/sct","version":"2020-09","code":"4525004","display":"Emergency department patient visit (procedure)","userSelected":true}]}],"subject":{"reference":"Patient/e26dfcc6-88ac-4532-bbab-e180d2b04e6b"},"period":{"start":"2026-11-10T08:05:00.000+00:00","end":"2026-11-11T07:15:00.000+00:00"},"reasonReference":[{"reference":"Condition/af089db9-2f16-41ee-8375-fb0d901e8538"}]},"request":{"method":"PUT","url":"Encounter/ba21b76c-4dba-4c41-8c9d-628af470f3e4"}},{"fullUrl":"MeasureReport/dc3e8025-50de-43cd-a138-212aca2987bd","resource":{"resourceType":"MeasureReport","id":"dc3e8025-50de-43cd-a138-212aca2987bd","meta":{"profile":["http://hl7.org/fhir/us/cqfmeasures/StructureDefinition/test-case-cqfm"]},"contained":[{"resourceType":"Parameters","id":"2860c0f5-07b2-41c3-9c24-26bffe7047fb-parameters","parameter":[{"name":"subject","valueString":"e26dfcc6-88ac-4532-bbab-e180d2b04e6b"}]}],"extension":[{"url":"http://hl7.org/fhir/StructureDefinition/cqf-inputParameters","valueReference":{"reference":"#2860c0f5-07b2-41c3-9c24-26bffe7047fb-parameters"}},{"url":"http://hl7.org/fhir/us/cqfmeasures/StructureDefinition/cqfm-testCaseDescription","valueMarkdown":"Patient has diagnosis exception of tPA at another facility more than 24 hours of emergency department visit. Verification status provisional"}],"modifierExtension":[{"url":"http://hl7.org/fhir/us/cqfmeasures/StructureDefinition/cqfm-isTestCase","valueBoolean":true}],"status":"complete","type":"individual","measure":"https://madie.cms.gov/Measure/CMS996FHIRAptTxforSTEMI","period":{"start":"2026-01-01","end":"2026-12-31"},"group":[{"id":"Group_1","population":[{"id":"InitialPopulation_1","code":{"coding":[{"system":"http://terminology.hl7.org/CodeSystem/measure-population","code":"initial-population","display":"Initial Population"}]},"count":1},{"id":"Denominator_1","code":{"coding":[{"system":"http://terminology.hl7.org/CodeSystem/measure-population","code":"denominator","display":"Denominator"}]},"count":1},{"id":"DenominatorExclusion_1","code":{"coding":[{"system":"http://terminology.hl7.org/CodeSystem/measure-population","code":"denominator-exclusion","display":"Denominator Exclusion"}]},"count":0},{"id":"Numerator_1","code":{"coding":[{"system":"http://terminology.hl7.org/CodeSystem/measure-population","code":"numerator","display":"Numerator"}]},"count":0},{"id":"DenominatorException_1","code":{"coding":[{"system":"http://terminology.hl7.org/CodeSystem/measure-population","code":"denominator-exception","display":"Denominator Exception"}]},"count":0}],"measureScore":{"value":0.0}}],"evaluatedResource":[{"reference":"Patient/e26dfcc6-88ac-4532-bbab-e180d2b04e6b"},{"reference":"Encounter/ba21b76c-4dba-4c41-8c9d-628af470f3e4"},{"reference":"Condition/dd5689ef-c5ba-4c4d-adf5-c2395fa83154"},{"reference":"Condition/af089db9-2f16-41ee-8375-fb0d901e8538"},{"reference":"Condition/02fae378-a556-4616-a972-a16074ad484c"},{"reference":"Coverage/6a2635eb-6ec0-489f-8bf2-e3e4a33cdd03"},{"reference":"Organization/b8d237be-c545-4aad-8cd7-ece0f8d543f5"},{"reference":"Practitioner/389263c9-d5ec-4231-b606-8b48d9f4d9e1"}]},"request":{"method":"PUT","url":"MeasureReport/dc3e8025-50de-43cd-a138-212aca2987bd"}},{"fullUrl":"Patient/e26dfcc6-88ac-4532-bbab-e180d2b04e6b","resource":{"resourceType":"Patient","id":"e26dfcc6-88ac-4532-bbab-e180d2b04e6b","meta":{"profile":["http://hl7.org/fhir/us/qicore/StructureDefinition/qicore-patient"]},"extension":[{"url":"http://hl7.org/fhir/us/core/StructureDefinition/us-core-race","extension":[{"url":"ombCategory","valueCoding":{"system":"urn:oid:2.16.840.1.113883.6.238","code":"1002-5","display":"American Indian or Alaska Native","userSelected":true}},{"url":"text","valueString":"American Indian or Alaska Native"}]},{"url":"http://hl7.org/fhir/us/core/StructureDefinition/us-core-ethnicity","extension":[{"url":"ombCategory","valueCoding":{"system":"urn:oid:2.16.840.1.113883.6.238","code":"2135-2","display":"Hispanic or Latino","userSelected":true}},{"url":"text","valueString":"Hispanic or Latino"}]},{"url":"http://hl7.org/fhir/us/core/StructureDefinition/us-core-sex","valueCode":"248153007"}],"identifier":[{"type":{"coding":[{"system":"http://terminology.hl7.org/CodeSystem/v2-0203","code":"MR"}]},"system":"https://bonnie-fhir.healthit.gov/","value":"660dc344ea96f2084262f8e7"}],"name":[{"family":"DxExclPassStartsBeforeEndsAfterMP","given":["DENEXCEPPASS"]}],"gender":"male","birthDate":"1992-10-21"},"request":{"method":"PUT","url":"Patient/e26dfcc6-88ac-4532-bbab-e180d2b04e6b"}},{"fullUrl":"Organization/b8d237be-c545-4aad-8cd7-ece0f8d543f5","resource":{"resourceType":"Organization","id":"b8d237be-c545-4aad-8cd7-ece0f8d543f5","meta":{"profile":["http://hl7.org/fhir/us/qicore/StructureDefinition/qicore-organization"]},"identifier":[{"use":"temp","system":"urn:oid:2.16.840.1.113883.4.4","value":"21-3259825"}],"active":true,"type":[{"coding":[{"system":"http://terminology.hl7.org/CodeSystem/organization-type","code":"pay","display":"Payer"}]}],"name":"Blue Cross Blue Shield of Texas","telecom":[{"system":"phone","value":"(+1) 972-766-6900"}],"address":[{"use":"billing","type":"postal","line":["P.O. Box 660044"],"city":"Dallas","state":"TX","postalCode":"75266-0044","country":"USA"}]},"request":{"method":"PUT","url":"Organization/b8d237be-c545-4aad-8cd7-ece0f8d543f5"}},{"fullUrl":"Condition/af089db9-2f16-41ee-8375-fb0d901e8538","resource":{"resourceType":"Condition","id":"af089db9-2f16-41ee-8375-fb0d901e8538","meta":{"profile":["http://hl7.org/fhir/us/qicore/StructureDefinition/qicore-condition-problems-health-concerns"]},"clinicalStatus":{"coding":[{"system":"http://terminology.hl7.org/CodeSystem/condition-clinical","code":"active","display":"active","userSelected":true}]},"verificationStatus":{"coding":[{"system":"http://terminology.hl7.org/CodeSystem/condition-ver-status","code":"provisional"}]},"category":[{"coding":[{"system":"http://terminology.hl7.org/CodeSystem/condition-category","code":"problem-list-item","display":"Problem List Item","userSelected":true}]}],"code":{"coding":[{"system":"http://snomed.info/sct","version":"2020-09","code":"401303003","display":"Acute ST segment elevation myocardial infarction (disorder)","userSelected":true}]},"subject":{"reference":"Patient/e26dfcc6-88ac-4532-bbab-e180d2b04e6b"},"onsetDateTime":"2026-11-10T08:30:00.000+00:00"},"request":{"method":"PUT","url":"Condition/af089db9-2f16-41ee-8375-fb0d901e8538"}},{"fullUrl":"Bundle/660dc344ea96f2084262f8e7","resource":{"resourceType":"Bundle","id":"660dc344ea96f2084262f8e7","type":"transaction","entry":[{"fullUrl":"https://madie.cms.gov/Patient/e26dfcc6-88ac-4532-bbab-e180d2b04e6b","resource":{"resourceType":"Patient","id":"e26dfcc6-88ac-4532-bbab-e180d2b04e6b","meta":{"profile":["http://hl7.org/fhir/us/qicore/StructureDefinition/qicore-patient"]},"extension":[{"url":"http://hl7.org/fhir/us/core/StructureDefinition/us-core-race","extension":[{"url":"ombCategory","valueCoding":{"system":"urn:oid:2.16.840.1.113883.6.238","code":"1002-5","display":"American Indian or Alaska Native","userSelected":true}},{"url":"text","valueString":"American Indian or Alaska Native"}]},{"url":"http://hl7.org/fhir/us/core/StructureDefinition/us-core-ethnicity","extension":[{"url":"ombCategory","valueCoding":{"system":"urn:oid:2.16.840.1.113883.6.238","code":"2135-2","display":"Hispanic or Latino","userSelected":true}},{"url":"text","valueString":"Hispanic or Latino"}]},{"url":"http://hl7.org/fhir/us/core/StructureDefinition/us-core-sex","valueCode":"248153007"}],"identifier":[{"type":{"coding":[{"system":"http://terminology.hl7.org/CodeSystem/v2-0203","code":"MR"}]},"system":"https://bonnie-fhir.healthit.gov/","value":"660dc344ea96f2084262f8e7"}],"name":[{"family":"DxExclPassStartsBeforeEndsAfterMP","given":["DENEXCEPPASS"]}],"gender":"male","birthDate":"1992-10-21"},"request":{"method":"PUT","url":"Patient/e26dfcc6-88ac-4532-bbab-e180d2b04e6b"}},{"fullUrl":"https://madie.cms.gov/Encounter/ba21b76c-4dba-4c41-8c9d-628af470f3e4","resource":{"resourceType":"Encounter","id":"ba21b76c-4dba-4c41-8c9d-628af470f3e4","meta":{"profile":["http://hl7.org/fhir/us/qicore/StructureDefinition/qicore-encounter"]},"status":"finished","class":{"system":"http://terminology.hl7.org/CodeSystem/v3-ActCode","code":"EMER","display":"emergency","userSelected":true},"type":[{"coding":[{"system":"http://snomed.info/sct","version":"2020-09","code":"4525004","display":"Emergency department patient visit (procedure)","userSelected":true}]}],"subject":{"reference":"Patient/e26dfcc6-88ac-4532-bbab-e180d2b04e6b"},"period":{"start":"2026-11-10T08:05:00.000+00:00","end":"2026-11-11T07:15:00.000+00:00"},"reasonReference":[{"reference":"Condition/af089db9-2f16-41ee-8375-fb0d901e8538"}]},"request":{"method":"PUT","url":"Encounter/ba21b76c-4dba-4c41-8c9d-628af470f3e4"}},{"fullUrl":"https://madie.cms.gov/Condition/dd5689ef-c5ba-4c4d-adf5-c2395fa83154","resource":{"resourceType":"Condition","id":"dd5689ef-c5ba-4c4d-adf5-c2395fa83154","meta":{"profile":["http://hl7.org/fhir/us/qicore/StructureDefinition/qicore-condition-problems-health-concerns"]},"clinicalStatus":{"coding":[{"system":"http://terminology.hl7.org/CodeSystem/condition-clinical","code":"active"}]},"verificationStatus":{"coding":[{"system":"http://terminology.hl7.org/CodeSystem/condition-ver-status","code":"provisional"}]},"category":[{"coding":[{"system":"http://terminology.hl7.org/CodeSystem/condition-category","code":"problem-list-item","display":"Problem List Item"}]}],"severity":{"coding":[{"system":"http://snomed.info/sct","code":"24484000","display":"Severe (severity modifier)"}]},"code":{"coding":[{"system":"http://hl7.org/fhir/sid/icd-10-cm","code":"Z92.82","display":"Status post administration of tPA (rtPA) in a different facility within the last 24 hours prior to admission to current facility"}]},"subject":{"reference":"Patient/e26dfcc6-88ac-4532-bbab-e180d2b04e6b"},"onsetDateTime":"2026-11-08T08:30:00.000+00:00"},"request":{"method":"PUT","url":"Condition/dd5689ef-c5ba-4c4d-adf5-c2395fa83154"}},{"fullUrl":"https://madie.cms.gov/Condition/af089db9-2f16-41ee-8375-fb0d901e8538","resource":{"resourceType":"Condition","id":"af089db9-2f16-41ee-8375-fb0d901e8538","meta":{"profile":["http://hl7.org/fhir/us/qicore/StructureDefinition/qicore-condition-problems-health-concerns"]},"clinicalStatus":{"coding":[{"system":"http://terminology.hl7.org/CodeSystem/condition-clinical","code":"active","display":"active","userSelected":true}]},"verificationStatus":{"coding":[{"system":"http://terminology.hl7.org/CodeSystem/condition-ver-status","code":"provisional"}]},"category":[{"coding":[{"system":"http://terminology.hl7.org/CodeSystem/condition-category","code":"problem-list-item","display":"Problem List Item","userSelected":true}]}],"code":{"coding":[{"system":"http://snomed.info/sct","version":"2020-09","code":"401303003","display":"Acute ST segment elevation myocardial infarction (disorder)","userSelected":true}]},"subject":{"reference":"Patient/e26dfcc6-88ac-4532-bbab-e180d2b04e6b"},"onsetDateTime":"2026-11-10T08:30:00.000+00:00"},"request":{"method":"PUT","url":"Condition/af089db9-2f16-41ee-8375-fb0d901e8538"}},{"fullUrl":"https://madie.cms.gov/Condition/02fae378-a556-4616-a972-a16074ad484c","resource":{"resourceType":"Condition","id":"02fae378-a556-4616-a972-a16074ad484c","meta":{"profile":["http://hl7.org/fhir/us/qicore/StructureDefinition/qicore-condition-problems-health-concerns"]},"clinicalStatus":{"coding":[{"system":"http://terminology.hl7.org/CodeSystem/condition-clinical","version":"4.0.1","code":"inactive","display":"Inactive","userSelected":true}]},"category":[{"coding":[{"system":"http://terminology.hl7.org/CodeSystem/condition-category","code":"problem-list-item","display":"Problem List Item","userSelected":true}]}],"code":{"coding":[{"system":"http://snomed.info/sct","version":"2020-09","code":"162710004","display":"On examination - collapse -cardiac arrest (disorder)","userSelected":true}]},"subject":{"reference":"Patient/e26dfcc6-88ac-4532-bbab-e180d2b04e6b"},"onsetDateTime":"2026-11-10T09:00:00.000+00:00"},"request":{"method":"PUT","url":"Condition/02fae378-a556-4616-a972-a16074ad484c"}},{"fullUrl":"https://madie.cms.gov/Coverage/6a2635eb-6ec0-489f-8bf2-e3e4a33cdd03","resource":{"resourceType":"Coverage","id":"6a2635eb-6ec0-489f-8bf2-e3e4a33cdd03","meta":{"profile":["http://hl7.org/fhir/us/qicore/StructureDefinition/qicore-coverage"]},"identifier":[{"type":{"coding":[{"system":"http://terminology.hl7.org/CodeSystem/v2-0203","code":"MB"}]}}],"status":"active","beneficiary":{"reference":"Patient/e26dfcc6-88ac-4532-bbab-e180d2b04e6b"},"relationship":{"coding":[{"system":"http://terminology.hl7.org/CodeSystem/subscriber-relationship","code":"self"}]},"payor":[{"reference":"Organization/b8d237be-c545-4aad-8cd7-ece0f8d543f5"}]},"request":{"method":"PUT","url":"Coverage/6a2635eb-6ec0-489f-8bf2-e3e4a33cdd03"}},{"fullUrl":"https://madie.cms.gov/Organization/b8d237be-c545-4aad-8cd7-ece0f8d543f5","resource":{"resourceType":"Organization","id":"b8d237be-c545-4aad-8cd7-ece0f8d543f5","meta":{"profile":["http://hl7.org/fhir/us/qicore/StructureDefinition/qicore-organization"]},"identifier":[{"use":"temp","system":"urn:oid:2.16.840.1.113883.4.4","value":"21-3259825"}],"active":true,"type":[{"coding":[{"system":"http://terminology.hl7.org/CodeSystem/organization-type","code":"pay","display":"Payer"}]}],"name":"Blue Cross Blue Shield of Texas","telecom":[{"system":"phone","value":"(+1) 972-766-6900"}],"address":[{"use":"billing","type":"postal","line":["P.O. Box 660044"],"city":"Dallas","state":"TX","postalCode":"75266-0044","country":"USA"}]},"request":{"method":"PUT","url":"Organization/b8d237be-c545-4aad-8cd7-ece0f8d543f5"}},{"fullUrl":"https://madie.cms.gov/Practitioner/389263c9-d5ec-4231-b606-8b48d9f4d9e1","resource":{"resourceType":"Practitioner","id":"389263c9-d5ec-4231-b606-8b48d9f4d9e1","meta":{"profile":["http://hl7.org/fhir/us/qicore/StructureDefinition/qicore-practitioner"]},"identifier":[{"system":"http://hl7.org/fhir/sid/us-npi","value":"9999999896"}],"name":[{"family":"Evil","prefix":["Dr"]}]},"request":{"method":"PUT","url":"Practitioner/389263c9-d5ec-4231-b606-8b48d9f4d9e1"}},{"fullUrl":"https://madie.cms.gov/MeasureReport/dc3e8025-50de-43cd-a138-212aca2987bd","resource":{"resourceType":"MeasureReport","id":"dc3e8025-50de-43cd-a138-212aca2987bd","meta":{"profile":["http://hl7.org/fhir/us/cqfmeasures/StructureDefinition/test-case-cqfm"]},"contained":[{"resourceType":"Parameters","id":"2860c0f5-07b2-41c3-9c24-26bffe7047fb-parameters","parameter":[{"name":"subject","valueString":"e26dfcc6-88ac-4532-bbab-e180d2b04e6b"}]}],"extension":[{"url":"http://hl7.org/fhir/StructureDefinition/cqf-inputParameters","valueReference":{"reference":"#2860c0f5-07b2-41c3-9c24-26bffe7047fb-parameters"}},{"url":"http://hl7.org/fhir/us/cqfmeasures/StructureDefinition/cqfm-testCaseDescription","valueMarkdown":"Patient has diagnosis exception of tPA at another facility more than 24 hours of emergency department visit. Verification status provisional"}],"modifierExtension":[{"url":"http://hl7.org/fhir/us/cqfmeasures/StructureDefinition/cqfm-isTestCase","valueBoolean":true}],"status":"complete","type":"individual","measure":"https://madie.cms.gov/Measure/CMS996FHIRAptTxforSTEMI","period":{"start":"2026-01-01","end":"2026-12-31"},"group":[{"id":"Group_1","population":[{"id":"InitialPopulation_1","code":{"coding":[{"system":"http://terminology.hl7.org/CodeSystem/measure-population","code":"initial-population","display":"Initial Population"}]},"count":1},{"id":"Denominator_1","code":{"coding":[{"system":"http://terminology.hl7.org/CodeSystem/measure-population","code":"denominator","display":"Denominator"}]},"count":1},{"id":"DenominatorExclusion_1","code":{"coding":[{"system":"http://terminology.hl7.org/CodeSystem/measure-population","code":"denominator-exclusion","display":"Denominator Exclusion"}]},"count":0},{"id":"Numerator_1","code":{"coding":[{"system":"http://terminology.hl7.org/CodeSystem/measure-population","code":"numerator","display":"Numerator"}]},"count":0},{"id":"DenominatorException_1","code":{"coding":[{"system":"http://terminology.hl7.org/CodeSystem/measure-population","code":"denominator-exception","display":"Denominator Exception"}]},"count":0}],"measureScore":{"value":0.0}}],"evaluatedResource":[{"reference":"Patient/e26dfcc6-88ac-4532-bbab-e180d2b04e6b"},{"reference":"Encounter/ba21b76c-4dba-4c41-8c9d-628af470f3e4"},{"reference":"Condition/dd5689ef-c5ba-4c4d-adf5-c2395fa83154"},{"reference":"Condition/af089db9-2f16-41ee-8375-fb0d901e8538"},{"reference":"Condition/02fae378-a556-4616-a972-a16074ad484c"},{"reference":"Coverage/6a2635eb-6ec0-489f-8bf2-e3e4a33cdd03"},{"reference":"Organization/b8d237be-c545-4aad-8cd7-ece0f8d543f5"},{"reference":"Practitioner/389263c9-d5ec-4231-b606-8b48d9f4d9e1"}]},"request":{"method":"PUT","url":"MeasureReport/dc3e8025-50de-43cd-a138-212aca2987bd"}}]},"request":{"method":"PUT","url":"Bundle/660dc344ea96f2084262f8e7"}},{"fullUrl":"Condition/dd5689ef-c5ba-4c4d-adf5-c2395fa83154","resource":{"resourceType":"Condition","id":"dd5689ef-c5ba-4c4d-adf5-c2395fa83154","meta":{"profile":["http://hl7.org/fhir/us/qicore/StructureDefinition/qicore-condition-problems-health-concerns"]},"clinicalStatus":{"coding":[{"system":"http://terminology.hl7.org/CodeSystem/condition-clinical","code":"active"}]},"verificationStatus":{"coding":[{"system":"http://terminology.hl7.org/CodeSystem/condition-ver-status","code":"provisional"}]},"category":[{"coding":[{"system":"http://terminology.hl7.org/CodeSystem/condition-category","code":"problem-list-item","display":"Problem List Item"}]}],"severity":{"coding":[{"system":"http://snomed.info/sct","code":"24484000","display":"Severe (severity modifier)"}]},"code":{"coding":[{"system":"http://hl7.org/fhir/sid/icd-10-cm","code":"Z92.82","display":"Status post administration of tPA (rtPA) in a different facility within the last 24 hours prior to admission to current facility"}]},"subject":{"reference":"Patient/e26dfcc6-88ac-4532-bbab-e180d2b04e6b"},"onsetDateTime":"2026-11-08T08:30:00.000+00:00"},"request":{"method":"PUT","url":"Condition/dd5689ef-c5ba-4c4d-adf5-c2395fa83154"}},{"fullUrl":"Coverage/6a2635eb-6ec0-489f-8bf2-e3e4a33cdd03","resource":{"resourceType":"Coverage","id":"6a2635eb-6ec0-489f-8bf2-e3e4a33cdd03","meta":{"profile":["http://hl7.org/fhir/us/qicore/StructureDefinition/qicore-coverage"]},"identifier":[{"type":{"coding":[{"system":"http://terminology.hl7.org/CodeSystem/v2-0203","code":"MB"}]}}],"status":"active","beneficiary":{"reference":"Patient/e26dfcc6-88ac-4532-bbab-e180d2b04e6b"},"relationship":{"coding":[{"system":"http://terminology.hl7.org/CodeSystem/subscriber-relationship","code":"self"}]},"payor":[{"reference":"Organization/b8d237be-c545-4aad-8cd7-ece0f8d543f5"}]},"request":{"method":"PUT","url":"Coverage/6a2635eb-6ec0-489f-8bf2-e3e4a33cdd03"}},{"fullUrl":"Condition/02fae378-a556-4616-a972-a16074ad484c","resource":{"resourceType":"Condition","id":"02fae378-a556-4616-a972-a16074ad484c","meta":{"profile":["http://hl7.org/fhir/us/qicore/StructureDefinition/qicore-condition-problems-health-concerns"]},"clinicalStatus":{"coding":[{"system":"http://terminology.hl7.org/CodeSystem/condition-clinical","version":"4.0.1","code":"inactive","display":"Inactive","userSelected":true}]},"category":[{"coding":[{"system":"http://terminology.hl7.org/CodeSystem/condition-category","code":"problem-list-item","display":"Problem List Item","userSelected":true}]}],"code":{"coding":[{"system":"http://snomed.info/sct","version":"2020-09","code":"162710004","display":"On examination - collapse -cardiac arrest (disorder)","userSelected":true}]},"subject":{"reference":"Patient/e26dfcc6-88ac-4532-bbab-e180d2b04e6b"},"onsetDateTime":"2026-11-10T09:00:00.000+00:00"},"request":{"method":"PUT","url":"Condition/02fae378-a556-4616-a972-a16074ad484c"}}]}