{"resourceType":"Bundle","id":"tests-125a85ca-49fc-401a-8abd-3f7f6491b42d-bundle","type":"transaction","entry":[{"resource":{"resourceType":"Bundle","id":"617b0fef513b5d1ee28b7577","type":"transaction","entry":[{"fullUrl":"https://madie.cms.gov/Patient/125a85ca-49fc-401a-8abd-3f7f6491b42d","resource":{"resourceType":"Patient","id":"125a85ca-49fc-401a-8abd-3f7f6491b42d","meta":{"profile":["http://hl7.org/fhir/us/qicore/StructureDefinition/qicore-patient"]},"extension":[{"url":"http://hl7.org/fhir/us/core/StructureDefinition/us-core-race","extension":[{"url":"ombCategory","valueCoding":{"system":"urn:oid:2.16.840.1.113883.6.238","code":"2076-8","display":"Native Hawaiian or Other Pacific Islander","userSelected":true}},{"url":"text","valueString":"Native Hawaiian or Other Pacific Islander"}]},{"url":"http://hl7.org/fhir/us/core/StructureDefinition/us-core-ethnicity","extension":[{"url":"ombCategory","valueCoding":{"system":"urn:oid:2.16.840.1.113883.6.238","code":"2186-5","display":"Not Hispanic or Latino","userSelected":true}},{"url":"text","valueString":"Not Hispanic or Latino"}]},{"url":"http://hl7.org/fhir/us/core/StructureDefinition/us-core-sex","valueCode":"248152002"}],"identifier":[{"type":{"coding":[{"system":"http://terminology.hl7.org/CodeSystem/v2-0203","code":"MR"}]},"system":"https://bonnie-fhir.healthit.gov/","value":"617b0fef513b5d1ee28b7577"}],"name":[{"family":"DenExcl4Fail","given":["DxStartsDuringEndsAfterED"]}],"gender":"female","birthDate":"1985-12-02"},"request":{"method":"PUT","url":"Patient/125a85ca-49fc-401a-8abd-3f7f6491b42d"}},{"fullUrl":"https://madie.cms.gov/Encounter/3f74503a-c480-4abf-8a69-7c03b0f18e90","resource":{"resourceType":"Encounter","id":"3f74503a-c480-4abf-8a69-7c03b0f18e90","meta":{"profile":["http://hl7.org/fhir/us/qicore/StructureDefinition/qicore-encounter"]},"status":"finished","class":{"system":"http://terminology.hl7.org/CodeSystem/v3-ActCode","code":"EMER","display":"emergency","userSelected":true},"type":[{"coding":[{"system":"http://snomed.info/sct","version":"2020-09","code":"4525004","display":"Emergency department patient visit (procedure)","userSelected":true}]}],"subject":{"reference":"Patient/125a85ca-49fc-401a-8abd-3f7f6491b42d"},"period":{"start":"2026-10-09T08:05:00.000+00:00","end":"2026-10-10T07:15:00.000+00:00"},"reasonReference":[{"reference":"Condition/c368acec-3be0-43e3-bafc-399e8ae15dfd"}]},"request":{"method":"PUT","url":"Encounter/3f74503a-c480-4abf-8a69-7c03b0f18e90"}},{"fullUrl":"https://madie.cms.gov/Condition/c368acec-3be0-43e3-bafc-399e8ae15dfd","resource":{"resourceType":"Condition","id":"c368acec-3be0-43e3-bafc-399e8ae15dfd","meta":{"profile":["http://hl7.org/fhir/us/qicore/StructureDefinition/qicore-condition-problems-health-concerns"]},"clinicalStatus":{"coding":[{"system":"http://terminology.hl7.org/CodeSystem/condition-clinical","code":"active","display":"active","userSelected":true}]},"category":[{"coding":[{"system":"http://terminology.hl7.org/CodeSystem/condition-category","code":"problem-list-item","display":"Problem List Item","userSelected":true}]}],"code":{"coding":[{"system":"http://snomed.info/sct","version":"2020-09","code":"401303003","display":"Acute ST segment elevation myocardial infarction (disorder)","userSelected":true}]},"subject":{"reference":"Patient/125a85ca-49fc-401a-8abd-3f7f6491b42d"},"onsetDateTime":"2026-10-09T08:30:00.000+00:00"},"request":{"method":"PUT","url":"Condition/c368acec-3be0-43e3-bafc-399e8ae15dfd"}},{"fullUrl":"https://madie.cms.gov/Condition/eb8d34d1-6c31-4a98-885b-37e005d56ec0","resource":{"resourceType":"Condition","id":"eb8d34d1-6c31-4a98-885b-37e005d56ec0","meta":{"profile":["http://hl7.org/fhir/us/qicore/StructureDefinition/qicore-condition-problems-health-concerns"]},"clinicalStatus":{"coding":[{"system":"http://terminology.hl7.org/CodeSystem/condition-clinical","version":"4.0.1","code":"inactive","display":"Inactive","userSelected":true}]},"category":[{"coding":[{"system":"http://terminology.hl7.org/CodeSystem/condition-category","code":"problem-list-item","display":"Problem List Item","userSelected":true}]}],"code":{"coding":[{"system":"http://snomed.info/sct","version":"2020-09","code":"255409004","display":"Pregnant woman (person)","userSelected":true}]},"subject":{"reference":"Patient/125a85ca-49fc-401a-8abd-3f7f6491b42d"},"onsetDateTime":"2026-10-09T09:00:00.000+00:00","abatementDateTime":"2027-08-08T08:15:00.000+00:00"},"request":{"method":"PUT","url":"Condition/eb8d34d1-6c31-4a98-885b-37e005d56ec0"}},{"fullUrl":"https://madie.cms.gov/MeasureReport/0b6b4b8f-d52e-40b3-bcf0-578fb0de10d2","resource":{"resourceType":"MeasureReport","id":"0b6b4b8f-d52e-40b3-bcf0-578fb0de10d2","meta":{"profile":["http://hl7.org/fhir/us/cqfmeasures/StructureDefinition/test-case-cqfm"]},"contained":[{"resourceType":"Parameters","id":"0a5cbb43-0225-4670-bb3a-11d4cc38e41f-parameters","parameter":[{"name":"subject","valueString":"125a85ca-49fc-401a-8abd-3f7f6491b42d"}]}],"extension":[{"url":"http://hl7.org/fhir/StructureDefinition/cqf-inputParameters","valueReference":{"reference":"#0a5cbb43-0225-4670-bb3a-11d4cc38e41f-parameters"}},{"url":"http://hl7.org/fhir/us/cqfmeasures/StructureDefinition/cqfm-testCaseDescription","valueMarkdown":"Patient has pregnancy (exclusion dx) starts during ED and ends after ED"}],"modifierExtension":[{"url":"http://hl7.org/fhir/us/cqfmeasures/StructureDefinition/cqfm-isTestCase","valueBoolean":true}],"status":"complete","type":"individual","measure":"https://madie.cms.gov/Measure/CMS996FHIRAptTxforSTEMI","period":{"start":"2026-01-01","end":"2026-12-31"},"group":[{"id":"Group_1","population":[{"id":"InitialPopulation_1","code":{"coding":[{"system":"http://terminology.hl7.org/CodeSystem/measure-population","code":"initial-population","display":"Initial Population"}]},"count":1},{"id":"Denominator_1","code":{"coding":[{"system":"http://terminology.hl7.org/CodeSystem/measure-population","code":"denominator","display":"Denominator"}]},"count":1},{"id":"DenominatorExclusion_1","code":{"coding":[{"system":"http://terminology.hl7.org/CodeSystem/measure-population","code":"denominator-exclusion","display":"Denominator Exclusion"}]},"count":0},{"id":"Numerator_1","code":{"coding":[{"system":"http://terminology.hl7.org/CodeSystem/measure-population","code":"numerator","display":"Numerator"}]},"count":0},{"id":"DenominatorException_1","code":{"coding":[{"system":"http://terminology.hl7.org/CodeSystem/measure-population","code":"denominator-exception","display":"Denominator Exception"}]},"count":0}],"measureScore":{"value":0.0}}],"evaluatedResource":[{"reference":"Patient/125a85ca-49fc-401a-8abd-3f7f6491b42d"},{"reference":"Encounter/3f74503a-c480-4abf-8a69-7c03b0f18e90"},{"reference":"Condition/c368acec-3be0-43e3-bafc-399e8ae15dfd"},{"reference":"Condition/eb8d34d1-6c31-4a98-885b-37e005d56ec0"}]},"request":{"method":"PUT","url":"MeasureReport/0b6b4b8f-d52e-40b3-bcf0-578fb0de10d2"}}]},"request":{"method":"PUT","url":"Bundle/617b0fef513b5d1ee28b7577"}},{"resource":{"resourceType":"Condition","id":"c368acec-3be0-43e3-bafc-399e8ae15dfd","meta":{"profile":["http://hl7.org/fhir/us/qicore/StructureDefinition/qicore-condition-problems-health-concerns"]},"clinicalStatus":{"coding":[{"system":"http://terminology.hl7.org/CodeSystem/condition-clinical","code":"active","display":"active","userSelected":true}]},"category":[{"coding":[{"system":"http://terminology.hl7.org/CodeSystem/condition-category","code":"problem-list-item","display":"Problem List Item","userSelected":true}]}],"code":{"coding":[{"system":"http://snomed.info/sct","version":"2020-09","code":"401303003","display":"Acute ST segment elevation myocardial infarction (disorder)","userSelected":true}]},"subject":{"reference":"Patient/125a85ca-49fc-401a-8abd-3f7f6491b42d"},"onsetDateTime":"2026-10-09T08:30:00.000+00:00"},"request":{"method":"PUT","url":"Condition/c368acec-3be0-43e3-bafc-399e8ae15dfd"}},{"resource":{"resourceType":"Condition","id":"eb8d34d1-6c31-4a98-885b-37e005d56ec0","meta":{"profile":["http://hl7.org/fhir/us/qicore/StructureDefinition/qicore-condition-problems-health-concerns"]},"clinicalStatus":{"coding":[{"system":"http://terminology.hl7.org/CodeSystem/condition-clinical","version":"4.0.1","code":"inactive","display":"Inactive","userSelected":true}]},"category":[{"coding":[{"system":"http://terminology.hl7.org/CodeSystem/condition-category","code":"problem-list-item","display":"Problem List Item","userSelected":true}]}],"code":{"coding":[{"system":"http://snomed.info/sct","version":"2020-09","code":"255409004","display":"Pregnant woman (person)","userSelected":true}]},"subject":{"reference":"Patient/125a85ca-49fc-401a-8abd-3f7f6491b42d"},"onsetDateTime":"2026-10-09T09:00:00.000+00:00","abatementDateTime":"2027-08-08T08:15:00.000+00:00"},"request":{"method":"PUT","url":"Condition/eb8d34d1-6c31-4a98-885b-37e005d56ec0"}},{"resource":{"resourceType":"Encounter","id":"3f74503a-c480-4abf-8a69-7c03b0f18e90","meta":{"profile":["http://hl7.org/fhir/us/qicore/StructureDefinition/qicore-encounter"]},"status":"finished","class":{"system":"http://terminology.hl7.org/CodeSystem/v3-ActCode","code":"EMER","display":"emergency","userSelected":true},"type":[{"coding":[{"system":"http://snomed.info/sct","version":"2020-09","code":"4525004","display":"Emergency department patient visit (procedure)","userSelected":true}]}],"subject":{"reference":"Patient/125a85ca-49fc-401a-8abd-3f7f6491b42d"},"period":{"start":"2026-10-09T08:05:00.000+00:00","end":"2026-10-10T07:15:00.000+00:00"},"reasonReference":[{"reference":"Condition/c368acec-3be0-43e3-bafc-399e8ae15dfd"}]},"request":{"method":"PUT","url":"Encounter/3f74503a-c480-4abf-8a69-7c03b0f18e90"}},{"resource":{"resourceType":"Patient","id":"125a85ca-49fc-401a-8abd-3f7f6491b42d","meta":{"profile":["http://hl7.org/fhir/us/qicore/StructureDefinition/qicore-patient"]},"extension":[{"url":"http://hl7.org/fhir/us/core/StructureDefinition/us-core-race","extension":[{"url":"ombCategory","valueCoding":{"system":"urn:oid:2.16.840.1.113883.6.238","code":"2076-8","display":"Native Hawaiian or Other Pacific Islander","userSelected":true}},{"url":"text","valueString":"Native Hawaiian or Other Pacific Islander"}]},{"url":"http://hl7.org/fhir/us/core/StructureDefinition/us-core-ethnicity","extension":[{"url":"ombCategory","valueCoding":{"system":"urn:oid:2.16.840.1.113883.6.238","code":"2186-5","display":"Not Hispanic or Latino","userSelected":true}},{"url":"text","valueString":"Not Hispanic or Latino"}]},{"url":"http://hl7.org/fhir/us/core/StructureDefinition/us-core-sex","valueCode":"248152002"}],"identifier":[{"type":{"coding":[{"system":"http://terminology.hl7.org/CodeSystem/v2-0203","code":"MR"}]},"system":"https://bonnie-fhir.healthit.gov/","value":"617b0fef513b5d1ee28b7577"}],"name":[{"family":"DenExcl4Fail","given":["DxStartsDuringEndsAfterED"]}],"gender":"female","birthDate":"1985-12-02"},"request":{"method":"PUT","url":"Patient/125a85ca-49fc-401a-8abd-3f7f6491b42d"}},{"resource":{"resourceType":"MeasureReport","id":"0b6b4b8f-d52e-40b3-bcf0-578fb0de10d2","meta":{"profile":["http://hl7.org/fhir/us/cqfmeasures/StructureDefinition/test-case-cqfm"]},"contained":[{"resourceType":"Parameters","id":"0a5cbb43-0225-4670-bb3a-11d4cc38e41f-parameters","parameter":[{"name":"subject","valueString":"125a85ca-49fc-401a-8abd-3f7f6491b42d"}]}],"extension":[{"url":"http://hl7.org/fhir/StructureDefinition/cqf-inputParameters","valueReference":{"reference":"#0a5cbb43-0225-4670-bb3a-11d4cc38e41f-parameters"}},{"url":"http://hl7.org/fhir/us/cqfmeasures/StructureDefinition/cqfm-testCaseDescription","valueMarkdown":"Patient has pregnancy (exclusion dx) starts during ED and ends after ED"}],"modifierExtension":[{"url":"http://hl7.org/fhir/us/cqfmeasures/StructureDefinition/cqfm-isTestCase","valueBoolean":true}],"status":"complete","type":"individual","measure":"https://madie.cms.gov/Measure/CMS996FHIRAptTxforSTEMI","period":{"start":"2026-01-01","end":"2026-12-31"},"group":[{"id":"Group_1","population":[{"id":"InitialPopulation_1","code":{"coding":[{"system":"http://terminology.hl7.org/CodeSystem/measure-population","code":"initial-population","display":"Initial Population"}]},"count":1},{"id":"Denominator_1","code":{"coding":[{"system":"http://terminology.hl7.org/CodeSystem/measure-population","code":"denominator","display":"Denominator"}]},"count":1},{"id":"DenominatorExclusion_1","code":{"coding":[{"system":"http://terminology.hl7.org/CodeSystem/measure-population","code":"denominator-exclusion","display":"Denominator Exclusion"}]},"count":0},{"id":"Numerator_1","code":{"coding":[{"system":"http://terminology.hl7.org/CodeSystem/measure-population","code":"numerator","display":"Numerator"}]},"count":0},{"id":"DenominatorException_1","code":{"coding":[{"system":"http://terminology.hl7.org/CodeSystem/measure-population","code":"denominator-exception","display":"Denominator Exception"}]},"count":0}],"measureScore":{"value":0.0}}],"evaluatedResource":[{"reference":"Patient/125a85ca-49fc-401a-8abd-3f7f6491b42d"},{"reference":"Encounter/3f74503a-c480-4abf-8a69-7c03b0f18e90"},{"reference":"Condition/c368acec-3be0-43e3-bafc-399e8ae15dfd"},{"reference":"Condition/eb8d34d1-6c31-4a98-885b-37e005d56ec0"}]},"request":{"method":"PUT","url":"MeasureReport/0b6b4b8f-d52e-40b3-bcf0-578fb0de10d2"}}]}