{"resourceType":"Bundle","id":"tests-aaebb88a-2098-4fdb-8966-c4d5204ef546-bundle","type":"transaction","entry":[{"resource":{"resourceType":"Condition","id":"8092ca83-68de-4a31-bab3-08f77a3facd2","meta":{"profile":["http://hl7.org/fhir/us/qicore/StructureDefinition/qicore-condition-problems-health-concerns"]},"clinicalStatus":{"coding":[{"system":"http://terminology.hl7.org/CodeSystem/condition-clinical","code":"active","display":"active","userSelected":true}]},"category":[{"coding":[{"system":"http://terminology.hl7.org/CodeSystem/condition-category","code":"problem-list-item","display":"Problem List Item","userSelected":true}]}],"code":{"coding":[{"system":"http://snomed.info/sct","version":"2020-09","code":"401303003","display":"Acute ST segment elevation myocardial infarction (disorder)","userSelected":true}]},"subject":{"reference":"Patient/aaebb88a-2098-4fdb-8966-c4d5204ef546"},"onsetDateTime":"2026-10-09T08:30:00.000+00:00"},"request":{"method":"PUT","url":"Condition/8092ca83-68de-4a31-bab3-08f77a3facd2"}},{"resource":{"resourceType":"MeasureReport","id":"994082b1-4520-49ec-bc1f-7bb741773dc0","meta":{"profile":["http://hl7.org/fhir/us/cqfmeasures/StructureDefinition/test-case-cqfm"]},"contained":[{"resourceType":"Parameters","id":"bce96bad-7a1f-426d-b989-66a29efb1f93-parameters","parameter":[{"name":"subject","valueString":"aaebb88a-2098-4fdb-8966-c4d5204ef546"}]}],"extension":[{"url":"http://hl7.org/fhir/StructureDefinition/cqf-inputParameters","valueReference":{"reference":"#bce96bad-7a1f-426d-b989-66a29efb1f93-parameters"}},{"url":"http://hl7.org/fhir/us/cqfmeasures/StructureDefinition/cqfm-testCaseDescription","valueMarkdown":"Patient has Major Surgical Procedure during ED visit and does not end - using relevantPeriod"}],"modifierExtension":[{"url":"http://hl7.org/fhir/us/cqfmeasures/StructureDefinition/cqfm-isTestCase","valueBoolean":true}],"status":"complete","type":"individual","measure":"https://madie.cms.gov/Measure/CMS996FHIRAptTxforSTEMI","period":{"start":"2026-01-01","end":"2026-12-31"},"group":[{"id":"Group_1","population":[{"id":"InitialPopulation_1","code":{"coding":[{"system":"http://terminology.hl7.org/CodeSystem/measure-population","code":"initial-population","display":"Initial Population"}]},"count":1},{"id":"Denominator_1","code":{"coding":[{"system":"http://terminology.hl7.org/CodeSystem/measure-population","code":"denominator","display":"Denominator"}]},"count":1},{"id":"DenominatorExclusion_1","code":{"coding":[{"system":"http://terminology.hl7.org/CodeSystem/measure-population","code":"denominator-exclusion","display":"Denominator Exclusion"}]},"count":1},{"id":"Numerator_1","code":{"coding":[{"system":"http://terminology.hl7.org/CodeSystem/measure-population","code":"numerator","display":"Numerator"}]},"count":0},{"id":"DenominatorException_1","code":{"coding":[{"system":"http://terminology.hl7.org/CodeSystem/measure-population","code":"denominator-exception","display":"Denominator Exception"}]},"count":0}],"measureScore":{"value":0.0}}],"evaluatedResource":[{"reference":"Patient/aaebb88a-2098-4fdb-8966-c4d5204ef546"},{"reference":"Encounter/4fbc5a91-0946-4c52-b9c5-ee0fe0cf32ae"},{"reference":"Condition/8092ca83-68de-4a31-bab3-08f77a3facd2"},{"reference":"Procedure/949c1d11-d942-4cc3-8b2b-c63a619b35e9"}]},"request":{"method":"PUT","url":"MeasureReport/994082b1-4520-49ec-bc1f-7bb741773dc0"}},{"resource":{"resourceType":"Procedure","id":"949c1d11-d942-4cc3-8b2b-c63a619b35e9","meta":{"profile":["http://hl7.org/fhir/us/qicore/StructureDefinition/qicore-procedure"]},"extension":[{"url":"http://hl7.org/fhir/us/qicore/StructureDefinition/qicore-recorded","valueDateTime":"2026-10-01T08:00:00.000+00:00"}],"status":"completed","category":{"coding":[{"system":"http://snomed.info/sct","code":"387713003","display":"Surgical procedure","userSelected":true}]},"code":{"coding":[{"system":"http://www.cms.gov/Medicare/Coding/ICD10","code":"02100J3","userSelected":true}]},"subject":{"reference":"Patient/aaebb88a-2098-4fdb-8966-c4d5204ef546"},"performedDateTime":"2026-10-09T09:00:00.000+00:00"},"request":{"method":"PUT","url":"Procedure/949c1d11-d942-4cc3-8b2b-c63a619b35e9"}},{"resource":{"resourceType":"Patient","id":"aaebb88a-2098-4fdb-8966-c4d5204ef546","meta":{"profile":["http://hl7.org/fhir/us/qicore/StructureDefinition/qicore-patient"]},"extension":[{"url":"http://hl7.org/fhir/us/core/StructureDefinition/us-core-race","extension":[{"url":"ombCategory","valueCoding":{"system":"urn:oid:2.16.840.1.113883.6.238","code":"2076-8","display":"Native Hawaiian or Other Pacific Islander","userSelected":true}},{"url":"text","valueString":"Native Hawaiian or Other Pacific Islander"}]},{"url":"http://hl7.org/fhir/us/core/StructureDefinition/us-core-ethnicity","extension":[{"url":"ombCategory","valueCoding":{"system":"urn:oid:2.16.840.1.113883.6.238","code":"2186-5","display":"Not Hispanic or Latino","userSelected":true}},{"url":"text","valueString":"Not Hispanic or Latino"}]},{"url":"http://hl7.org/fhir/us/core/StructureDefinition/us-core-sex","valueCode":"248152002"}],"identifier":[{"type":{"coding":[{"system":"http://terminology.hl7.org/CodeSystem/v2-0203","code":"MR"}]},"system":"https://bonnie-fhir.healthit.gov/","value":"6179ef8fad1a790b7af7525c"}],"name":[{"family":"DenExcl3Pass","given":["PxStarts8DBeforeEDNoEndrelevantPeriod"]}],"gender":"female","birthDate":"1985-12-02"},"request":{"method":"PUT","url":"Patient/aaebb88a-2098-4fdb-8966-c4d5204ef546"}},{"resource":{"resourceType":"Encounter","id":"4fbc5a91-0946-4c52-b9c5-ee0fe0cf32ae","meta":{"profile":["http://hl7.org/fhir/us/qicore/StructureDefinition/qicore-encounter"]},"status":"finished","class":{"system":"http://terminology.hl7.org/CodeSystem/v3-ActCode","code":"EMER","display":"emergency","userSelected":true},"type":[{"coding":[{"system":"http://snomed.info/sct","version":"2020-09","code":"4525004","display":"Emergency department patient visit (procedure)","userSelected":true}]}],"subject":{"reference":"Patient/aaebb88a-2098-4fdb-8966-c4d5204ef546"},"period":{"start":"2026-10-09T08:05:00.000+00:00","end":"2026-10-10T07:15:00.000+00:00"},"reasonReference":[{"reference":"Condition/8092ca83-68de-4a31-bab3-08f77a3facd2"}]},"request":{"method":"PUT","url":"Encounter/4fbc5a91-0946-4c52-b9c5-ee0fe0cf32ae"}},{"resource":{"resourceType":"Bundle","id":"6179ef8fad1a790b7af7525c","type":"transaction","entry":[{"fullUrl":"https://madie.cms.gov/Patient/aaebb88a-2098-4fdb-8966-c4d5204ef546","resource":{"resourceType":"Patient","id":"aaebb88a-2098-4fdb-8966-c4d5204ef546","meta":{"profile":["http://hl7.org/fhir/us/qicore/StructureDefinition/qicore-patient"]},"extension":[{"url":"http://hl7.org/fhir/us/core/StructureDefinition/us-core-race","extension":[{"url":"ombCategory","valueCoding":{"system":"urn:oid:2.16.840.1.113883.6.238","code":"2076-8","display":"Native Hawaiian or Other Pacific Islander","userSelected":true}},{"url":"text","valueString":"Native Hawaiian or Other Pacific Islander"}]},{"url":"http://hl7.org/fhir/us/core/StructureDefinition/us-core-ethnicity","extension":[{"url":"ombCategory","valueCoding":{"system":"urn:oid:2.16.840.1.113883.6.238","code":"2186-5","display":"Not Hispanic or Latino","userSelected":true}},{"url":"text","valueString":"Not Hispanic or Latino"}]},{"url":"http://hl7.org/fhir/us/core/StructureDefinition/us-core-sex","valueCode":"248152002"}],"identifier":[{"type":{"coding":[{"system":"http://terminology.hl7.org/CodeSystem/v2-0203","code":"MR"}]},"system":"https://bonnie-fhir.healthit.gov/","value":"6179ef8fad1a790b7af7525c"}],"name":[{"family":"DenExcl3Pass","given":["PxStarts8DBeforeEDNoEndrelevantPeriod"]}],"gender":"female","birthDate":"1985-12-02"},"request":{"method":"PUT","url":"Patient/aaebb88a-2098-4fdb-8966-c4d5204ef546"}},{"fullUrl":"https://madie.cms.gov/Encounter/4fbc5a91-0946-4c52-b9c5-ee0fe0cf32ae","resource":{"resourceType":"Encounter","id":"4fbc5a91-0946-4c52-b9c5-ee0fe0cf32ae","meta":{"profile":["http://hl7.org/fhir/us/qicore/StructureDefinition/qicore-encounter"]},"status":"finished","class":{"system":"http://terminology.hl7.org/CodeSystem/v3-ActCode","code":"EMER","display":"emergency","userSelected":true},"type":[{"coding":[{"system":"http://snomed.info/sct","version":"2020-09","code":"4525004","display":"Emergency department patient visit (procedure)","userSelected":true}]}],"subject":{"reference":"Patient/aaebb88a-2098-4fdb-8966-c4d5204ef546"},"period":{"start":"2026-10-09T08:05:00.000+00:00","end":"2026-10-10T07:15:00.000+00:00"},"reasonReference":[{"reference":"Condition/8092ca83-68de-4a31-bab3-08f77a3facd2"}]},"request":{"method":"PUT","url":"Encounter/4fbc5a91-0946-4c52-b9c5-ee0fe0cf32ae"}},{"fullUrl":"https://madie.cms.gov/Condition/8092ca83-68de-4a31-bab3-08f77a3facd2","resource":{"resourceType":"Condition","id":"8092ca83-68de-4a31-bab3-08f77a3facd2","meta":{"profile":["http://hl7.org/fhir/us/qicore/StructureDefinition/qicore-condition-problems-health-concerns"]},"clinicalStatus":{"coding":[{"system":"http://terminology.hl7.org/CodeSystem/condition-clinical","code":"active","display":"active","userSelected":true}]},"category":[{"coding":[{"system":"http://terminology.hl7.org/CodeSystem/condition-category","code":"problem-list-item","display":"Problem List Item","userSelected":true}]}],"code":{"coding":[{"system":"http://snomed.info/sct","version":"2020-09","code":"401303003","display":"Acute ST segment elevation myocardial infarction (disorder)","userSelected":true}]},"subject":{"reference":"Patient/aaebb88a-2098-4fdb-8966-c4d5204ef546"},"onsetDateTime":"2026-10-09T08:30:00.000+00:00"},"request":{"method":"PUT","url":"Condition/8092ca83-68de-4a31-bab3-08f77a3facd2"}},{"fullUrl":"https://madie.cms.gov/Procedure/949c1d11-d942-4cc3-8b2b-c63a619b35e9","resource":{"resourceType":"Procedure","id":"949c1d11-d942-4cc3-8b2b-c63a619b35e9","meta":{"profile":["http://hl7.org/fhir/us/qicore/StructureDefinition/qicore-procedure"]},"extension":[{"url":"http://hl7.org/fhir/us/qicore/StructureDefinition/qicore-recorded","valueDateTime":"2026-10-01T08:00:00.000+00:00"}],"status":"completed","category":{"coding":[{"system":"http://snomed.info/sct","code":"387713003","display":"Surgical procedure","userSelected":true}]},"code":{"coding":[{"system":"http://www.cms.gov/Medicare/Coding/ICD10","code":"02100J3","userSelected":true}]},"subject":{"reference":"Patient/aaebb88a-2098-4fdb-8966-c4d5204ef546"},"performedDateTime":"2026-10-09T09:00:00.000+00:00"},"request":{"method":"PUT","url":"Procedure/949c1d11-d942-4cc3-8b2b-c63a619b35e9"}},{"fullUrl":"https://madie.cms.gov/MeasureReport/994082b1-4520-49ec-bc1f-7bb741773dc0","resource":{"resourceType":"MeasureReport","id":"994082b1-4520-49ec-bc1f-7bb741773dc0","meta":{"profile":["http://hl7.org/fhir/us/cqfmeasures/StructureDefinition/test-case-cqfm"]},"contained":[{"resourceType":"Parameters","id":"bce96bad-7a1f-426d-b989-66a29efb1f93-parameters","parameter":[{"name":"subject","valueString":"aaebb88a-2098-4fdb-8966-c4d5204ef546"}]}],"extension":[{"url":"http://hl7.org/fhir/StructureDefinition/cqf-inputParameters","valueReference":{"reference":"#bce96bad-7a1f-426d-b989-66a29efb1f93-parameters"}},{"url":"http://hl7.org/fhir/us/cqfmeasures/StructureDefinition/cqfm-testCaseDescription","valueMarkdown":"Patient has Major Surgical Procedure during ED visit and does not end - using relevantPeriod"}],"modifierExtension":[{"url":"http://hl7.org/fhir/us/cqfmeasures/StructureDefinition/cqfm-isTestCase","valueBoolean":true}],"status":"complete","type":"individual","measure":"https://madie.cms.gov/Measure/CMS996FHIRAptTxforSTEMI","period":{"start":"2026-01-01","end":"2026-12-31"},"group":[{"id":"Group_1","population":[{"id":"InitialPopulation_1","code":{"coding":[{"system":"http://terminology.hl7.org/CodeSystem/measure-population","code":"initial-population","display":"Initial Population"}]},"count":1},{"id":"Denominator_1","code":{"coding":[{"system":"http://terminology.hl7.org/CodeSystem/measure-population","code":"denominator","display":"Denominator"}]},"count":1},{"id":"DenominatorExclusion_1","code":{"coding":[{"system":"http://terminology.hl7.org/CodeSystem/measure-population","code":"denominator-exclusion","display":"Denominator Exclusion"}]},"count":1},{"id":"Numerator_1","code":{"coding":[{"system":"http://terminology.hl7.org/CodeSystem/measure-population","code":"numerator","display":"Numerator"}]},"count":0},{"id":"DenominatorException_1","code":{"coding":[{"system":"http://terminology.hl7.org/CodeSystem/measure-population","code":"denominator-exception","display":"Denominator Exception"}]},"count":0}],"measureScore":{"value":0.0}}],"evaluatedResource":[{"reference":"Patient/aaebb88a-2098-4fdb-8966-c4d5204ef546"},{"reference":"Encounter/4fbc5a91-0946-4c52-b9c5-ee0fe0cf32ae"},{"reference":"Condition/8092ca83-68de-4a31-bab3-08f77a3facd2"},{"reference":"Procedure/949c1d11-d942-4cc3-8b2b-c63a619b35e9"}]},"request":{"method":"PUT","url":"MeasureReport/994082b1-4520-49ec-bc1f-7bb741773dc0"}}]},"request":{"method":"PUT","url":"Bundle/6179ef8fad1a790b7af7525c"}}]}