{"resourceType":"Bundle","id":"tests-a5a0b1e6-fd91-4eaa-9019-618ddd0b8455-bundle","type":"transaction","entry":[{"fullUrl":"Patient/a5a0b1e6-fd91-4eaa-9019-618ddd0b8455","resource":{"resourceType":"Patient","id":"a5a0b1e6-fd91-4eaa-9019-618ddd0b8455","meta":{"profile":["http://hl7.org/fhir/us/qicore/StructureDefinition/qicore-patient"]},"extension":[{"url":"http://hl7.org/fhir/us/core/StructureDefinition/us-core-race","extension":[{"url":"ombCategory","valueCoding":{"system":"urn:oid:2.16.840.1.113883.6.238","code":"2076-8","display":"Native Hawaiian or Other Pacific Islander","userSelected":true}},{"url":"text","valueString":"Native Hawaiian or Other Pacific Islander"}]},{"url":"http://hl7.org/fhir/us/core/StructureDefinition/us-core-ethnicity","extension":[{"url":"ombCategory","valueCoding":{"system":"urn:oid:2.16.840.1.113883.6.238","code":"2186-5","display":"Not Hispanic or Latino","userSelected":true}},{"url":"text","valueString":"Not Hispanic or Latino"}]},{"url":"http://hl7.org/fhir/us/core/StructureDefinition/us-core-sex","valueCode":"248152002"}],"identifier":[{"type":{"coding":[{"system":"http://terminology.hl7.org/CodeSystem/v2-0203","code":"MR"}]},"system":"https://bonnie-fhir.healthit.gov/","value":"617be8bd1619a529957d62ba"}],"name":[{"family":"DenExcl7Fail","given":["DxStartsDuringEDNoEnd"]}],"gender":"female","birthDate":"1985-12-02"},"request":{"method":"PUT","url":"Patient/a5a0b1e6-fd91-4eaa-9019-618ddd0b8455"}},{"fullUrl":"Condition/f507f341-057f-4e0d-b316-ee06902998de","resource":{"resourceType":"Condition","id":"f507f341-057f-4e0d-b316-ee06902998de","meta":{"profile":["http://hl7.org/fhir/us/qicore/StructureDefinition/qicore-condition-problems-health-concerns"]},"clinicalStatus":{"coding":[{"system":"http://terminology.hl7.org/CodeSystem/condition-clinical","code":"active","display":"active","userSelected":true}]},"category":[{"coding":[{"system":"http://terminology.hl7.org/CodeSystem/condition-category","code":"problem-list-item","display":"Problem List Item","userSelected":true}]}],"code":{"coding":[{"system":"http://snomed.info/sct","version":"2020-09","code":"401303003","display":"Acute ST segment elevation myocardial infarction (disorder)","userSelected":true}]},"subject":{"reference":"Patient/a5a0b1e6-fd91-4eaa-9019-618ddd0b8455"},"onsetDateTime":"2026-10-09T08:30:00.000+00:00"},"request":{"method":"PUT","url":"Condition/f507f341-057f-4e0d-b316-ee06902998de"}},{"fullUrl":"Condition/e45b53d3-7084-43fb-a885-9e93d0dc4238","resource":{"resourceType":"Condition","id":"e45b53d3-7084-43fb-a885-9e93d0dc4238","meta":{"profile":["http://hl7.org/fhir/us/qicore/StructureDefinition/qicore-condition-problems-health-concerns"]},"clinicalStatus":{"coding":[{"system":"http://terminology.hl7.org/CodeSystem/condition-clinical","code":"active","display":"Active","userSelected":true}]},"category":[{"coding":[{"system":"http://terminology.hl7.org/CodeSystem/condition-category","code":"problem-list-item","display":"Problem List Item","userSelected":true}]}],"code":{"coding":[{"system":"http://snomed.info/sct","version":"2020-03","code":"110030002","display":"Concussion injury of brain (disorder)","userSelected":true}]},"subject":{"reference":"Patient/a5a0b1e6-fd91-4eaa-9019-618ddd0b8455"},"onsetDateTime":"2026-10-09T11:00:00.000+00:00"},"request":{"method":"PUT","url":"Condition/e45b53d3-7084-43fb-a885-9e93d0dc4238"}},{"fullUrl":"MeasureReport/c266772f-7a37-4924-ac7f-20ddf1bd1135","resource":{"resourceType":"MeasureReport","id":"c266772f-7a37-4924-ac7f-20ddf1bd1135","meta":{"profile":["http://hl7.org/fhir/us/cqfmeasures/StructureDefinition/test-case-cqfm"]},"contained":[{"resourceType":"Parameters","id":"826b30c9-3148-4702-95f4-b7ff7120a5c4-parameters","parameter":[{"name":"subject","valueString":"a5a0b1e6-fd91-4eaa-9019-618ddd0b8455"}]}],"extension":[{"url":"http://hl7.org/fhir/StructureDefinition/cqf-inputParameters","valueReference":{"reference":"#826b30c9-3148-4702-95f4-b7ff7120a5c4-parameters"}},{"url":"http://hl7.org/fhir/us/cqfmeasures/StructureDefinition/cqfm-testCaseDescription","valueMarkdown":"Patient has closed head trauma (exclusion diagnosis) starts during ED and no end"}],"modifierExtension":[{"url":"http://hl7.org/fhir/us/cqfmeasures/StructureDefinition/cqfm-isTestCase","valueBoolean":true}],"status":"complete","type":"individual","measure":"https://madie.cms.gov/Measure/CMS996FHIRAptTxforSTEMI","period":{"start":"2026-01-01","end":"2026-12-31"},"group":[{"id":"Group_1","population":[{"id":"InitialPopulation_1","code":{"coding":[{"system":"http://terminology.hl7.org/CodeSystem/measure-population","code":"initial-population","display":"Initial Population"}]},"count":1},{"id":"Denominator_1","code":{"coding":[{"system":"http://terminology.hl7.org/CodeSystem/measure-population","code":"denominator","display":"Denominator"}]},"count":1},{"id":"DenominatorExclusion_1","code":{"coding":[{"system":"http://terminology.hl7.org/CodeSystem/measure-population","code":"denominator-exclusion","display":"Denominator Exclusion"}]},"count":0},{"id":"Numerator_1","code":{"coding":[{"system":"http://terminology.hl7.org/CodeSystem/measure-population","code":"numerator","display":"Numerator"}]},"count":0},{"id":"DenominatorException_1","code":{"coding":[{"system":"http://terminology.hl7.org/CodeSystem/measure-population","code":"denominator-exception","display":"Denominator Exception"}]},"count":0}],"measureScore":{"value":0.0}}],"evaluatedResource":[{"reference":"Patient/a5a0b1e6-fd91-4eaa-9019-618ddd0b8455"},{"reference":"Encounter/d54ef789-80d8-475e-9f70-6e3792b8e00e"},{"reference":"Condition/f507f341-057f-4e0d-b316-ee06902998de"},{"reference":"Condition/e45b53d3-7084-43fb-a885-9e93d0dc4238"}]},"request":{"method":"PUT","url":"MeasureReport/c266772f-7a37-4924-ac7f-20ddf1bd1135"}},{"fullUrl":"Encounter/d54ef789-80d8-475e-9f70-6e3792b8e00e","resource":{"resourceType":"Encounter","id":"d54ef789-80d8-475e-9f70-6e3792b8e00e","meta":{"profile":["http://hl7.org/fhir/us/qicore/StructureDefinition/qicore-encounter"]},"status":"finished","class":{"system":"http://terminology.hl7.org/CodeSystem/v3-ActCode","code":"EMER","display":"emergency","userSelected":true},"type":[{"coding":[{"system":"http://snomed.info/sct","version":"2020-09","code":"4525004","display":"Emergency department patient visit (procedure)","userSelected":true}]}],"subject":{"reference":"Patient/a5a0b1e6-fd91-4eaa-9019-618ddd0b8455"},"period":{"start":"2026-10-09T08:05:00.000+00:00","end":"2026-10-10T07:15:00.000+00:00"},"reasonReference":[{"reference":"Condition/f507f341-057f-4e0d-b316-ee06902998de"}]},"request":{"method":"PUT","url":"Encounter/d54ef789-80d8-475e-9f70-6e3792b8e00e"}},{"fullUrl":"Bundle/617be8bd1619a529957d62ba","resource":{"resourceType":"Bundle","id":"617be8bd1619a529957d62ba","type":"transaction","entry":[{"fullUrl":"https://madie.cms.gov/Patient/a5a0b1e6-fd91-4eaa-9019-618ddd0b8455","resource":{"resourceType":"Patient","id":"a5a0b1e6-fd91-4eaa-9019-618ddd0b8455","meta":{"profile":["http://hl7.org/fhir/us/qicore/StructureDefinition/qicore-patient"]},"extension":[{"url":"http://hl7.org/fhir/us/core/StructureDefinition/us-core-race","extension":[{"url":"ombCategory","valueCoding":{"system":"urn:oid:2.16.840.1.113883.6.238","code":"2076-8","display":"Native Hawaiian or Other Pacific Islander","userSelected":true}},{"url":"text","valueString":"Native Hawaiian or Other Pacific Islander"}]},{"url":"http://hl7.org/fhir/us/core/StructureDefinition/us-core-ethnicity","extension":[{"url":"ombCategory","valueCoding":{"system":"urn:oid:2.16.840.1.113883.6.238","code":"2186-5","display":"Not Hispanic or Latino","userSelected":true}},{"url":"text","valueString":"Not Hispanic or Latino"}]},{"url":"http://hl7.org/fhir/us/core/StructureDefinition/us-core-sex","valueCode":"248152002"}],"identifier":[{"type":{"coding":[{"system":"http://terminology.hl7.org/CodeSystem/v2-0203","code":"MR"}]},"system":"https://bonnie-fhir.healthit.gov/","value":"617be8bd1619a529957d62ba"}],"name":[{"family":"DenExcl7Fail","given":["DxStartsDuringEDNoEnd"]}],"gender":"female","birthDate":"1985-12-02"},"request":{"method":"PUT","url":"Patient/a5a0b1e6-fd91-4eaa-9019-618ddd0b8455"}},{"fullUrl":"https://madie.cms.gov/Encounter/d54ef789-80d8-475e-9f70-6e3792b8e00e","resource":{"resourceType":"Encounter","id":"d54ef789-80d8-475e-9f70-6e3792b8e00e","meta":{"profile":["http://hl7.org/fhir/us/qicore/StructureDefinition/qicore-encounter"]},"status":"finished","class":{"system":"http://terminology.hl7.org/CodeSystem/v3-ActCode","code":"EMER","display":"emergency","userSelected":true},"type":[{"coding":[{"system":"http://snomed.info/sct","version":"2020-09","code":"4525004","display":"Emergency department patient visit (procedure)","userSelected":true}]}],"subject":{"reference":"Patient/a5a0b1e6-fd91-4eaa-9019-618ddd0b8455"},"period":{"start":"2026-10-09T08:05:00.000+00:00","end":"2026-10-10T07:15:00.000+00:00"},"reasonReference":[{"reference":"Condition/f507f341-057f-4e0d-b316-ee06902998de"}]},"request":{"method":"PUT","url":"Encounter/d54ef789-80d8-475e-9f70-6e3792b8e00e"}},{"fullUrl":"https://madie.cms.gov/Condition/f507f341-057f-4e0d-b316-ee06902998de","resource":{"resourceType":"Condition","id":"f507f341-057f-4e0d-b316-ee06902998de","meta":{"profile":["http://hl7.org/fhir/us/qicore/StructureDefinition/qicore-condition-problems-health-concerns"]},"clinicalStatus":{"coding":[{"system":"http://terminology.hl7.org/CodeSystem/condition-clinical","code":"active","display":"active","userSelected":true}]},"category":[{"coding":[{"system":"http://terminology.hl7.org/CodeSystem/condition-category","code":"problem-list-item","display":"Problem List Item","userSelected":true}]}],"code":{"coding":[{"system":"http://snomed.info/sct","version":"2020-09","code":"401303003","display":"Acute ST segment elevation myocardial infarction (disorder)","userSelected":true}]},"subject":{"reference":"Patient/a5a0b1e6-fd91-4eaa-9019-618ddd0b8455"},"onsetDateTime":"2026-10-09T08:30:00.000+00:00"},"request":{"method":"PUT","url":"Condition/f507f341-057f-4e0d-b316-ee06902998de"}},{"fullUrl":"https://madie.cms.gov/Condition/e45b53d3-7084-43fb-a885-9e93d0dc4238","resource":{"resourceType":"Condition","id":"e45b53d3-7084-43fb-a885-9e93d0dc4238","meta":{"profile":["http://hl7.org/fhir/us/qicore/StructureDefinition/qicore-condition-problems-health-concerns"]},"clinicalStatus":{"coding":[{"system":"http://terminology.hl7.org/CodeSystem/condition-clinical","code":"active","display":"Active","userSelected":true}]},"category":[{"coding":[{"system":"http://terminology.hl7.org/CodeSystem/condition-category","code":"problem-list-item","display":"Problem List Item","userSelected":true}]}],"code":{"coding":[{"system":"http://snomed.info/sct","version":"2020-03","code":"110030002","display":"Concussion injury of brain (disorder)","userSelected":true}]},"subject":{"reference":"Patient/a5a0b1e6-fd91-4eaa-9019-618ddd0b8455"},"onsetDateTime":"2026-10-09T11:00:00.000+00:00"},"request":{"method":"PUT","url":"Condition/e45b53d3-7084-43fb-a885-9e93d0dc4238"}},{"fullUrl":"https://madie.cms.gov/MeasureReport/c266772f-7a37-4924-ac7f-20ddf1bd1135","resource":{"resourceType":"MeasureReport","id":"c266772f-7a37-4924-ac7f-20ddf1bd1135","meta":{"profile":["http://hl7.org/fhir/us/cqfmeasures/StructureDefinition/test-case-cqfm"]},"contained":[{"resourceType":"Parameters","id":"826b30c9-3148-4702-95f4-b7ff7120a5c4-parameters","parameter":[{"name":"subject","valueString":"a5a0b1e6-fd91-4eaa-9019-618ddd0b8455"}]}],"extension":[{"url":"http://hl7.org/fhir/StructureDefinition/cqf-inputParameters","valueReference":{"reference":"#826b30c9-3148-4702-95f4-b7ff7120a5c4-parameters"}},{"url":"http://hl7.org/fhir/us/cqfmeasures/StructureDefinition/cqfm-testCaseDescription","valueMarkdown":"Patient has closed head trauma (exclusion diagnosis) starts during ED and no end"}],"modifierExtension":[{"url":"http://hl7.org/fhir/us/cqfmeasures/StructureDefinition/cqfm-isTestCase","valueBoolean":true}],"status":"complete","type":"individual","measure":"https://madie.cms.gov/Measure/CMS996FHIRAptTxforSTEMI","period":{"start":"2026-01-01","end":"2026-12-31"},"group":[{"id":"Group_1","population":[{"id":"InitialPopulation_1","code":{"coding":[{"system":"http://terminology.hl7.org/CodeSystem/measure-population","code":"initial-population","display":"Initial Population"}]},"count":1},{"id":"Denominator_1","code":{"coding":[{"system":"http://terminology.hl7.org/CodeSystem/measure-population","code":"denominator","display":"Denominator"}]},"count":1},{"id":"DenominatorExclusion_1","code":{"coding":[{"system":"http://terminology.hl7.org/CodeSystem/measure-population","code":"denominator-exclusion","display":"Denominator Exclusion"}]},"count":0},{"id":"Numerator_1","code":{"coding":[{"system":"http://terminology.hl7.org/CodeSystem/measure-population","code":"numerator","display":"Numerator"}]},"count":0},{"id":"DenominatorException_1","code":{"coding":[{"system":"http://terminology.hl7.org/CodeSystem/measure-population","code":"denominator-exception","display":"Denominator Exception"}]},"count":0}],"measureScore":{"value":0.0}}],"evaluatedResource":[{"reference":"Patient/a5a0b1e6-fd91-4eaa-9019-618ddd0b8455"},{"reference":"Encounter/d54ef789-80d8-475e-9f70-6e3792b8e00e"},{"reference":"Condition/f507f341-057f-4e0d-b316-ee06902998de"},{"reference":"Condition/e45b53d3-7084-43fb-a885-9e93d0dc4238"}]},"request":{"method":"PUT","url":"MeasureReport/c266772f-7a37-4924-ac7f-20ddf1bd1135"}}]},"request":{"method":"PUT","url":"Bundle/617be8bd1619a529957d62ba"}}]}