{"resourceType":"Bundle","id":"tests-ddee386b-8a0d-4bfb-a5c8-7235e1b17fa8-bundle","type":"transaction","entry":[{"fullUrl":"Condition/0d288ffd-5588-47c3-a5a7-94e7a39b391e","resource":{"resourceType":"Condition","id":"0d288ffd-5588-47c3-a5a7-94e7a39b391e","meta":{"profile":["http://hl7.org/fhir/us/qicore/StructureDefinition/qicore-condition-problems-health-concerns"]},"clinicalStatus":{"coding":[{"system":"http://terminology.hl7.org/CodeSystem/condition-clinical","code":"active","display":"active","userSelected":true}]},"category":[{"coding":[{"system":"http://terminology.hl7.org/CodeSystem/condition-category","code":"problem-list-item","display":"Problem List Item","userSelected":true}]}],"code":{"coding":[{"system":"http://snomed.info/sct","version":"2020-09","code":"401303003","display":"Acute ST segment elevation myocardial infarction (disorder)","userSelected":true}]},"subject":{"reference":"Patient/ddee386b-8a0d-4bfb-a5c8-7235e1b17fa8"},"onsetDateTime":"2026-10-09T08:30:00.000+00:00"},"request":{"method":"PUT","url":"Condition/0d288ffd-5588-47c3-a5a7-94e7a39b391e"}},{"fullUrl":"MeasureReport/cdd59da9-d3e4-4c13-a28d-4fedc386290a","resource":{"resourceType":"MeasureReport","id":"cdd59da9-d3e4-4c13-a28d-4fedc386290a","meta":{"profile":["http://hl7.org/fhir/us/cqfmeasures/StructureDefinition/test-case-cqfm"]},"contained":[{"resourceType":"Parameters","id":"99b20809-778b-4b4d-8252-e53f8f97c0a4-parameters","parameter":[{"name":"subject","valueString":"ddee386b-8a0d-4bfb-a5c8-7235e1b17fa8"}]}],"extension":[{"url":"http://hl7.org/fhir/StructureDefinition/cqf-inputParameters","valueReference":{"reference":"#99b20809-778b-4b4d-8252-e53f8f97c0a4-parameters"}},{"url":"http://hl7.org/fhir/us/cqfmeasures/StructureDefinition/cqfm-testCaseDescription","valueMarkdown":"Patient has Major Surgical Procedure (exclusion Px) 8 days before ED visit and does not end - using relevantDatetime"}],"modifierExtension":[{"url":"http://hl7.org/fhir/us/cqfmeasures/StructureDefinition/cqfm-isTestCase","valueBoolean":true}],"status":"complete","type":"individual","measure":"https://madie.cms.gov/Measure/CMS996FHIRAptTxforSTEMI","period":{"start":"2026-01-01","end":"2026-12-31"},"group":[{"id":"Group_1","population":[{"id":"InitialPopulation_1","code":{"coding":[{"system":"http://terminology.hl7.org/CodeSystem/measure-population","code":"initial-population","display":"Initial Population"}]},"count":1},{"id":"Denominator_1","code":{"coding":[{"system":"http://terminology.hl7.org/CodeSystem/measure-population","code":"denominator","display":"Denominator"}]},"count":1},{"id":"DenominatorExclusion_1","code":{"coding":[{"system":"http://terminology.hl7.org/CodeSystem/measure-population","code":"denominator-exclusion","display":"Denominator Exclusion"}]},"count":1},{"id":"Numerator_1","code":{"coding":[{"system":"http://terminology.hl7.org/CodeSystem/measure-population","code":"numerator","display":"Numerator"}]},"count":0},{"id":"DenominatorException_1","code":{"coding":[{"system":"http://terminology.hl7.org/CodeSystem/measure-population","code":"denominator-exception","display":"Denominator Exception"}]},"count":0}],"measureScore":{"value":0.0}}],"evaluatedResource":[{"reference":"Patient/ddee386b-8a0d-4bfb-a5c8-7235e1b17fa8"},{"reference":"Encounter/3f761c4e-e015-4e7a-8e93-4eaa32c05a41"},{"reference":"Condition/0d288ffd-5588-47c3-a5a7-94e7a39b391e"},{"reference":"Procedure/e1ade995-97fa-4a4d-ab0b-adc13b1df113"}]},"request":{"method":"PUT","url":"MeasureReport/cdd59da9-d3e4-4c13-a28d-4fedc386290a"}},{"fullUrl":"Procedure/e1ade995-97fa-4a4d-ab0b-adc13b1df113","resource":{"resourceType":"Procedure","id":"e1ade995-97fa-4a4d-ab0b-adc13b1df113","meta":{"profile":["http://hl7.org/fhir/us/qicore/StructureDefinition/qicore-procedure"]},"extension":[{"url":"http://hl7.org/fhir/us/qicore/StructureDefinition/qicore-recorded","valueDateTime":"2026-10-01T08:00:00.000+00:00"}],"status":"completed","category":{"coding":[{"system":"http://snomed.info/sct","code":"387713003","display":"Surgical procedure","userSelected":true}]},"code":{"coding":[{"system":"http://www.cms.gov/Medicare/Coding/ICD10","code":"02100J3","userSelected":true}]},"subject":{"reference":"Patient/ddee386b-8a0d-4bfb-a5c8-7235e1b17fa8"},"performedDateTime":"2026-10-01T08:00:00.000+00:00"},"request":{"method":"PUT","url":"Procedure/e1ade995-97fa-4a4d-ab0b-adc13b1df113"}},{"fullUrl":"Patient/ddee386b-8a0d-4bfb-a5c8-7235e1b17fa8","resource":{"resourceType":"Patient","id":"ddee386b-8a0d-4bfb-a5c8-7235e1b17fa8","meta":{"profile":["http://hl7.org/fhir/us/qicore/StructureDefinition/qicore-patient"]},"extension":[{"url":"http://hl7.org/fhir/us/core/StructureDefinition/us-core-race","extension":[{"url":"ombCategory","valueCoding":{"system":"urn:oid:2.16.840.1.113883.6.238","code":"2076-8","display":"Native Hawaiian or Other Pacific Islander","userSelected":true}},{"url":"text","valueString":"Native Hawaiian or Other Pacific Islander"}]},{"url":"http://hl7.org/fhir/us/core/StructureDefinition/us-core-ethnicity","extension":[{"url":"ombCategory","valueCoding":{"system":"urn:oid:2.16.840.1.113883.6.238","code":"2186-5","display":"Not Hispanic or Latino","userSelected":true}},{"url":"text","valueString":"Not Hispanic or Latino"}]},{"url":"http://hl7.org/fhir/us/core/StructureDefinition/us-core-sex","valueCode":"248152002"}],"identifier":[{"type":{"coding":[{"system":"http://terminology.hl7.org/CodeSystem/v2-0203","code":"MR"}]},"system":"https://bonnie-fhir.healthit.gov/","value":"6179ef2ead1a790b7af7525b"}],"name":[{"family":"DenExcl3Pass","given":["PxStarts8DBeforeEDNoEndrelevantDatetime"]}],"gender":"female","birthDate":"1985-12-02"},"request":{"method":"PUT","url":"Patient/ddee386b-8a0d-4bfb-a5c8-7235e1b17fa8"}},{"fullUrl":"Bundle/6179ef2ead1a790b7af7525b","resource":{"resourceType":"Bundle","id":"6179ef2ead1a790b7af7525b","type":"transaction","entry":[{"fullUrl":"https://madie.cms.gov/Patient/ddee386b-8a0d-4bfb-a5c8-7235e1b17fa8","resource":{"resourceType":"Patient","id":"ddee386b-8a0d-4bfb-a5c8-7235e1b17fa8","meta":{"profile":["http://hl7.org/fhir/us/qicore/StructureDefinition/qicore-patient"]},"extension":[{"url":"http://hl7.org/fhir/us/core/StructureDefinition/us-core-race","extension":[{"url":"ombCategory","valueCoding":{"system":"urn:oid:2.16.840.1.113883.6.238","code":"2076-8","display":"Native Hawaiian or Other Pacific Islander","userSelected":true}},{"url":"text","valueString":"Native Hawaiian or Other Pacific Islander"}]},{"url":"http://hl7.org/fhir/us/core/StructureDefinition/us-core-ethnicity","extension":[{"url":"ombCategory","valueCoding":{"system":"urn:oid:2.16.840.1.113883.6.238","code":"2186-5","display":"Not Hispanic or Latino","userSelected":true}},{"url":"text","valueString":"Not Hispanic or Latino"}]},{"url":"http://hl7.org/fhir/us/core/StructureDefinition/us-core-sex","valueCode":"248152002"}],"identifier":[{"type":{"coding":[{"system":"http://terminology.hl7.org/CodeSystem/v2-0203","code":"MR"}]},"system":"https://bonnie-fhir.healthit.gov/","value":"6179ef2ead1a790b7af7525b"}],"name":[{"family":"DenExcl3Pass","given":["PxStarts8DBeforeEDNoEndrelevantDatetime"]}],"gender":"female","birthDate":"1985-12-02"},"request":{"method":"PUT","url":"Patient/ddee386b-8a0d-4bfb-a5c8-7235e1b17fa8"}},{"fullUrl":"https://madie.cms.gov/Encounter/3f761c4e-e015-4e7a-8e93-4eaa32c05a41","resource":{"resourceType":"Encounter","id":"3f761c4e-e015-4e7a-8e93-4eaa32c05a41","meta":{"profile":["http://hl7.org/fhir/us/qicore/StructureDefinition/qicore-encounter"]},"status":"finished","class":{"system":"http://terminology.hl7.org/CodeSystem/v3-ActCode","code":"EMER","display":"emergency","userSelected":true},"type":[{"coding":[{"system":"http://snomed.info/sct","version":"2020-09","code":"4525004","display":"Emergency department patient visit (procedure)","userSelected":true}]}],"subject":{"reference":"Patient/ddee386b-8a0d-4bfb-a5c8-7235e1b17fa8"},"period":{"start":"2026-10-09T08:05:00.000+00:00","end":"2026-10-10T07:15:00.000+00:00"},"reasonReference":[{"reference":"Condition/0d288ffd-5588-47c3-a5a7-94e7a39b391e"}]},"request":{"method":"PUT","url":"Encounter/3f761c4e-e015-4e7a-8e93-4eaa32c05a41"}},{"fullUrl":"https://madie.cms.gov/Condition/0d288ffd-5588-47c3-a5a7-94e7a39b391e","resource":{"resourceType":"Condition","id":"0d288ffd-5588-47c3-a5a7-94e7a39b391e","meta":{"profile":["http://hl7.org/fhir/us/qicore/StructureDefinition/qicore-condition-problems-health-concerns"]},"clinicalStatus":{"coding":[{"system":"http://terminology.hl7.org/CodeSystem/condition-clinical","code":"active","display":"active","userSelected":true}]},"category":[{"coding":[{"system":"http://terminology.hl7.org/CodeSystem/condition-category","code":"problem-list-item","display":"Problem List Item","userSelected":true}]}],"code":{"coding":[{"system":"http://snomed.info/sct","version":"2020-09","code":"401303003","display":"Acute ST segment elevation myocardial infarction (disorder)","userSelected":true}]},"subject":{"reference":"Patient/ddee386b-8a0d-4bfb-a5c8-7235e1b17fa8"},"onsetDateTime":"2026-10-09T08:30:00.000+00:00"},"request":{"method":"PUT","url":"Condition/0d288ffd-5588-47c3-a5a7-94e7a39b391e"}},{"fullUrl":"https://madie.cms.gov/Procedure/e1ade995-97fa-4a4d-ab0b-adc13b1df113","resource":{"resourceType":"Procedure","id":"e1ade995-97fa-4a4d-ab0b-adc13b1df113","meta":{"profile":["http://hl7.org/fhir/us/qicore/StructureDefinition/qicore-procedure"]},"extension":[{"url":"http://hl7.org/fhir/us/qicore/StructureDefinition/qicore-recorded","valueDateTime":"2026-10-01T08:00:00.000+00:00"}],"status":"completed","category":{"coding":[{"system":"http://snomed.info/sct","code":"387713003","display":"Surgical procedure","userSelected":true}]},"code":{"coding":[{"system":"http://www.cms.gov/Medicare/Coding/ICD10","code":"02100J3","userSelected":true}]},"subject":{"reference":"Patient/ddee386b-8a0d-4bfb-a5c8-7235e1b17fa8"},"performedDateTime":"2026-10-01T08:00:00.000+00:00"},"request":{"method":"PUT","url":"Procedure/e1ade995-97fa-4a4d-ab0b-adc13b1df113"}},{"fullUrl":"https://madie.cms.gov/MeasureReport/cdd59da9-d3e4-4c13-a28d-4fedc386290a","resource":{"resourceType":"MeasureReport","id":"cdd59da9-d3e4-4c13-a28d-4fedc386290a","meta":{"profile":["http://hl7.org/fhir/us/cqfmeasures/StructureDefinition/test-case-cqfm"]},"contained":[{"resourceType":"Parameters","id":"99b20809-778b-4b4d-8252-e53f8f97c0a4-parameters","parameter":[{"name":"subject","valueString":"ddee386b-8a0d-4bfb-a5c8-7235e1b17fa8"}]}],"extension":[{"url":"http://hl7.org/fhir/StructureDefinition/cqf-inputParameters","valueReference":{"reference":"#99b20809-778b-4b4d-8252-e53f8f97c0a4-parameters"}},{"url":"http://hl7.org/fhir/us/cqfmeasures/StructureDefinition/cqfm-testCaseDescription","valueMarkdown":"Patient has Major Surgical Procedure (exclusion Px) 8 days before ED visit and does not end - using relevantDatetime"}],"modifierExtension":[{"url":"http://hl7.org/fhir/us/cqfmeasures/StructureDefinition/cqfm-isTestCase","valueBoolean":true}],"status":"complete","type":"individual","measure":"https://madie.cms.gov/Measure/CMS996FHIRAptTxforSTEMI","period":{"start":"2026-01-01","end":"2026-12-31"},"group":[{"id":"Group_1","population":[{"id":"InitialPopulation_1","code":{"coding":[{"system":"http://terminology.hl7.org/CodeSystem/measure-population","code":"initial-population","display":"Initial Population"}]},"count":1},{"id":"Denominator_1","code":{"coding":[{"system":"http://terminology.hl7.org/CodeSystem/measure-population","code":"denominator","display":"Denominator"}]},"count":1},{"id":"DenominatorExclusion_1","code":{"coding":[{"system":"http://terminology.hl7.org/CodeSystem/measure-population","code":"denominator-exclusion","display":"Denominator Exclusion"}]},"count":1},{"id":"Numerator_1","code":{"coding":[{"system":"http://terminology.hl7.org/CodeSystem/measure-population","code":"numerator","display":"Numerator"}]},"count":0},{"id":"DenominatorException_1","code":{"coding":[{"system":"http://terminology.hl7.org/CodeSystem/measure-population","code":"denominator-exception","display":"Denominator Exception"}]},"count":0}],"measureScore":{"value":0.0}}],"evaluatedResource":[{"reference":"Patient/ddee386b-8a0d-4bfb-a5c8-7235e1b17fa8"},{"reference":"Encounter/3f761c4e-e015-4e7a-8e93-4eaa32c05a41"},{"reference":"Condition/0d288ffd-5588-47c3-a5a7-94e7a39b391e"},{"reference":"Procedure/e1ade995-97fa-4a4d-ab0b-adc13b1df113"}]},"request":{"method":"PUT","url":"MeasureReport/cdd59da9-d3e4-4c13-a28d-4fedc386290a"}}]},"request":{"method":"PUT","url":"Bundle/6179ef2ead1a790b7af7525b"}},{"fullUrl":"Encounter/3f761c4e-e015-4e7a-8e93-4eaa32c05a41","resource":{"resourceType":"Encounter","id":"3f761c4e-e015-4e7a-8e93-4eaa32c05a41","meta":{"profile":["http://hl7.org/fhir/us/qicore/StructureDefinition/qicore-encounter"]},"status":"finished","class":{"system":"http://terminology.hl7.org/CodeSystem/v3-ActCode","code":"EMER","display":"emergency","userSelected":true},"type":[{"coding":[{"system":"http://snomed.info/sct","version":"2020-09","code":"4525004","display":"Emergency department patient visit (procedure)","userSelected":true}]}],"subject":{"reference":"Patient/ddee386b-8a0d-4bfb-a5c8-7235e1b17fa8"},"period":{"start":"2026-10-09T08:05:00.000+00:00","end":"2026-10-10T07:15:00.000+00:00"},"reasonReference":[{"reference":"Condition/0d288ffd-5588-47c3-a5a7-94e7a39b391e"}]},"request":{"method":"PUT","url":"Encounter/3f761c4e-e015-4e7a-8e93-4eaa32c05a41"}}]}