{"resourceType":"Bundle","id":"tests-18031954-8ff7-4bb0-8d54-b5c88ab9c925-bundle","type":"transaction","entry":[{"fullUrl":"Encounter/7937af44-01b1-4e58-bf4c-4e0d9dbe2eb6","resource":{"resourceType":"Encounter","id":"7937af44-01b1-4e58-bf4c-4e0d9dbe2eb6","meta":{"profile":["http://hl7.org/fhir/us/qicore/StructureDefinition/qicore-encounter"]},"status":"finished","class":{"system":"http://terminology.hl7.org/CodeSystem/v3-ActCode","code":"EMER","display":"emergency","userSelected":true},"type":[{"coding":[{"system":"http://snomed.info/sct","version":"2020-09","code":"4525004","display":"Emergency department patient visit (procedure)","userSelected":true}]}],"subject":{"reference":"Patient/18031954-8ff7-4bb0-8d54-b5c88ab9c925"},"period":{"start":"2026-10-09T08:00:00.000+00:00","end":"2026-10-09T08:50:00.000+00:00"},"reasonReference":[{"reference":"Condition/2074d56c-13cd-42f0-a1e3-bbccfc913d62"}],"hospitalization":{"dischargeDisposition":{"coding":[{"system":"http://snomed.info/sct","version":"2020-09","code":"306703003","display":"Discharge to tertiary referral hospital (procedure)","userSelected":true}]}},"location":[{"location":{"reference":"Location/7ac917cb-fef9-4e3c-bf7f-8125fe3034e8"},"period":{"start":"2026-10-09T08:05:00.000+00:00","end":"2026-10-09T08:10:00.000+00:00"}},{"location":{"reference":"Location/ae02defb-9d8c-4feb-83fb-e5dae4664c79"},"period":{"start":"2026-10-09T08:11:00.000+00:00","end":"2026-10-09T08:50:00.000+00:00"}}]},"request":{"method":"PUT","url":"Encounter/7937af44-01b1-4e58-bf4c-4e0d9dbe2eb6"}},{"fullUrl":"Patient/18031954-8ff7-4bb0-8d54-b5c88ab9c925","resource":{"resourceType":"Patient","id":"18031954-8ff7-4bb0-8d54-b5c88ab9c925","meta":{"profile":["http://hl7.org/fhir/us/qicore/StructureDefinition/qicore-patient"]},"extension":[{"url":"http://hl7.org/fhir/us/core/StructureDefinition/us-core-race","extension":[{"url":"ombCategory","valueCoding":{"system":"urn:oid:2.16.840.1.113883.6.238","code":"2076-8","display":"Native Hawaiian or Other Pacific Islander","userSelected":true}},{"url":"text","valueString":"Native Hawaiian or Other Pacific Islander"}]},{"url":"http://hl7.org/fhir/us/core/StructureDefinition/us-core-ethnicity","extension":[{"url":"ombCategory","valueCoding":{"system":"urn:oid:2.16.840.1.113883.6.238","code":"2186-5","display":"Not Hispanic or Latino","userSelected":true}},{"url":"text","valueString":"Not Hispanic or Latino"}]},{"url":"http://hl7.org/fhir/us/core/StructureDefinition/us-core-sex","valueCode":"248153007"}],"identifier":[{"type":{"coding":[{"system":"http://terminology.hl7.org/CodeSystem/v2-0203","code":"MR"}]},"system":"https://bonnie-fhir.healthit.gov/","value":"617835c74bf8e25b8f204e27"}],"name":[{"family":"NumPass","given":["Depart45minsfromEDstart"]}],"gender":"female","birthDate":"1985-12-02"},"request":{"method":"PUT","url":"Patient/18031954-8ff7-4bb0-8d54-b5c88ab9c925"}},{"fullUrl":"Location/7ac917cb-fef9-4e3c-bf7f-8125fe3034e8","resource":{"resourceType":"Location","id":"7ac917cb-fef9-4e3c-bf7f-8125fe3034e8","meta":{"profile":["http://hl7.org/fhir/us/qicore/StructureDefinition/qicore-location"]},"identifier":[{"use":"usual","system":"http://exampleoflocation.com","value":"ED-1.R3"}],"name":"Emergency Department, first floor","type":[{"coding":[{"system":"http://terminology.hl7.org/CodeSystem/v3-RoleCode","version":"2019","code":"ER","display":"Emergency room","userSelected":true}]}]},"request":{"method":"PUT","url":"Location/7ac917cb-fef9-4e3c-bf7f-8125fe3034e8"}},{"fullUrl":"MeasureReport/d3734574-74af-4db6-b78e-879fee829504","resource":{"resourceType":"MeasureReport","id":"d3734574-74af-4db6-b78e-879fee829504","meta":{"profile":["http://hl7.org/fhir/us/cqfmeasures/StructureDefinition/test-case-cqfm"]},"contained":[{"resourceType":"Parameters","id":"6ef8f9e6-7e1b-4514-8954-b6d6e779a002-parameters","parameter":[{"name":"subject","valueString":"18031954-8ff7-4bb0-8d54-b5c88ab9c925"}]}],"extension":[{"url":"http://hl7.org/fhir/StructureDefinition/cqf-inputParameters","valueReference":{"reference":"#6ef8f9e6-7e1b-4514-8954-b6d6e779a002-parameters"}},{"url":"http://hl7.org/fhir/us/cqfmeasures/StructureDefinition/cqfm-testCaseDescription","valueMarkdown":"ED ends 45 minutes after start time to be transferred to acute care facility. Multiple locations"}],"modifierExtension":[{"url":"http://hl7.org/fhir/us/cqfmeasures/StructureDefinition/cqfm-isTestCase","valueBoolean":true}],"status":"complete","type":"individual","measure":"https://madie.cms.gov/Measure/CMS996FHIRAptTxforSTEMI","period":{"start":"2026-01-01","end":"2026-12-31"},"group":[{"id":"Group_1","population":[{"id":"InitialPopulation_1","code":{"coding":[{"system":"http://terminology.hl7.org/CodeSystem/measure-population","code":"initial-population","display":"Initial Population"}]},"count":1},{"id":"Denominator_1","code":{"coding":[{"system":"http://terminology.hl7.org/CodeSystem/measure-population","code":"denominator","display":"Denominator"}]},"count":1},{"id":"DenominatorExclusion_1","code":{"coding":[{"system":"http://terminology.hl7.org/CodeSystem/measure-population","code":"denominator-exclusion","display":"Denominator Exclusion"}]},"count":0},{"id":"Numerator_1","code":{"coding":[{"system":"http://terminology.hl7.org/CodeSystem/measure-population","code":"numerator","display":"Numerator"}]},"count":1},{"id":"DenominatorException_1","code":{"coding":[{"system":"http://terminology.hl7.org/CodeSystem/measure-population","code":"denominator-exception","display":"Denominator Exception"}]},"count":0}],"measureScore":{"value":0.0}}],"evaluatedResource":[{"reference":"Patient/18031954-8ff7-4bb0-8d54-b5c88ab9c925"},{"reference":"Encounter/7937af44-01b1-4e58-bf4c-4e0d9dbe2eb6"},{"reference":"Location/7ac917cb-fef9-4e3c-bf7f-8125fe3034e8"},{"reference":"Location/ae02defb-9d8c-4feb-83fb-e5dae4664c79"},{"reference":"Condition/2074d56c-13cd-42f0-a1e3-bbccfc913d62"}]},"request":{"method":"PUT","url":"MeasureReport/d3734574-74af-4db6-b78e-879fee829504"}},{"fullUrl":"Bundle/617835c74bf8e25b8f204e27","resource":{"resourceType":"Bundle","id":"617835c74bf8e25b8f204e27","type":"transaction","entry":[{"fullUrl":"https://madie.cms.gov/Patient/18031954-8ff7-4bb0-8d54-b5c88ab9c925","resource":{"resourceType":"Patient","id":"18031954-8ff7-4bb0-8d54-b5c88ab9c925","meta":{"profile":["http://hl7.org/fhir/us/qicore/StructureDefinition/qicore-patient"]},"extension":[{"url":"http://hl7.org/fhir/us/core/StructureDefinition/us-core-race","extension":[{"url":"ombCategory","valueCoding":{"system":"urn:oid:2.16.840.1.113883.6.238","code":"2076-8","display":"Native Hawaiian or Other Pacific Islander","userSelected":true}},{"url":"text","valueString":"Native Hawaiian or Other Pacific Islander"}]},{"url":"http://hl7.org/fhir/us/core/StructureDefinition/us-core-ethnicity","extension":[{"url":"ombCategory","valueCoding":{"system":"urn:oid:2.16.840.1.113883.6.238","code":"2186-5","display":"Not Hispanic or Latino","userSelected":true}},{"url":"text","valueString":"Not Hispanic or Latino"}]},{"url":"http://hl7.org/fhir/us/core/StructureDefinition/us-core-sex","valueCode":"248153007"}],"identifier":[{"type":{"coding":[{"system":"http://terminology.hl7.org/CodeSystem/v2-0203","code":"MR"}]},"system":"https://bonnie-fhir.healthit.gov/","value":"617835c74bf8e25b8f204e27"}],"name":[{"family":"NumPass","given":["Depart45minsfromEDstart"]}],"gender":"female","birthDate":"1985-12-02"},"request":{"method":"PUT","url":"Patient/18031954-8ff7-4bb0-8d54-b5c88ab9c925"}},{"fullUrl":"https://madie.cms.gov/Encounter/7937af44-01b1-4e58-bf4c-4e0d9dbe2eb6","resource":{"resourceType":"Encounter","id":"7937af44-01b1-4e58-bf4c-4e0d9dbe2eb6","meta":{"profile":["http://hl7.org/fhir/us/qicore/StructureDefinition/qicore-encounter"]},"status":"finished","class":{"system":"http://terminology.hl7.org/CodeSystem/v3-ActCode","code":"EMER","display":"emergency","userSelected":true},"type":[{"coding":[{"system":"http://snomed.info/sct","version":"2020-09","code":"4525004","display":"Emergency department patient visit (procedure)","userSelected":true}]}],"subject":{"reference":"Patient/18031954-8ff7-4bb0-8d54-b5c88ab9c925"},"period":{"start":"2026-10-09T08:00:00.000+00:00","end":"2026-10-09T08:50:00.000+00:00"},"reasonReference":[{"reference":"Condition/2074d56c-13cd-42f0-a1e3-bbccfc913d62"}],"hospitalization":{"dischargeDisposition":{"coding":[{"system":"http://snomed.info/sct","version":"2020-09","code":"306703003","display":"Discharge to tertiary referral hospital (procedure)","userSelected":true}]}},"location":[{"location":{"reference":"Location/7ac917cb-fef9-4e3c-bf7f-8125fe3034e8"},"period":{"start":"2026-10-09T08:05:00.000+00:00","end":"2026-10-09T08:10:00.000+00:00"}},{"location":{"reference":"Location/ae02defb-9d8c-4feb-83fb-e5dae4664c79"},"period":{"start":"2026-10-09T08:11:00.000+00:00","end":"2026-10-09T08:50:00.000+00:00"}}]},"request":{"method":"PUT","url":"Encounter/7937af44-01b1-4e58-bf4c-4e0d9dbe2eb6"}},{"fullUrl":"https://madie.cms.gov/Location/7ac917cb-fef9-4e3c-bf7f-8125fe3034e8","resource":{"resourceType":"Location","id":"7ac917cb-fef9-4e3c-bf7f-8125fe3034e8","meta":{"profile":["http://hl7.org/fhir/us/qicore/StructureDefinition/qicore-location"]},"identifier":[{"use":"usual","system":"http://exampleoflocation.com","value":"ED-1.R3"}],"name":"Emergency Department, first floor","type":[{"coding":[{"system":"http://terminology.hl7.org/CodeSystem/v3-RoleCode","version":"2019","code":"ER","display":"Emergency room","userSelected":true}]}]},"request":{"method":"PUT","url":"Location/7ac917cb-fef9-4e3c-bf7f-8125fe3034e8"}},{"fullUrl":"https://madie.cms.gov/Location/ae02defb-9d8c-4feb-83fb-e5dae4664c79","resource":{"resourceType":"Location","id":"ae02defb-9d8c-4feb-83fb-e5dae4664c79","meta":{"profile":["http://hl7.org/fhir/us/qicore/StructureDefinition/qicore-location"]},"identifier":[{"use":"usual","system":"http://exampleoflocation.com","value":"ED-1.R3"}],"name":"Emergency Department, first floor","type":[{"coding":[{"system":"http://snomed.info/sct","version":"20210611","code":"4525004","display":"Emergency department patient visit (procedure)","userSelected":true}]},{"coding":[{"system":"http://terminology.hl7.org/CodeSystem/v3-RoleCode","version":"2019","code":"ER","display":"Emergency room","userSelected":true}]}]},"request":{"method":"PUT","url":"Location/ae02defb-9d8c-4feb-83fb-e5dae4664c79"}},{"fullUrl":"https://madie.cms.gov/Condition/2074d56c-13cd-42f0-a1e3-bbccfc913d62","resource":{"resourceType":"Condition","id":"2074d56c-13cd-42f0-a1e3-bbccfc913d62","meta":{"profile":["http://hl7.org/fhir/us/qicore/StructureDefinition/qicore-condition-encounter-diagnosis"]},"clinicalStatus":{"coding":[{"system":"http://terminology.hl7.org/CodeSystem/condition-clinical","code":"active","display":"active","userSelected":true}]},"category":[{"coding":[{"system":"http://terminology.hl7.org/CodeSystem/condition-category","code":"encounter-diagnosis","display":"Encounter Diagnosis","userSelected":true}]}],"code":{"coding":[{"system":"http://hl7.org/fhir/sid/icd-10-cm","code":"I21.3","userSelected":true}]},"subject":{"reference":"Patient/18031954-8ff7-4bb0-8d54-b5c88ab9c925"},"onsetDateTime":"2026-10-09T08:11:00.000+00:00"},"request":{"method":"PUT","url":"Condition/2074d56c-13cd-42f0-a1e3-bbccfc913d62"}},{"fullUrl":"https://madie.cms.gov/MeasureReport/d3734574-74af-4db6-b78e-879fee829504","resource":{"resourceType":"MeasureReport","id":"d3734574-74af-4db6-b78e-879fee829504","meta":{"profile":["http://hl7.org/fhir/us/cqfmeasures/StructureDefinition/test-case-cqfm"]},"contained":[{"resourceType":"Parameters","id":"6ef8f9e6-7e1b-4514-8954-b6d6e779a002-parameters","parameter":[{"name":"subject","valueString":"18031954-8ff7-4bb0-8d54-b5c88ab9c925"}]}],"extension":[{"url":"http://hl7.org/fhir/StructureDefinition/cqf-inputParameters","valueReference":{"reference":"#6ef8f9e6-7e1b-4514-8954-b6d6e779a002-parameters"}},{"url":"http://hl7.org/fhir/us/cqfmeasures/StructureDefinition/cqfm-testCaseDescription","valueMarkdown":"ED ends 45 minutes after start time to be transferred to acute care facility. Multiple locations"}],"modifierExtension":[{"url":"http://hl7.org/fhir/us/cqfmeasures/StructureDefinition/cqfm-isTestCase","valueBoolean":true}],"status":"complete","type":"individual","measure":"https://madie.cms.gov/Measure/CMS996FHIRAptTxforSTEMI","period":{"start":"2026-01-01","end":"2026-12-31"},"group":[{"id":"Group_1","population":[{"id":"InitialPopulation_1","code":{"coding":[{"system":"http://terminology.hl7.org/CodeSystem/measure-population","code":"initial-population","display":"Initial Population"}]},"count":1},{"id":"Denominator_1","code":{"coding":[{"system":"http://terminology.hl7.org/CodeSystem/measure-population","code":"denominator","display":"Denominator"}]},"count":1},{"id":"DenominatorExclusion_1","code":{"coding":[{"system":"http://terminology.hl7.org/CodeSystem/measure-population","code":"denominator-exclusion","display":"Denominator Exclusion"}]},"count":0},{"id":"Numerator_1","code":{"coding":[{"system":"http://terminology.hl7.org/CodeSystem/measure-population","code":"numerator","display":"Numerator"}]},"count":1},{"id":"DenominatorException_1","code":{"coding":[{"system":"http://terminology.hl7.org/CodeSystem/measure-population","code":"denominator-exception","display":"Denominator Exception"}]},"count":0}],"measureScore":{"value":0.0}}],"evaluatedResource":[{"reference":"Patient/18031954-8ff7-4bb0-8d54-b5c88ab9c925"},{"reference":"Encounter/7937af44-01b1-4e58-bf4c-4e0d9dbe2eb6"},{"reference":"Location/7ac917cb-fef9-4e3c-bf7f-8125fe3034e8"},{"reference":"Location/ae02defb-9d8c-4feb-83fb-e5dae4664c79"},{"reference":"Condition/2074d56c-13cd-42f0-a1e3-bbccfc913d62"}]},"request":{"method":"PUT","url":"MeasureReport/d3734574-74af-4db6-b78e-879fee829504"}}]},"request":{"method":"PUT","url":"Bundle/617835c74bf8e25b8f204e27"}},{"fullUrl":"Condition/2074d56c-13cd-42f0-a1e3-bbccfc913d62","resource":{"resourceType":"Condition","id":"2074d56c-13cd-42f0-a1e3-bbccfc913d62","meta":{"profile":["http://hl7.org/fhir/us/qicore/StructureDefinition/qicore-condition-encounter-diagnosis"]},"clinicalStatus":{"coding":[{"system":"http://terminology.hl7.org/CodeSystem/condition-clinical","code":"active","display":"active","userSelected":true}]},"category":[{"coding":[{"system":"http://terminology.hl7.org/CodeSystem/condition-category","code":"encounter-diagnosis","display":"Encounter Diagnosis","userSelected":true}]}],"code":{"coding":[{"system":"http://hl7.org/fhir/sid/icd-10-cm","code":"I21.3","userSelected":true}]},"subject":{"reference":"Patient/18031954-8ff7-4bb0-8d54-b5c88ab9c925"},"onsetDateTime":"2026-10-09T08:11:00.000+00:00"},"request":{"method":"PUT","url":"Condition/2074d56c-13cd-42f0-a1e3-bbccfc913d62"}},{"fullUrl":"Location/ae02defb-9d8c-4feb-83fb-e5dae4664c79","resource":{"resourceType":"Location","id":"ae02defb-9d8c-4feb-83fb-e5dae4664c79","meta":{"profile":["http://hl7.org/fhir/us/qicore/StructureDefinition/qicore-location"]},"identifier":[{"use":"usual","system":"http://exampleoflocation.com","value":"ED-1.R3"}],"name":"Emergency Department, first floor","type":[{"coding":[{"system":"http://snomed.info/sct","version":"20210611","code":"4525004","display":"Emergency department patient visit (procedure)","userSelected":true}]},{"coding":[{"system":"http://terminology.hl7.org/CodeSystem/v3-RoleCode","version":"2019","code":"ER","display":"Emergency room","userSelected":true}]}]},"request":{"method":"PUT","url":"Location/ae02defb-9d8c-4feb-83fb-e5dae4664c79"}}]}