{"resourceType":"Bundle","id":"tests-429886b7-c347-43d9-9400-979978760850-bundle","type":"transaction","entry":[{"fullUrl":"Patient/429886b7-c347-43d9-9400-979978760850","resource":{"resourceType":"Patient","id":"429886b7-c347-43d9-9400-979978760850","meta":{"profile":["http://hl7.org/fhir/us/qicore/StructureDefinition/qicore-patient"]},"extension":[{"url":"http://hl7.org/fhir/us/core/StructureDefinition/us-core-race","extension":[{"url":"ombCategory","valueCoding":{"system":"urn:oid:2.16.840.1.113883.6.238","code":"1002-5","display":"American Indian or Alaska Native","userSelected":true}},{"url":"text","valueString":"American Indian or Alaska Native"}]},{"url":"http://hl7.org/fhir/us/core/StructureDefinition/us-core-ethnicity","extension":[{"url":"ombCategory","valueCoding":{"system":"urn:oid:2.16.840.1.113883.6.238","code":"2186-5","display":"Not Hispanic or Latino","userSelected":true}},{"url":"text","valueString":"Not Hispanic or Latino"}]},{"url":"http://hl7.org/fhir/us/core/StructureDefinition/us-core-sex","valueCode":"248152002"}],"identifier":[{"type":{"coding":[{"system":"http://terminology.hl7.org/CodeSystem/v2-0203","code":"MR"}]},"system":"https://bonnie-fhir.healthit.gov/","value":"617ad4661e8170ac98fce631"}],"name":[{"family":"IPFail","given":["Age17AtStart"]}],"gender":"female","birthDate":"2009-10-09"},"request":{"method":"PUT","url":"Patient/429886b7-c347-43d9-9400-979978760850"}},{"fullUrl":"MeasureReport/8a80b80a-b480-4441-ad55-1b2a6cabbd79","resource":{"resourceType":"MeasureReport","id":"8a80b80a-b480-4441-ad55-1b2a6cabbd79","meta":{"profile":["http://hl7.org/fhir/us/cqfmeasures/StructureDefinition/test-case-cqfm"]},"contained":[{"resourceType":"Parameters","id":"2bcd219c-bc67-4010-a7d2-e6bc2a7cf684-parameters","parameter":[{"name":"subject","valueString":"429886b7-c347-43d9-9400-979978760850"}]}],"extension":[{"url":"http://hl7.org/fhir/StructureDefinition/cqf-inputParameters","valueReference":{"reference":"#2bcd219c-bc67-4010-a7d2-e6bc2a7cf684-parameters"}},{"url":"http://hl7.org/fhir/us/cqfmeasures/StructureDefinition/cqfm-testCaseDescription","valueMarkdown":"Patient is 17 years at the start of the ED encounter"}],"modifierExtension":[{"url":"http://hl7.org/fhir/us/cqfmeasures/StructureDefinition/cqfm-isTestCase","valueBoolean":true}],"status":"complete","type":"individual","measure":"https://madie.cms.gov/Measure/CMS996FHIRAptTxforSTEMI","period":{"start":"2026-01-01","end":"2026-12-31"},"group":[{"id":"Group_1","population":[{"id":"InitialPopulation_1","code":{"coding":[{"system":"http://terminology.hl7.org/CodeSystem/measure-population","code":"initial-population","display":"Initial Population"}]},"count":0},{"id":"Denominator_1","code":{"coding":[{"system":"http://terminology.hl7.org/CodeSystem/measure-population","code":"denominator","display":"Denominator"}]},"count":0},{"id":"DenominatorExclusion_1","code":{"coding":[{"system":"http://terminology.hl7.org/CodeSystem/measure-population","code":"denominator-exclusion","display":"Denominator Exclusion"}]},"count":0},{"id":"Numerator_1","code":{"coding":[{"system":"http://terminology.hl7.org/CodeSystem/measure-population","code":"numerator","display":"Numerator"}]},"count":0},{"id":"DenominatorException_1","code":{"coding":[{"system":"http://terminology.hl7.org/CodeSystem/measure-population","code":"denominator-exception","display":"Denominator Exception"}]},"count":0}],"measureScore":{"value":0.0}}],"evaluatedResource":[{"reference":"Patient/429886b7-c347-43d9-9400-979978760850"},{"reference":"Encounter/c0f7221c-3fe5-4336-9ca9-52856e990c8e"},{"reference":"Condition/cbfba007-b14c-4cc4-a4bf-cce376be7e9f"}]},"request":{"method":"PUT","url":"MeasureReport/8a80b80a-b480-4441-ad55-1b2a6cabbd79"}},{"fullUrl":"Condition/cbfba007-b14c-4cc4-a4bf-cce376be7e9f","resource":{"resourceType":"Condition","id":"cbfba007-b14c-4cc4-a4bf-cce376be7e9f","meta":{"profile":["http://hl7.org/fhir/us/qicore/StructureDefinition/qicore-condition-encounter-diagnosis"]},"clinicalStatus":{"coding":[{"system":"http://terminology.hl7.org/CodeSystem/condition-clinical","code":"active","display":"active","userSelected":true}]},"category":[{"coding":[{"system":"http://terminology.hl7.org/CodeSystem/condition-category","code":"encounter-diagnosis","display":"Encounter Diagnosis","userSelected":true}]}],"code":{"coding":[{"system":"http://snomed.info/sct","version":"2020-09","code":"401303003","display":"Acute ST segment elevation myocardial infarction (disorder)","userSelected":true}]},"subject":{"reference":"Patient/429886b7-c347-43d9-9400-979978760850"},"encounter":{"reference":"Encounter/c0f7221c-3fe5-4336-9ca9-52856e990c8e"},"recordedDate":"2026-10-28T08:00:00.000+00:00"},"request":{"method":"PUT","url":"Condition/cbfba007-b14c-4cc4-a4bf-cce376be7e9f"}},{"fullUrl":"Bundle/617ad4661e8170ac98fce631","resource":{"resourceType":"Bundle","id":"617ad4661e8170ac98fce631","type":"transaction","entry":[{"fullUrl":"https://madie.cms.gov/Patient/429886b7-c347-43d9-9400-979978760850","resource":{"resourceType":"Patient","id":"429886b7-c347-43d9-9400-979978760850","meta":{"profile":["http://hl7.org/fhir/us/qicore/StructureDefinition/qicore-patient"]},"extension":[{"url":"http://hl7.org/fhir/us/core/StructureDefinition/us-core-race","extension":[{"url":"ombCategory","valueCoding":{"system":"urn:oid:2.16.840.1.113883.6.238","code":"1002-5","display":"American Indian or Alaska Native","userSelected":true}},{"url":"text","valueString":"American Indian or Alaska Native"}]},{"url":"http://hl7.org/fhir/us/core/StructureDefinition/us-core-ethnicity","extension":[{"url":"ombCategory","valueCoding":{"system":"urn:oid:2.16.840.1.113883.6.238","code":"2186-5","display":"Not Hispanic or Latino","userSelected":true}},{"url":"text","valueString":"Not Hispanic or Latino"}]},{"url":"http://hl7.org/fhir/us/core/StructureDefinition/us-core-sex","valueCode":"248152002"}],"identifier":[{"type":{"coding":[{"system":"http://terminology.hl7.org/CodeSystem/v2-0203","code":"MR"}]},"system":"https://bonnie-fhir.healthit.gov/","value":"617ad4661e8170ac98fce631"}],"name":[{"family":"IPFail","given":["Age17AtStart"]}],"gender":"female","birthDate":"2009-10-09"},"request":{"method":"PUT","url":"Patient/429886b7-c347-43d9-9400-979978760850"}},{"fullUrl":"https://madie.cms.gov/Encounter/c0f7221c-3fe5-4336-9ca9-52856e990c8e","resource":{"resourceType":"Encounter","id":"c0f7221c-3fe5-4336-9ca9-52856e990c8e","meta":{"profile":["http://hl7.org/fhir/us/qicore/StructureDefinition/qicore-encounter"]},"status":"finished","class":{"system":"http://terminology.hl7.org/CodeSystem/v3-ActCode","code":"EMER","display":"emergency","userSelected":true},"type":[{"coding":[{"system":"http://snomed.info/sct","version":"2020-09","code":"4525004","display":"Emergency department patient visit (procedure)","userSelected":true}]}],"subject":{"reference":"Patient/429886b7-c347-43d9-9400-979978760850"},"period":{"start":"2026-10-09T08:05:00.000+00:00","end":"2026-10-10T07:15:00.000+00:00"},"reasonReference":[{"reference":"Condition/cbfba007-b14c-4cc4-a4bf-cce376be7e9f"}]},"request":{"method":"PUT","url":"Encounter/c0f7221c-3fe5-4336-9ca9-52856e990c8e"}},{"fullUrl":"https://madie.cms.gov/Condition/cbfba007-b14c-4cc4-a4bf-cce376be7e9f","resource":{"resourceType":"Condition","id":"cbfba007-b14c-4cc4-a4bf-cce376be7e9f","meta":{"profile":["http://hl7.org/fhir/us/qicore/StructureDefinition/qicore-condition-encounter-diagnosis"]},"clinicalStatus":{"coding":[{"system":"http://terminology.hl7.org/CodeSystem/condition-clinical","code":"active","display":"active","userSelected":true}]},"category":[{"coding":[{"system":"http://terminology.hl7.org/CodeSystem/condition-category","code":"encounter-diagnosis","display":"Encounter Diagnosis","userSelected":true}]}],"code":{"coding":[{"system":"http://snomed.info/sct","version":"2020-09","code":"401303003","display":"Acute ST segment elevation myocardial infarction (disorder)","userSelected":true}]},"subject":{"reference":"Patient/429886b7-c347-43d9-9400-979978760850"},"encounter":{"reference":"Encounter/c0f7221c-3fe5-4336-9ca9-52856e990c8e"},"recordedDate":"2026-10-28T08:00:00.000+00:00"},"request":{"method":"PUT","url":"Condition/cbfba007-b14c-4cc4-a4bf-cce376be7e9f"}},{"fullUrl":"https://madie.cms.gov/MeasureReport/8a80b80a-b480-4441-ad55-1b2a6cabbd79","resource":{"resourceType":"MeasureReport","id":"8a80b80a-b480-4441-ad55-1b2a6cabbd79","meta":{"profile":["http://hl7.org/fhir/us/cqfmeasures/StructureDefinition/test-case-cqfm"]},"contained":[{"resourceType":"Parameters","id":"2bcd219c-bc67-4010-a7d2-e6bc2a7cf684-parameters","parameter":[{"name":"subject","valueString":"429886b7-c347-43d9-9400-979978760850"}]}],"extension":[{"url":"http://hl7.org/fhir/StructureDefinition/cqf-inputParameters","valueReference":{"reference":"#2bcd219c-bc67-4010-a7d2-e6bc2a7cf684-parameters"}},{"url":"http://hl7.org/fhir/us/cqfmeasures/StructureDefinition/cqfm-testCaseDescription","valueMarkdown":"Patient is 17 years at the start of the ED encounter"}],"modifierExtension":[{"url":"http://hl7.org/fhir/us/cqfmeasures/StructureDefinition/cqfm-isTestCase","valueBoolean":true}],"status":"complete","type":"individual","measure":"https://madie.cms.gov/Measure/CMS996FHIRAptTxforSTEMI","period":{"start":"2026-01-01","end":"2026-12-31"},"group":[{"id":"Group_1","population":[{"id":"InitialPopulation_1","code":{"coding":[{"system":"http://terminology.hl7.org/CodeSystem/measure-population","code":"initial-population","display":"Initial Population"}]},"count":0},{"id":"Denominator_1","code":{"coding":[{"system":"http://terminology.hl7.org/CodeSystem/measure-population","code":"denominator","display":"Denominator"}]},"count":0},{"id":"DenominatorExclusion_1","code":{"coding":[{"system":"http://terminology.hl7.org/CodeSystem/measure-population","code":"denominator-exclusion","display":"Denominator Exclusion"}]},"count":0},{"id":"Numerator_1","code":{"coding":[{"system":"http://terminology.hl7.org/CodeSystem/measure-population","code":"numerator","display":"Numerator"}]},"count":0},{"id":"DenominatorException_1","code":{"coding":[{"system":"http://terminology.hl7.org/CodeSystem/measure-population","code":"denominator-exception","display":"Denominator Exception"}]},"count":0}],"measureScore":{"value":0.0}}],"evaluatedResource":[{"reference":"Patient/429886b7-c347-43d9-9400-979978760850"},{"reference":"Encounter/c0f7221c-3fe5-4336-9ca9-52856e990c8e"},{"reference":"Condition/cbfba007-b14c-4cc4-a4bf-cce376be7e9f"}]},"request":{"method":"PUT","url":"MeasureReport/8a80b80a-b480-4441-ad55-1b2a6cabbd79"}}]},"request":{"method":"PUT","url":"Bundle/617ad4661e8170ac98fce631"}},{"fullUrl":"Encounter/c0f7221c-3fe5-4336-9ca9-52856e990c8e","resource":{"resourceType":"Encounter","id":"c0f7221c-3fe5-4336-9ca9-52856e990c8e","meta":{"profile":["http://hl7.org/fhir/us/qicore/StructureDefinition/qicore-encounter"]},"status":"finished","class":{"system":"http://terminology.hl7.org/CodeSystem/v3-ActCode","code":"EMER","display":"emergency","userSelected":true},"type":[{"coding":[{"system":"http://snomed.info/sct","version":"2020-09","code":"4525004","display":"Emergency department patient visit (procedure)","userSelected":true}]}],"subject":{"reference":"Patient/429886b7-c347-43d9-9400-979978760850"},"period":{"start":"2026-10-09T08:05:00.000+00:00","end":"2026-10-10T07:15:00.000+00:00"},"reasonReference":[{"reference":"Condition/cbfba007-b14c-4cc4-a4bf-cce376be7e9f"}]},"request":{"method":"PUT","url":"Encounter/c0f7221c-3fe5-4336-9ca9-52856e990c8e"}}]}