{"resourceType":"Bundle","id":"tests-daf80212-b06f-4f0c-8e23-9a005a9e9bcb-bundle","type":"transaction","entry":[{"fullUrl":"MeasureReport/2bc41ecb-d842-4534-afb7-14e5106111f4","resource":{"resourceType":"MeasureReport","id":"2bc41ecb-d842-4534-afb7-14e5106111f4","meta":{"profile":["http://hl7.org/fhir/us/cqfmeasures/StructureDefinition/test-case-cqfm"]},"contained":[{"resourceType":"Parameters","id":"68f942f4-8e96-4c21-b69c-452892a6ac5a-parameters","parameter":[{"name":"subject","valueString":"daf80212-b06f-4f0c-8e23-9a005a9e9bcb"}]}],"extension":[{"url":"http://hl7.org/fhir/StructureDefinition/cqf-inputParameters","valueReference":{"reference":"#68f942f4-8e96-4c21-b69c-452892a6ac5a-parameters"}},{"url":"http://hl7.org/fhir/us/cqfmeasures/StructureDefinition/cqfm-testCaseDescription","valueMarkdown":"Patient has diagnosis exception of tPA at another facility within 24 hours of emergency department visit."}],"modifierExtension":[{"url":"http://hl7.org/fhir/us/cqfmeasures/StructureDefinition/cqfm-isTestCase","valueBoolean":true}],"status":"complete","type":"individual","measure":"https://madie.cms.gov/Measure/CMS996FHIRAptTxforSTEMI","period":{"start":"2026-01-01","end":"2026-12-31"},"group":[{"id":"Group_1","population":[{"id":"InitialPopulation_1","code":{"coding":[{"system":"http://terminology.hl7.org/CodeSystem/measure-population","code":"initial-population","display":"Initial Population"}]},"count":1},{"id":"Denominator_1","code":{"coding":[{"system":"http://terminology.hl7.org/CodeSystem/measure-population","code":"denominator","display":"Denominator"}]},"count":1},{"id":"DenominatorExclusion_1","code":{"coding":[{"system":"http://terminology.hl7.org/CodeSystem/measure-population","code":"denominator-exclusion","display":"Denominator Exclusion"}]},"count":0},{"id":"Numerator_1","code":{"coding":[{"system":"http://terminology.hl7.org/CodeSystem/measure-population","code":"numerator","display":"Numerator"}]},"count":0},{"id":"DenominatorException_1","code":{"coding":[{"system":"http://terminology.hl7.org/CodeSystem/measure-population","code":"denominator-exception","display":"Denominator Exception"}]},"count":1}],"measureScore":{"value":0.0}}],"evaluatedResource":[{"reference":"Patient/daf80212-b06f-4f0c-8e23-9a005a9e9bcb"},{"reference":"Encounter/3009a0a3-3840-45ad-bd5e-d86b01cc0813"},{"reference":"Condition/514adef3-5191-4e97-a0ed-8203f2d7d8ce"},{"reference":"Condition/0939b5c5-98e3-4aab-b8fd-8042f418b18a"},{"reference":"Condition/cae8123d-f5ef-43f0-87c8-b5e18a060674"},{"reference":"Coverage/89249fe1-5194-4a6c-bc42-132cbbfb2e85"},{"reference":"Organization/043216ab-eb82-46de-853c-072a3e76e8c7"},{"reference":"Practitioner/2b764f14-2f1d-4229-af45-bd32003bac6a"}]},"request":{"method":"PUT","url":"MeasureReport/2bc41ecb-d842-4534-afb7-14e5106111f4"}},{"fullUrl":"Practitioner/2b764f14-2f1d-4229-af45-bd32003bac6a","resource":{"resourceType":"Practitioner","id":"2b764f14-2f1d-4229-af45-bd32003bac6a","meta":{"profile":["http://hl7.org/fhir/us/qicore/StructureDefinition/qicore-practitioner"]},"identifier":[{"system":"http://hl7.org/fhir/sid/us-npi","value":"9999999896"}],"name":[{"family":"Evil","prefix":["Dr"]}]},"request":{"method":"PUT","url":"Practitioner/2b764f14-2f1d-4229-af45-bd32003bac6a"}},{"fullUrl":"Condition/514adef3-5191-4e97-a0ed-8203f2d7d8ce","resource":{"resourceType":"Condition","id":"514adef3-5191-4e97-a0ed-8203f2d7d8ce","meta":{"profile":["http://hl7.org/fhir/us/qicore/StructureDefinition/qicore-condition-problems-health-concerns"]},"clinicalStatus":{"coding":[{"system":"http://terminology.hl7.org/CodeSystem/condition-clinical","code":"active"}]},"verificationStatus":{"coding":[{"system":"http://terminology.hl7.org/CodeSystem/condition-ver-status","code":"confirmed"}]},"category":[{"coding":[{"system":"http://terminology.hl7.org/CodeSystem/condition-category","code":"problem-list-item","display":"Problem List Item"}]}],"severity":{"coding":[{"system":"http://snomed.info/sct","code":"24484000","display":"Severe (severity modifier)"}]},"code":{"coding":[{"system":"http://hl7.org/fhir/sid/icd-10-cm","code":"Z92.82","display":"Status post administration of tPA (rtPA) in a different facility within the last 24 hours prior to admission to current facility"}]},"subject":{"reference":"Patient/daf80212-b06f-4f0c-8e23-9a005a9e9bcb"},"onsetDateTime":"2026-11-10T08:30:00.000+00:00"},"request":{"method":"PUT","url":"Condition/514adef3-5191-4e97-a0ed-8203f2d7d8ce"}},{"fullUrl":"Organization/043216ab-eb82-46de-853c-072a3e76e8c7","resource":{"resourceType":"Organization","id":"043216ab-eb82-46de-853c-072a3e76e8c7","meta":{"profile":["http://hl7.org/fhir/us/qicore/StructureDefinition/qicore-organization"]},"identifier":[{"use":"temp","system":"urn:oid:2.16.840.1.113883.4.4","value":"21-3259825"}],"active":true,"type":[{"coding":[{"system":"http://terminology.hl7.org/CodeSystem/organization-type","code":"pay","display":"Payer"}]}],"name":"Blue Cross Blue Shield of Texas","telecom":[{"system":"phone","value":"(+1) 972-766-6900"}],"address":[{"use":"billing","type":"postal","line":["P.O. Box 660044"],"city":"Dallas","state":"TX","postalCode":"75266-0044","country":"USA"}]},"request":{"method":"PUT","url":"Organization/043216ab-eb82-46de-853c-072a3e76e8c7"}},{"fullUrl":"Coverage/89249fe1-5194-4a6c-bc42-132cbbfb2e85","resource":{"resourceType":"Coverage","id":"89249fe1-5194-4a6c-bc42-132cbbfb2e85","meta":{"profile":["http://hl7.org/fhir/us/qicore/StructureDefinition/qicore-coverage"]},"identifier":[{"type":{"coding":[{"system":"http://terminology.hl7.org/CodeSystem/v2-0203","code":"MB"}]}}],"status":"active","beneficiary":{"reference":"Patient/daf80212-b06f-4f0c-8e23-9a005a9e9bcb"},"relationship":{"coding":[{"system":"http://terminology.hl7.org/CodeSystem/subscriber-relationship","code":"self"}]},"payor":[{"reference":"Organization/043216ab-eb82-46de-853c-072a3e76e8c7"}]},"request":{"method":"PUT","url":"Coverage/89249fe1-5194-4a6c-bc42-132cbbfb2e85"}},{"fullUrl":"Encounter/3009a0a3-3840-45ad-bd5e-d86b01cc0813","resource":{"resourceType":"Encounter","id":"3009a0a3-3840-45ad-bd5e-d86b01cc0813","meta":{"profile":["http://hl7.org/fhir/us/qicore/StructureDefinition/qicore-encounter"]},"status":"finished","class":{"system":"http://terminology.hl7.org/CodeSystem/v3-ActCode","code":"EMER","display":"emergency","userSelected":true},"type":[{"coding":[{"system":"http://snomed.info/sct","version":"2020-09","code":"4525004","display":"Emergency department patient visit (procedure)","userSelected":true}]}],"subject":{"reference":"Patient/daf80212-b06f-4f0c-8e23-9a005a9e9bcb"},"period":{"start":"2026-11-10T08:05:00.000+00:00","end":"2026-11-11T07:15:00.000+00:00"},"reasonReference":[{"reference":"Condition/0939b5c5-98e3-4aab-b8fd-8042f418b18a"}]},"request":{"method":"PUT","url":"Encounter/3009a0a3-3840-45ad-bd5e-d86b01cc0813"}},{"fullUrl":"Condition/0939b5c5-98e3-4aab-b8fd-8042f418b18a","resource":{"resourceType":"Condition","id":"0939b5c5-98e3-4aab-b8fd-8042f418b18a","meta":{"profile":["http://hl7.org/fhir/us/qicore/StructureDefinition/qicore-condition-problems-health-concerns"]},"clinicalStatus":{"coding":[{"system":"http://terminology.hl7.org/CodeSystem/condition-clinical","code":"active","display":"active","userSelected":true}]},"verificationStatus":{"coding":[{"system":"http://terminology.hl7.org/CodeSystem/condition-ver-status","code":"confirmed"}]},"category":[{"coding":[{"system":"http://terminology.hl7.org/CodeSystem/condition-category","code":"problem-list-item","display":"Problem List Item","userSelected":true}]}],"code":{"coding":[{"system":"http://snomed.info/sct","version":"2020-09","code":"401303003","display":"Acute ST segment elevation myocardial infarction (disorder)","userSelected":true}]},"subject":{"reference":"Patient/daf80212-b06f-4f0c-8e23-9a005a9e9bcb"},"onsetDateTime":"2026-11-10T08:30:00.000+00:00"},"request":{"method":"PUT","url":"Condition/0939b5c5-98e3-4aab-b8fd-8042f418b18a"}},{"fullUrl":"Condition/cae8123d-f5ef-43f0-87c8-b5e18a060674","resource":{"resourceType":"Condition","id":"cae8123d-f5ef-43f0-87c8-b5e18a060674","meta":{"profile":["http://hl7.org/fhir/us/qicore/StructureDefinition/qicore-condition-problems-health-concerns"]},"clinicalStatus":{"coding":[{"system":"http://terminology.hl7.org/CodeSystem/condition-clinical","version":"4.0.1","code":"inactive","display":"Inactive","userSelected":true}]},"category":[{"coding":[{"system":"http://terminology.hl7.org/CodeSystem/condition-category","code":"problem-list-item","display":"Problem List Item","userSelected":true}]}],"code":{"coding":[{"system":"http://snomed.info/sct","version":"2020-09","code":"162710004","display":"On examination - collapse -cardiac arrest (disorder)","userSelected":true}]},"subject":{"reference":"Patient/daf80212-b06f-4f0c-8e23-9a005a9e9bcb"},"onsetDateTime":"2026-11-10T09:00:00.000+00:00"},"request":{"method":"PUT","url":"Condition/cae8123d-f5ef-43f0-87c8-b5e18a060674"}},{"fullUrl":"Patient/daf80212-b06f-4f0c-8e23-9a005a9e9bcb","resource":{"resourceType":"Patient","id":"daf80212-b06f-4f0c-8e23-9a005a9e9bcb","meta":{"profile":["http://hl7.org/fhir/us/qicore/StructureDefinition/qicore-patient"]},"extension":[{"url":"http://hl7.org/fhir/us/core/StructureDefinition/us-core-race","extension":[{"url":"ombCategory","valueCoding":{"system":"urn:oid:2.16.840.1.113883.6.238","code":"1002-5","display":"American Indian or Alaska Native","userSelected":true}},{"url":"text","valueString":"American Indian or Alaska Native"}]},{"url":"http://hl7.org/fhir/us/core/StructureDefinition/us-core-ethnicity","extension":[{"url":"ombCategory","valueCoding":{"system":"urn:oid:2.16.840.1.113883.6.238","code":"2135-2","display":"Hispanic or Latino","userSelected":true}},{"url":"text","valueString":"Hispanic or Latino"}]},{"url":"http://hl7.org/fhir/us/core/StructureDefinition/us-core-sex","valueCode":"248153007"}],"identifier":[{"type":{"coding":[{"system":"http://terminology.hl7.org/CodeSystem/v2-0203","code":"MR"}]},"system":"https://bonnie-fhir.healthit.gov/","value":"660dc344ea96f2084262f8e7"}],"name":[{"family":"DxExclPassStartsBeforeEndsAfterMP","given":["DENEXCEPPASS"]}],"gender":"male","birthDate":"1992-10-21"},"request":{"method":"PUT","url":"Patient/daf80212-b06f-4f0c-8e23-9a005a9e9bcb"}},{"fullUrl":"Bundle/660dc344ea96f2084262f8e7","resource":{"resourceType":"Bundle","id":"660dc344ea96f2084262f8e7","type":"transaction","entry":[{"fullUrl":"https://madie.cms.gov/Patient/daf80212-b06f-4f0c-8e23-9a005a9e9bcb","resource":{"resourceType":"Patient","id":"daf80212-b06f-4f0c-8e23-9a005a9e9bcb","meta":{"profile":["http://hl7.org/fhir/us/qicore/StructureDefinition/qicore-patient"]},"extension":[{"url":"http://hl7.org/fhir/us/core/StructureDefinition/us-core-race","extension":[{"url":"ombCategory","valueCoding":{"system":"urn:oid:2.16.840.1.113883.6.238","code":"1002-5","display":"American Indian or Alaska Native","userSelected":true}},{"url":"text","valueString":"American Indian or Alaska Native"}]},{"url":"http://hl7.org/fhir/us/core/StructureDefinition/us-core-ethnicity","extension":[{"url":"ombCategory","valueCoding":{"system":"urn:oid:2.16.840.1.113883.6.238","code":"2135-2","display":"Hispanic or Latino","userSelected":true}},{"url":"text","valueString":"Hispanic or Latino"}]},{"url":"http://hl7.org/fhir/us/core/StructureDefinition/us-core-sex","valueCode":"248153007"}],"identifier":[{"type":{"coding":[{"system":"http://terminology.hl7.org/CodeSystem/v2-0203","code":"MR"}]},"system":"https://bonnie-fhir.healthit.gov/","value":"660dc344ea96f2084262f8e7"}],"name":[{"family":"DxExclPassStartsBeforeEndsAfterMP","given":["DENEXCEPPASS"]}],"gender":"male","birthDate":"1992-10-21"},"request":{"method":"PUT","url":"Patient/daf80212-b06f-4f0c-8e23-9a005a9e9bcb"}},{"fullUrl":"https://madie.cms.gov/Encounter/3009a0a3-3840-45ad-bd5e-d86b01cc0813","resource":{"resourceType":"Encounter","id":"3009a0a3-3840-45ad-bd5e-d86b01cc0813","meta":{"profile":["http://hl7.org/fhir/us/qicore/StructureDefinition/qicore-encounter"]},"status":"finished","class":{"system":"http://terminology.hl7.org/CodeSystem/v3-ActCode","code":"EMER","display":"emergency","userSelected":true},"type":[{"coding":[{"system":"http://snomed.info/sct","version":"2020-09","code":"4525004","display":"Emergency department patient visit (procedure)","userSelected":true}]}],"subject":{"reference":"Patient/daf80212-b06f-4f0c-8e23-9a005a9e9bcb"},"period":{"start":"2026-11-10T08:05:00.000+00:00","end":"2026-11-11T07:15:00.000+00:00"},"reasonReference":[{"reference":"Condition/0939b5c5-98e3-4aab-b8fd-8042f418b18a"}]},"request":{"method":"PUT","url":"Encounter/3009a0a3-3840-45ad-bd5e-d86b01cc0813"}},{"fullUrl":"https://madie.cms.gov/Condition/514adef3-5191-4e97-a0ed-8203f2d7d8ce","resource":{"resourceType":"Condition","id":"514adef3-5191-4e97-a0ed-8203f2d7d8ce","meta":{"profile":["http://hl7.org/fhir/us/qicore/StructureDefinition/qicore-condition-problems-health-concerns"]},"clinicalStatus":{"coding":[{"system":"http://terminology.hl7.org/CodeSystem/condition-clinical","code":"active"}]},"verificationStatus":{"coding":[{"system":"http://terminology.hl7.org/CodeSystem/condition-ver-status","code":"confirmed"}]},"category":[{"coding":[{"system":"http://terminology.hl7.org/CodeSystem/condition-category","code":"problem-list-item","display":"Problem List Item"}]}],"severity":{"coding":[{"system":"http://snomed.info/sct","code":"24484000","display":"Severe (severity modifier)"}]},"code":{"coding":[{"system":"http://hl7.org/fhir/sid/icd-10-cm","code":"Z92.82","display":"Status post administration of tPA (rtPA) in a different facility within the last 24 hours prior to admission to current facility"}]},"subject":{"reference":"Patient/daf80212-b06f-4f0c-8e23-9a005a9e9bcb"},"onsetDateTime":"2026-11-10T08:30:00.000+00:00"},"request":{"method":"PUT","url":"Condition/514adef3-5191-4e97-a0ed-8203f2d7d8ce"}},{"fullUrl":"https://madie.cms.gov/Condition/0939b5c5-98e3-4aab-b8fd-8042f418b18a","resource":{"resourceType":"Condition","id":"0939b5c5-98e3-4aab-b8fd-8042f418b18a","meta":{"profile":["http://hl7.org/fhir/us/qicore/StructureDefinition/qicore-condition-problems-health-concerns"]},"clinicalStatus":{"coding":[{"system":"http://terminology.hl7.org/CodeSystem/condition-clinical","code":"active","display":"active","userSelected":true}]},"verificationStatus":{"coding":[{"system":"http://terminology.hl7.org/CodeSystem/condition-ver-status","code":"confirmed"}]},"category":[{"coding":[{"system":"http://terminology.hl7.org/CodeSystem/condition-category","code":"problem-list-item","display":"Problem List Item","userSelected":true}]}],"code":{"coding":[{"system":"http://snomed.info/sct","version":"2020-09","code":"401303003","display":"Acute ST segment elevation myocardial infarction (disorder)","userSelected":true}]},"subject":{"reference":"Patient/daf80212-b06f-4f0c-8e23-9a005a9e9bcb"},"onsetDateTime":"2026-11-10T08:30:00.000+00:00"},"request":{"method":"PUT","url":"Condition/0939b5c5-98e3-4aab-b8fd-8042f418b18a"}},{"fullUrl":"https://madie.cms.gov/Condition/cae8123d-f5ef-43f0-87c8-b5e18a060674","resource":{"resourceType":"Condition","id":"cae8123d-f5ef-43f0-87c8-b5e18a060674","meta":{"profile":["http://hl7.org/fhir/us/qicore/StructureDefinition/qicore-condition-problems-health-concerns"]},"clinicalStatus":{"coding":[{"system":"http://terminology.hl7.org/CodeSystem/condition-clinical","version":"4.0.1","code":"inactive","display":"Inactive","userSelected":true}]},"category":[{"coding":[{"system":"http://terminology.hl7.org/CodeSystem/condition-category","code":"problem-list-item","display":"Problem List Item","userSelected":true}]}],"code":{"coding":[{"system":"http://snomed.info/sct","version":"2020-09","code":"162710004","display":"On examination - collapse -cardiac arrest (disorder)","userSelected":true}]},"subject":{"reference":"Patient/daf80212-b06f-4f0c-8e23-9a005a9e9bcb"},"onsetDateTime":"2026-11-10T09:00:00.000+00:00"},"request":{"method":"PUT","url":"Condition/cae8123d-f5ef-43f0-87c8-b5e18a060674"}},{"fullUrl":"https://madie.cms.gov/Coverage/89249fe1-5194-4a6c-bc42-132cbbfb2e85","resource":{"resourceType":"Coverage","id":"89249fe1-5194-4a6c-bc42-132cbbfb2e85","meta":{"profile":["http://hl7.org/fhir/us/qicore/StructureDefinition/qicore-coverage"]},"identifier":[{"type":{"coding":[{"system":"http://terminology.hl7.org/CodeSystem/v2-0203","code":"MB"}]}}],"status":"active","beneficiary":{"reference":"Patient/daf80212-b06f-4f0c-8e23-9a005a9e9bcb"},"relationship":{"coding":[{"system":"http://terminology.hl7.org/CodeSystem/subscriber-relationship","code":"self"}]},"payor":[{"reference":"Organization/043216ab-eb82-46de-853c-072a3e76e8c7"}]},"request":{"method":"PUT","url":"Coverage/89249fe1-5194-4a6c-bc42-132cbbfb2e85"}},{"fullUrl":"https://madie.cms.gov/Organization/043216ab-eb82-46de-853c-072a3e76e8c7","resource":{"resourceType":"Organization","id":"043216ab-eb82-46de-853c-072a3e76e8c7","meta":{"profile":["http://hl7.org/fhir/us/qicore/StructureDefinition/qicore-organization"]},"identifier":[{"use":"temp","system":"urn:oid:2.16.840.1.113883.4.4","value":"21-3259825"}],"active":true,"type":[{"coding":[{"system":"http://terminology.hl7.org/CodeSystem/organization-type","code":"pay","display":"Payer"}]}],"name":"Blue Cross Blue Shield of Texas","telecom":[{"system":"phone","value":"(+1) 972-766-6900"}],"address":[{"use":"billing","type":"postal","line":["P.O. Box 660044"],"city":"Dallas","state":"TX","postalCode":"75266-0044","country":"USA"}]},"request":{"method":"PUT","url":"Organization/043216ab-eb82-46de-853c-072a3e76e8c7"}},{"fullUrl":"https://madie.cms.gov/Practitioner/2b764f14-2f1d-4229-af45-bd32003bac6a","resource":{"resourceType":"Practitioner","id":"2b764f14-2f1d-4229-af45-bd32003bac6a","meta":{"profile":["http://hl7.org/fhir/us/qicore/StructureDefinition/qicore-practitioner"]},"identifier":[{"system":"http://hl7.org/fhir/sid/us-npi","value":"9999999896"}],"name":[{"family":"Evil","prefix":["Dr"]}]},"request":{"method":"PUT","url":"Practitioner/2b764f14-2f1d-4229-af45-bd32003bac6a"}},{"fullUrl":"https://madie.cms.gov/MeasureReport/2bc41ecb-d842-4534-afb7-14e5106111f4","resource":{"resourceType":"MeasureReport","id":"2bc41ecb-d842-4534-afb7-14e5106111f4","meta":{"profile":["http://hl7.org/fhir/us/cqfmeasures/StructureDefinition/test-case-cqfm"]},"contained":[{"resourceType":"Parameters","id":"68f942f4-8e96-4c21-b69c-452892a6ac5a-parameters","parameter":[{"name":"subject","valueString":"daf80212-b06f-4f0c-8e23-9a005a9e9bcb"}]}],"extension":[{"url":"http://hl7.org/fhir/StructureDefinition/cqf-inputParameters","valueReference":{"reference":"#68f942f4-8e96-4c21-b69c-452892a6ac5a-parameters"}},{"url":"http://hl7.org/fhir/us/cqfmeasures/StructureDefinition/cqfm-testCaseDescription","valueMarkdown":"Patient has diagnosis exception of tPA at another facility within 24 hours of emergency department visit."}],"modifierExtension":[{"url":"http://hl7.org/fhir/us/cqfmeasures/StructureDefinition/cqfm-isTestCase","valueBoolean":true}],"status":"complete","type":"individual","measure":"https://madie.cms.gov/Measure/CMS996FHIRAptTxforSTEMI","period":{"start":"2026-01-01","end":"2026-12-31"},"group":[{"id":"Group_1","population":[{"id":"InitialPopulation_1","code":{"coding":[{"system":"http://terminology.hl7.org/CodeSystem/measure-population","code":"initial-population","display":"Initial Population"}]},"count":1},{"id":"Denominator_1","code":{"coding":[{"system":"http://terminology.hl7.org/CodeSystem/measure-population","code":"denominator","display":"Denominator"}]},"count":1},{"id":"DenominatorExclusion_1","code":{"coding":[{"system":"http://terminology.hl7.org/CodeSystem/measure-population","code":"denominator-exclusion","display":"Denominator Exclusion"}]},"count":0},{"id":"Numerator_1","code":{"coding":[{"system":"http://terminology.hl7.org/CodeSystem/measure-population","code":"numerator","display":"Numerator"}]},"count":0},{"id":"DenominatorException_1","code":{"coding":[{"system":"http://terminology.hl7.org/CodeSystem/measure-population","code":"denominator-exception","display":"Denominator Exception"}]},"count":1}],"measureScore":{"value":0.0}}],"evaluatedResource":[{"reference":"Patient/daf80212-b06f-4f0c-8e23-9a005a9e9bcb"},{"reference":"Encounter/3009a0a3-3840-45ad-bd5e-d86b01cc0813"},{"reference":"Condition/514adef3-5191-4e97-a0ed-8203f2d7d8ce"},{"reference":"Condition/0939b5c5-98e3-4aab-b8fd-8042f418b18a"},{"reference":"Condition/cae8123d-f5ef-43f0-87c8-b5e18a060674"},{"reference":"Coverage/89249fe1-5194-4a6c-bc42-132cbbfb2e85"},{"reference":"Organization/043216ab-eb82-46de-853c-072a3e76e8c7"},{"reference":"Practitioner/2b764f14-2f1d-4229-af45-bd32003bac6a"}]},"request":{"method":"PUT","url":"MeasureReport/2bc41ecb-d842-4534-afb7-14e5106111f4"}}]},"request":{"method":"PUT","url":"Bundle/660dc344ea96f2084262f8e7"}}]}