{"resourceType":"Bundle","id":"tests-7398c01f-d745-4013-80e7-1a8a549650db-bundle","type":"transaction","entry":[{"fullUrl":"Bundle/6179eb6ead1a790b7af75254","resource":{"resourceType":"Bundle","id":"6179eb6ead1a790b7af75254","type":"transaction","entry":[{"fullUrl":"https://madie.cms.gov/Patient/7398c01f-d745-4013-80e7-1a8a549650db","resource":{"resourceType":"Patient","id":"7398c01f-d745-4013-80e7-1a8a549650db","meta":{"profile":["http://hl7.org/fhir/us/qicore/StructureDefinition/qicore-patient"]},"extension":[{"url":"http://hl7.org/fhir/us/core/StructureDefinition/us-core-race","extension":[{"url":"ombCategory","valueCoding":{"system":"urn:oid:2.16.840.1.113883.6.238","code":"2076-8","display":"Native Hawaiian or Other Pacific Islander","userSelected":true}},{"url":"text","valueString":"Native Hawaiian or Other Pacific Islander"}]},{"url":"http://hl7.org/fhir/us/core/StructureDefinition/us-core-ethnicity","extension":[{"url":"ombCategory","valueCoding":{"system":"urn:oid:2.16.840.1.113883.6.238","code":"2135-2","display":"Hispanic or Latino","userSelected":true}},{"url":"text","valueString":"Hispanic or Latino"}]},{"url":"http://hl7.org/fhir/us/core/StructureDefinition/us-core-sex","valueCode":"248152002"}],"identifier":[{"type":{"coding":[{"system":"http://terminology.hl7.org/CodeSystem/v2-0203","code":"MR"}]},"system":"https://bonnie-fhir.healthit.gov/","value":"6179eb6ead1a790b7af75254"}],"name":[{"family":"DenExcl2Pass","given":["PxExclStartsDuringEndsAfterED"]}],"gender":"female","birthDate":"1985-12-02"},"request":{"method":"PUT","url":"Patient/7398c01f-d745-4013-80e7-1a8a549650db"}},{"fullUrl":"https://madie.cms.gov/Encounter/8b741a7e-880a-47de-91a7-b2f56212c3d9","resource":{"resourceType":"Encounter","id":"8b741a7e-880a-47de-91a7-b2f56212c3d9","meta":{"profile":["http://hl7.org/fhir/us/qicore/StructureDefinition/qicore-encounter"]},"status":"finished","class":{"system":"http://terminology.hl7.org/CodeSystem/v3-ActCode","code":"EMER","display":"emergency","userSelected":true},"type":[{"coding":[{"system":"http://snomed.info/sct","version":"2020-09","code":"4525004","display":"Emergency department patient visit (procedure)","userSelected":true}]}],"subject":{"reference":"Patient/7398c01f-d745-4013-80e7-1a8a549650db"},"period":{"start":"2026-10-09T08:05:00.000+00:00","end":"2026-10-10T07:15:00.000+00:00"},"reasonReference":[{"reference":"Condition/a0080d6e-a063-4a32-a312-ab03d17ddbf8"}]},"request":{"method":"PUT","url":"Encounter/8b741a7e-880a-47de-91a7-b2f56212c3d9"}},{"fullUrl":"https://madie.cms.gov/Condition/a0080d6e-a063-4a32-a312-ab03d17ddbf8","resource":{"resourceType":"Condition","id":"a0080d6e-a063-4a32-a312-ab03d17ddbf8","meta":{"profile":["http://hl7.org/fhir/us/qicore/StructureDefinition/qicore-condition-problems-health-concerns"]},"clinicalStatus":{"coding":[{"system":"http://terminology.hl7.org/CodeSystem/condition-clinical","code":"active","display":"active","userSelected":true}]},"category":[{"coding":[{"system":"http://terminology.hl7.org/CodeSystem/condition-category","code":"problem-list-item","display":"Problem List Item","userSelected":true}]}],"code":{"coding":[{"system":"http://snomed.info/sct","version":"2020-09","code":"401303003","display":"Acute ST segment elevation myocardial infarction (disorder)","userSelected":true}]},"subject":{"reference":"Patient/7398c01f-d745-4013-80e7-1a8a549650db"},"onsetDateTime":"2026-10-09T08:30:00.000+00:00"},"request":{"method":"PUT","url":"Condition/a0080d6e-a063-4a32-a312-ab03d17ddbf8"}},{"fullUrl":"https://madie.cms.gov/Procedure/0fede275-221a-4700-87fe-b21f79a76524","resource":{"resourceType":"Procedure","id":"0fede275-221a-4700-87fe-b21f79a76524","meta":{"profile":["http://hl7.org/fhir/us/qicore/StructureDefinition/qicore-procedure"]},"extension":[{"url":"http://hl7.org/fhir/us/qicore/StructureDefinition/qicore-recorded","valueDateTime":"2026-10-12T08:15:00.000+00:00"}],"status":"completed","category":{"coding":[{"system":"http://snomed.info/sct","code":"387713003","display":"Surgical procedure","userSelected":true}]},"code":{"coding":[{"system":"http://snomed.info/sct","code":"429161001","userSelected":true}]},"subject":{"reference":"Patient/7398c01f-d745-4013-80e7-1a8a549650db"},"performedPeriod":{"start":"2026-10-09T13:15:00.000+00:00","end":"2026-10-12T08:15:00.000+00:00"}},"request":{"method":"PUT","url":"Procedure/0fede275-221a-4700-87fe-b21f79a76524"}},{"fullUrl":"https://madie.cms.gov/MeasureReport/2ef642ba-35c3-4301-8691-4a6a9ce35b3a","resource":{"resourceType":"MeasureReport","id":"2ef642ba-35c3-4301-8691-4a6a9ce35b3a","meta":{"profile":["http://hl7.org/fhir/us/cqfmeasures/StructureDefinition/test-case-cqfm"]},"contained":[{"resourceType":"Parameters","id":"5af79eb5-163a-4c16-8095-49ce683ebdcd-parameters","parameter":[{"name":"subject","valueString":"7398c01f-d745-4013-80e7-1a8a549650db"}]}],"extension":[{"url":"http://hl7.org/fhir/StructureDefinition/cqf-inputParameters","valueReference":{"reference":"#5af79eb5-163a-4c16-8095-49ce683ebdcd-parameters"}},{"url":"http://hl7.org/fhir/us/cqfmeasures/StructureDefinition/cqfm-testCaseDescription","valueMarkdown":"Patient has endotracheal intubation (exclusion procedure) that starts during and ends after the ED encounter "}],"modifierExtension":[{"url":"http://hl7.org/fhir/us/cqfmeasures/StructureDefinition/cqfm-isTestCase","valueBoolean":true}],"status":"complete","type":"individual","measure":"https://madie.cms.gov/Measure/CMS996FHIRAptTxforSTEMI","period":{"start":"2026-01-01","end":"2026-12-31"},"group":[{"id":"Group_1","population":[{"id":"InitialPopulation_1","code":{"coding":[{"system":"http://terminology.hl7.org/CodeSystem/measure-population","code":"initial-population","display":"Initial Population"}]},"count":1},{"id":"Denominator_1","code":{"coding":[{"system":"http://terminology.hl7.org/CodeSystem/measure-population","code":"denominator","display":"Denominator"}]},"count":1},{"id":"DenominatorExclusion_1","code":{"coding":[{"system":"http://terminology.hl7.org/CodeSystem/measure-population","code":"denominator-exclusion","display":"Denominator Exclusion"}]},"count":1},{"id":"Numerator_1","code":{"coding":[{"system":"http://terminology.hl7.org/CodeSystem/measure-population","code":"numerator","display":"Numerator"}]},"count":0},{"id":"DenominatorException_1","code":{"coding":[{"system":"http://terminology.hl7.org/CodeSystem/measure-population","code":"denominator-exception","display":"Denominator Exception"}]},"count":0}],"measureScore":{"value":0.0}}],"evaluatedResource":[{"reference":"Patient/7398c01f-d745-4013-80e7-1a8a549650db"},{"reference":"Encounter/8b741a7e-880a-47de-91a7-b2f56212c3d9"},{"reference":"Condition/a0080d6e-a063-4a32-a312-ab03d17ddbf8"},{"reference":"Procedure/0fede275-221a-4700-87fe-b21f79a76524"}]},"request":{"method":"PUT","url":"MeasureReport/2ef642ba-35c3-4301-8691-4a6a9ce35b3a"}}]},"request":{"method":"PUT","url":"Bundle/6179eb6ead1a790b7af75254"}},{"fullUrl":"Procedure/0fede275-221a-4700-87fe-b21f79a76524","resource":{"resourceType":"Procedure","id":"0fede275-221a-4700-87fe-b21f79a76524","meta":{"profile":["http://hl7.org/fhir/us/qicore/StructureDefinition/qicore-procedure"]},"extension":[{"url":"http://hl7.org/fhir/us/qicore/StructureDefinition/qicore-recorded","valueDateTime":"2026-10-12T08:15:00.000+00:00"}],"status":"completed","category":{"coding":[{"system":"http://snomed.info/sct","code":"387713003","display":"Surgical procedure","userSelected":true}]},"code":{"coding":[{"system":"http://snomed.info/sct","code":"429161001","userSelected":true}]},"subject":{"reference":"Patient/7398c01f-d745-4013-80e7-1a8a549650db"},"performedPeriod":{"start":"2026-10-09T13:15:00.000+00:00","end":"2026-10-12T08:15:00.000+00:00"}},"request":{"method":"PUT","url":"Procedure/0fede275-221a-4700-87fe-b21f79a76524"}},{"fullUrl":"Condition/a0080d6e-a063-4a32-a312-ab03d17ddbf8","resource":{"resourceType":"Condition","id":"a0080d6e-a063-4a32-a312-ab03d17ddbf8","meta":{"profile":["http://hl7.org/fhir/us/qicore/StructureDefinition/qicore-condition-problems-health-concerns"]},"clinicalStatus":{"coding":[{"system":"http://terminology.hl7.org/CodeSystem/condition-clinical","code":"active","display":"active","userSelected":true}]},"category":[{"coding":[{"system":"http://terminology.hl7.org/CodeSystem/condition-category","code":"problem-list-item","display":"Problem List Item","userSelected":true}]}],"code":{"coding":[{"system":"http://snomed.info/sct","version":"2020-09","code":"401303003","display":"Acute ST segment elevation myocardial infarction (disorder)","userSelected":true}]},"subject":{"reference":"Patient/7398c01f-d745-4013-80e7-1a8a549650db"},"onsetDateTime":"2026-10-09T08:30:00.000+00:00"},"request":{"method":"PUT","url":"Condition/a0080d6e-a063-4a32-a312-ab03d17ddbf8"}},{"fullUrl":"MeasureReport/2ef642ba-35c3-4301-8691-4a6a9ce35b3a","resource":{"resourceType":"MeasureReport","id":"2ef642ba-35c3-4301-8691-4a6a9ce35b3a","meta":{"profile":["http://hl7.org/fhir/us/cqfmeasures/StructureDefinition/test-case-cqfm"]},"contained":[{"resourceType":"Parameters","id":"5af79eb5-163a-4c16-8095-49ce683ebdcd-parameters","parameter":[{"name":"subject","valueString":"7398c01f-d745-4013-80e7-1a8a549650db"}]}],"extension":[{"url":"http://hl7.org/fhir/StructureDefinition/cqf-inputParameters","valueReference":{"reference":"#5af79eb5-163a-4c16-8095-49ce683ebdcd-parameters"}},{"url":"http://hl7.org/fhir/us/cqfmeasures/StructureDefinition/cqfm-testCaseDescription","valueMarkdown":"Patient has endotracheal intubation (exclusion procedure) that starts during and ends after the ED encounter "}],"modifierExtension":[{"url":"http://hl7.org/fhir/us/cqfmeasures/StructureDefinition/cqfm-isTestCase","valueBoolean":true}],"status":"complete","type":"individual","measure":"https://madie.cms.gov/Measure/CMS996FHIRAptTxforSTEMI","period":{"start":"2026-01-01","end":"2026-12-31"},"group":[{"id":"Group_1","population":[{"id":"InitialPopulation_1","code":{"coding":[{"system":"http://terminology.hl7.org/CodeSystem/measure-population","code":"initial-population","display":"Initial Population"}]},"count":1},{"id":"Denominator_1","code":{"coding":[{"system":"http://terminology.hl7.org/CodeSystem/measure-population","code":"denominator","display":"Denominator"}]},"count":1},{"id":"DenominatorExclusion_1","code":{"coding":[{"system":"http://terminology.hl7.org/CodeSystem/measure-population","code":"denominator-exclusion","display":"Denominator Exclusion"}]},"count":1},{"id":"Numerator_1","code":{"coding":[{"system":"http://terminology.hl7.org/CodeSystem/measure-population","code":"numerator","display":"Numerator"}]},"count":0},{"id":"DenominatorException_1","code":{"coding":[{"system":"http://terminology.hl7.org/CodeSystem/measure-population","code":"denominator-exception","display":"Denominator Exception"}]},"count":0}],"measureScore":{"value":0.0}}],"evaluatedResource":[{"reference":"Patient/7398c01f-d745-4013-80e7-1a8a549650db"},{"reference":"Encounter/8b741a7e-880a-47de-91a7-b2f56212c3d9"},{"reference":"Condition/a0080d6e-a063-4a32-a312-ab03d17ddbf8"},{"reference":"Procedure/0fede275-221a-4700-87fe-b21f79a76524"}]},"request":{"method":"PUT","url":"MeasureReport/2ef642ba-35c3-4301-8691-4a6a9ce35b3a"}},{"fullUrl":"Encounter/8b741a7e-880a-47de-91a7-b2f56212c3d9","resource":{"resourceType":"Encounter","id":"8b741a7e-880a-47de-91a7-b2f56212c3d9","meta":{"profile":["http://hl7.org/fhir/us/qicore/StructureDefinition/qicore-encounter"]},"status":"finished","class":{"system":"http://terminology.hl7.org/CodeSystem/v3-ActCode","code":"EMER","display":"emergency","userSelected":true},"type":[{"coding":[{"system":"http://snomed.info/sct","version":"2020-09","code":"4525004","display":"Emergency department patient visit (procedure)","userSelected":true}]}],"subject":{"reference":"Patient/7398c01f-d745-4013-80e7-1a8a549650db"},"period":{"start":"2026-10-09T08:05:00.000+00:00","end":"2026-10-10T07:15:00.000+00:00"},"reasonReference":[{"reference":"Condition/a0080d6e-a063-4a32-a312-ab03d17ddbf8"}]},"request":{"method":"PUT","url":"Encounter/8b741a7e-880a-47de-91a7-b2f56212c3d9"}},{"fullUrl":"Patient/7398c01f-d745-4013-80e7-1a8a549650db","resource":{"resourceType":"Patient","id":"7398c01f-d745-4013-80e7-1a8a549650db","meta":{"profile":["http://hl7.org/fhir/us/qicore/StructureDefinition/qicore-patient"]},"extension":[{"url":"http://hl7.org/fhir/us/core/StructureDefinition/us-core-race","extension":[{"url":"ombCategory","valueCoding":{"system":"urn:oid:2.16.840.1.113883.6.238","code":"2076-8","display":"Native Hawaiian or Other Pacific Islander","userSelected":true}},{"url":"text","valueString":"Native Hawaiian or Other Pacific Islander"}]},{"url":"http://hl7.org/fhir/us/core/StructureDefinition/us-core-ethnicity","extension":[{"url":"ombCategory","valueCoding":{"system":"urn:oid:2.16.840.1.113883.6.238","code":"2135-2","display":"Hispanic or Latino","userSelected":true}},{"url":"text","valueString":"Hispanic or Latino"}]},{"url":"http://hl7.org/fhir/us/core/StructureDefinition/us-core-sex","valueCode":"248152002"}],"identifier":[{"type":{"coding":[{"system":"http://terminology.hl7.org/CodeSystem/v2-0203","code":"MR"}]},"system":"https://bonnie-fhir.healthit.gov/","value":"6179eb6ead1a790b7af75254"}],"name":[{"family":"DenExcl2Pass","given":["PxExclStartsDuringEndsAfterED"]}],"gender":"female","birthDate":"1985-12-02"},"request":{"method":"PUT","url":"Patient/7398c01f-d745-4013-80e7-1a8a549650db"}}]}