{"resourceType":"Bundle","id":"tests-6484a0f5-3f9c-4df9-94b3-2f5c9b95638a-bundle","type":"transaction","entry":[{"fullUrl":"Condition/8ee7a62a-7c85-4b4f-920f-979e759ef920","resource":{"resourceType":"Condition","id":"8ee7a62a-7c85-4b4f-920f-979e759ef920","meta":{"profile":["http://hl7.org/fhir/us/qicore/StructureDefinition/qicore-condition-problems-health-concerns"]},"clinicalStatus":{"coding":[{"system":"http://terminology.hl7.org/CodeSystem/condition-clinical","code":"active","display":"active","userSelected":true}]},"category":[{"coding":[{"system":"http://terminology.hl7.org/CodeSystem/condition-category","code":"problem-list-item","display":"Problem List Item","userSelected":true}]}],"code":{"coding":[{"system":"http://snomed.info/sct","version":"2020-09","code":"401303003","display":"Acute ST segment elevation myocardial infarction (disorder)","userSelected":true}]},"subject":{"reference":"Patient/6484a0f5-3f9c-4df9-94b3-2f5c9b95638a"},"onsetDateTime":"2026-10-09T08:30:00.000+00:00"},"request":{"method":"PUT","url":"Condition/8ee7a62a-7c85-4b4f-920f-979e759ef920"}},{"fullUrl":"Procedure/c650d866-da96-4416-b87b-d82c61bd0c85","resource":{"resourceType":"Procedure","id":"c650d866-da96-4416-b87b-d82c61bd0c85","meta":{"profile":["http://hl7.org/fhir/us/qicore/StructureDefinition/qicore-procedure"]},"extension":[{"url":"http://hl7.org/fhir/us/qicore/StructureDefinition/qicore-recorded","valueDateTime":"2026-10-02T09:15:00.000+00:00"}],"status":"completed","category":{"coding":[{"system":"http://snomed.info/sct","code":"387713003","display":"Surgical procedure","userSelected":true}]},"code":{"coding":[{"system":"http://www.cms.gov/Medicare/Coding/ICD10","code":"5A1955Z","userSelected":true}]},"subject":{"reference":"Patient/6484a0f5-3f9c-4df9-94b3-2f5c9b95638a"},"performedPeriod":{"start":"2026-10-01T13:15:00.000+00:00","end":"2026-10-02T09:15:00.000+00:00"}},"request":{"method":"PUT","url":"Procedure/c650d866-da96-4416-b87b-d82c61bd0c85"}},{"fullUrl":"Encounter/0817ce9b-7bb8-4914-984e-771646b9bfb6","resource":{"resourceType":"Encounter","id":"0817ce9b-7bb8-4914-984e-771646b9bfb6","meta":{"profile":["http://hl7.org/fhir/us/qicore/StructureDefinition/qicore-encounter"]},"status":"finished","class":{"system":"http://terminology.hl7.org/CodeSystem/v3-ActCode","code":"EMER","display":"emergency","userSelected":true},"type":[{"coding":[{"system":"http://snomed.info/sct","version":"2020-09","code":"4525004","display":"Emergency department patient visit (procedure)","userSelected":true}]}],"subject":{"reference":"Patient/6484a0f5-3f9c-4df9-94b3-2f5c9b95638a"},"period":{"start":"2026-10-09T08:05:00.000+00:00","end":"2026-10-10T07:15:00.000+00:00"},"reasonReference":[{"reference":"Condition/8ee7a62a-7c85-4b4f-920f-979e759ef920"}]},"request":{"method":"PUT","url":"Encounter/0817ce9b-7bb8-4914-984e-771646b9bfb6"}},{"fullUrl":"Bundle/6179ea13ad1a790b7af75251","resource":{"resourceType":"Bundle","id":"6179ea13ad1a790b7af75251","type":"transaction","entry":[{"fullUrl":"https://madie.cms.gov/Patient/6484a0f5-3f9c-4df9-94b3-2f5c9b95638a","resource":{"resourceType":"Patient","id":"6484a0f5-3f9c-4df9-94b3-2f5c9b95638a","meta":{"profile":["http://hl7.org/fhir/us/qicore/StructureDefinition/qicore-patient"]},"extension":[{"url":"http://hl7.org/fhir/us/core/StructureDefinition/us-core-race","extension":[{"url":"ombCategory","valueCoding":{"system":"urn:oid:2.16.840.1.113883.6.238","code":"2076-8","display":"Native Hawaiian or Other Pacific Islander","userSelected":true}},{"url":"text","valueString":"Native Hawaiian or Other Pacific Islander"}]},{"url":"http://hl7.org/fhir/us/core/StructureDefinition/us-core-ethnicity","extension":[{"url":"ombCategory","valueCoding":{"system":"urn:oid:2.16.840.1.113883.6.238","code":"2186-5","display":"Not Hispanic or Latino","userSelected":true}},{"url":"text","valueString":"Not Hispanic or Latino"}]},{"url":"http://hl7.org/fhir/us/core/StructureDefinition/us-core-sex","valueCode":"248152002"}],"identifier":[{"type":{"coding":[{"system":"http://terminology.hl7.org/CodeSystem/v2-0203","code":"MR"}]},"system":"https://bonnie-fhir.healthit.gov/","value":"6179ea13ad1a790b7af75251"}],"name":[{"family":"DenExcl2Fail","given":["PxExclStartsBeforeEndsBeforeED"]}],"gender":"female","birthDate":"1985-12-02"},"request":{"method":"PUT","url":"Patient/6484a0f5-3f9c-4df9-94b3-2f5c9b95638a"}},{"fullUrl":"https://madie.cms.gov/Encounter/0817ce9b-7bb8-4914-984e-771646b9bfb6","resource":{"resourceType":"Encounter","id":"0817ce9b-7bb8-4914-984e-771646b9bfb6","meta":{"profile":["http://hl7.org/fhir/us/qicore/StructureDefinition/qicore-encounter"]},"status":"finished","class":{"system":"http://terminology.hl7.org/CodeSystem/v3-ActCode","code":"EMER","display":"emergency","userSelected":true},"type":[{"coding":[{"system":"http://snomed.info/sct","version":"2020-09","code":"4525004","display":"Emergency department patient visit (procedure)","userSelected":true}]}],"subject":{"reference":"Patient/6484a0f5-3f9c-4df9-94b3-2f5c9b95638a"},"period":{"start":"2026-10-09T08:05:00.000+00:00","end":"2026-10-10T07:15:00.000+00:00"},"reasonReference":[{"reference":"Condition/8ee7a62a-7c85-4b4f-920f-979e759ef920"}]},"request":{"method":"PUT","url":"Encounter/0817ce9b-7bb8-4914-984e-771646b9bfb6"}},{"fullUrl":"https://madie.cms.gov/Condition/8ee7a62a-7c85-4b4f-920f-979e759ef920","resource":{"resourceType":"Condition","id":"8ee7a62a-7c85-4b4f-920f-979e759ef920","meta":{"profile":["http://hl7.org/fhir/us/qicore/StructureDefinition/qicore-condition-problems-health-concerns"]},"clinicalStatus":{"coding":[{"system":"http://terminology.hl7.org/CodeSystem/condition-clinical","code":"active","display":"active","userSelected":true}]},"category":[{"coding":[{"system":"http://terminology.hl7.org/CodeSystem/condition-category","code":"problem-list-item","display":"Problem List Item","userSelected":true}]}],"code":{"coding":[{"system":"http://snomed.info/sct","version":"2020-09","code":"401303003","display":"Acute ST segment elevation myocardial infarction (disorder)","userSelected":true}]},"subject":{"reference":"Patient/6484a0f5-3f9c-4df9-94b3-2f5c9b95638a"},"onsetDateTime":"2026-10-09T08:30:00.000+00:00"},"request":{"method":"PUT","url":"Condition/8ee7a62a-7c85-4b4f-920f-979e759ef920"}},{"fullUrl":"https://madie.cms.gov/Procedure/c650d866-da96-4416-b87b-d82c61bd0c85","resource":{"resourceType":"Procedure","id":"c650d866-da96-4416-b87b-d82c61bd0c85","meta":{"profile":["http://hl7.org/fhir/us/qicore/StructureDefinition/qicore-procedure"]},"extension":[{"url":"http://hl7.org/fhir/us/qicore/StructureDefinition/qicore-recorded","valueDateTime":"2026-10-02T09:15:00.000+00:00"}],"status":"completed","category":{"coding":[{"system":"http://snomed.info/sct","code":"387713003","display":"Surgical procedure","userSelected":true}]},"code":{"coding":[{"system":"http://www.cms.gov/Medicare/Coding/ICD10","code":"5A1955Z","userSelected":true}]},"subject":{"reference":"Patient/6484a0f5-3f9c-4df9-94b3-2f5c9b95638a"},"performedPeriod":{"start":"2026-10-01T13:15:00.000+00:00","end":"2026-10-02T09:15:00.000+00:00"}},"request":{"method":"PUT","url":"Procedure/c650d866-da96-4416-b87b-d82c61bd0c85"}},{"fullUrl":"https://madie.cms.gov/MeasureReport/550a38b8-e786-49bc-97dc-c9f3d1821455","resource":{"resourceType":"MeasureReport","id":"550a38b8-e786-49bc-97dc-c9f3d1821455","meta":{"profile":["http://hl7.org/fhir/us/cqfmeasures/StructureDefinition/test-case-cqfm"]},"contained":[{"resourceType":"Parameters","id":"baa22161-6d70-4748-9aaa-4b6b281c2ae4-parameters","parameter":[{"name":"subject","valueString":"6484a0f5-3f9c-4df9-94b3-2f5c9b95638a"}]}],"extension":[{"url":"http://hl7.org/fhir/StructureDefinition/cqf-inputParameters","valueReference":{"reference":"#baa22161-6d70-4748-9aaa-4b6b281c2ae4-parameters"}},{"url":"http://hl7.org/fhir/us/cqfmeasures/StructureDefinition/cqfm-testCaseDescription","valueMarkdown":"Patient has endotracheal intubation (exclusion procedure) that starts before and ends before the ED encounter"}],"modifierExtension":[{"url":"http://hl7.org/fhir/us/cqfmeasures/StructureDefinition/cqfm-isTestCase","valueBoolean":true}],"status":"complete","type":"individual","measure":"https://madie.cms.gov/Measure/CMS996FHIRAptTxforSTEMI","period":{"start":"2026-01-01","end":"2026-12-31"},"group":[{"id":"Group_1","population":[{"id":"InitialPopulation_1","code":{"coding":[{"system":"http://terminology.hl7.org/CodeSystem/measure-population","code":"initial-population","display":"Initial Population"}]},"count":1},{"id":"Denominator_1","code":{"coding":[{"system":"http://terminology.hl7.org/CodeSystem/measure-population","code":"denominator","display":"Denominator"}]},"count":1},{"id":"DenominatorExclusion_1","code":{"coding":[{"system":"http://terminology.hl7.org/CodeSystem/measure-population","code":"denominator-exclusion","display":"Denominator Exclusion"}]},"count":0},{"id":"Numerator_1","code":{"coding":[{"system":"http://terminology.hl7.org/CodeSystem/measure-population","code":"numerator","display":"Numerator"}]},"count":0},{"id":"DenominatorException_1","code":{"coding":[{"system":"http://terminology.hl7.org/CodeSystem/measure-population","code":"denominator-exception","display":"Denominator Exception"}]},"count":0}],"measureScore":{"value":0.0}}],"evaluatedResource":[{"reference":"Patient/6484a0f5-3f9c-4df9-94b3-2f5c9b95638a"},{"reference":"Encounter/0817ce9b-7bb8-4914-984e-771646b9bfb6"},{"reference":"Condition/8ee7a62a-7c85-4b4f-920f-979e759ef920"},{"reference":"Procedure/c650d866-da96-4416-b87b-d82c61bd0c85"}]},"request":{"method":"PUT","url":"MeasureReport/550a38b8-e786-49bc-97dc-c9f3d1821455"}}]},"request":{"method":"PUT","url":"Bundle/6179ea13ad1a790b7af75251"}},{"fullUrl":"MeasureReport/550a38b8-e786-49bc-97dc-c9f3d1821455","resource":{"resourceType":"MeasureReport","id":"550a38b8-e786-49bc-97dc-c9f3d1821455","meta":{"profile":["http://hl7.org/fhir/us/cqfmeasures/StructureDefinition/test-case-cqfm"]},"contained":[{"resourceType":"Parameters","id":"baa22161-6d70-4748-9aaa-4b6b281c2ae4-parameters","parameter":[{"name":"subject","valueString":"6484a0f5-3f9c-4df9-94b3-2f5c9b95638a"}]}],"extension":[{"url":"http://hl7.org/fhir/StructureDefinition/cqf-inputParameters","valueReference":{"reference":"#baa22161-6d70-4748-9aaa-4b6b281c2ae4-parameters"}},{"url":"http://hl7.org/fhir/us/cqfmeasures/StructureDefinition/cqfm-testCaseDescription","valueMarkdown":"Patient has endotracheal intubation (exclusion procedure) that starts before and ends before the ED encounter"}],"modifierExtension":[{"url":"http://hl7.org/fhir/us/cqfmeasures/StructureDefinition/cqfm-isTestCase","valueBoolean":true}],"status":"complete","type":"individual","measure":"https://madie.cms.gov/Measure/CMS996FHIRAptTxforSTEMI","period":{"start":"2026-01-01","end":"2026-12-31"},"group":[{"id":"Group_1","population":[{"id":"InitialPopulation_1","code":{"coding":[{"system":"http://terminology.hl7.org/CodeSystem/measure-population","code":"initial-population","display":"Initial Population"}]},"count":1},{"id":"Denominator_1","code":{"coding":[{"system":"http://terminology.hl7.org/CodeSystem/measure-population","code":"denominator","display":"Denominator"}]},"count":1},{"id":"DenominatorExclusion_1","code":{"coding":[{"system":"http://terminology.hl7.org/CodeSystem/measure-population","code":"denominator-exclusion","display":"Denominator Exclusion"}]},"count":0},{"id":"Numerator_1","code":{"coding":[{"system":"http://terminology.hl7.org/CodeSystem/measure-population","code":"numerator","display":"Numerator"}]},"count":0},{"id":"DenominatorException_1","code":{"coding":[{"system":"http://terminology.hl7.org/CodeSystem/measure-population","code":"denominator-exception","display":"Denominator Exception"}]},"count":0}],"measureScore":{"value":0.0}}],"evaluatedResource":[{"reference":"Patient/6484a0f5-3f9c-4df9-94b3-2f5c9b95638a"},{"reference":"Encounter/0817ce9b-7bb8-4914-984e-771646b9bfb6"},{"reference":"Condition/8ee7a62a-7c85-4b4f-920f-979e759ef920"},{"reference":"Procedure/c650d866-da96-4416-b87b-d82c61bd0c85"}]},"request":{"method":"PUT","url":"MeasureReport/550a38b8-e786-49bc-97dc-c9f3d1821455"}},{"fullUrl":"Patient/6484a0f5-3f9c-4df9-94b3-2f5c9b95638a","resource":{"resourceType":"Patient","id":"6484a0f5-3f9c-4df9-94b3-2f5c9b95638a","meta":{"profile":["http://hl7.org/fhir/us/qicore/StructureDefinition/qicore-patient"]},"extension":[{"url":"http://hl7.org/fhir/us/core/StructureDefinition/us-core-race","extension":[{"url":"ombCategory","valueCoding":{"system":"urn:oid:2.16.840.1.113883.6.238","code":"2076-8","display":"Native Hawaiian or Other Pacific Islander","userSelected":true}},{"url":"text","valueString":"Native Hawaiian or Other Pacific Islander"}]},{"url":"http://hl7.org/fhir/us/core/StructureDefinition/us-core-ethnicity","extension":[{"url":"ombCategory","valueCoding":{"system":"urn:oid:2.16.840.1.113883.6.238","code":"2186-5","display":"Not Hispanic or Latino","userSelected":true}},{"url":"text","valueString":"Not Hispanic or Latino"}]},{"url":"http://hl7.org/fhir/us/core/StructureDefinition/us-core-sex","valueCode":"248152002"}],"identifier":[{"type":{"coding":[{"system":"http://terminology.hl7.org/CodeSystem/v2-0203","code":"MR"}]},"system":"https://bonnie-fhir.healthit.gov/","value":"6179ea13ad1a790b7af75251"}],"name":[{"family":"DenExcl2Fail","given":["PxExclStartsBeforeEndsBeforeED"]}],"gender":"female","birthDate":"1985-12-02"},"request":{"method":"PUT","url":"Patient/6484a0f5-3f9c-4df9-94b3-2f5c9b95638a"}}]}