{"resourceType":"Bundle","id":"tests-765db4ae-8924-4673-87f6-03924b0fe23d-bundle","type":"transaction","entry":[{"resource":{"resourceType":"Bundle","id":"sf044ef3e654daa9111","type":"transaction","entry":[{"fullUrl":"https://madie.cms.gov/Patient/765db4ae-8924-4673-87f6-03924b0fe23d","resource":{"resourceType":"Patient","id":"765db4ae-8924-4673-87f6-03924b0fe23d","meta":{"profile":["http://hl7.org/fhir/us/qicore/StructureDefinition/qicore-patient"]},"extension":[{"url":"http://hl7.org/fhir/us/core/StructureDefinition/us-core-race","extension":[{"url":"ombCategory","valueCoding":{"system":"urn:oid:2.16.840.1.113883.6.238","code":"1002-5","display":"American Indian or Alaska Native","userSelected":true}},{"url":"text","valueString":"American Indian or Alaska Native"}]},{"url":"http://hl7.org/fhir/us/core/StructureDefinition/us-core-ethnicity","extension":[{"url":"ombCategory","valueCoding":{"system":"urn:oid:2.16.840.1.113883.6.238","code":"2135-2","display":"Hispanic or Latino","userSelected":true}},{"url":"text","valueString":"Hispanic or Latino"}]},{"url":"http://hl7.org/fhir/us/core/StructureDefinition/us-core-sex","valueCode":"248153007"}],"identifier":[{"type":{"coding":[{"system":"http://terminology.hl7.org/CodeSystem/v2-0203","code":"MR"}]},"system":"https://bonnie-fhir.healthit.gov/","value":"sf044ef3e654daa9111"}],"name":[{"family":"DENEXCL6PASS","given":["LongTermAnticoagulantUseStartsDuringED"]}],"gender":"male","birthDate":"1976-08-25"},"request":{"method":"PUT","url":"Patient/765db4ae-8924-4673-87f6-03924b0fe23d"}},{"fullUrl":"https://madie.cms.gov/Encounter/f2e3938a-016e-47e4-b862-40453ab479a1","resource":{"resourceType":"Encounter","id":"f2e3938a-016e-47e4-b862-40453ab479a1","meta":{"profile":["http://hl7.org/fhir/us/qicore/StructureDefinition/qicore-encounter"]},"status":"finished","class":{"system":"http://terminology.hl7.org/CodeSystem/v3-ActCode","code":"EMER","display":"emergency","userSelected":true},"type":[{"coding":[{"system":"http://snomed.info/sct","version":"2020-09","code":"4525004","display":"Emergency department patient visit","userSelected":true}]}],"subject":{"reference":"Patient/765db4ae-8924-4673-87f6-03924b0fe23d"},"period":{"start":"2026-10-09T05:00:00.000+00:00","end":"2026-10-13T17:00:00.000+00:00"},"reasonCode":[{"coding":[{"system":"http://hl7.org/fhir/sid/icd-10-cm","code":"I21.21","display":"ST elevation (STEMI) myocardial infarction involving left circumflex coronary artery","userSelected":true}]}]},"request":{"method":"PUT","url":"Encounter/f2e3938a-016e-47e4-b862-40453ab479a1"}},{"fullUrl":"https://madie.cms.gov/Condition/8b2dd535-b6fd-46df-9beb-a58f4f3e776d","resource":{"resourceType":"Condition","id":"8b2dd535-b6fd-46df-9beb-a58f4f3e776d","meta":{"profile":["http://hl7.org/fhir/us/qicore/StructureDefinition/qicore-condition-problems-health-concerns"]},"clinicalStatus":{"coding":[{"system":"http://terminology.hl7.org/CodeSystem/condition-clinical","code":"active","display":"Active","userSelected":true}]},"verificationStatus":{"coding":[{"system":"http://terminology.hl7.org/CodeSystem/condition-ver-status","code":"unconfirmed"}]},"category":[{"coding":[{"system":"http://terminology.hl7.org/CodeSystem/condition-category","code":"problem-list-item","display":"Problem List Item","userSelected":true}]}],"code":{"coding":[{"system":"http://hl7.org/fhir/sid/icd-10-cm","code":"Z79.01","display":"Long term (current) use of anticoagulants","userSelected":true}]},"subject":{"reference":"Patient/765db4ae-8924-4673-87f6-03924b0fe23d"},"onsetDateTime":"2026-10-08T05:00:00.000+00:00"},"request":{"method":"PUT","url":"Condition/8b2dd535-b6fd-46df-9beb-a58f4f3e776d"}},{"fullUrl":"https://madie.cms.gov/MeasureReport/a67ed835-ef0c-4856-a49a-1d52b04ed52a","resource":{"resourceType":"MeasureReport","id":"a67ed835-ef0c-4856-a49a-1d52b04ed52a","meta":{"profile":["http://hl7.org/fhir/us/cqfmeasures/StructureDefinition/test-case-cqfm"]},"contained":[{"resourceType":"Parameters","id":"89ca52d3-02da-4c2e-aa8d-6ccbcd3824c4-parameters","parameter":[{"name":"subject","valueString":"765db4ae-8924-4673-87f6-03924b0fe23d"}]}],"extension":[{"url":"http://hl7.org/fhir/StructureDefinition/cqf-inputParameters","valueReference":{"reference":"#89ca52d3-02da-4c2e-aa8d-6ccbcd3824c4-parameters"}},{"url":"http://hl7.org/fhir/us/cqfmeasures/StructureDefinition/cqfm-testCaseDescription","valueMarkdown":"Patient has long term anticoagulant use that starts at the same time as ED encounter\n"}],"modifierExtension":[{"url":"http://hl7.org/fhir/us/cqfmeasures/StructureDefinition/cqfm-isTestCase","valueBoolean":true}],"status":"complete","type":"individual","measure":"https://madie.cms.gov/Measure/CMS996FHIRAptTxforSTEMI","period":{"start":"2026-01-01","end":"2026-12-31"},"group":[{"id":"Group_1","population":[{"id":"InitialPopulation_1","code":{"coding":[{"system":"http://terminology.hl7.org/CodeSystem/measure-population","code":"initial-population","display":"Initial Population"}]},"count":1},{"id":"Denominator_1","code":{"coding":[{"system":"http://terminology.hl7.org/CodeSystem/measure-population","code":"denominator","display":"Denominator"}]},"count":1},{"id":"DenominatorExclusion_1","code":{"coding":[{"system":"http://terminology.hl7.org/CodeSystem/measure-population","code":"denominator-exclusion","display":"Denominator Exclusion"}]},"count":1},{"id":"Numerator_1","code":{"coding":[{"system":"http://terminology.hl7.org/CodeSystem/measure-population","code":"numerator","display":"Numerator"}]},"count":0},{"id":"DenominatorException_1","code":{"coding":[{"system":"http://terminology.hl7.org/CodeSystem/measure-population","code":"denominator-exception","display":"Denominator Exception"}]},"count":0}],"measureScore":{"value":0.0}}],"evaluatedResource":[{"reference":"Patient/765db4ae-8924-4673-87f6-03924b0fe23d"},{"reference":"Encounter/f2e3938a-016e-47e4-b862-40453ab479a1"},{"reference":"Condition/8b2dd535-b6fd-46df-9beb-a58f4f3e776d"}]},"request":{"method":"PUT","url":"MeasureReport/a67ed835-ef0c-4856-a49a-1d52b04ed52a"}}]},"request":{"method":"PUT","url":"Bundle/sf044ef3e654daa9111"}},{"resource":{"resourceType":"MeasureReport","id":"a67ed835-ef0c-4856-a49a-1d52b04ed52a","meta":{"profile":["http://hl7.org/fhir/us/cqfmeasures/StructureDefinition/test-case-cqfm"]},"contained":[{"resourceType":"Parameters","id":"89ca52d3-02da-4c2e-aa8d-6ccbcd3824c4-parameters","parameter":[{"name":"subject","valueString":"765db4ae-8924-4673-87f6-03924b0fe23d"}]}],"extension":[{"url":"http://hl7.org/fhir/StructureDefinition/cqf-inputParameters","valueReference":{"reference":"#89ca52d3-02da-4c2e-aa8d-6ccbcd3824c4-parameters"}},{"url":"http://hl7.org/fhir/us/cqfmeasures/StructureDefinition/cqfm-testCaseDescription","valueMarkdown":"Patient has long term anticoagulant use that starts at the same time as ED encounter\n"}],"modifierExtension":[{"url":"http://hl7.org/fhir/us/cqfmeasures/StructureDefinition/cqfm-isTestCase","valueBoolean":true}],"status":"complete","type":"individual","measure":"https://madie.cms.gov/Measure/CMS996FHIRAptTxforSTEMI","period":{"start":"2026-01-01","end":"2026-12-31"},"group":[{"id":"Group_1","population":[{"id":"InitialPopulation_1","code":{"coding":[{"system":"http://terminology.hl7.org/CodeSystem/measure-population","code":"initial-population","display":"Initial Population"}]},"count":1},{"id":"Denominator_1","code":{"coding":[{"system":"http://terminology.hl7.org/CodeSystem/measure-population","code":"denominator","display":"Denominator"}]},"count":1},{"id":"DenominatorExclusion_1","code":{"coding":[{"system":"http://terminology.hl7.org/CodeSystem/measure-population","code":"denominator-exclusion","display":"Denominator Exclusion"}]},"count":1},{"id":"Numerator_1","code":{"coding":[{"system":"http://terminology.hl7.org/CodeSystem/measure-population","code":"numerator","display":"Numerator"}]},"count":0},{"id":"DenominatorException_1","code":{"coding":[{"system":"http://terminology.hl7.org/CodeSystem/measure-population","code":"denominator-exception","display":"Denominator Exception"}]},"count":0}],"measureScore":{"value":0.0}}],"evaluatedResource":[{"reference":"Patient/765db4ae-8924-4673-87f6-03924b0fe23d"},{"reference":"Encounter/f2e3938a-016e-47e4-b862-40453ab479a1"},{"reference":"Condition/8b2dd535-b6fd-46df-9beb-a58f4f3e776d"}]},"request":{"method":"PUT","url":"MeasureReport/a67ed835-ef0c-4856-a49a-1d52b04ed52a"}},{"resource":{"resourceType":"Condition","id":"8b2dd535-b6fd-46df-9beb-a58f4f3e776d","meta":{"profile":["http://hl7.org/fhir/us/qicore/StructureDefinition/qicore-condition-problems-health-concerns"]},"clinicalStatus":{"coding":[{"system":"http://terminology.hl7.org/CodeSystem/condition-clinical","code":"active","display":"Active","userSelected":true}]},"verificationStatus":{"coding":[{"system":"http://terminology.hl7.org/CodeSystem/condition-ver-status","code":"unconfirmed"}]},"category":[{"coding":[{"system":"http://terminology.hl7.org/CodeSystem/condition-category","code":"problem-list-item","display":"Problem List Item","userSelected":true}]}],"code":{"coding":[{"system":"http://hl7.org/fhir/sid/icd-10-cm","code":"Z79.01","display":"Long term (current) use of anticoagulants","userSelected":true}]},"subject":{"reference":"Patient/765db4ae-8924-4673-87f6-03924b0fe23d"},"onsetDateTime":"2026-10-08T05:00:00.000+00:00"},"request":{"method":"PUT","url":"Condition/8b2dd535-b6fd-46df-9beb-a58f4f3e776d"}},{"resource":{"resourceType":"Encounter","id":"f2e3938a-016e-47e4-b862-40453ab479a1","meta":{"profile":["http://hl7.org/fhir/us/qicore/StructureDefinition/qicore-encounter"]},"status":"finished","class":{"system":"http://terminology.hl7.org/CodeSystem/v3-ActCode","code":"EMER","display":"emergency","userSelected":true},"type":[{"coding":[{"system":"http://snomed.info/sct","version":"2020-09","code":"4525004","display":"Emergency department patient visit","userSelected":true}]}],"subject":{"reference":"Patient/765db4ae-8924-4673-87f6-03924b0fe23d"},"period":{"start":"2026-10-09T05:00:00.000+00:00","end":"2026-10-13T17:00:00.000+00:00"},"reasonCode":[{"coding":[{"system":"http://hl7.org/fhir/sid/icd-10-cm","code":"I21.21","display":"ST elevation (STEMI) myocardial infarction involving left circumflex coronary artery","userSelected":true}]}]},"request":{"method":"PUT","url":"Encounter/f2e3938a-016e-47e4-b862-40453ab479a1"}},{"resource":{"resourceType":"Patient","id":"765db4ae-8924-4673-87f6-03924b0fe23d","meta":{"profile":["http://hl7.org/fhir/us/qicore/StructureDefinition/qicore-patient"]},"extension":[{"url":"http://hl7.org/fhir/us/core/StructureDefinition/us-core-race","extension":[{"url":"ombCategory","valueCoding":{"system":"urn:oid:2.16.840.1.113883.6.238","code":"1002-5","display":"American Indian or Alaska Native","userSelected":true}},{"url":"text","valueString":"American Indian or Alaska Native"}]},{"url":"http://hl7.org/fhir/us/core/StructureDefinition/us-core-ethnicity","extension":[{"url":"ombCategory","valueCoding":{"system":"urn:oid:2.16.840.1.113883.6.238","code":"2135-2","display":"Hispanic or Latino","userSelected":true}},{"url":"text","valueString":"Hispanic or Latino"}]},{"url":"http://hl7.org/fhir/us/core/StructureDefinition/us-core-sex","valueCode":"248153007"}],"identifier":[{"type":{"coding":[{"system":"http://terminology.hl7.org/CodeSystem/v2-0203","code":"MR"}]},"system":"https://bonnie-fhir.healthit.gov/","value":"sf044ef3e654daa9111"}],"name":[{"family":"DENEXCL6PASS","given":["LongTermAnticoagulantUseStartsDuringED"]}],"gender":"male","birthDate":"1976-08-25"},"request":{"method":"PUT","url":"Patient/765db4ae-8924-4673-87f6-03924b0fe23d"}}]}