{"resourceType":"Bundle","id":"tests-021fc428-e6c1-4c32-a27e-667cd272aa6d-bundle","type":"transaction","entry":[{"fullUrl":"Condition/13638a4c-21e8-40a6-907a-5c853b90c702","resource":{"resourceType":"Condition","id":"13638a4c-21e8-40a6-907a-5c853b90c702","meta":{"profile":["http://hl7.org/fhir/us/qicore/StructureDefinition/qicore-condition-encounter-diagnosis"]},"clinicalStatus":{"coding":[{"system":"http://terminology.hl7.org/CodeSystem/condition-clinical","code":"active","display":"Active","userSelected":true}]},"category":[{"coding":[{"system":"http://terminology.hl7.org/CodeSystem/condition-category","code":"encounter-diagnosis","display":"Encounter Diagnosis","userSelected":true}]}],"code":{"coding":[{"system":"http://hl7.org/fhir/sid/icd-10-cm","code":"I21.21","display":"ST elevation (STEMI) myocardial infarction involving left circumflex coronary artery","userSelected":true}]},"subject":{"reference":"Patient/021fc428-e6c1-4c32-a27e-667cd272aa6d"},"encounter":{"reference":"Encounter/e551c63b-455e-49b4-9c1a-8a7c4f7470e7"},"onsetPeriod":{"start":"2026-10-09T05:00:00.000+00:00","end":"2026-10-09T17:00:00.000+00:00"}},"request":{"method":"PUT","url":"Condition/13638a4c-21e8-40a6-907a-5c853b90c702"}},{"fullUrl":"Encounter/de4f0669-6bee-42b4-8d64-2de03eb4ffdf","resource":{"resourceType":"Encounter","id":"de4f0669-6bee-42b4-8d64-2de03eb4ffdf","meta":{"profile":["http://hl7.org/fhir/us/qicore/StructureDefinition/qicore-encounter"]},"status":"finished","class":{"system":"http://terminology.hl7.org/CodeSystem/v3-ActCode","code":"EMER","display":"emergency","userSelected":true},"type":[{"coding":[{"system":"http://snomed.info/sct","code":"32485007","display":"Hospital admission (procedure)","userSelected":true}]}],"subject":{"reference":"Patient/021fc428-e6c1-4c32-a27e-667cd272aa6d"},"period":{"start":"2026-08-12T05:00:00.000+00:00","end":"2026-08-19T12:00:00.000+00:00"},"hospitalization":{"dischargeDisposition":{"coding":[{"system":"http://snomed.info/sct","code":"428371000124100","display":"Discharge to healthcare facility for hospice care (procedure)","userSelected":true}]}}},"request":{"method":"PUT","url":"Encounter/de4f0669-6bee-42b4-8d64-2de03eb4ffdf"}},{"fullUrl":"MeasureReport/f73cb95a-5dab-4a0c-a350-eb72e3ffe5cf","resource":{"resourceType":"MeasureReport","id":"f73cb95a-5dab-4a0c-a350-eb72e3ffe5cf","meta":{"profile":["http://hl7.org/fhir/us/cqfmeasures/StructureDefinition/test-case-cqfm"]},"contained":[{"resourceType":"Parameters","id":"2fd91386-16c1-4d16-85e4-f3e172627db5-parameters","parameter":[{"name":"subject","valueString":"021fc428-e6c1-4c32-a27e-667cd272aa6d"}]}],"extension":[{"url":"http://hl7.org/fhir/StructureDefinition/cqf-inputParameters","valueReference":{"reference":"#2fd91386-16c1-4d16-85e4-f3e172627db5-parameters"}},{"url":"http://hl7.org/fhir/us/cqfmeasures/StructureDefinition/cqfm-testCaseDescription","valueMarkdown":"Patients has hospice discharge disposition (HCF) before ED"}],"modifierExtension":[{"url":"http://hl7.org/fhir/us/cqfmeasures/StructureDefinition/cqfm-isTestCase","valueBoolean":true}],"status":"complete","type":"individual","measure":"https://madie.cms.gov/Measure/CMS996FHIRAptTxforSTEMI","period":{"start":"2026-01-01","end":"2026-12-31"},"group":[{"id":"Group_1","population":[{"id":"InitialPopulation_1","code":{"coding":[{"system":"http://terminology.hl7.org/CodeSystem/measure-population","code":"initial-population","display":"Initial Population"}]},"count":1},{"id":"Denominator_1","code":{"coding":[{"system":"http://terminology.hl7.org/CodeSystem/measure-population","code":"denominator","display":"Denominator"}]},"count":1},{"id":"DenominatorExclusion_1","code":{"coding":[{"system":"http://terminology.hl7.org/CodeSystem/measure-population","code":"denominator-exclusion","display":"Denominator Exclusion"}]},"count":1},{"id":"Numerator_1","code":{"coding":[{"system":"http://terminology.hl7.org/CodeSystem/measure-population","code":"numerator","display":"Numerator"}]},"count":0},{"id":"DenominatorException_1","code":{"coding":[{"system":"http://terminology.hl7.org/CodeSystem/measure-population","code":"denominator-exception","display":"Denominator Exception"}]},"count":0}],"measureScore":{"value":0.0}}],"evaluatedResource":[{"reference":"Patient/021fc428-e6c1-4c32-a27e-667cd272aa6d"},{"reference":"Encounter/e551c63b-455e-49b4-9c1a-8a7c4f7470e7"},{"reference":"Encounter/de4f0669-6bee-42b4-8d64-2de03eb4ffdf"},{"reference":"Condition/13638a4c-21e8-40a6-907a-5c853b90c702"}]},"request":{"method":"PUT","url":"MeasureReport/f73cb95a-5dab-4a0c-a350-eb72e3ffe5cf"}},{"fullUrl":"Bundle/j1f044ef3e654daa9109","resource":{"resourceType":"Bundle","id":"j1f044ef3e654daa9109","type":"transaction","entry":[{"fullUrl":"https://madie.cms.gov/Patient/021fc428-e6c1-4c32-a27e-667cd272aa6d","resource":{"resourceType":"Patient","id":"021fc428-e6c1-4c32-a27e-667cd272aa6d","meta":{"profile":["http://hl7.org/fhir/us/qicore/StructureDefinition/qicore-patient"]},"extension":[{"url":"http://hl7.org/fhir/us/core/StructureDefinition/us-core-race","extension":[{"url":"ombCategory","valueCoding":{"system":"urn:oid:2.16.840.1.113883.6.238","code":"2028-9","display":"Asian","userSelected":true}},{"url":"text","valueString":"Asian"}]},{"url":"http://hl7.org/fhir/us/core/StructureDefinition/us-core-ethnicity","extension":[{"url":"ombCategory","valueCoding":{"system":"urn:oid:2.16.840.1.113883.6.238","code":"2186-5","display":"Not Hispanic or Latino","userSelected":true}},{"url":"text","valueString":"Not Hispanic or Latino"}]},{"url":"http://hl7.org/fhir/us/core/StructureDefinition/us-core-sex","valueCode":"248152002"}],"identifier":[{"type":{"coding":[{"system":"http://terminology.hl7.org/CodeSystem/v2-0203","code":"MR"}]},"system":"https://bonnie-fhir.healthit.gov/","value":"j1f044ef3e654daa9109"}],"name":[{"family":"DENEXCL11PASS","given":["HospiceFacilityDischargeDispositionBeforeED"]}],"gender":"female","birthDate":"1950-02-08"},"request":{"method":"PUT","url":"Patient/021fc428-e6c1-4c32-a27e-667cd272aa6d"}},{"fullUrl":"https://madie.cms.gov/Encounter/e551c63b-455e-49b4-9c1a-8a7c4f7470e7","resource":{"resourceType":"Encounter","id":"e551c63b-455e-49b4-9c1a-8a7c4f7470e7","meta":{"profile":["http://hl7.org/fhir/us/qicore/StructureDefinition/qicore-encounter"]},"status":"finished","class":{"system":"http://terminology.hl7.org/CodeSystem/v3-ActCode","code":"EMER","display":"emergency","userSelected":true},"type":[{"coding":[{"system":"http://snomed.info/sct","version":"2020-09","code":"4525004","display":"Emergency department patient visit","userSelected":true}]}],"subject":{"reference":"Patient/021fc428-e6c1-4c32-a27e-667cd272aa6d"},"period":{"start":"2026-10-09T05:00:00.000+00:00","end":"2026-10-13T17:00:00.000+00:00"},"reasonReference":[{"reference":"Condition/13638a4c-21e8-40a6-907a-5c853b90c702"}]},"request":{"method":"PUT","url":"Encounter/e551c63b-455e-49b4-9c1a-8a7c4f7470e7"}},{"fullUrl":"https://madie.cms.gov/Encounter/de4f0669-6bee-42b4-8d64-2de03eb4ffdf","resource":{"resourceType":"Encounter","id":"de4f0669-6bee-42b4-8d64-2de03eb4ffdf","meta":{"profile":["http://hl7.org/fhir/us/qicore/StructureDefinition/qicore-encounter"]},"status":"finished","class":{"system":"http://terminology.hl7.org/CodeSystem/v3-ActCode","code":"EMER","display":"emergency","userSelected":true},"type":[{"coding":[{"system":"http://snomed.info/sct","code":"32485007","display":"Hospital admission (procedure)","userSelected":true}]}],"subject":{"reference":"Patient/021fc428-e6c1-4c32-a27e-667cd272aa6d"},"period":{"start":"2026-08-12T05:00:00.000+00:00","end":"2026-08-19T12:00:00.000+00:00"},"hospitalization":{"dischargeDisposition":{"coding":[{"system":"http://snomed.info/sct","code":"428371000124100","display":"Discharge to healthcare facility for hospice care (procedure)","userSelected":true}]}}},"request":{"method":"PUT","url":"Encounter/de4f0669-6bee-42b4-8d64-2de03eb4ffdf"}},{"fullUrl":"https://madie.cms.gov/Condition/13638a4c-21e8-40a6-907a-5c853b90c702","resource":{"resourceType":"Condition","id":"13638a4c-21e8-40a6-907a-5c853b90c702","meta":{"profile":["http://hl7.org/fhir/us/qicore/StructureDefinition/qicore-condition-encounter-diagnosis"]},"clinicalStatus":{"coding":[{"system":"http://terminology.hl7.org/CodeSystem/condition-clinical","code":"active","display":"Active","userSelected":true}]},"category":[{"coding":[{"system":"http://terminology.hl7.org/CodeSystem/condition-category","code":"encounter-diagnosis","display":"Encounter Diagnosis","userSelected":true}]}],"code":{"coding":[{"system":"http://hl7.org/fhir/sid/icd-10-cm","code":"I21.21","display":"ST elevation (STEMI) myocardial infarction involving left circumflex coronary artery","userSelected":true}]},"subject":{"reference":"Patient/021fc428-e6c1-4c32-a27e-667cd272aa6d"},"encounter":{"reference":"Encounter/e551c63b-455e-49b4-9c1a-8a7c4f7470e7"},"onsetPeriod":{"start":"2026-10-09T05:00:00.000+00:00","end":"2026-10-09T17:00:00.000+00:00"}},"request":{"method":"PUT","url":"Condition/13638a4c-21e8-40a6-907a-5c853b90c702"}},{"fullUrl":"https://madie.cms.gov/MeasureReport/f73cb95a-5dab-4a0c-a350-eb72e3ffe5cf","resource":{"resourceType":"MeasureReport","id":"f73cb95a-5dab-4a0c-a350-eb72e3ffe5cf","meta":{"profile":["http://hl7.org/fhir/us/cqfmeasures/StructureDefinition/test-case-cqfm"]},"contained":[{"resourceType":"Parameters","id":"2fd91386-16c1-4d16-85e4-f3e172627db5-parameters","parameter":[{"name":"subject","valueString":"021fc428-e6c1-4c32-a27e-667cd272aa6d"}]}],"extension":[{"url":"http://hl7.org/fhir/StructureDefinition/cqf-inputParameters","valueReference":{"reference":"#2fd91386-16c1-4d16-85e4-f3e172627db5-parameters"}},{"url":"http://hl7.org/fhir/us/cqfmeasures/StructureDefinition/cqfm-testCaseDescription","valueMarkdown":"Patients has hospice discharge disposition (HCF) before ED"}],"modifierExtension":[{"url":"http://hl7.org/fhir/us/cqfmeasures/StructureDefinition/cqfm-isTestCase","valueBoolean":true}],"status":"complete","type":"individual","measure":"https://madie.cms.gov/Measure/CMS996FHIRAptTxforSTEMI","period":{"start":"2026-01-01","end":"2026-12-31"},"group":[{"id":"Group_1","population":[{"id":"InitialPopulation_1","code":{"coding":[{"system":"http://terminology.hl7.org/CodeSystem/measure-population","code":"initial-population","display":"Initial Population"}]},"count":1},{"id":"Denominator_1","code":{"coding":[{"system":"http://terminology.hl7.org/CodeSystem/measure-population","code":"denominator","display":"Denominator"}]},"count":1},{"id":"DenominatorExclusion_1","code":{"coding":[{"system":"http://terminology.hl7.org/CodeSystem/measure-population","code":"denominator-exclusion","display":"Denominator Exclusion"}]},"count":1},{"id":"Numerator_1","code":{"coding":[{"system":"http://terminology.hl7.org/CodeSystem/measure-population","code":"numerator","display":"Numerator"}]},"count":0},{"id":"DenominatorException_1","code":{"coding":[{"system":"http://terminology.hl7.org/CodeSystem/measure-population","code":"denominator-exception","display":"Denominator Exception"}]},"count":0}],"measureScore":{"value":0.0}}],"evaluatedResource":[{"reference":"Patient/021fc428-e6c1-4c32-a27e-667cd272aa6d"},{"reference":"Encounter/e551c63b-455e-49b4-9c1a-8a7c4f7470e7"},{"reference":"Encounter/de4f0669-6bee-42b4-8d64-2de03eb4ffdf"},{"reference":"Condition/13638a4c-21e8-40a6-907a-5c853b90c702"}]},"request":{"method":"PUT","url":"MeasureReport/f73cb95a-5dab-4a0c-a350-eb72e3ffe5cf"}}]},"request":{"method":"PUT","url":"Bundle/j1f044ef3e654daa9109"}},{"fullUrl":"Patient/021fc428-e6c1-4c32-a27e-667cd272aa6d","resource":{"resourceType":"Patient","id":"021fc428-e6c1-4c32-a27e-667cd272aa6d","meta":{"profile":["http://hl7.org/fhir/us/qicore/StructureDefinition/qicore-patient"]},"extension":[{"url":"http://hl7.org/fhir/us/core/StructureDefinition/us-core-race","extension":[{"url":"ombCategory","valueCoding":{"system":"urn:oid:2.16.840.1.113883.6.238","code":"2028-9","display":"Asian","userSelected":true}},{"url":"text","valueString":"Asian"}]},{"url":"http://hl7.org/fhir/us/core/StructureDefinition/us-core-ethnicity","extension":[{"url":"ombCategory","valueCoding":{"system":"urn:oid:2.16.840.1.113883.6.238","code":"2186-5","display":"Not Hispanic or Latino","userSelected":true}},{"url":"text","valueString":"Not Hispanic or Latino"}]},{"url":"http://hl7.org/fhir/us/core/StructureDefinition/us-core-sex","valueCode":"248152002"}],"identifier":[{"type":{"coding":[{"system":"http://terminology.hl7.org/CodeSystem/v2-0203","code":"MR"}]},"system":"https://bonnie-fhir.healthit.gov/","value":"j1f044ef3e654daa9109"}],"name":[{"family":"DENEXCL11PASS","given":["HospiceFacilityDischargeDispositionBeforeED"]}],"gender":"female","birthDate":"1950-02-08"},"request":{"method":"PUT","url":"Patient/021fc428-e6c1-4c32-a27e-667cd272aa6d"}},{"fullUrl":"Encounter/e551c63b-455e-49b4-9c1a-8a7c4f7470e7","resource":{"resourceType":"Encounter","id":"e551c63b-455e-49b4-9c1a-8a7c4f7470e7","meta":{"profile":["http://hl7.org/fhir/us/qicore/StructureDefinition/qicore-encounter"]},"status":"finished","class":{"system":"http://terminology.hl7.org/CodeSystem/v3-ActCode","code":"EMER","display":"emergency","userSelected":true},"type":[{"coding":[{"system":"http://snomed.info/sct","version":"2020-09","code":"4525004","display":"Emergency department patient visit","userSelected":true}]}],"subject":{"reference":"Patient/021fc428-e6c1-4c32-a27e-667cd272aa6d"},"period":{"start":"2026-10-09T05:00:00.000+00:00","end":"2026-10-13T17:00:00.000+00:00"},"reasonReference":[{"reference":"Condition/13638a4c-21e8-40a6-907a-5c853b90c702"}]},"request":{"method":"PUT","url":"Encounter/e551c63b-455e-49b4-9c1a-8a7c4f7470e7"}}]}