{"resourceType":"Bundle","id":"tests-206ebb0e-c9b8-42b7-843e-ef1fe0d7ade9-bundle","type":"transaction","entry":[{"fullUrl":"Encounter/4a306db6-55f6-47e8-b0a7-1e814350a315","resource":{"resourceType":"Encounter","id":"4a306db6-55f6-47e8-b0a7-1e814350a315","meta":{"profile":["http://hl7.org/fhir/us/qicore/StructureDefinition/qicore-encounter"]},"status":"finished","class":{"system":"http://terminology.hl7.org/CodeSystem/v3-ActCode","code":"EMER","display":"emergency","userSelected":true},"type":[{"coding":[{"system":"http://snomed.info/sct","version":"2020-09","code":"4525004","display":"Emergency department patient visit (procedure)","userSelected":true}]}],"subject":{"reference":"Patient/206ebb0e-c9b8-42b7-843e-ef1fe0d7ade9"},"period":{"start":"2026-10-09T08:05:00.000+00:00","end":"2026-10-10T07:15:00.000+00:00"},"reasonReference":[{"reference":"Condition/95b2438a-c8f3-41f5-842d-fc34fbb37ea2"}]},"request":{"method":"PUT","url":"Encounter/4a306db6-55f6-47e8-b0a7-1e814350a315"}},{"fullUrl":"Condition/66b1bd64-0709-4947-bf4c-5c0d385e2789","resource":{"resourceType":"Condition","id":"66b1bd64-0709-4947-bf4c-5c0d385e2789","meta":{"profile":["http://hl7.org/fhir/us/qicore/StructureDefinition/qicore-condition-problems-health-concerns"]},"clinicalStatus":{"coding":[{"system":"http://terminology.hl7.org/CodeSystem/condition-clinical","version":"4.0.1","code":"inactive","display":"Inactive","userSelected":true}]},"verificationStatus":{"coding":[{"system":"http://terminology.hl7.org/CodeSystem/condition-ver-status","code":"provisional"}]},"category":[{"coding":[{"system":"http://terminology.hl7.org/CodeSystem/condition-category","code":"problem-list-item","display":"Problem List Item","userSelected":true}]}],"code":{"coding":[{"system":"http://snomed.info/sct","version":"2023-03","code":"110030002","display":"Concussion injury of brain (disorder)","userSelected":true}]},"subject":{"reference":"Patient/206ebb0e-c9b8-42b7-843e-ef1fe0d7ade9"},"onsetDateTime":"2026-08-20T08:00:00.000+00:00","abatementDateTime":"2026-10-10T06:07:00.000+00:00"},"request":{"method":"PUT","url":"Condition/66b1bd64-0709-4947-bf4c-5c0d385e2789"}},{"fullUrl":"MeasureReport/fe86d3f5-6a3b-4be4-8838-72d8b7719406","resource":{"resourceType":"MeasureReport","id":"fe86d3f5-6a3b-4be4-8838-72d8b7719406","meta":{"profile":["http://hl7.org/fhir/us/cqfmeasures/StructureDefinition/test-case-cqfm"]},"contained":[{"resourceType":"Parameters","id":"fe696fc6-78c2-48ea-a53e-762203a88f22-parameters","parameter":[{"name":"subject","valueString":"206ebb0e-c9b8-42b7-843e-ef1fe0d7ade9"}]}],"extension":[{"url":"http://hl7.org/fhir/StructureDefinition/cqf-inputParameters","valueReference":{"reference":"#fe696fc6-78c2-48ea-a53e-762203a88f22-parameters"}},{"url":"http://hl7.org/fhir/us/cqfmeasures/StructureDefinition/cqfm-testCaseDescription","valueMarkdown":"Patient has closed head trauma (exclusion diagnosis) starts during 90 day period and ends during ED"}],"modifierExtension":[{"url":"http://hl7.org/fhir/us/cqfmeasures/StructureDefinition/cqfm-isTestCase","valueBoolean":true}],"status":"complete","type":"individual","measure":"https://madie.cms.gov/Measure/CMS996FHIRAptTxforSTEMI","period":{"start":"2026-01-01","end":"2026-12-31"},"group":[{"id":"Group_1","population":[{"id":"InitialPopulation_1","code":{"coding":[{"system":"http://terminology.hl7.org/CodeSystem/measure-population","code":"initial-population","display":"Initial Population"}]},"count":1},{"id":"Denominator_1","code":{"coding":[{"system":"http://terminology.hl7.org/CodeSystem/measure-population","code":"denominator","display":"Denominator"}]},"count":1},{"id":"DenominatorExclusion_1","code":{"coding":[{"system":"http://terminology.hl7.org/CodeSystem/measure-population","code":"denominator-exclusion","display":"Denominator Exclusion"}]},"count":1},{"id":"Numerator_1","code":{"coding":[{"system":"http://terminology.hl7.org/CodeSystem/measure-population","code":"numerator","display":"Numerator"}]},"count":0},{"id":"DenominatorException_1","code":{"coding":[{"system":"http://terminology.hl7.org/CodeSystem/measure-population","code":"denominator-exception","display":"Denominator Exception"}]},"count":0}],"measureScore":{"value":0.0}}],"evaluatedResource":[{"reference":"Patient/206ebb0e-c9b8-42b7-843e-ef1fe0d7ade9"},{"reference":"Encounter/4a306db6-55f6-47e8-b0a7-1e814350a315"},{"reference":"Condition/95b2438a-c8f3-41f5-842d-fc34fbb37ea2"},{"reference":"Condition/66b1bd64-0709-4947-bf4c-5c0d385e2789"}]},"request":{"method":"PUT","url":"MeasureReport/fe86d3f5-6a3b-4be4-8838-72d8b7719406"}},{"fullUrl":"Patient/206ebb0e-c9b8-42b7-843e-ef1fe0d7ade9","resource":{"resourceType":"Patient","id":"206ebb0e-c9b8-42b7-843e-ef1fe0d7ade9","meta":{"profile":["http://hl7.org/fhir/us/qicore/StructureDefinition/qicore-patient"]},"extension":[{"url":"http://hl7.org/fhir/us/core/StructureDefinition/us-core-race","extension":[{"url":"ombCategory","valueCoding":{"system":"urn:oid:2.16.840.1.113883.6.238","code":"2028-9","display":"Asian","userSelected":true}},{"url":"text","valueString":"Asian"}]},{"url":"http://hl7.org/fhir/us/core/StructureDefinition/us-core-ethnicity","extension":[{"url":"ombCategory","valueCoding":{"system":"urn:oid:2.16.840.1.113883.6.238","code":"2186-5","display":"Not Hispanic or Latino","userSelected":true}},{"url":"text","valueString":"Not Hispanic or Latino"}]},{"url":"http://hl7.org/fhir/us/core/StructureDefinition/us-core-sex","valueCode":"248152002"}],"identifier":[{"type":{"coding":[{"system":"http://terminology.hl7.org/CodeSystem/v2-0203","code":"MR"}]},"system":"https://bonnie-fhir.healthit.gov/","value":"617bf0461619a529957d62c1"}],"name":[{"family":"DenExcl7Pass","given":["DxStartsDuring90dayPeriodEndsDuringED"]}],"gender":"female","birthDate":"1985-12-02"},"request":{"method":"PUT","url":"Patient/206ebb0e-c9b8-42b7-843e-ef1fe0d7ade9"}},{"fullUrl":"Condition/95b2438a-c8f3-41f5-842d-fc34fbb37ea2","resource":{"resourceType":"Condition","id":"95b2438a-c8f3-41f5-842d-fc34fbb37ea2","meta":{"profile":["http://hl7.org/fhir/us/qicore/StructureDefinition/qicore-condition-problems-health-concerns"]},"clinicalStatus":{"coding":[{"system":"http://terminology.hl7.org/CodeSystem/condition-clinical","code":"active","display":"active","userSelected":true}]},"category":[{"coding":[{"system":"http://terminology.hl7.org/CodeSystem/condition-category","code":"problem-list-item","display":"Problem List Item","userSelected":true}]}],"code":{"coding":[{"system":"http://snomed.info/sct","version":"2020-09","code":"401303003","display":"Acute ST segment elevation myocardial infarction (disorder)","userSelected":true}]},"subject":{"reference":"Patient/206ebb0e-c9b8-42b7-843e-ef1fe0d7ade9"},"onsetDateTime":"2026-10-09T08:30:00.000+00:00"},"request":{"method":"PUT","url":"Condition/95b2438a-c8f3-41f5-842d-fc34fbb37ea2"}},{"fullUrl":"Bundle/617bf0461619a529957d62c1","resource":{"resourceType":"Bundle","id":"617bf0461619a529957d62c1","type":"transaction","entry":[{"fullUrl":"https://madie.cms.gov/Patient/206ebb0e-c9b8-42b7-843e-ef1fe0d7ade9","resource":{"resourceType":"Patient","id":"206ebb0e-c9b8-42b7-843e-ef1fe0d7ade9","meta":{"profile":["http://hl7.org/fhir/us/qicore/StructureDefinition/qicore-patient"]},"extension":[{"url":"http://hl7.org/fhir/us/core/StructureDefinition/us-core-race","extension":[{"url":"ombCategory","valueCoding":{"system":"urn:oid:2.16.840.1.113883.6.238","code":"2028-9","display":"Asian","userSelected":true}},{"url":"text","valueString":"Asian"}]},{"url":"http://hl7.org/fhir/us/core/StructureDefinition/us-core-ethnicity","extension":[{"url":"ombCategory","valueCoding":{"system":"urn:oid:2.16.840.1.113883.6.238","code":"2186-5","display":"Not Hispanic or Latino","userSelected":true}},{"url":"text","valueString":"Not Hispanic or Latino"}]},{"url":"http://hl7.org/fhir/us/core/StructureDefinition/us-core-sex","valueCode":"248152002"}],"identifier":[{"type":{"coding":[{"system":"http://terminology.hl7.org/CodeSystem/v2-0203","code":"MR"}]},"system":"https://bonnie-fhir.healthit.gov/","value":"617bf0461619a529957d62c1"}],"name":[{"family":"DenExcl7Pass","given":["DxStartsDuring90dayPeriodEndsDuringED"]}],"gender":"female","birthDate":"1985-12-02"},"request":{"method":"PUT","url":"Patient/206ebb0e-c9b8-42b7-843e-ef1fe0d7ade9"}},{"fullUrl":"https://madie.cms.gov/Encounter/4a306db6-55f6-47e8-b0a7-1e814350a315","resource":{"resourceType":"Encounter","id":"4a306db6-55f6-47e8-b0a7-1e814350a315","meta":{"profile":["http://hl7.org/fhir/us/qicore/StructureDefinition/qicore-encounter"]},"status":"finished","class":{"system":"http://terminology.hl7.org/CodeSystem/v3-ActCode","code":"EMER","display":"emergency","userSelected":true},"type":[{"coding":[{"system":"http://snomed.info/sct","version":"2020-09","code":"4525004","display":"Emergency department patient visit (procedure)","userSelected":true}]}],"subject":{"reference":"Patient/206ebb0e-c9b8-42b7-843e-ef1fe0d7ade9"},"period":{"start":"2026-10-09T08:05:00.000+00:00","end":"2026-10-10T07:15:00.000+00:00"},"reasonReference":[{"reference":"Condition/95b2438a-c8f3-41f5-842d-fc34fbb37ea2"}]},"request":{"method":"PUT","url":"Encounter/4a306db6-55f6-47e8-b0a7-1e814350a315"}},{"fullUrl":"https://madie.cms.gov/Condition/95b2438a-c8f3-41f5-842d-fc34fbb37ea2","resource":{"resourceType":"Condition","id":"95b2438a-c8f3-41f5-842d-fc34fbb37ea2","meta":{"profile":["http://hl7.org/fhir/us/qicore/StructureDefinition/qicore-condition-problems-health-concerns"]},"clinicalStatus":{"coding":[{"system":"http://terminology.hl7.org/CodeSystem/condition-clinical","code":"active","display":"active","userSelected":true}]},"category":[{"coding":[{"system":"http://terminology.hl7.org/CodeSystem/condition-category","code":"problem-list-item","display":"Problem List Item","userSelected":true}]}],"code":{"coding":[{"system":"http://snomed.info/sct","version":"2020-09","code":"401303003","display":"Acute ST segment elevation myocardial infarction (disorder)","userSelected":true}]},"subject":{"reference":"Patient/206ebb0e-c9b8-42b7-843e-ef1fe0d7ade9"},"onsetDateTime":"2026-10-09T08:30:00.000+00:00"},"request":{"method":"PUT","url":"Condition/95b2438a-c8f3-41f5-842d-fc34fbb37ea2"}},{"fullUrl":"https://madie.cms.gov/Condition/66b1bd64-0709-4947-bf4c-5c0d385e2789","resource":{"resourceType":"Condition","id":"66b1bd64-0709-4947-bf4c-5c0d385e2789","meta":{"profile":["http://hl7.org/fhir/us/qicore/StructureDefinition/qicore-condition-problems-health-concerns"]},"clinicalStatus":{"coding":[{"system":"http://terminology.hl7.org/CodeSystem/condition-clinical","version":"4.0.1","code":"inactive","display":"Inactive","userSelected":true}]},"verificationStatus":{"coding":[{"system":"http://terminology.hl7.org/CodeSystem/condition-ver-status","code":"provisional"}]},"category":[{"coding":[{"system":"http://terminology.hl7.org/CodeSystem/condition-category","code":"problem-list-item","display":"Problem List Item","userSelected":true}]}],"code":{"coding":[{"system":"http://snomed.info/sct","version":"2023-03","code":"110030002","display":"Concussion injury of brain (disorder)","userSelected":true}]},"subject":{"reference":"Patient/206ebb0e-c9b8-42b7-843e-ef1fe0d7ade9"},"onsetDateTime":"2026-08-20T08:00:00.000+00:00","abatementDateTime":"2026-10-10T06:07:00.000+00:00"},"request":{"method":"PUT","url":"Condition/66b1bd64-0709-4947-bf4c-5c0d385e2789"}},{"fullUrl":"https://madie.cms.gov/MeasureReport/fe86d3f5-6a3b-4be4-8838-72d8b7719406","resource":{"resourceType":"MeasureReport","id":"fe86d3f5-6a3b-4be4-8838-72d8b7719406","meta":{"profile":["http://hl7.org/fhir/us/cqfmeasures/StructureDefinition/test-case-cqfm"]},"contained":[{"resourceType":"Parameters","id":"fe696fc6-78c2-48ea-a53e-762203a88f22-parameters","parameter":[{"name":"subject","valueString":"206ebb0e-c9b8-42b7-843e-ef1fe0d7ade9"}]}],"extension":[{"url":"http://hl7.org/fhir/StructureDefinition/cqf-inputParameters","valueReference":{"reference":"#fe696fc6-78c2-48ea-a53e-762203a88f22-parameters"}},{"url":"http://hl7.org/fhir/us/cqfmeasures/StructureDefinition/cqfm-testCaseDescription","valueMarkdown":"Patient has closed head trauma (exclusion diagnosis) starts during 90 day period and ends during ED"}],"modifierExtension":[{"url":"http://hl7.org/fhir/us/cqfmeasures/StructureDefinition/cqfm-isTestCase","valueBoolean":true}],"status":"complete","type":"individual","measure":"https://madie.cms.gov/Measure/CMS996FHIRAptTxforSTEMI","period":{"start":"2026-01-01","end":"2026-12-31"},"group":[{"id":"Group_1","population":[{"id":"InitialPopulation_1","code":{"coding":[{"system":"http://terminology.hl7.org/CodeSystem/measure-population","code":"initial-population","display":"Initial Population"}]},"count":1},{"id":"Denominator_1","code":{"coding":[{"system":"http://terminology.hl7.org/CodeSystem/measure-population","code":"denominator","display":"Denominator"}]},"count":1},{"id":"DenominatorExclusion_1","code":{"coding":[{"system":"http://terminology.hl7.org/CodeSystem/measure-population","code":"denominator-exclusion","display":"Denominator Exclusion"}]},"count":1},{"id":"Numerator_1","code":{"coding":[{"system":"http://terminology.hl7.org/CodeSystem/measure-population","code":"numerator","display":"Numerator"}]},"count":0},{"id":"DenominatorException_1","code":{"coding":[{"system":"http://terminology.hl7.org/CodeSystem/measure-population","code":"denominator-exception","display":"Denominator Exception"}]},"count":0}],"measureScore":{"value":0.0}}],"evaluatedResource":[{"reference":"Patient/206ebb0e-c9b8-42b7-843e-ef1fe0d7ade9"},{"reference":"Encounter/4a306db6-55f6-47e8-b0a7-1e814350a315"},{"reference":"Condition/95b2438a-c8f3-41f5-842d-fc34fbb37ea2"},{"reference":"Condition/66b1bd64-0709-4947-bf4c-5c0d385e2789"}]},"request":{"method":"PUT","url":"MeasureReport/fe86d3f5-6a3b-4be4-8838-72d8b7719406"}}]},"request":{"method":"PUT","url":"Bundle/617bf0461619a529957d62c1"}}]}