{
  "resourceType": "Bundle",
  "id": "DENEXPass-ESRDEncDuringMP",
  "type": "transaction",
  "entry": [ {
    "fullUrl": "https://madie.cms.gov/Patient/78fc0433-a72a-45a3-b2c4-995e614674cb",
    "resource": {
      "resourceType": "Patient",
      "id": "78fc0433-a72a-45a3-b2c4-995e614674cb",
      "meta": {
        "profile": [ "http://hl7.org/fhir/us/qicore/StructureDefinition/qicore-patient" ]
      },
      "extension": [ {
        "url": "http://hl7.org/fhir/us/core/StructureDefinition/us-core-race",
        "extension": [ {
          "url": "ombCategory",
          "valueCoding": {
            "system": "urn:oid:2.16.840.1.113883.6.238",
            "code": "2028-9",
            "display": "Asian"
          }
        }, {
          "url": "text",
          "valueString": "Asian"
        } ]
      }, {
        "url": "http://hl7.org/fhir/us/core/StructureDefinition/us-core-ethnicity",
        "extension": [ {
          "url": "ombCategory",
          "valueCoding": {
            "system": "urn:oid:2.16.840.1.113883.6.238",
            "code": "2135-2",
            "display": "Hispanic or Latino"
          }
        }, {
          "url": "text",
          "valueString": "Hispanic or Latino"
        } ]
      } ],
      "identifier": [ {
        "system": "http://hospital.smarthealthit.org",
        "value": "999999995"
      } ],
      "name": [ {
        "family": "DENEXPass",
        "given": [ "ESRDEncDuringMP" ]
      } ],
      "gender": "female",
      "birthDate": "2007-12-31"
    },
    "request": {
      "method": "PUT",
      "url": "Patient/78fc0433-a72a-45a3-b2c4-995e614674cb"
    }
  }, {
    "fullUrl": "https://madie.cms.gov/Encounter/c7df0988-1d1b-4caf-8456-65e96287400b",
    "resource": {
      "resourceType": "Encounter",
      "id": "c7df0988-1d1b-4caf-8456-65e96287400b",
      "meta": {
        "profile": [ "http://hl7.org/fhir/us/qicore/StructureDefinition/qicore-encounter" ]
      },
      "status": "finished",
      "class": {
        "system": "http://terminology.hl7.org/CodeSystem/v3-ActCode",
        "code": "AMB",
        "display": "ambulatory"
      },
      "type": [ {
        "coding": [ {
          "system": "http://snomed.info/sct",
          "code": "3391000175108",
          "display": "Office visit for pediatric care and assessment (procedure)"
        } ]
      } ],
      "subject": {
        "reference": "Patient/78fc0433-a72a-45a3-b2c4-995e614674cb"
      },
      "period": {
        "start": "2026-01-01T00:00:00.000+00:00",
        "end": "2026-01-01T01:00:00.000+00:00"
      }
    },
    "request": {
      "method": "PUT",
      "url": "Encounter/c7df0988-1d1b-4caf-8456-65e96287400b"
    }
  }, {
    "fullUrl": "https://madie.cms.gov/Condition/7e3de995-c445-46b2-9642-5782652d8291",
    "resource": {
      "resourceType": "Condition",
      "id": "7e3de995-c445-46b2-9642-5782652d8291",
      "meta": {
        "profile": [ "http://hl7.org/fhir/us/qicore/StructureDefinition/qicore-condition-encounter-diagnosis" ]
      },
      "clinicalStatus": {
        "coding": [ {
          "system": "http://terminology.hl7.org/CodeSystem/condition-clinical",
          "code": "active"
        } ]
      },
      "category": [ {
        "coding": [ {
          "system": "http://terminology.hl7.org/CodeSystem/condition-category",
          "code": "encounter-diagnosis",
          "display": "Encounter Diagnosis"
        } ]
      } ],
      "code": {
        "coding": [ {
          "system": "http://snomed.info/sct",
          "code": "371125006",
          "display": "Labile essential hypertension (disorder)"
        } ]
      },
      "subject": {
        "reference": "Patient/78fc0433-a72a-45a3-b2c4-995e614674cb"
      },
      "onsetDateTime": "2026-06-30T23:59:59.000+00:00"
    },
    "request": {
      "method": "PUT",
      "url": "Condition/7e3de995-c445-46b2-9642-5782652d8291"
    }
  }, {
    "fullUrl": "https://madie.cms.gov/Encounter/c7df0988-1d1b-4caf-8456-65e96287400b-0",
    "resource": {
      "resourceType": "Encounter",
      "id": "c7df0988-1d1b-4caf-8456-65e96287400b-0",
      "meta": {
        "profile": [ "http://hl7.org/fhir/us/qicore/StructureDefinition/qicore-encounter" ]
      },
      "status": "finished",
      "class": {
        "system": "http://terminology.hl7.org/CodeSystem/v3-ActCode",
        "code": "AMB",
        "display": "ambulatory"
      },
      "type": [ {
        "coding": [ {
          "system": "http://www.ama-assn.org/go/cpt",
          "code": "90999",
          "display": "Unlisted dialysis procedure, inpatient or outpatient"
        } ]
      } ],
      "subject": {
        "reference": "Patient/78fc0433-a72a-45a3-b2c4-995e614674cb"
      },
      "period": {
        "start": "2026-01-01T00:00:00.000+00:00",
        "end": "2026-01-01T01:00:00.000+00:00"
      }
    },
    "request": {
      "method": "PUT",
      "url": "Encounter/c7df0988-1d1b-4caf-8456-65e96287400b-0"
    }
  }, {
    "fullUrl": "https://madie.cms.gov/MeasureReport/db545ef4-d3c9-4e99-8f42-861ff59f33d3",
    "resource": {
      "resourceType": "MeasureReport",
      "id": "db545ef4-d3c9-4e99-8f42-861ff59f33d3",
      "meta": {
        "profile": [ "http://hl7.org/fhir/us/cqfmeasures/StructureDefinition/test-case-cqfm" ]
      },
      "contained": [ {
        "resourceType": "Parameters",
        "id": "c24a84b3-2131-4c8f-b49d-c9a585e1e4b8-parameters",
        "parameter": [ {
          "name": "subject",
          "valueString": "78fc0433-a72a-45a3-b2c4-995e614674cb"
        } ]
      } ],
      "extension": [ {
        "url": "http://hl7.org/fhir/StructureDefinition/cqf-inputParameters",
        "valueReference": {
          "reference": "#c24a84b3-2131-4c8f-b49d-c9a585e1e4b8-parameters"
        }
      }, {
        "url": "http://hl7.org/fhir/us/cqfmeasures/StructureDefinition/cqfm-testCaseDescription",
        "valueMarkdown": "ESRD encounter during MP"
      } ],
      "modifierExtension": [ {
        "url": "http://hl7.org/fhir/us/cqfmeasures/StructureDefinition/cqfm-isTestCase",
        "valueBoolean": true
      } ],
      "status": "complete",
      "type": "individual",
      "measure": "https://madie.cms.gov/Measure/CMS165FHIRControllingHighBloodPressure",
      "period": {
        "start": "2026-01-01",
        "end": "2026-12-31"
      },
      "group": [ {
        "id": "Group_1",
        "population": [ {
          "id": "InitialPopulation_1",
          "code": {
            "coding": [ {
              "system": "http://terminology.hl7.org/CodeSystem/measure-population",
              "code": "initial-population",
              "display": "Initial Population"
            } ]
          },
          "count": 1
        }, {
          "id": "Denominator_1",
          "code": {
            "coding": [ {
              "system": "http://terminology.hl7.org/CodeSystem/measure-population",
              "code": "denominator",
              "display": "Denominator"
            } ]
          },
          "count": 1
        }, {
          "id": "DenominatorExclusion_1",
          "code": {
            "coding": [ {
              "system": "http://terminology.hl7.org/CodeSystem/measure-population",
              "code": "denominator-exclusion",
              "display": "Denominator Exclusion"
            } ]
          },
          "count": 1
        }, {
          "id": "Numerator_1",
          "code": {
            "coding": [ {
              "system": "http://terminology.hl7.org/CodeSystem/measure-population",
              "code": "numerator",
              "display": "Numerator"
            } ]
          },
          "count": 0
        } ],
        "measureScore": {
          "value": 1.0
        }
      } ],
      "evaluatedResource": [ {
        "reference": "Patient/78fc0433-a72a-45a3-b2c4-995e614674cb"
      }, {
        "reference": "Encounter/c7df0988-1d1b-4caf-8456-65e96287400b"
      }, {
        "reference": "Condition/7e3de995-c445-46b2-9642-5782652d8291"
      }, {
        "reference": "Encounter/c7df0988-1d1b-4caf-8456-65e96287400b-0"
      } ]
    },
    "request": {
      "method": "PUT",
      "url": "MeasureReport/db545ef4-d3c9-4e99-8f42-861ff59f33d3"
    }
  } ]
}