{
  "resourceType": "Bundle",
  "id": "62a89f7131a203bdc723752b",
  "type": "transaction",
  "entry": [ {
    "fullUrl": "https://madie.cms.gov/Patient/4d7a04b3-91ed-4035-85ef-0728bdf818ef",
    "resource": {
      "resourceType": "Patient",
      "id": "4d7a04b3-91ed-4035-85ef-0728bdf818ef",
      "meta": {
        "profile": [ "http://hl7.org/fhir/us/qicore/StructureDefinition/qicore-patient" ]
      },
      "extension": [ {
        "url": "http://hl7.org/fhir/us/core/StructureDefinition/us-core-race",
        "extension": [ {
          "url": "ombCategory",
          "valueCoding": {
            "system": "urn:oid:2.16.840.1.113883.6.238",
            "code": "2028-9",
            "display": "Asian"
          }
        }, {
          "url": "text",
          "valueString": "Asian"
        } ]
      }, {
        "url": "http://hl7.org/fhir/us/core/StructureDefinition/us-core-ethnicity",
        "extension": [ {
          "url": "ombCategory",
          "valueCoding": {
            "system": "urn:oid:2.16.840.1.113883.6.238",
            "code": "2186-5",
            "display": "Non Hispanic or Latino"
          }
        }, {
          "url": "text",
          "valueString": "Non Hispanic or Latino"
        } ]
      } ],
      "identifier": [ {
        "type": {
          "coding": [ {
            "system": "http://terminology.hl7.org/CodeSystem/v2-0203",
            "code": "MR"
          } ]
        },
        "system": "https://myGoodHealthCare.com/",
        "value": "41654161684974312"
      } ],
      "name": [ {
        "family": "IPPass",
        "given": [ "BPHDxStatusInactive" ]
      } ],
      "gender": "male",
      "birthDate": "1983-12-01"
    },
    "request": {
      "method": "PUT",
      "url": "Patient/4d7a04b3-91ed-4035-85ef-0728bdf818ef"
    }
  }, {
    "fullUrl": "https://madie.cms.gov/Encounter/d21ea650-3db8-4335-b5ec-a28cbb643637",
    "resource": {
      "resourceType": "Encounter",
      "id": "d21ea650-3db8-4335-b5ec-a28cbb643637",
      "meta": {
        "profile": [ "http://hl7.org/fhir/us/qicore/StructureDefinition/qicore-encounter" ]
      },
      "status": "finished",
      "class": {
        "system": "http://terminology.hl7.org/CodeSystem/v3-ActCode",
        "code": "AMB",
        "display": "ambulatory"
      },
      "type": [ {
        "coding": [ {
          "system": "http://snomed.info/sct",
          "version": "http://snomed.info/sct/731000124108/version/20230301",
          "code": "185465003",
          "display": "Weekend visit (procedure)"
        } ]
      } ],
      "subject": {
        "reference": "Patient/4d7a04b3-91ed-4035-85ef-0728bdf818ef"
      },
      "period": {
        "start": "2026-07-01T08:00:00.000+00:00",
        "end": "2026-07-01T09:15:00.000+00:00"
      }
    },
    "request": {
      "method": "PUT",
      "url": "Encounter/d21ea650-3db8-4335-b5ec-a28cbb643637"
    }
  }, {
    "fullUrl": "https://madie.cms.gov/Condition/8d6a7215-f226-47d6-b160-5cd60e55906b",
    "resource": {
      "resourceType": "Condition",
      "id": "8d6a7215-f226-47d6-b160-5cd60e55906b",
      "meta": {
        "profile": [ "http://hl7.org/fhir/us/qicore/StructureDefinition/qicore-condition-problems-health-concerns" ]
      },
      "clinicalStatus": {
        "coding": [ {
          "system": "http://terminology.hl7.org/CodeSystem/condition-clinical",
          "code": "inactive",
          "display": "Inactive"
        } ]
      },
      "verificationStatus": {
        "coding": [ {
          "system": "http://terminology.hl7.org/CodeSystem/condition-ver-status",
          "code": "confirmed",
          "display": "Confirmed"
        } ]
      },
      "category": [ {
        "coding": [ {
          "system": "http://terminology.hl7.org/CodeSystem/condition-category",
          "code": "problem-list-item",
          "display": "Problem List Item"
        } ]
      } ],
      "code": {
        "coding": [ {
          "system": "http://hl7.org/fhir/sid/icd-10-cm",
          "version": "2024",
          "code": "N40.1",
          "display": "Benign prostatic hyperplasia with lower urinary tract symptoms"
        } ]
      },
      "subject": {
        "reference": "Patient/4d7a04b3-91ed-4035-85ef-0728bdf818ef"
      },
      "onsetPeriod": {
        "start": "2025-07-01T08:00:00.000+00:00"
      }
    },
    "request": {
      "method": "PUT",
      "url": "Condition/8d6a7215-f226-47d6-b160-5cd60e55906b"
    }
  }, {
    "fullUrl": "https://madie.cms.gov/Observation/b8e9753c-72b8-44a3-a83a-3b38d82f1d76",
    "resource": {
      "resourceType": "Observation",
      "id": "b8e9753c-72b8-44a3-a83a-3b38d82f1d76",
      "meta": {
        "profile": [ "http://hl7.org/fhir/us/qicore/StructureDefinition/qicore-observation-screening-assessment" ]
      },
      "status": "final",
      "category": [ {
        "coding": [ {
          "system": "http://terminology.hl7.org/CodeSystem/observation-category",
          "code": "survey",
          "display": "Survey"
        } ]
      } ],
      "code": {
        "coding": [ {
          "system": "http://loinc.org",
          "version": "2.76",
          "code": "80976-4",
          "display": "International Prostate Symptom Score [IPSS]"
        } ]
      },
      "subject": {
        "reference": "Patient/4d7a04b3-91ed-4035-85ef-0728bdf818ef"
      },
      "effectiveDateTime": "2025-08-01T08:00:00.000+00:00",
      "valueInteger": 2
    },
    "request": {
      "method": "PUT",
      "url": "Observation/b8e9753c-72b8-44a3-a83a-3b38d82f1d76"
    }
  }, {
    "fullUrl": "https://madie.cms.gov/Observation/ca46264d-1fc3-4dd3-a584-dfc88468390d",
    "resource": {
      "resourceType": "Observation",
      "id": "ca46264d-1fc3-4dd3-a584-dfc88468390d",
      "meta": {
        "profile": [ "http://hl7.org/fhir/us/qicore/StructureDefinition/qicore-observation-screening-assessment" ]
      },
      "status": "final",
      "category": [ {
        "coding": [ {
          "system": "http://terminology.hl7.org/CodeSystem/observation-category",
          "code": "survey",
          "display": "Survey"
        } ]
      } ],
      "code": {
        "coding": [ {
          "system": "http://loinc.org",
          "version": "2.76",
          "code": "80976-4",
          "display": "International Prostate Symptom Score [IPSS]"
        } ]
      },
      "subject": {
        "reference": "Patient/4d7a04b3-91ed-4035-85ef-0728bdf818ef"
      },
      "effectiveDateTime": "2026-07-01T08:00:00.000+00:00",
      "valueInteger": 2
    },
    "request": {
      "method": "PUT",
      "url": "Observation/ca46264d-1fc3-4dd3-a584-dfc88468390d"
    }
  }, {
    "fullUrl": "https://madie.cms.gov/MeasureReport/98953765-56c6-4da7-a52d-0badc86ed90a",
    "resource": {
      "resourceType": "MeasureReport",
      "id": "98953765-56c6-4da7-a52d-0badc86ed90a",
      "meta": {
        "profile": [ "http://hl7.org/fhir/us/cqfmeasures/StructureDefinition/test-case-cqfm" ]
      },
      "contained": [ {
        "resourceType": "Parameters",
        "id": "1ee1c8de-db61-434f-bb8c-e20950c09248-parameters",
        "parameter": [ {
          "name": "subject",
          "valueString": "4d7a04b3-91ed-4035-85ef-0728bdf818ef"
        } ]
      } ],
      "extension": [ {
        "url": "http://hl7.org/fhir/StructureDefinition/cqf-inputParameters",
        "valueReference": {
          "reference": "#1ee1c8de-db61-434f-bb8c-e20950c09248-parameters"
        }
      }, {
        "url": "http://hl7.org/fhir/us/cqfmeasures/StructureDefinition/cqfm-testCaseDescription",
        "valueMarkdown": "Male Patient with OV in MP, Initial and Followup Assessment and BPH Diagnosis with inactive Clinical Status"
      } ],
      "modifierExtension": [ {
        "url": "http://hl7.org/fhir/us/cqfmeasures/StructureDefinition/cqfm-isTestCase",
        "valueBoolean": true
      } ],
      "status": "complete",
      "type": "individual",
      "measure": "https://madie.cms.gov/Measure/CMS771FHIRUrinarySymptomScoreChangeBenignProstaticHyperplasia",
      "period": {
        "start": "2026-01-01",
        "end": "2026-12-31"
      },
      "group": [ {
        "id": "Group_1",
        "population": [ {
          "id": "InitialPopulation_1",
          "code": {
            "coding": [ {
              "system": "http://terminology.hl7.org/CodeSystem/measure-population",
              "code": "initial-population",
              "display": "Initial Population"
            } ]
          },
          "count": 0
        }, {
          "id": "Denominator_1",
          "code": {
            "coding": [ {
              "system": "http://terminology.hl7.org/CodeSystem/measure-population",
              "code": "denominator",
              "display": "Denominator"
            } ]
          },
          "count": 0
        }, {
          "id": "DenominatorExclusion_1",
          "code": {
            "coding": [ {
              "system": "http://terminology.hl7.org/CodeSystem/measure-population",
              "code": "denominator-exclusion",
              "display": "Denominator Exclusion"
            } ]
          },
          "count": 0
        }, {
          "id": "Numerator_1",
          "code": {
            "coding": [ {
              "system": "http://terminology.hl7.org/CodeSystem/measure-population",
              "code": "numerator",
              "display": "Numerator"
            } ]
          },
          "count": 0
        } ],
        "measureScore": {
          "value": 1.0
        }
      } ],
      "evaluatedResource": [ {
        "reference": "Patient/4d7a04b3-91ed-4035-85ef-0728bdf818ef"
      }, {
        "reference": "Encounter/d21ea650-3db8-4335-b5ec-a28cbb643637"
      }, {
        "reference": "Condition/8d6a7215-f226-47d6-b160-5cd60e55906b"
      }, {
        "reference": "Observation/b8e9753c-72b8-44a3-a83a-3b38d82f1d76"
      }, {
        "reference": "Observation/ca46264d-1fc3-4dd3-a584-dfc88468390d"
      } ]
    },
    "request": {
      "method": "PUT",
      "url": "MeasureReport/98953765-56c6-4da7-a52d-0badc86ed90a"
    }
  } ]
}