{
  "resourceType": "Bundle",
  "id": "62aa5cf9c4be4c506d4a5344",
  "type": "transaction",
  "entry": [ {
    "fullUrl": "https://madie.cms.gov/Patient/353cb8b7-96ac-4b51-9a0d-60cd64e6d854",
    "resource": {
      "resourceType": "Patient",
      "id": "353cb8b7-96ac-4b51-9a0d-60cd64e6d854",
      "meta": {
        "profile": [ "http://hl7.org/fhir/us/qicore/StructureDefinition/qicore-patient" ]
      },
      "extension": [ {
        "url": "http://hl7.org/fhir/us/core/StructureDefinition/us-core-race",
        "extension": [ {
          "url": "ombCategory",
          "valueCoding": {
            "system": "urn:oid:2.16.840.1.113883.6.238",
            "code": "2028-9",
            "display": "Asian",
            "userSelected": true
          }
        }, {
          "url": "text",
          "valueString": "Asian"
        } ]
      }, {
        "url": "http://hl7.org/fhir/us/core/StructureDefinition/us-core-ethnicity",
        "extension": [ {
          "url": "ombCategory",
          "valueCoding": {
            "system": "urn:oid:2.16.840.1.113883.6.238",
            "code": "2186-5",
            "display": "Not Hispanic or Latino",
            "userSelected": true
          }
        }, {
          "url": "text",
          "valueString": "Not Hispanic or Latino"
        } ]
      } ],
      "identifier": [ {
        "type": {
          "coding": [ {
            "system": "http://terminology.hl7.org/CodeSystem/v2-0203",
            "code": "MR"
          } ]
        },
        "system": "https://bonnie-fhir.healthit.gov/",
        "value": "62aa5cf9c4be4c506d4a5344"
      } ],
      "name": [ {
        "family": "DENEXPass",
        "given": [ "PalliativeCareProcedure" ]
      } ],
      "gender": "female",
      "birthDate": "2001-01-01"
    },
    "request": {
      "method": "PUT",
      "url": "Patient/353cb8b7-96ac-4b51-9a0d-60cd64e6d854"
    }
  }, {
    "fullUrl": "https://madie.cms.gov/Encounter/5ba40ecc-93ab-4d87-954e-b43aa203678e",
    "resource": {
      "resourceType": "Encounter",
      "id": "5ba40ecc-93ab-4d87-954e-b43aa203678e",
      "meta": {
        "profile": [ "http://hl7.org/fhir/us/qicore/StructureDefinition/qicore-encounter" ]
      },
      "status": "finished",
      "class": {
        "system": "http://terminology.hl7.org/CodeSystem/v3-ActCode",
        "code": "AMB",
        "display": "ambulatory"
      },
      "type": [ {
        "coding": [ {
          "system": "http://snomed.info/sct",
          "version": "2022-03",
          "code": "10197000",
          "display": "Psychiatric interview and evaluation (procedure)",
          "userSelected": true
        } ]
      } ],
      "subject": {
        "reference": "Patient/353cb8b7-96ac-4b51-9a0d-60cd64e6d854"
      },
      "period": {
        "start": "2026-12-31T00:00:00.000+00:00",
        "end": "2026-12-31T00:30:00.000+00:00"
      }
    },
    "request": {
      "method": "PUT",
      "url": "Encounter/5ba40ecc-93ab-4d87-954e-b43aa203678e"
    }
  }, {
    "fullUrl": "https://madie.cms.gov/Procedure/6b47ceef-9502-4746-8f82-6d582bd6bb50",
    "resource": {
      "resourceType": "Procedure",
      "id": "6b47ceef-9502-4746-8f82-6d582bd6bb50",
      "meta": {
        "profile": [ "http://hl7.org/fhir/us/qicore/StructureDefinition/qicore-procedure" ]
      },
      "extension": [ {
        "url": "http://hl7.org/fhir/us/qicore/StructureDefinition/qicore-recorded",
        "valueDateTime": "2026-01-01T00:30:00.000+00:00"
      } ],
      "status": "completed",
      "code": {
        "coding": [ {
          "system": "http://snomed.info/sct",
          "version": "2022-03",
          "code": "103735009",
          "display": "Palliative care (regime/therapy)",
          "userSelected": true
        } ]
      },
      "subject": {
        "reference": "Patient/353cb8b7-96ac-4b51-9a0d-60cd64e6d854"
      },
      "performedPeriod": {
        "start": "2026-12-31T00:00:00.000+00:00",
        "end": "2026-12-31T00:30:00.000+00:00"
      }
    },
    "request": {
      "method": "PUT",
      "url": "Procedure/6b47ceef-9502-4746-8f82-6d582bd6bb50"
    }
  }, {
    "fullUrl": "https://madie.cms.gov/Coverage/0a3f000e-5fcf-4332-9ac4-d9bb521b11e1",
    "resource": {
      "resourceType": "Coverage",
      "id": "0a3f000e-5fcf-4332-9ac4-d9bb521b11e1",
      "meta": {
        "profile": [ "http://hl7.org/fhir/us/qicore/StructureDefinition/qicore-coverage" ]
      },
      "status": "active",
      "beneficiary": {
        "reference": "Patient/353cb8b7-96ac-4b51-9a0d-60cd64e6d854"
      },
      "payor": [ {
        "reference": "Organization/dfea1297-fd7e-4252-83f8-0e0ee48dbf5c"
      } ]
    },
    "request": {
      "method": "PUT",
      "url": "Coverage/0a3f000e-5fcf-4332-9ac4-d9bb521b11e1"
    }
  }, {
    "fullUrl": "https://madie.cms.gov/Organization/dfea1297-fd7e-4252-83f8-0e0ee48dbf5c",
    "resource": {
      "resourceType": "Organization",
      "id": "dfea1297-fd7e-4252-83f8-0e0ee48dbf5c",
      "meta": {
        "profile": [ "http://hl7.org/fhir/us/qicore/StructureDefinition/qicore-organization" ]
      },
      "identifier": [ {
        "use": "temp",
        "system": "urn:oid:2.16.840.1.113883.4.4",
        "value": "21-3259825"
      } ],
      "active": true,
      "type": [ {
        "coding": [ {
          "system": "http://terminology.hl7.org/CodeSystem/organization-type",
          "code": "pay",
          "display": "Payer"
        } ]
      } ],
      "name": "Blue Cross Blue Shield of Texas",
      "telecom": [ {
        "system": "phone",
        "value": "(+1) 972-766-6900"
      } ],
      "address": [ {
        "use": "billing",
        "type": "postal",
        "line": [ "P.O. Box 660044" ],
        "city": "Dallas",
        "state": "TX",
        "postalCode": "75266-0044",
        "country": "USA"
      } ]
    },
    "request": {
      "method": "PUT",
      "url": "Organization/dfea1297-fd7e-4252-83f8-0e0ee48dbf5c"
    }
  }, {
    "fullUrl": "https://madie.cms.gov/MeasureReport/41d8cd8a-4ad9-47ea-8e6f-c445d1b496e1",
    "resource": {
      "resourceType": "MeasureReport",
      "id": "41d8cd8a-4ad9-47ea-8e6f-c445d1b496e1",
      "meta": {
        "profile": [ "http://hl7.org/fhir/us/cqfmeasures/StructureDefinition/test-case-cqfm" ]
      },
      "contained": [ {
        "resourceType": "Parameters",
        "id": "f3a969c4-aea8-458a-8f3b-17f388bbb78e-parameters",
        "parameter": [ {
          "name": "subject",
          "valueString": "353cb8b7-96ac-4b51-9a0d-60cd64e6d854"
        } ]
      } ],
      "extension": [ {
        "url": "http://hl7.org/fhir/StructureDefinition/cqf-inputParameters",
        "valueReference": {
          "reference": "#f3a969c4-aea8-458a-8f3b-17f388bbb78e-parameters"
        }
      }, {
        "url": "http://hl7.org/fhir/us/cqfmeasures/StructureDefinition/cqfm-testCaseDescription",
        "valueMarkdown": "Palliative Care last day of MP using the procedure resource"
      } ],
      "modifierExtension": [ {
        "url": "http://hl7.org/fhir/us/cqfmeasures/StructureDefinition/cqfm-isTestCase",
        "valueBoolean": true
      } ],
      "status": "complete",
      "type": "individual",
      "measure": "https://madie.cms.gov/Measure/CMS69FHIRPCSBMIScreenAndFollowUp",
      "period": {
        "start": "2026-01-01",
        "end": "2026-12-31"
      },
      "group": [ {
        "id": "Group_1",
        "population": [ {
          "id": "InitialPopulation_1",
          "code": {
            "coding": [ {
              "system": "http://terminology.hl7.org/CodeSystem/measure-population",
              "code": "initial-population",
              "display": "Initial Population"
            } ]
          },
          "count": 1
        }, {
          "id": "Denominator_1",
          "code": {
            "coding": [ {
              "system": "http://terminology.hl7.org/CodeSystem/measure-population",
              "code": "denominator",
              "display": "Denominator"
            } ]
          },
          "count": 1
        }, {
          "id": "DenominatorExclusion_1",
          "code": {
            "coding": [ {
              "system": "http://terminology.hl7.org/CodeSystem/measure-population",
              "code": "denominator-exclusion",
              "display": "Denominator Exclusion"
            } ]
          },
          "count": 1
        }, {
          "id": "Numerator_1",
          "code": {
            "coding": [ {
              "system": "http://terminology.hl7.org/CodeSystem/measure-population",
              "code": "numerator",
              "display": "Numerator"
            } ]
          },
          "count": 0
        }, {
          "id": "DenominatorException_1",
          "code": {
            "coding": [ {
              "system": "http://terminology.hl7.org/CodeSystem/measure-population",
              "code": "denominator-exception",
              "display": "Denominator Exception"
            } ]
          },
          "count": 0
        } ],
        "measureScore": {
          "value": 1.0
        }
      } ],
      "evaluatedResource": [ {
        "reference": "Patient/353cb8b7-96ac-4b51-9a0d-60cd64e6d854"
      }, {
        "reference": "Encounter/5ba40ecc-93ab-4d87-954e-b43aa203678e"
      }, {
        "reference": "Procedure/6b47ceef-9502-4746-8f82-6d582bd6bb50"
      }, {
        "reference": "Coverage/0a3f000e-5fcf-4332-9ac4-d9bb521b11e1"
      }, {
        "reference": "Organization/dfea1297-fd7e-4252-83f8-0e0ee48dbf5c"
      } ]
    },
    "request": {
      "method": "PUT",
      "url": "MeasureReport/41d8cd8a-4ad9-47ea-8e6f-c445d1b496e1"
    }
  } ]
}