{
    "entry": [
        {
            "request": {
                "method": "PUT",
                "url": "Patient/6078e73e-3265-4022-ae63-216c096b6246"
            },
            "resource": {
                "identifier": [{
                    "system": "https://bonnie-fhir.healthit.gov/",
                    "type": {"coding": [{
                        "system": "http://terminology.hl7.org/CodeSystem/v2-0203",
                        "code": "MR"
                    }]},
                    "value": "62f660475efef5272905e70d"
                }],
                "extension": [
                    {
                        "extension": [
                            {
                                "valueCoding": {
                                    "system": "urn:oid:2.16.840.1.113883.6.238",
                                    "code": "1002-5",
                                    "userSelected": true,
                                    "display": "American Indian or Alaska Native"
                                },
                                "url": "ombCategory"
                            },
                            {
                                "valueString": "American Indian or Alaska Native",
                                "url": "text"
                            }
                        ],
                        "url": "http://hl7.org/fhir/us/core/StructureDefinition/us-core-race"
                    },
                    {
                        "extension": [
                            {
                                "valueCoding": {
                                    "system": "urn:oid:2.16.840.1.113883.6.238",
                                    "code": "2135-2",
                                    "userSelected": true,
                                    "display": "Hispanic or Latino"
                                },
                                "url": "ombCategory"
                            },
                            {
                                "valueString": "Hispanic or Latino",
                                "url": "text"
                            }
                        ],
                        "url": "http://hl7.org/fhir/us/core/StructureDefinition/us-core-ethnicity"
                    }
                ],
                "gender": "male",
                "meta": {"profile": ["http://hl7.org/fhir/us/qicore/StructureDefinition/qicore-patient"]},
                "name": [{
                    "given": ["AdolescentPatientReasonForNoDepressionScreenAge12"],
                    "family": "DENEXCEPPass"
                }],
                "id": "6078e73e-3265-4022-ae63-216c096b6246",
                "birthDate": "2013-12-31",
                "resourceType": "Patient"
            },
            "fullUrl": "https://madie.cms.gov/Patient/6078e73e-3265-4022-ae63-216c096b6246"
        },
        {
            "request": {
                "method": "PUT",
                "url": "Encounter/a2d14e59-0d2f-41d3-8f15-d57a2f49a687"
            },
            "resource": {
                "period": {
                    "start": "2026-01-01T08:00:00.000+00:00",
                    "end": "2026-01-01T08:15:00.000+00:00"
                },
                "meta": {"profile": ["http://hl7.org/fhir/us/qicore/StructureDefinition/qicore-encounter"]},
                "subject": {"reference": "Patient/6078e73e-3265-4022-ae63-216c096b6246"},
                "id": "a2d14e59-0d2f-41d3-8f15-d57a2f49a687",
                "type": [{"coding": [{
                    "system": "http://snomed.info/sct",
                    "code": "10197000",
                    "userSelected": true,
                    "display": "Psychiatric interview and evaluation (procedure)",
                    "version": "2021-09"
                }]}],
                "class": {
                    "system": "http://terminology.hl7.org/CodeSystem/v3-ActCode",
                    "code": "AMB",
                    "display": "ambulatory"
                },
                "resourceType": "Encounter",
                "status": "finished"
            },
            "fullUrl": "https://madie.cms.gov/Encounter/a2d14e59-0d2f-41d3-8f15-d57a2f49a687"
        },
        {
            "request": {
                "method": "PUT",
                "url": "Observation/2524b6bd-36d6-4b78-9d47-b8c782ea041e"
            },
            "resource": {
                "valueBoolean": true,
                "extension": [{
                    "valueCodeableConcept": {"coding": [{
                        "system": "http://snomed.info/sct",
                        "code": "720834000",
                        "userSelected": true,
                        "display": "Depression screening declined (situation)"
                    }]},
                    "url": "http://hl7.org/fhir/us/qicore/StructureDefinition/qicore-notDoneReason"
                }],
                "code": {"coding": [{
                    "system": "http://loinc.org",
                    "code": "73831-0",
                    "userSelected": true,
                    "display": "Adolescent depression screening assessment"
                }]},
                "meta": {"profile": ["http://hl7.org/fhir/us/qicore/StructureDefinition/qicore-observationcancelled"]},
                "subject": {"reference": "Patient/6078e73e-3265-4022-ae63-216c096b6246"},
                "id": "2524b6bd-36d6-4b78-9d47-b8c782ea041e",
                "category": [{"coding": [{
                    "system": "http://terminology.hl7.org/CodeSystem/observation-category",
                    "code": "procedure",
                    "display": "Procedure"
                }]}],
                "issued": "2026-01-01T08:01:00.000+00:00",
                "resourceType": "Observation",
                "status": "cancelled"
            },
            "fullUrl": "https://madie.cms.gov/Observation/2524b6bd-36d6-4b78-9d47-b8c782ea041e"
        },
        {
            "request": {
                "method": "PUT",
                "url": "MeasureReport/2fa3d595-2438-4852-bbc0-c9a44a7bb176"
            },
            "resource": {
                "contained": [{
                    "parameter": [{
                        "valueString": "6078e73e-3265-4022-ae63-216c096b6246",
                        "name": "subject"
                    }],
                    "id": "c9cb99f8-d684-4be1-97dd-936d9e406500-parameters",
                    "resourceType": "Parameters"
                }],
                "extension": [
                    {
                        "valueReference": {"reference": "#c9cb99f8-d684-4be1-97dd-936d9e406500-parameters"},
                        "url": "http://hl7.org/fhir/StructureDefinition/cqf-inputParameters"
                    },
                    {
                        "valueMarkdown": "12 yo male with patient reason for not screening for depression - 12 on first day MP.",
                        "url": "http://hl7.org/fhir/us/cqfmeasures/StructureDefinition/cqfm-testCaseDescription"
                    }
                ],
                "period": {
                    "start": "2026-01-01",
                    "end": "2026-12-31"
                },
                "measure": "https://madie.cms.gov/Measure/CMS2FHIRPCSDepressionScreenAndFollowUp",
                "meta": {"profile": ["http://hl7.org/fhir/us/cqfmeasures/StructureDefinition/test-case-cqfm"]},
                "modifierExtension": [{
                    "valueBoolean": true,
                    "url": "http://hl7.org/fhir/us/cqfmeasures/StructureDefinition/cqfm-isTestCase"
                }],
                "id": "2fa3d595-2438-4852-bbc0-c9a44a7bb176",
                "evaluatedResource": [
                    {"reference": "Patient/6078e73e-3265-4022-ae63-216c096b6246"},
                    {"reference": "Encounter/a2d14e59-0d2f-41d3-8f15-d57a2f49a687"},
                    {"reference": "Observation/2524b6bd-36d6-4b78-9d47-b8c782ea041e"}
                ],
                "type": "individual",
                "resourceType": "MeasureReport",
                "status": "complete",
                "group": [{
                    "id": "Group_1",
                    "measureScore": {"value": 1},
                    "population": [
                        {
                            "code": {"coding": [{
                                "system": "http://terminology.hl7.org/CodeSystem/measure-population",
                                "code": "initial-population",
                                "display": "Initial Population"
                            }]},
                            "count": 1,
                            "id": "InitialPopulation_1"
                        },
                        {
                            "code": {"coding": [{
                                "system": "http://terminology.hl7.org/CodeSystem/measure-population",
                                "code": "denominator",
                                "display": "Denominator"
                            }]},
                            "count": 1,
                            "id": "Denominator_1"
                        },
                        {
                            "code": {"coding": [{
                                "system": "http://terminology.hl7.org/CodeSystem/measure-population",
                                "code": "denominator-exclusion",
                                "display": "Denominator Exclusion"
                            }]},
                            "count": 0,
                            "id": "DenominatorExclusion_1"
                        },
                        {
                            "code": {"coding": [{
                                "system": "http://terminology.hl7.org/CodeSystem/measure-population",
                                "code": "numerator",
                                "display": "Numerator"
                            }]},
                            "count": 0,
                            "id": "Numerator_1"
                        },
                        {
                            "code": {"coding": [{
                                "system": "http://terminology.hl7.org/CodeSystem/measure-population",
                                "code": "denominator-exception",
                                "display": "Denominator Exception"
                            }]},
                            "count": 1,
                            "id": "DenominatorException_1"
                        }
                    ]
                }]
            },
            "fullUrl": "https://madie.cms.gov/MeasureReport/2fa3d595-2438-4852-bbc0-c9a44a7bb176"
        }
    ],
    "id": "62f660475efef5272905e70d",
    "type": "transaction",
    "resourceType": "Bundle"
}