{
  "resourceType": "Bundle",
  "id": "612e6f3c02c62a011f2f11f1",
  "type": "transaction",
  "entry": [ {
    "fullUrl": "https://madie.cms.gov/Patient/8101f288-b6f4-4411-a1e4-7193a0a448eb",
    "resource": {
      "resourceType": "Patient",
      "id": "8101f288-b6f4-4411-a1e4-7193a0a448eb",
      "meta": {
        "profile": [ "http://hl7.org/fhir/us/qicore/StructureDefinition/qicore-patient" ]
      },
      "text": {
        "status": "generated",
        "div": "<div xmlns=\"http://www.w3.org/1999/xhtml\"><div class=\"hapiHeaderText\">DischargedFirstDayMP <b>IPPASS </b></div><table class=\"hapiPropertyTable\"><tbody><tr><td>Identifier</td><td>e0b4bcae0754b8e8e6e4106bdb1cc7b6</td></tr><tr><td>Date of birth</td><td><span>03 March 1974</span></td></tr></tbody></table></div>"
      },
      "extension": [ {
        "url": "http://hl7.org/fhir/us/core/StructureDefinition/us-core-race",
        "extension": [ {
          "url": "ombCategory",
          "valueCoding": {
            "system": "urn:oid:2.16.840.1.113883.6.238",
            "code": "1002-5",
            "display": "American Indian or Alaska Native",
            "userSelected": true
          }
        }, {
          "url": "text",
          "valueString": "American Indian or Alaska Native"
        } ]
      }, {
        "url": "http://hl7.org/fhir/us/core/StructureDefinition/us-core-ethnicity",
        "extension": [ {
          "url": "ombCategory",
          "valueCoding": {
            "system": "urn:oid:2.16.840.1.113883.6.238",
            "code": "2186-5",
            "display": "Not Hispanic or Latino",
            "userSelected": true
          }
        }, {
          "url": "text",
          "valueString": "Not Hispanic or Latino"
        } ]
      } ],
      "identifier": [ {
        "type": {
          "coding": [ {
            "system": "http://terminology.hl7.org/CodeSystem/v2-0203",
            "code": "MR"
          } ]
        },
        "system": "https://bonnie-fhir.healthit.gov/",
        "value": "612e6f3c02c62a011f2f11f1"
      } ],
      "active": true,
      "name": [ {
        "use": "usual",
        "family": "IPPass",
        "given": [ "DischargedFirstDayMP" ]
      } ],
      "gender": "female",
      "birthDate": "1975-03-03"
    },
    "request": {
      "method": "PUT",
      "url": "Patient/8101f288-b6f4-4411-a1e4-7193a0a448eb"
    }
  }, {
    "fullUrl": "https://madie.cms.gov/Encounter/3ef0cb3a-c9d7-4bbd-911d-21601bc20258",
    "resource": {
      "resourceType": "Encounter",
      "id": "3ef0cb3a-c9d7-4bbd-911d-21601bc20258",
      "meta": {
        "profile": [ "http://hl7.org/fhir/us/qicore/StructureDefinition/qicore-encounter" ]
      },
      "status": "finished",
      "class": {
        "system": "http://terminology.hl7.org/CodeSystem/v3-ActCode",
        "code": "IMP",
        "display": "inpatient encounter"
      },
      "type": [ {
        "coding": [ {
          "system": "http://snomed.info/sct",
          "code": "8715000"
        } ]
      } ],
      "subject": {
        "reference": "Patient/8101f288-b6f4-4411-a1e4-7193a0a448eb"
      },
      "period": {
        "start": "2024-12-30T08:00:00.000+00:00",
        "end": "2026-01-01T08:15:00.000+00:00"
      },
      "length": {
        "value": 2.0,
        "unit": "days"
      }
    },
    "request": {
      "method": "PUT",
      "url": "Encounter/3ef0cb3a-c9d7-4bbd-911d-21601bc20258"
    }
  }, {
    "fullUrl": "https://madie.cms.gov/Coverage/5a772330-462d-42ac-9c64-15e018a1de22",
    "resource": {
      "resourceType": "Coverage",
      "id": "5a772330-462d-42ac-9c64-15e018a1de22",
      "status": "active",
      "beneficiary": {
        "reference": "Patient/8101f288-b6f4-4411-a1e4-7193a0a448eb"
      },
      "period": {
        "start": "1975-03-03T08:00:00.000+00:00"
      },
      "payor": [ {
        "reference": "Organization/67e7a7cb-e3f8-4d2b-a317-ab7f3e2f8697"
      } ]
    },
    "request": {
      "method": "PUT",
      "url": "Coverage/5a772330-462d-42ac-9c64-15e018a1de22"
    }
  }, {
    "fullUrl": "https://madie.cms.gov/Condition/18c180b6-20b6-4796-93b6-10ea6f754b9d",
    "resource": {
      "resourceType": "Condition",
      "id": "18c180b6-20b6-4796-93b6-10ea6f754b9d",
      "meta": {
        "profile": [ "http://hl7.org/fhir/us/qicore/StructureDefinition/qicore-condition" ]
      },
      "category": [ {
        "coding": [ {
          "system": "http://terminology.hl7.org/CodeSystem/condition-category",
          "code": "problem-list-item",
          "display": "Problem List Item"
        } ]
      } ],
      "code": {
        "coding": [ {
          "system": "http://hl7.org/fhir/sid/icd-10-cm",
          "code": "I26.09"
        }, {
          "system": "http://hl7.org/fhir/sid/icd-9-cm",
          "code": "415.11"
        }, {
          "system": "http://snomed.info/sct",
          "code": "132251000119101"
        } ]
      },
      "subject": {
        "reference": "Patient/8101f288-b6f4-4411-a1e4-7193a0a448eb"
      },
      "onsetPeriod": {
        "start": "2026-10-04T08:00:00.000+00:00",
        "end": "2026-10-05T08:15:00.000+00:00"
      }
    },
    "request": {
      "method": "PUT",
      "url": "Condition/18c180b6-20b6-4796-93b6-10ea6f754b9d"
    }
  }, {
    "fullUrl": "https://madie.cms.gov/Organization/67e7a7cb-e3f8-4d2b-a317-ab7f3e2f8697",
    "resource": {
      "resourceType": "Organization",
      "id": "67e7a7cb-e3f8-4d2b-a317-ab7f3e2f8697",
      "meta": {
        "profile": [ "http://hl7.org/fhir/us/qicore/StructureDefinition/qicore-organization" ]
      },
      "identifier": [ {
        "use": "temp",
        "system": "urn:oid:2.16.840.1.113883.4.4",
        "value": "21-3259825"
      } ],
      "active": true,
      "type": [ {
        "coding": [ {
          "system": "http://terminology.hl7.org/CodeSystem/organization-type",
          "code": "pay",
          "display": "Payer"
        } ]
      } ],
      "name": "Blue Cross Blue Shield of Texas",
      "telecom": [ {
        "system": "phone",
        "value": "(+1) 972-766-6900"
      } ],
      "address": [ {
        "use": "billing",
        "type": "postal",
        "line": [ "P.O. Box 660044" ],
        "city": "Dallas",
        "state": "TX",
        "postalCode": "75266-0044",
        "country": "USA"
      } ]
    },
    "request": {
      "method": "PUT",
      "url": "Organization/67e7a7cb-e3f8-4d2b-a317-ab7f3e2f8697"
    }
  }, {
    "fullUrl": "https://madie.cms.gov/Practitioner/2abe5e1c-1b6b-4984-8ee9-a8f268dc1f03",
    "resource": {
      "resourceType": "Practitioner",
      "id": "2abe5e1c-1b6b-4984-8ee9-a8f268dc1f03",
      "identifier": [ {
        "system": "http://hl7.org/fhir/sid/us-npi",
        "value": "123456"
      } ],
      "name": [ {
        "family": "Evil",
        "prefix": [ "Dr" ]
      } ]
    },
    "request": {
      "method": "PUT",
      "url": "Practitioner/2abe5e1c-1b6b-4984-8ee9-a8f268dc1f03"
    }
  }, {
    "fullUrl": "https://madie.cms.gov/MeasureReport/dbe22ef0-6bde-47df-9b49-54712ae1aea2",
    "resource": {
      "resourceType": "MeasureReport",
      "id": "dbe22ef0-6bde-47df-9b49-54712ae1aea2",
      "meta": {
        "profile": [ "http://hl7.org/fhir/us/cqfmeasures/StructureDefinition/test-case-cqfm" ]
      },
      "contained": [ {
        "resourceType": "Parameters",
        "id": "6c7d212b-e6ac-4b49-8c88-6bce24a7b120-parameters",
        "parameter": [ {
          "name": "subject",
          "valueString": "8101f288-b6f4-4411-a1e4-7193a0a448eb"
        } ]
      } ],
      "extension": [ {
        "url": "http://hl7.org/fhir/StructureDefinition/cqf-inputParameters",
        "valueReference": {
          "reference": "#6c7d212b-e6ac-4b49-8c88-6bce24a7b120-parameters"
        }
      }, {
        "url": "http://hl7.org/fhir/us/cqfmeasures/StructureDefinition/cqfm-testCaseDescription",
        "valueMarkdown": "patient is discharged the first day of the measurement period\n"
      } ],
      "modifierExtension": [ {
        "url": "http://hl7.org/fhir/us/cqfmeasures/StructureDefinition/cqfm-isTestCase",
        "valueBoolean": true
      } ],
      "status": "complete",
      "type": "individual",
      "measure": "https://madie.cms.gov/Measure/CMS190VTEProphylaxisICUFHIR",
      "period": {
        "start": "2026-01-01",
        "end": "2026-12-31"
      },
      "group": [ {
        "id": "Group_1",
        "population": [ {
          "id": "InitialPopulation_1",
          "code": {
            "coding": [ {
              "system": "http://terminology.hl7.org/CodeSystem/measure-population",
              "code": "initial-population",
              "display": "Initial Population"
            } ]
          },
          "count": 1
        }, {
          "id": "Denominator_1",
          "code": {
            "coding": [ {
              "system": "http://terminology.hl7.org/CodeSystem/measure-population",
              "code": "denominator",
              "display": "Denominator"
            } ]
          },
          "count": 0
        }, {
          "id": "DenominatorExclusion_1",
          "code": {
            "coding": [ {
              "system": "http://terminology.hl7.org/CodeSystem/measure-population",
              "code": "denominator-exclusion",
              "display": "Denominator Exclusion"
            } ]
          },
          "count": 0
        }, {
          "id": "Numerator_1",
          "code": {
            "coding": [ {
              "system": "http://terminology.hl7.org/CodeSystem/measure-population",
              "code": "numerator",
              "display": "Numerator"
            } ]
          },
          "count": 0
        }, {
          "id": "DenominatorException_1",
          "code": {
            "coding": [ {
              "system": "http://terminology.hl7.org/CodeSystem/measure-population",
              "code": "denominator-exception",
              "display": "Denominator Exception"
            } ]
          },
          "count": 0
        } ],
        "measureScore": {
          "value": 0.0
        }
      } ],
      "evaluatedResource": [ {
        "reference": "Patient/8101f288-b6f4-4411-a1e4-7193a0a448eb"
      }, {
        "reference": "Encounter/3ef0cb3a-c9d7-4bbd-911d-21601bc20258"
      }, {
        "reference": "Coverage/5a772330-462d-42ac-9c64-15e018a1de22"
      }, {
        "reference": "Condition/18c180b6-20b6-4796-93b6-10ea6f754b9d"
      }, {
        "reference": "Organization/67e7a7cb-e3f8-4d2b-a317-ab7f3e2f8697"
      }, {
        "reference": "Practitioner/2abe5e1c-1b6b-4984-8ee9-a8f268dc1f03"
      } ]
    },
    "request": {
      "method": "PUT",
      "url": "MeasureReport/dbe22ef0-6bde-47df-9b49-54712ae1aea2"
    }
  } ]
}