{
    "entry": [
        {
            "request": {
                "method": "PUT",
                "url": "Patient/c41f9946-cb0f-4489-8367-581a5b876165"
            },
            "resource": {
                "identifier": [{
                    "system": "https://bonnie-fhir.healthit.gov/",
                    "type": {"coding": [{
                        "system": "http://terminology.hl7.org/CodeSystem/v2-0203",
                        "code": "MR"
                    }]},
                    "value": "62d08d43ab06d8c02b5741d0"
                }],
                "extension": [
                    {
                        "extension": [
                            {
                                "valueCoding": {
                                    "system": "urn:oid:2.16.840.1.113883.6.238",
                                    "code": "2054-5",
                                    "userSelected": true,
                                    "display": "Black or African American"
                                },
                                "url": "ombCategory"
                            },
                            {
                                "valueString": "Black or African American",
                                "url": "text"
                            }
                        ],
                        "url": "http://hl7.org/fhir/us/core/StructureDefinition/us-core-race"
                    },
                    {
                        "extension": [
                            {
                                "valueCoding": {
                                    "system": "urn:oid:2.16.840.1.113883.6.238",
                                    "code": "2135-2",
                                    "userSelected": true,
                                    "display": "Hispanic or Latino"
                                },
                                "url": "ombCategory"
                            },
                            {
                                "valueString": "Hispanic or Latino",
                                "url": "text"
                            }
                        ],
                        "url": "http://hl7.org/fhir/us/core/StructureDefinition/us-core-ethnicity"
                    }
                ],
                "gender": "male",
                "meta": {"profile": ["http://hl7.org/fhir/us/qicore/StructureDefinition/qicore-patient"]},
                "name": [{
                    "given": ["2HTN130DeclinedLabOthers"],
                    "family": "DENEXCEPPassX2"
                }],
                "id": "c41f9946-cb0f-4489-8367-581a5b876165",
                "birthDate": "2007-01-31",
                "resourceType": "Patient"
            },
            "fullUrl": "https://madie.cms.gov/Patient/c41f9946-cb0f-4489-8367-581a5b876165"
        },
        {
            "request": {
                "method": "PUT",
                "url": "Encounter/01d0a24e-661f-4e7c-b054-3e76da8d3c0a"
            },
            "resource": {
                "period": {
                    "start": "2026-01-01T08:00:00.000+00:00",
                    "end": "2026-01-01T08:30:00.000+00:00"
                },
                "meta": {"profile": ["http://hl7.org/fhir/us/qicore/StructureDefinition/qicore-encounter"]},
                "subject": {"reference": "Patient/c41f9946-cb0f-4489-8367-581a5b876165"},
                "id": "01d0a24e-661f-4e7c-b054-3e76da8d3c0a",
                "type": [{"coding": [{
                    "system": "http://snomed.info/sct",
                    "code": "103705002",
                    "userSelected": true,
                    "display": "Patient status observation (procedure)",
                    "version": "2022-03"
                }]}],
                "class": {
                    "system": "http://terminology.hl7.org/CodeSystem/v3-ActCode",
                    "code": "AMB",
                    "display": "ambulatory"
                },
                "resourceType": "Encounter",
                "status": "finished"
            },
            "fullUrl": "https://madie.cms.gov/Encounter/01d0a24e-661f-4e7c-b054-3e76da8d3c0a"
        },
        {
            "request": {
                "method": "PUT",
                "url": "Observation/f7121f96-2afc-4886-831c-70e3611a8d0f"
            },
            "resource": {
                "component": [
                    {
                        "code": {"coding": [{
                            "system": "http://loinc.org",
                            "code": "8480-6",
                            "display": "Systolic blood pressure"
                        }]},
                        "valueQuantity": {
                            "unit": "mmHg",
                            "system": "http://unitsofmeasure.org",
                            "code": "mm[Hg]",
                            "value": 140
                        }
                    },
                    {
                        "code": {"coding": [{
                            "system": "http://loinc.org",
                            "code": "8462-4",
                            "display": "Diastolic blood pressure"
                        }]},
                        "valueQuantity": {
                            "unit": "mmHg",
                            "system": "http://unitsofmeasure.org",
                            "code": "mm[Hg]",
                            "value": 79
                        }
                    }
                ],
                "code": {"coding": [{
                    "system": "http://loinc.org",
                    "code": "85354-9",
                    "display": "Blood pressure panel"
                }]},
                "effectiveDateTime": "2026-01-01T08:05:00.000+00:00",
                "meta": {"profile": ["http://hl7.org/fhir/us/core/StructureDefinition/us-core-blood-pressure"]},
                "subject": {"reference": "Patient/c41f9946-cb0f-4489-8367-581a5b876165"},
                "id": "f7121f96-2afc-4886-831c-70e3611a8d0f",
                "category": [{
                    "coding": [{
                        "system": "http://terminology.hl7.org/CodeSystem/observation-category",
                        "code": "vital-signs",
                        "display": "Vital Signs"
                    }],
                    "text": "Vital Signs"
                }],
                "resourceType": "Observation",
                "status": "corrected"
            },
            "fullUrl": "https://madie.cms.gov/Observation/f7121f96-2afc-4886-831c-70e3611a8d0f"
        },
        {
            "request": {
                "method": "PUT",
                "url": "ServiceRequest/d859b37b-ca05-4368-be0a-76f0676b2c0d"
            },
            "resource": {
                "extension": [{
                    "valueCodeableConcept": {"coding": [{
                        "system": "http://snomed.info/sct",
                        "code": "1296859006",
                        "userSelected": true,
                        "display": "Procedure declined (situation)"
                    }]},
                    "url": "http://hl7.org/fhir/us/qicore/StructureDefinition/qicore-doNotPerformReason"
                }],
                "code": {"coding": [{
                    "system": "http://snomed.info/sct",
                    "code": "1181000175107",
                    "userSelected": true,
                    "display": "Recommendation to lose weight (procedure)",
                    "version": "2022-03"
                }]},
                "authoredOn": "2026-01-01T08:05:00.000+00:00",
                "meta": {"profile": ["http://hl7.org/fhir/us/qicore/StructureDefinition/qicore-servicenotrequested"]},
                "subject": {"reference": "Patient/c41f9946-cb0f-4489-8367-581a5b876165"},
                "id": "d859b37b-ca05-4368-be0a-76f0676b2c0d",
                "doNotPerform": true,
                "intent": "order",
                "resourceType": "ServiceRequest",
                "status": "completed"
            },
            "fullUrl": "https://madie.cms.gov/ServiceRequest/d859b37b-ca05-4368-be0a-76f0676b2c0d"
        },
        {
            "request": {
                "method": "PUT",
                "url": "Encounter/0cccfd30-df7b-4165-bdbb-e6a6bb80fc7b"
            },
            "resource": {
                "period": {
                    "start": "2026-12-31T10:00:00.000+00:00",
                    "end": "2026-12-31T10:45:00.000+00:00"
                },
                "meta": {"profile": ["http://hl7.org/fhir/us/qicore/StructureDefinition/qicore-encounter"]},
                "subject": {"reference": "Patient/c41f9946-cb0f-4489-8367-581a5b876165"},
                "id": "0cccfd30-df7b-4165-bdbb-e6a6bb80fc7b",
                "type": [{"coding": [{
                    "system": "http://snomed.info/sct",
                    "code": "103705002",
                    "userSelected": true,
                    "display": "Patient status observation (procedure)",
                    "version": "2022-03"
                }]}],
                "class": {
                    "system": "http://terminology.hl7.org/CodeSystem/v3-ActCode",
                    "code": "AMB",
                    "display": "ambulatory"
                },
                "resourceType": "Encounter",
                "status": "finished"
            },
            "fullUrl": "https://madie.cms.gov/Encounter/0cccfd30-df7b-4165-bdbb-e6a6bb80fc7b"
        },
        {
            "request": {
                "method": "PUT",
                "url": "Observation/add33a81-c345-479f-b3f2-b47cc76d4007"
            },
            "resource": {
                "component": [
                    {
                        "code": {"coding": [{
                            "system": "http://loinc.org",
                            "code": "8480-6",
                            "display": "Systolic blood pressure"
                        }]},
                        "valueQuantity": {
                            "unit": "mmHg",
                            "system": "http://unitsofmeasure.org",
                            "code": "mm[Hg]",
                            "value": 140
                        }
                    },
                    {
                        "code": {"coding": [{
                            "system": "http://loinc.org",
                            "code": "8462-4",
                            "display": "Diastolic blood pressure"
                        }]},
                        "valueQuantity": {
                            "unit": "mmHg",
                            "system": "http://unitsofmeasure.org",
                            "code": "mm[Hg]",
                            "value": 90
                        }
                    }
                ],
                "code": {"coding": [{
                    "system": "http://loinc.org",
                    "code": "85354-9",
                    "display": "Blood pressure panel"
                }]},
                "effectiveDateTime": "2026-12-31T10:05:00.000+00:00",
                "meta": {"profile": ["http://hl7.org/fhir/us/core/StructureDefinition/us-core-blood-pressure"]},
                "subject": {"reference": "Patient/c41f9946-cb0f-4489-8367-581a5b876165"},
                "id": "add33a81-c345-479f-b3f2-b47cc76d4007",
                "category": [{
                    "coding": [{
                        "system": "http://terminology.hl7.org/CodeSystem/observation-category",
                        "code": "vital-signs",
                        "display": "Vital Signs"
                    }],
                    "text": "Vital Signs"
                }],
                "resourceType": "Observation",
                "status": "final"
            },
            "fullUrl": "https://madie.cms.gov/Observation/add33a81-c345-479f-b3f2-b47cc76d4007"
        },
        {
            "request": {
                "method": "PUT",
                "url": "ServiceRequest/db73e84a-4cb7-48e0-800b-e01f903bf267"
            },
            "resource": {
                "extension": [{
                    "valueCodeableConcept": {"coding": [{
                        "system": "http://snomed.info/sct",
                        "code": "1296859006",
                        "userSelected": true,
                        "display": "Procedure declined (situation)"
                    }]},
                    "url": "http://hl7.org/fhir/us/qicore/StructureDefinition/qicore-doNotPerformReason"
                }],
                "code": {"coding": [{
                    "system": "http://snomed.info/sct",
                    "code": "20093000",
                    "userSelected": true,
                    "display": "Alcohol rehabilitation and detoxification (regime/therapy)",
                    "version": "2022-03"
                }]},
                "authoredOn": "2026-12-31T10:20:00.000+00:00",
                "meta": {"profile": ["http://hl7.org/fhir/us/qicore/StructureDefinition/qicore-servicenotrequested"]},
                "subject": {"reference": "Patient/c41f9946-cb0f-4489-8367-581a5b876165"},
                "id": "db73e84a-4cb7-48e0-800b-e01f903bf267",
                "doNotPerform": true,
                "intent": "order",
                "resourceType": "ServiceRequest",
                "status": "completed"
            },
            "fullUrl": "https://madie.cms.gov/ServiceRequest/db73e84a-4cb7-48e0-800b-e01f903bf267"
        },
        {
            "request": {
                "method": "PUT",
                "url": "ServiceRequest/db73e84a-4cb7-48e0-800b-e01f903bf267"
            },
            "resource": {
                "extension": [{
                    "valueCodeableConcept": {"coding": [{
                        "system": "http://snomed.info/sct",
                        "code": "1296859006",
                        "userSelected": true,
                        "display": "Procedure declined (situation)"
                    }]},
                    "url": "http://hl7.org/fhir/us/qicore/StructureDefinition/qicore-doNotPerformReason"
                }],
                "code": {"coding": [{
                    "system": "http://snomed.info/sct",
                    "code": "183622005",
                    "userSelected": true,
                    "display": "Follow-up 3 weeks (finding)",
                    "version": "2022-03"
                }]},
                "authoredOn": "2026-12-31T10:20:00.000+00:00",
                "meta": {"profile": ["http://hl7.org/fhir/us/qicore/StructureDefinition/qicore-servicenotrequested"]},
                "subject": {"reference": "Patient/c41f9946-cb0f-4489-8367-581a5b876165"},
                "id": "db73e84a-4cb7-48e0-800b-e01f903bf267",
                "doNotPerform": true,
                "intent": "order",
                "resourceType": "ServiceRequest",
                "status": "completed"
            },
            "fullUrl": "https://madie.cms.gov/ServiceRequest/db73e84a-4cb7-48e0-800b-e01f903bf267"
        },
        {
            "request": {
                "method": "PUT",
                "url": "MedicationRequest/9dd16aa3-1a6a-4af2-8204-d6cc8e9f4c76"
            },
            "resource": {
                "requester": {"reference": "Practitioner/Practitioner-123456"},
                "authoredOn": "2026-12-31T10:20:00.000+00:00",
                "meta": {"profile": ["http://hl7.org/fhir/us/qicore/StructureDefinition/qicore-mednotrequested"]},
                "subject": {"reference": "Patient/c41f9946-cb0f-4489-8367-581a5b876165"},
                "id": "9dd16aa3-1a6a-4af2-8204-d6cc8e9f4c76",
                "reasonCode": [{"coding": [{
                    "system": "http://snomed.info/sct",
                    "code": "1296859006",
                    "display": "Procedure declined (situation)"
                }]}],
                "doNotPerform": true,
                "medicationCodeableConcept": {"coding": [{
                    "system": "http://www.nlm.nih.gov/research/umls/rxnorm",
                    "code": "1000001",
                    "userSelected": true,
                    "display": "amlodipine 5 MG / hydrochlorothiazide 25 MG / olmesartan medoxomil 40 MG Oral Tablet"
                }]},
                "intent": "order",
                "resourceType": "MedicationRequest",
                "status": "completed"
            },
            "fullUrl": "https://madie.cms.gov/MedicationRequest/9dd16aa3-1a6a-4af2-8204-d6cc8e9f4c76"
        },
        {
            "request": {
                "method": "PUT",
                "url": "ServiceRequest/ec3ec918-b9fa-4ba9-9db3-902d45311b73"
            },
            "resource": {
                "extension": [{
                    "valueCodeableConcept": {"coding": [{
                        "system": "http://snomed.info/sct",
                        "code": "413311005",
                        "userSelected": true,
                        "display": "Patient non-compliant - declined intervention / support (situation)",
                        "version": "2022-03"
                    }]},
                    "url": "http://hl7.org/fhir/us/qicore/StructureDefinition/qicore-doNotPerformReason"
                }],
                "code": {"coding": [{
                    "system": "http://loinc.org",
                    "code": "24320-4",
                    "userSelected": true,
                    "display": "Basic metabolic 1998 panel - Serum or Plasma",
                    "version": "2.72"
                }]},
                "authoredOn": "2026-12-31T10:02:00.000+00:00",
                "meta": {"profile": ["http://hl7.org/fhir/us/qicore/StructureDefinition/qicore-servicenotrequested"]},
                "subject": {"reference": "Patient/c41f9946-cb0f-4489-8367-581a5b876165"},
                "id": "ec3ec918-b9fa-4ba9-9db3-902d45311b73",
                "doNotPerform": true,
                "intent": "order",
                "resourceType": "ServiceRequest",
                "status": "completed"
            },
            "fullUrl": "https://madie.cms.gov/ServiceRequest/ec3ec918-b9fa-4ba9-9db3-902d45311b73"
        },
        {
            "request": {
                "method": "PUT",
                "url": "ServiceRequest/fc90f691-7d3b-488a-b07d-bccc04639b81"
            },
            "resource": {
                "extension": [{
                    "valueCodeableConcept": {"coding": [{
                        "system": "http://snomed.info/sct",
                        "code": "413311005",
                        "userSelected": true,
                        "display": "Patient non-compliant - declined intervention / support (situation)",
                        "version": "2022-03"
                    }]},
                    "url": "http://hl7.org/fhir/us/qicore/StructureDefinition/qicore-doNotPerformReason"
                }],
                "code": {"coding": [{
                    "system": "http://loinc.org",
                    "code": "34534-8",
                    "userSelected": true,
                    "display": "EKG 12 channel panel"
                }]},
                "authoredOn": "2026-12-31T10:20:00.000+00:00",
                "meta": {"profile": ["http://hl7.org/fhir/us/qicore/StructureDefinition/qicore-servicenotrequested"]},
                "subject": {"reference": "Patient/c41f9946-cb0f-4489-8367-581a5b876165"},
                "id": "fc90f691-7d3b-488a-b07d-bccc04639b81",
                "doNotPerform": true,
                "intent": "order",
                "resourceType": "ServiceRequest",
                "status": "completed"
            },
            "fullUrl": "https://madie.cms.gov/ServiceRequest/fc90f691-7d3b-488a-b07d-bccc04639b81"
        },
        {
            "request": {
                "method": "PUT",
                "url": "ServiceRequest/fc90f691-7d3b-488a-b07d-bccc04639b81"
            },
            "resource": {
                "extension": [{
                    "valueCodeableConcept": {"coding": [{
                        "system": "http://snomed.info/sct",
                        "code": "413311005",
                        "userSelected": true,
                        "display": "Patient non-compliant - declined intervention / support (situation)",
                        "version": "2022-03"
                    }]},
                    "url": "http://hl7.org/fhir/us/qicore/StructureDefinition/qicore-doNotPerformReason"
                }],
                "code": {"coding": [{
                    "system": "http://loinc.org",
                    "code": "11524-6",
                    "userSelected": true,
                    "display": "EKG study"
                }]},
                "authoredOn": "2026-12-31T10:20:00.000+00:00",
                "meta": {"profile": ["http://hl7.org/fhir/us/qicore/StructureDefinition/qicore-servicenotrequested"]},
                "subject": {"reference": "Patient/c41f9946-cb0f-4489-8367-581a5b876165"},
                "id": "fc90f691-7d3b-488a-b07d-bccc04639b81",
                "doNotPerform": true,
                "intent": "order",
                "resourceType": "ServiceRequest",
                "status": "completed"
            },
            "fullUrl": "https://madie.cms.gov/ServiceRequest/fc90f691-7d3b-488a-b07d-bccc04639b81"
        },
        {
            "request": {
                "method": "PUT",
                "url": "ServiceRequest/18836632-bcc8-40e4-aa7b-b502b8d0d189"
            },
            "resource": {
                "extension": [{
                    "valueCodeableConcept": {"coding": [{
                        "system": "http://snomed.info/sct",
                        "code": "413311005",
                        "userSelected": true,
                        "display": "Patient non-compliant - declined intervention / support (situation)",
                        "version": "2022-03"
                    }]},
                    "url": "http://hl7.org/fhir/us/qicore/StructureDefinition/qicore-doNotPerformReason"
                }],
                "code": {"coding": [{
                    "system": "http://snomed.info/sct",
                    "code": "183625007",
                    "userSelected": true,
                    "display": "Follow-up 4-6 months (finding)"
                }]},
                "authoredOn": "2026-12-31T10:20:00.000+00:00",
                "meta": {"profile": ["http://hl7.org/fhir/us/qicore/StructureDefinition/qicore-servicenotrequested"]},
                "subject": {"reference": "Patient/c41f9946-cb0f-4489-8367-581a5b876165"},
                "id": "18836632-bcc8-40e4-aa7b-b502b8d0d189",
                "doNotPerform": true,
                "intent": "order",
                "resourceType": "ServiceRequest",
                "status": "completed"
            },
            "fullUrl": "https://madie.cms.gov/ServiceRequest/18836632-bcc8-40e4-aa7b-b502b8d0d189"
        },
        {
            "request": {
                "method": "PUT",
                "url": "MedicationRequest/b924e382-f4a0-42d7-8a4b-560914a4c13b"
            },
            "resource": {
                "requester": {"reference": "Practitioner/Practitioner-123456"},
                "authoredOn": "2026-12-31T10:20:00.000+00:00",
                "meta": {"profile": ["http://hl7.org/fhir/us/qicore/StructureDefinition/qicore-medicationnotrequested"]},
                "subject": {"reference": "Patient/c41f9946-cb0f-4489-8367-581a5b876165"},
                "id": "b924e382-f4a0-42d7-8a4b-560914a4c13b",
                "reasonCode": [{"coding": [{
                    "system": "http://snomed.info/sct",
                    "code": "1296859006",
                    "display": "Procedure declined (situation)"
                }]}],
                "doNotPerform": true,
                "medicationCodeableConcept": {"coding": [{
                    "system": "http://www.nlm.nih.gov/research/umls/rxnorm",
                    "code": "1000001",
                    "userSelected": true,
                    "display": "amlodipine 5 MG / hydrochlorothiazide 25 MG / olmesartan medoxomil 40 MG Oral Tablet"
                }]},
                "intent": "order",
                "resourceType": "MedicationRequest",
                "status": "completed"
            },
            "fullUrl": "https://madie.cms.gov/MedicationRequest/b924e382-f4a0-42d7-8a4b-560914a4c13b"
        },
        {
            "request": {
                "method": "PUT",
                "url": "Coverage/5ca69200-5cd6-4d3f-bc5f-b32ab324c173"
            },
            "resource": {
                "payor": [{"reference": "Organization/f1fa3b18-23a8-411b-a323-3e2052d0de3c"}],
                "beneficiary": {"reference": "Patient/c41f9946-cb0f-4489-8367-581a5b876165"},
                "meta": {"profile": ["http://hl7.org/fhir/us/qicore/StructureDefinition/qicore-coverage"]},
                "id": "5ca69200-5cd6-4d3f-bc5f-b32ab324c173",
                "resourceType": "Coverage",
                "status": "active"
            },
            "fullUrl": "https://madie.cms.gov/Coverage/5ca69200-5cd6-4d3f-bc5f-b32ab324c173"
        },
        {
            "request": {
                "method": "PUT",
                "url": "Organization/f1fa3b18-23a8-411b-a323-3e2052d0de3c"
            },
            "resource": {
                "identifier": [{
                    "system": "urn:oid:2.16.840.1.113883.4.4",
                    "use": "temp",
                    "value": "21-3259825"
                }],
                "address": [{
                    "country": "USA",
                    "city": "Dallas",
                    "use": "billing",
                    "line": ["P.O. Box 660044"],
                    "postalCode": "75266-0044",
                    "state": "TX",
                    "type": "postal"
                }],
                "meta": {"profile": ["http://hl7.org/fhir/us/qicore/StructureDefinition/qicore-organization"]},
                "name": "Blue Cross Blue Shield of Texas",
                "active": true,
                "telecom": [{
                    "system": "phone",
                    "value": "(+1) 972-766-6900"
                }],
                "id": "f1fa3b18-23a8-411b-a323-3e2052d0de3c",
                "type": [{"coding": [{
                    "system": "http://terminology.hl7.org/CodeSystem/organization-type",
                    "code": "pay",
                    "display": "Payer"
                }]}],
                "resourceType": "Organization"
            },
            "fullUrl": "https://madie.cms.gov/Organization/f1fa3b18-23a8-411b-a323-3e2052d0de3c"
        },
        {
            "request": {
                "method": "PUT",
                "url": "Practitioner/542c1db0-5a68-4201-a751-c3e5f37bdd95"
            },
            "resource": {
                "identifier": [{
                    "system": "http://hl7.org/fhir/sid/us-npi",
                    "value": "123456"
                }],
                "meta": {"profile": ["http://hl7.org/fhir/us/qicore/StructureDefinition/qicore-practitioner"]},
                "name": [{
                    "prefix": ["Dr"],
                    "family": "Evil"
                }],
                "id": "542c1db0-5a68-4201-a751-c3e5f37bdd95",
                "resourceType": "Practitioner"
            },
            "fullUrl": "https://madie.cms.gov/Practitioner/542c1db0-5a68-4201-a751-c3e5f37bdd95"
        },
        {
            "request": {
                "method": "PUT",
                "url": "MeasureReport/48c31241-a793-4381-b979-fb6b3a8f6323"
            },
            "resource": {
                "contained": [{
                    "parameter": [{
                        "valueString": "c41f9946-cb0f-4489-8367-581a5b876165",
                        "name": "subject"
                    }],
                    "id": "f3cb04db-24e7-4801-8b08-7c581e5fce20-parameters",
                    "resourceType": "Parameters"
                }],
                "extension": [
                    {
                        "valueReference": {"reference": "#f3cb04db-24e7-4801-8b08-7c581e5fce20-parameters"},
                        "url": "http://hl7.org/fhir/StructureDefinition/cqf-inputParameters"
                    },
                    {
                        "valueMarkdown": "1st enc. 01/01 0800-0830 during MP 140/79 (corrected), declined recommendation to lose weight.\n2nd enc. 12/31 1000-1045 during MP 140/90, declined EKG, medication, detox, ",
                        "url": "http://hl7.org/fhir/us/cqfmeasures/StructureDefinition/cqfm-testCaseDescription"
                    }
                ],
                "period": {
                    "start": "2026-01-01",
                    "end": "2026-12-31"
                },
                "measure": "https://madie.cms.gov/Measure/CMS22FHIRPCSBPScreeningFollowUp",
                "meta": {"profile": ["http://hl7.org/fhir/us/cqfmeasures/StructureDefinition/test-case-cqfm"]},
                "modifierExtension": [{
                    "valueBoolean": true,
                    "url": "http://hl7.org/fhir/us/cqfmeasures/StructureDefinition/cqfm-isTestCase"
                }],
                "id": "48c31241-a793-4381-b979-fb6b3a8f6323",
                "evaluatedResource": [
                    {"reference": "Patient/c41f9946-cb0f-4489-8367-581a5b876165"},
                    {"reference": "Encounter/01d0a24e-661f-4e7c-b054-3e76da8d3c0a"},
                    {"reference": "Observation/f7121f96-2afc-4886-831c-70e3611a8d0f"},
                    {"reference": "ServiceRequest/d859b37b-ca05-4368-be0a-76f0676b2c0d"},
                    {"reference": "Encounter/0cccfd30-df7b-4165-bdbb-e6a6bb80fc7b"},
                    {"reference": "Observation/add33a81-c345-479f-b3f2-b47cc76d4007"},
                    {"reference": "ServiceRequest/db73e84a-4cb7-48e0-800b-e01f903bf267"},
                    {"reference": "ServiceRequest/db73e84a-4cb7-48e0-800b-e01f903bf267"},
                    {"reference": "MedicationRequest/9dd16aa3-1a6a-4af2-8204-d6cc8e9f4c76"},
                    {"reference": "ServiceRequest/ec3ec918-b9fa-4ba9-9db3-902d45311b73"},
                    {"reference": "ServiceRequest/fc90f691-7d3b-488a-b07d-bccc04639b81"},
                    {"reference": "ServiceRequest/fc90f691-7d3b-488a-b07d-bccc04639b81"},
                    {"reference": "ServiceRequest/18836632-bcc8-40e4-aa7b-b502b8d0d189"},
                    {"reference": "MedicationRequest/b924e382-f4a0-42d7-8a4b-560914a4c13b"},
                    {"reference": "Coverage/5ca69200-5cd6-4d3f-bc5f-b32ab324c173"},
                    {"reference": "Organization/f1fa3b18-23a8-411b-a323-3e2052d0de3c"},
                    {"reference": "Practitioner/542c1db0-5a68-4201-a751-c3e5f37bdd95"}
                ],
                "type": "individual",
                "resourceType": "MeasureReport",
                "status": "complete",
                "group": [{
                    "id": "Group_1",
                    "measureScore": {"value": 0},
                    "population": [
                        {
                            "code": {"coding": [{
                                "system": "http://terminology.hl7.org/CodeSystem/measure-population",
                                "code": "initial-population",
                                "display": "Initial Population"
                            }]},
                            "count": 2,
                            "id": "InitialPopulation_1"
                        },
                        {
                            "code": {"coding": [{
                                "system": "http://terminology.hl7.org/CodeSystem/measure-population",
                                "code": "denominator",
                                "display": "Denominator"
                            }]},
                            "count": 2,
                            "id": "Denominator_1"
                        },
                        {
                            "code": {"coding": [{
                                "system": "http://terminology.hl7.org/CodeSystem/measure-population",
                                "code": "denominator-exclusion",
                                "display": "Denominator Exclusion"
                            }]},
                            "count": 0,
                            "id": "DenominatorExclusion_1"
                        },
                        {
                            "code": {"coding": [{
                                "system": "http://terminology.hl7.org/CodeSystem/measure-population",
                                "code": "numerator",
                                "display": "Numerator"
                            }]},
                            "count": 0,
                            "id": "Numerator_1"
                        },
                        {
                            "code": {"coding": [{
                                "system": "http://terminology.hl7.org/CodeSystem/measure-population",
                                "code": "denominator-exception",
                                "display": "Denominator Exception"
                            }]},
                            "count": 2,
                            "id": "DenominatorException_1"
                        }
                    ]
                }]
            },
            "fullUrl": "https://madie.cms.gov/MeasureReport/48c31241-a793-4381-b979-fb6b3a8f6323"
        }
    ],
    "id": "62d08d43ab06d8c02b5741d0",
    "type": "transaction",
    "resourceType": "Bundle"
}