{
  "resourceType": "Bundle",
  "id": "635300f1224f3b0539671247",
  "type": "transaction",
  "entry": [ {
    "fullUrl": "https://madie.cms.gov/Patient/971a20ab-c583-4260-954f-101d4b96554d",
    "resource": {
      "resourceType": "Patient",
      "id": "971a20ab-c583-4260-954f-101d4b96554d",
      "meta": {
        "profile": [ "http://hl7.org/fhir/us/qicore/StructureDefinition/qicore-patient" ]
      },
      "extension": [ {
        "url": "http://hl7.org/fhir/us/core/StructureDefinition/us-core-race",
        "extension": [ {
          "url": "ombCategory",
          "valueCoding": {
            "system": "urn:oid:2.16.840.1.113883.6.238",
            "code": "1002-5",
            "display": "American Indian or Alaska Native",
            "userSelected": true
          }
        }, {
          "url": "text",
          "valueString": "American Indian or Alaska Native"
        } ]
      }, {
        "url": "http://hl7.org/fhir/us/core/StructureDefinition/us-core-ethnicity",
        "extension": [ {
          "url": "ombCategory",
          "valueCoding": {
            "system": "urn:oid:2.16.840.1.113883.6.238",
            "code": "2135-2",
            "display": "Hispanic or Latino",
            "userSelected": true
          }
        }, {
          "url": "text",
          "valueString": "Hispanic or Latino"
        } ]
      } ],
      "identifier": [ {
        "type": {
          "coding": [ {
            "system": "http://terminology.hl7.org/CodeSystem/v2-0203",
            "code": "MR"
          } ]
        },
        "system": "https://bonnie-fhir.healthit.gov/",
        "value": "635300f1224f3b0539671247"
      } ],
      "name": [ {
        "family": "DENOMFAIL",
        "given": [ "EDDDateOnly" ]
      } ],
      "gender": "female",
      "birthDate": "2005-02-01"
    },
    "request": {
      "method": "PUT",
      "url": "Patient/971a20ab-c583-4260-954f-101d4b96554d"
    }
  }, {
    "fullUrl": "https://madie.cms.gov/Encounter/0658b87a-de18-4950-80ec-9225908a07ac",
    "resource": {
      "resourceType": "Encounter",
      "id": "0658b87a-de18-4950-80ec-9225908a07ac",
      "meta": {
        "profile": [ "http://hl7.org/fhir/us/qicore/StructureDefinition/qicore-encounter" ]
      },
      "status": "finished",
      "class": {
        "system": "http://terminology.hl7.org/CodeSystem/v3-ActCode",
        "code": "IMP",
        "display": "inpatient encounter"
      },
      "type": [ {
        "coding": [ {
          "system": "http://snomed.info/sct",
          "version": "2022-09",
          "code": "183452005",
          "display": "Emergency hospital admission (procedure)",
          "userSelected": true
        } ]
      } ],
      "subject": {
        "reference": "Patient/971a20ab-c583-4260-954f-101d4b96554d"
      },
      "period": {
        "start": "2026-02-01T08:00:00Z",
        "end": "2026-02-05T08:15:00.000+00:00"
      },
      "reasonCode": [ {
        "coding": [ {
          "system": "http://snomed.info/sct",
          "code": "169826009",
          "display": "Single live birth from singleton pregnancy (finding)"
        } ]
      } ]
    },
    "request": {
      "method": "PUT",
      "url": "Encounter/0658b87a-de18-4950-80ec-9225908a07ac"
    }
  }, {
    "fullUrl": "https://madie.cms.gov/Procedure/822130db-ff4f-4d95-b438-8c9aa8d22521",
    "resource": {
      "resourceType": "Procedure",
      "id": "822130db-ff4f-4d95-b438-8c9aa8d22521",
      "meta": {
        "profile": [ "http://hl7.org/fhir/us/qicore/StructureDefinition/qicore-procedure" ]
      },
      "extension": [ {
        "url": "http://hl7.org/fhir/us/qicore/StructureDefinition/qicore-recorded",
        "valueDateTime": "2014-04-05T13:35:00Z"
      } ],
      "status": "completed",
      "code": {
        "coding": [ {
          "system": "http://snomed.info/sct",
          "version": "2022-09",
          "code": "10745001",
          "display": "Delivery of transverse presentation (procedure)",
          "userSelected": true
        } ]
      },
      "subject": {
        "reference": "Patient/971a20ab-c583-4260-954f-101d4b96554d"
      },
      "performedPeriod": {
        "start": "2026-02-01T08:00:00Z",
        "end": "2026-02-05T08:15:00.000+00:00"
      }
    },
    "request": {
      "method": "PUT",
      "url": "Procedure/822130db-ff4f-4d95-b438-8c9aa8d22521"
    }
  }, {
    "fullUrl": "https://madie.cms.gov/Observation/032c7d39-10f3-4e7e-af7c-461c20d8c83d",
    "resource": {
      "resourceType": "Observation",
      "id": "032c7d39-10f3-4e7e-af7c-461c20d8c83d",
      "meta": {
        "profile": [ "http://hl7.org/fhir/us/qicore/StructureDefinition/qicore-simple-observation" ]
      },
      "status": "final",
      "category": [ {
        "coding": [ {
          "system": "http://terminology.hl7.org/CodeSystem/observation-category",
          "code": "exam",
          "display": "exam",
          "userSelected": true
        } ]
      } ],
      "code": {
        "coding": [ {
          "system": "http://loinc.org",
          "code": "93857-1",
          "display": "Date and time of obstetric delivery",
          "userSelected": true
        } ]
      },
      "subject": {
        "reference": "Patient/971a20ab-c583-4260-954f-101d4b96554d"
      },
      "effectiveDateTime": "2026-02-01T08:00:00Z",
      "performer": [ {
        "reference": "Organization/example1",
        "display": "Hendricks Country Hospital"
      } ],
      "valueDateTime": "2026-02-01T08:00:00.000+00:00"
    },
    "request": {
      "method": "PUT",
      "url": "Observation/032c7d39-10f3-4e7e-af7c-461c20d8c83d"
    }
  }, {
    "fullUrl": "https://madie.cms.gov/Observation/0d904d6b-24ff-4980-8aa9-eb46d647e12b",
    "resource": {
      "resourceType": "Observation",
      "id": "0d904d6b-24ff-4980-8aa9-eb46d647e12b",
      "meta": {
        "profile": [ "http://hl7.org/fhir/us/qicore/StructureDefinition/qicore-simple-observation" ]
      },
      "status": "final",
      "category": [ {
        "coding": [ {
          "system": "http://terminology.hl7.org/CodeSystem/observation-category",
          "code": "exam",
          "display": "exam",
          "userSelected": true
        } ]
      } ],
      "code": {
        "coding": [ {
          "system": "http://loinc.org",
          "code": "11778-8",
          "display": "Delivery date Estimated",
          "userSelected": true
        } ]
      },
      "subject": {
        "reference": "Patient/971a20ab-c583-4260-954f-101d4b96554d"
      },
      "effectiveDateTime": "2026-01-31T08:00:00Z",
      "performer": [ {
        "reference": "Organization/example1",
        "display": "Hendricks Country Hospital"
      } ]
    },
    "request": {
      "method": "PUT",
      "url": "Observation/0d904d6b-24ff-4980-8aa9-eb46d647e12b"
    }
  }, {
    "fullUrl": "https://madie.cms.gov/Coverage/3eedf7b6-c26b-4e04-ac10-d80b6d34843a",
    "resource": {
      "resourceType": "Coverage",
      "id": "3eedf7b6-c26b-4e04-ac10-d80b6d34843a",
      "meta": {
        "profile": [ "http://hl7.org/fhir/us/qicore/StructureDefinition/qicore-practitioner" ]
      },
      "status": "active",
      "beneficiary": {
        "reference": "Patient/971a20ab-c583-4260-954f-101d4b96554d"
      },
      "payor": [ {
        "reference": "Organization/658b7d83-5091-4c06-a3ec-6d3ab689b4fd"
      } ]
    },
    "request": {
      "method": "PUT",
      "url": "Coverage/3eedf7b6-c26b-4e04-ac10-d80b6d34843a"
    }
  }, {
    "fullUrl": "https://madie.cms.gov/Organization/658b7d83-5091-4c06-a3ec-6d3ab689b4fd",
    "resource": {
      "resourceType": "Organization",
      "id": "658b7d83-5091-4c06-a3ec-6d3ab689b4fd",
      "meta": {
        "profile": [ "http://hl7.org/fhir/us/qicore/StructureDefinition/qicore-organization" ]
      },
      "identifier": [ {
        "use": "temp",
        "system": "urn:oid:2.16.840.1.113883.4.4",
        "value": "21-3259825"
      } ],
      "active": true,
      "type": [ {
        "coding": [ {
          "system": "http://terminology.hl7.org/CodeSystem/organization-type",
          "code": "pay",
          "display": "Payer"
        } ]
      } ],
      "name": "Blue Cross Blue Shield of Texas",
      "telecom": [ {
        "system": "phone",
        "value": "(+1) 972-766-6900"
      } ],
      "address": [ {
        "use": "billing",
        "type": "postal",
        "line": [ "P.O. Box 660044" ],
        "city": "Dallas",
        "state": "TX",
        "postalCode": "75266-0044",
        "country": "USA"
      } ]
    },
    "request": {
      "method": "PUT",
      "url": "Organization/658b7d83-5091-4c06-a3ec-6d3ab689b4fd"
    }
  }, {
    "fullUrl": "https://madie.cms.gov/Practitioner/bf686a44-c94c-4246-9fc5-93e2068691ce",
    "resource": {
      "resourceType": "Practitioner",
      "id": "bf686a44-c94c-4246-9fc5-93e2068691ce",
      "meta": {
        "profile": [ "http://hl7.org/fhir/us/qicore/StructureDefinition/qicore-practitioner" ]
      },
      "identifier": [ {
        "system": "http://hl7.org/fhir/sid/us-npi",
        "value": "9969598752"
      } ],
      "name": [ {
        "family": "Evil",
        "prefix": [ "Dr" ]
      } ]
    },
    "request": {
      "method": "PUT",
      "url": "Practitioner/bf686a44-c94c-4246-9fc5-93e2068691ce"
    }
  }, {
    "fullUrl": "https://madie.cms.gov/MeasureReport/968f8886-146d-47cf-8680-a81d4f12c76b",
    "resource": {
      "resourceType": "MeasureReport",
      "id": "968f8886-146d-47cf-8680-a81d4f12c76b",
      "meta": {
        "profile": [ "http://hl7.org/fhir/us/cqfmeasures/StructureDefinition/test-case-cqfm" ]
      },
      "contained": [ {
        "resourceType": "Parameters",
        "id": "eb71d996-64e7-4176-a338-eccf65f3dd51-parameters",
        "parameter": [ {
          "name": "subject",
          "valueString": "971a20ab-c583-4260-954f-101d4b96554d"
        } ]
      } ],
      "extension": [ {
        "url": "http://hl7.org/fhir/StructureDefinition/cqf-inputParameters",
        "valueReference": {
          "reference": "#eb71d996-64e7-4176-a338-eccf65f3dd51-parameters"
        }
      }, {
        "url": "http://hl7.org/fhir/us/cqfmeasures/StructureDefinition/cqfm-testCaseDescription",
        "valueMarkdown": "Last assessment Performed, Estimated Delivery Date, Relevant time, 24 hours 1 min before Delivery Result Date/Time.  EDD has effectiveDateTime only; fails with no result returned (\"valueDateTime\": \"2025-01-31\" removed)\n"
      } ],
      "modifierExtension": [ {
        "url": "http://hl7.org/fhir/us/cqfmeasures/StructureDefinition/cqfm-isTestCase",
        "valueBoolean": true
      } ],
      "status": "complete",
      "type": "individual",
      "measure": "https://madie.cms.gov/Measure/CMS1028FHIRPCSevereOBComps",
      "period": {
        "start": "2026-01-01",
        "end": "2026-12-31"
      },
      "group": [ {
        "id": "Group_1",
        "population": [ {
          "id": "InitialPopulation_1",
          "code": {
            "coding": [ {
              "system": "http://terminology.hl7.org/CodeSystem/measure-population",
              "code": "initial-population",
              "display": "Initial Population"
            } ]
          },
          "count": 1
        }, {
          "id": "Denominator_1",
          "code": {
            "coding": [ {
              "system": "http://terminology.hl7.org/CodeSystem/measure-population",
              "code": "denominator",
              "display": "Denominator"
            } ]
          },
          "count": 0
        }, {
          "id": "Numerator_1",
          "code": {
            "coding": [ {
              "system": "http://terminology.hl7.org/CodeSystem/measure-population",
              "code": "numerator",
              "display": "Numerator"
            } ]
          },
          "count": 0
        }, {
          "id": "NumeratorExclusion_1",
          "code": {
            "coding": [ {
              "system": "http://terminology.hl7.org/CodeSystem/measure-population",
              "code": "numerator-exclusion",
              "display": "Numerator Exclusion"
            } ]
          },
          "count": 0
        } ],
        "measureScore": {
          "value": 0.0
        }
      }, {
        "id": "Group_2",
        "population": [ {
          "id": "InitialPopulation_2",
          "code": {
            "coding": [ {
              "system": "http://terminology.hl7.org/CodeSystem/measure-population",
              "code": "initial-population",
              "display": "Initial Population"
            } ]
          },
          "count": 1
        }, {
          "id": "Denominator_2",
          "code": {
            "coding": [ {
              "system": "http://terminology.hl7.org/CodeSystem/measure-population",
              "code": "denominator",
              "display": "Denominator"
            } ]
          },
          "count": 0
        }, {
          "id": "Numerator_2",
          "code": {
            "coding": [ {
              "system": "http://terminology.hl7.org/CodeSystem/measure-population",
              "code": "numerator",
              "display": "Numerator"
            } ]
          },
          "count": 0
        }, {
          "id": "NumeratorExclusion_2",
          "code": {
            "coding": [ {
              "system": "http://terminology.hl7.org/CodeSystem/measure-population",
              "code": "numerator-exclusion",
              "display": "Numerator Exclusion"
            } ]
          },
          "count": 0
        } ],
        "measureScore": {
          "value": 0.0
        }
      } ],
      "evaluatedResource": [ {
        "reference": "Patient/971a20ab-c583-4260-954f-101d4b96554d"
      }, {
        "reference": "Encounter/0658b87a-de18-4950-80ec-9225908a07ac"
      }, {
        "reference": "Procedure/822130db-ff4f-4d95-b438-8c9aa8d22521"
      }, {
        "reference": "Observation/032c7d39-10f3-4e7e-af7c-461c20d8c83d"
      }, {
        "reference": "Observation/0d904d6b-24ff-4980-8aa9-eb46d647e12b"
      }, {
        "reference": "Coverage/3eedf7b6-c26b-4e04-ac10-d80b6d34843a"
      }, {
        "reference": "Organization/658b7d83-5091-4c06-a3ec-6d3ab689b4fd"
      }, {
        "reference": "Practitioner/bf686a44-c94c-4246-9fc5-93e2068691ce"
      } ]
    },
    "request": {
      "method": "PUT",
      "url": "MeasureReport/968f8886-146d-47cf-8680-a81d4f12c76b"
    }
  } ]
}