{
    "entry": [
        {
            "request": {
                "method": "PUT",
                "url": "Patient/9df71b27-b988-421e-87ba-671a39f0b0b2"
            },
            "resource": {
                "identifier": [{
                    "system": "https://bonnie-fhir.healthit.gov/",
                    "type": {"coding": [{
                        "system": "http://terminology.hl7.org/CodeSystem/v2-0203",
                        "code": "MR"
                    }]},
                    "value": "62a89870cadf7512b3f7b30c"
                }],
                "extension": [
                    {
                        "extension": [
                            {
                                "valueCoding": {
                                    "system": "urn:oid:2.16.840.1.113883.6.238",
                                    "code": "1002-5",
                                    "userSelected": true,
                                    "display": "American Indian or Alaska Native"
                                },
                                "url": "ombCategory"
                            },
                            {
                                "valueString": "American Indian or Alaska Native",
                                "url": "text"
                            }
                        ],
                        "url": "http://hl7.org/fhir/us/core/StructureDefinition/us-core-race"
                    },
                    {
                        "extension": [
                            {
                                "valueCoding": {
                                    "system": "urn:oid:2.16.840.1.113883.6.238",
                                    "code": "2135-2",
                                    "userSelected": true,
                                    "display": "Hispanic or Latino"
                                },
                                "url": "ombCategory"
                            },
                            {
                                "valueString": "Hispanic or Latino",
                                "url": "text"
                            }
                        ],
                        "url": "http://hl7.org/fhir/us/core/StructureDefinition/us-core-ethnicity"
                    },
                    {
                        "valueCode": "248153007",
                        "url": "http://hl7.org/fhir/us/core/StructureDefinition/us-core-sex"
                    }
                ],
                "gender": "male",
                "meta": {"profile": ["http://hl7.org/fhir/us/qicore/StructureDefinition/qicore-patient"]},
                "name": [{
                    "given": ["HypertensionBeforeEnc"],
                    "family": "DENEXPass"
                }],
                "id": "9df71b27-b988-421e-87ba-671a39f0b0b2",
                "birthDate": "2007-01-01",
                "resourceType": "Patient"
            },
            "fullUrl": "https://madie.cms.gov/Patient/9df71b27-b988-421e-87ba-671a39f0b0b2"
        },
        {
            "request": {
                "method": "PUT",
                "url": "Encounter/f6ad4f50-8534-4f19-9832-13a0e7243c80"
            },
            "resource": {
                "period": {
                    "start": "2026-12-31T08:00:00.000+00:00",
                    "end": "2026-12-31T10:00:00.000+00:00"
                },
                "meta": {"profile": ["http://hl7.org/fhir/us/qicore/StructureDefinition/qicore-encounter"]},
                "subject": {"reference": "Patient/9df71b27-b988-421e-87ba-671a39f0b0b2"},
                "id": "f6ad4f50-8534-4f19-9832-13a0e7243c80",
                "type": [{"coding": [{
                    "system": "http://snomed.info/sct",
                    "code": "4525004",
                    "userSelected": true,
                    "display": "Emergency department patient visit (procedure)",
                    "version": "2022-03"
                }]}],
                "class": {
                    "system": "http://terminology.hl7.org/CodeSystem/v3-ActCode",
                    "code": "AMB",
                    "display": "ambulatory"
                },
                "resourceType": "Encounter",
                "status": "finished"
            },
            "fullUrl": "https://madie.cms.gov/Encounter/f6ad4f50-8534-4f19-9832-13a0e7243c80"
        },
        {
            "request": {
                "method": "PUT",
                "url": "Condition/2c661a5f-db9b-45c2-83d8-7abf51b9b815"
            },
            "resource": {
                "code": {"coding": [{
                    "system": "http://snomed.info/sct",
                    "code": "31992008",
                    "userSelected": true,
                    "display": "Secondary hypertension (disorder)",
                    "version": "2022-03"
                }]},
                "verificationStatus": {"coding": [{
                    "system": "http://terminology.hl7.org/CodeSystem/condition-ver-status",
                    "code": "confirmed",
                    "userSelected": true,
                    "display": "Confirmed"
                }]},
                "meta": {"profile": ["http://hl7.org/fhir/us/qicore/StructureDefinition/qicore-condition-problems-health-concerns"]},
                "subject": {"reference": "Patient/9df71b27-b988-421e-87ba-671a39f0b0b2"},
                "id": "2c661a5f-db9b-45c2-83d8-7abf51b9b815",
                "clinicalStatus": {"coding": [{
                    "system": "http://terminology.hl7.org/CodeSystem/condition-clinical",
                    "code": "relapse",
                    "userSelected": true,
                    "display": "relapse"
                }]},
                "category": [{"coding": [{
                    "system": "http://terminology.hl7.org/CodeSystem/condition-category",
                    "code": "problem-list-item",
                    "display": "Problem List Item"
                }]}],
                "onsetDateTime": "2026-12-30T08:00:00.000+00:00",
                "resourceType": "Condition"
            },
            "fullUrl": "https://madie.cms.gov/Condition/2c661a5f-db9b-45c2-83d8-7abf51b9b815"
        },
        {
            "request": {
                "method": "PUT",
                "url": "Coverage/803ab0a3-e33f-499d-b58f-9949eddb68ba"
            },
            "resource": {
                "payor": [{"reference": "Organization/136f7b78-85c8-4a48-a2f9-c5c4529085b4"}],
                "beneficiary": {"reference": "Patient/9df71b27-b988-421e-87ba-671a39f0b0b2"},
                "meta": {"profile": ["http://hl7.org/fhir/us/qicore/StructureDefinition/qicore-coverage"]},
                "id": "803ab0a3-e33f-499d-b58f-9949eddb68ba",
                "resourceType": "Coverage",
                "status": "active"
            },
            "fullUrl": "https://madie.cms.gov/Coverage/803ab0a3-e33f-499d-b58f-9949eddb68ba"
        },
        {
            "request": {
                "method": "PUT",
                "url": "Organization/136f7b78-85c8-4a48-a2f9-c5c4529085b4"
            },
            "resource": {
                "identifier": [{
                    "system": "urn:oid:2.16.840.1.113883.4.4",
                    "use": "temp",
                    "value": "21-3259825"
                }],
                "address": [{
                    "country": "USA",
                    "city": "Dallas",
                    "use": "billing",
                    "line": ["P.O. Box 660044"],
                    "postalCode": "75266-0044",
                    "state": "TX",
                    "type": "postal"
                }],
                "meta": {"profile": ["http://hl7.org/fhir/us/qicore/StructureDefinition/qicore-organization"]},
                "name": "Blue Cross Blue Shield of Texas",
                "active": true,
                "telecom": [{
                    "system": "phone",
                    "value": "(+1) 972-766-6900"
                }],
                "id": "136f7b78-85c8-4a48-a2f9-c5c4529085b4",
                "type": [{"coding": [{
                    "system": "http://terminology.hl7.org/CodeSystem/organization-type",
                    "code": "pay",
                    "display": "Payer"
                }]}],
                "resourceType": "Organization"
            },
            "fullUrl": "https://madie.cms.gov/Organization/136f7b78-85c8-4a48-a2f9-c5c4529085b4"
        },
        {
            "request": {
                "method": "PUT",
                "url": "Practitioner/0d5d974d-1cd4-4825-9015-400b926f2d6f"
            },
            "resource": {
                "identifier": [{
                    "system": "http://hl7.org/fhir/sid/us-npi",
                    "value": "123456"
                }],
                "meta": {"profile": ["http://hl7.org/fhir/us/qicore/StructureDefinition/qicore-practitioner"]},
                "name": [{
                    "prefix": ["Dr"],
                    "family": "Evil"
                }],
                "id": "0d5d974d-1cd4-4825-9015-400b926f2d6f",
                "resourceType": "Practitioner"
            },
            "fullUrl": "https://madie.cms.gov/Practitioner/0d5d974d-1cd4-4825-9015-400b926f2d6f"
        },
        {
            "request": {
                "method": "PUT",
                "url": "MeasureReport/652f7d43-6c55-450f-b5e8-85c05eed8d6d"
            },
            "resource": {
                "contained": [{
                    "parameter": [{
                        "valueString": "9df71b27-b988-421e-87ba-671a39f0b0b2",
                        "name": "subject"
                    }],
                    "id": "e5080a50-e8ec-4fb4-93cf-890effd1bd9d-parameters",
                    "resourceType": "Parameters"
                }],
                "extension": [
                    {
                        "valueReference": {"reference": "#e5080a50-e8ec-4fb4-93cf-890effd1bd9d-parameters"},
                        "url": "http://hl7.org/fhir/StructureDefinition/cqf-inputParameters"
                    },
                    {
                        "valueMarkdown": "Enc. last day of MP, age 18, confirmed HTN (problem list, relapse) 1 day before encounter. Dx of HTN day before the encounter excludes this patient",
                        "url": "http://hl7.org/fhir/us/cqfmeasures/StructureDefinition/cqfm-testCaseDescription"
                    }
                ],
                "period": {
                    "start": "2026-01-01",
                    "end": "2026-12-31"
                },
                "measure": "https://madie.cms.gov/Measure/CMS22FHIRPCSBPScreeningFollowUp",
                "meta": {"profile": ["http://hl7.org/fhir/us/cqfmeasures/StructureDefinition/test-case-cqfm"]},
                "modifierExtension": [{
                    "valueBoolean": true,
                    "url": "http://hl7.org/fhir/us/cqfmeasures/StructureDefinition/cqfm-isTestCase"
                }],
                "id": "652f7d43-6c55-450f-b5e8-85c05eed8d6d",
                "evaluatedResource": [
                    {"reference": "Patient/9df71b27-b988-421e-87ba-671a39f0b0b2"},
                    {"reference": "Encounter/f6ad4f50-8534-4f19-9832-13a0e7243c80"},
                    {"reference": "Condition/2c661a5f-db9b-45c2-83d8-7abf51b9b815"},
                    {"reference": "Coverage/803ab0a3-e33f-499d-b58f-9949eddb68ba"},
                    {"reference": "Organization/136f7b78-85c8-4a48-a2f9-c5c4529085b4"},
                    {"reference": "Practitioner/0d5d974d-1cd4-4825-9015-400b926f2d6f"}
                ],
                "type": "individual",
                "resourceType": "MeasureReport",
                "status": "complete",
                "group": [{
                    "id": "Group_1",
                    "measureScore": {"value": 0},
                    "population": [
                        {
                            "code": {"coding": [{
                                "system": "http://terminology.hl7.org/CodeSystem/measure-population",
                                "code": "initial-population",
                                "display": "Initial Population"
                            }]},
                            "count": 1,
                            "id": "InitialPopulation_1"
                        },
                        {
                            "code": {"coding": [{
                                "system": "http://terminology.hl7.org/CodeSystem/measure-population",
                                "code": "denominator",
                                "display": "Denominator"
                            }]},
                            "count": 1,
                            "id": "Denominator_1"
                        },
                        {
                            "code": {"coding": [{
                                "system": "http://terminology.hl7.org/CodeSystem/measure-population",
                                "code": "denominator-exclusion",
                                "display": "Denominator Exclusion"
                            }]},
                            "count": 1,
                            "id": "DenominatorExclusion_1"
                        },
                        {
                            "code": {"coding": [{
                                "system": "http://terminology.hl7.org/CodeSystem/measure-population",
                                "code": "numerator",
                                "display": "Numerator"
                            }]},
                            "count": 0,
                            "id": "Numerator_1"
                        },
                        {
                            "code": {"coding": [{
                                "system": "http://terminology.hl7.org/CodeSystem/measure-population",
                                "code": "denominator-exception",
                                "display": "Denominator Exception"
                            }]},
                            "count": 0,
                            "id": "DenominatorException_1"
                        }
                    ]
                }]
            },
            "fullUrl": "https://madie.cms.gov/MeasureReport/652f7d43-6c55-450f-b5e8-85c05eed8d6d"
        }
    ],
    "id": "62a89870cadf7512b3f7b30c",
    "type": "transaction",
    "resourceType": "Bundle"
}