{"resourceType":"Bundle","id":"tests-55a556cf-2cfa-4bc1-99cf-b3faa7a554ba-bundle","type":"transaction","entry":[{"fullUrl":"Encounter/6128eace-b41a-4879-b957-6a72df402601","resource":{"resourceType":"Encounter","id":"6128eace-b41a-4879-b957-6a72df402601","meta":{"profile":["http://hl7.org/fhir/us/qicore/StructureDefinition/qicore-encounter"]},"status":"finished","class":{"system":"http://terminology.hl7.org/CodeSystem/v3-ActCode","code":"AMB","display":"ambulatory"},"type":[{"coding":[{"system":"http://snomed.info/sct","version":"2022-03","code":"183452005","display":"Emergency hospital admission (procedure)","userSelected":true}]}],"subject":{"reference":"Patient/55a556cf-2cfa-4bc1-99cf-b3faa7a554ba"},"period":{"start":"2026-12-29T23:45:00.000+00:00","end":"2026-12-31T23:59:00.000+00:00"}},"request":{"method":"PUT","url":"Encounter/6128eace-b41a-4879-b957-6a72df402601"}},{"fullUrl":"Organization/a3be3a69-1959-4139-a515-e527f41da6bb","resource":{"resourceType":"Organization","id":"a3be3a69-1959-4139-a515-e527f41da6bb","meta":{"profile":["http://hl7.org/fhir/us/qicore/StructureDefinition/qicore-organization"]},"identifier":[{"use":"temp","system":"urn:oid:2.16.840.1.113883.4.4","value":"21-3259825"}],"active":true,"type":[{"coding":[{"system":"http://terminology.hl7.org/CodeSystem/organization-type","code":"pay","display":"Payer"}]}],"name":"Blue Cross Blue Shield of Texas","telecom":[{"system":"phone","value":"(+1) 972-766-6900"}],"address":[{"use":"billing","type":"postal","line":["P.O. Box 660044"],"city":"Dallas","state":"TX","postalCode":"75266-0044","country":"USA"}]},"request":{"method":"PUT","url":"Organization/a3be3a69-1959-4139-a515-e527f41da6bb"}},{"fullUrl":"Bundle/63236aa88d26c655c5601f05","resource":{"resourceType":"Bundle","id":"63236aa88d26c655c5601f05","type":"transaction","entry":[{"fullUrl":"https://madie.cms.gov/Patient/55a556cf-2cfa-4bc1-99cf-b3faa7a554ba","resource":{"resourceType":"Patient","id":"55a556cf-2cfa-4bc1-99cf-b3faa7a554ba","meta":{"profile":["http://hl7.org/fhir/us/qicore/StructureDefinition/qicore-patient"]},"extension":[{"url":"http://hl7.org/fhir/us/core/StructureDefinition/us-core-race","extension":[{"url":"ombCategory","valueCoding":{"system":"urn:oid:2.16.840.1.113883.6.238","code":"1002-5","display":"American Indian or Alaska Native","userSelected":true}},{"url":"text","valueString":"American Indian or Alaska Native"}]},{"url":"http://hl7.org/fhir/us/core/StructureDefinition/us-core-ethnicity","extension":[{"url":"ombCategory","valueCoding":{"system":"urn:oid:2.16.840.1.113883.6.238","code":"2135-2","display":"Hispanic or Latino","userSelected":true}},{"url":"text","valueString":"Hispanic or Latino"}]}],"identifier":[{"type":{"coding":[{"system":"http://terminology.hl7.org/CodeSystem/v2-0203","code":"MR"}]},"system":"https://bonnie-fhir.healthit.gov/","value":"63236aa88d26c655c5601f05"}],"name":[{"family":"NUMERFail","given":["2OpioidsSameCode"]}],"gender":"male","birthDate":"2006-12-31"},"request":{"method":"PUT","url":"Patient/55a556cf-2cfa-4bc1-99cf-b3faa7a554ba"}},{"fullUrl":"https://madie.cms.gov/Encounter/6128eace-b41a-4879-b957-6a72df402601","resource":{"resourceType":"Encounter","id":"6128eace-b41a-4879-b957-6a72df402601","meta":{"profile":["http://hl7.org/fhir/us/qicore/StructureDefinition/qicore-encounter"]},"status":"finished","class":{"system":"http://terminology.hl7.org/CodeSystem/v3-ActCode","code":"AMB","display":"ambulatory"},"type":[{"coding":[{"system":"http://snomed.info/sct","version":"2022-03","code":"183452005","display":"Emergency hospital admission (procedure)","userSelected":true}]}],"subject":{"reference":"Patient/55a556cf-2cfa-4bc1-99cf-b3faa7a554ba"},"period":{"start":"2026-12-29T23:45:00.000+00:00","end":"2026-12-31T23:59:00.000+00:00"}},"request":{"method":"PUT","url":"Encounter/6128eace-b41a-4879-b957-6a72df402601"}},{"fullUrl":"https://madie.cms.gov/MedicationRequest/aabbcfe7-6de6-4435-b56a-47d73b3172ce","resource":{"resourceType":"MedicationRequest","id":"aabbcfe7-6de6-4435-b56a-47d73b3172ce","meta":{"profile":["http://hl7.org/fhir/us/qicore/StructureDefinition/qicore-medicationrequest"]},"status":"active","intent":"order","category":[{"coding":[{"system":"http://terminology.hl7.org/CodeSystem/medicationrequest-category","code":"discharge","display":"Discharge","userSelected":true}]}],"doNotPerform":false,"medicationCodeableConcept":{"coding":[{"system":"http://www.nlm.nih.gov/research/umls/rxnorm","code":"1014632","display":"acetaminophen 300 MG / oxycodone hydrochloride 7.5 MG Oral Tablet","userSelected":true}]},"subject":{"reference":"Patient/55a556cf-2cfa-4bc1-99cf-b3faa7a554ba"},"authoredOn":"2026-12-31T23:50:00.000+00:00","requester":{"reference":"Practitioner/9e2a40a8-2ee6-4691-880e-cea53abb7342"}},"request":{"method":"PUT","url":"MedicationRequest/aabbcfe7-6de6-4435-b56a-47d73b3172ce"}},{"fullUrl":"https://madie.cms.gov/Practitioner/9e2a40a8-2ee6-4691-880e-cea53abb7342","resource":{"resourceType":"Practitioner","id":"9e2a40a8-2ee6-4691-880e-cea53abb7342","meta":{"profile":["http://hl7.org/fhir/us/qicore/StructureDefinition/qicore-practitioner"]},"identifier":[{"system":"http://hl7.org/fhir/sid/us-npi","value":"9999999896"}],"active":true,"name":[{"family":"Ramires","given":["Alma"],"prefix":["Dr"]}],"address":[{"use":"home","line":["534 Erewhon St"],"city":"Netherville","state":"IN","postalCode":"46131"}],"qualification":[{"identifier":[{"system":"http://goodhealth.org/prIdentifier","value":"12345"}],"code":{"coding":[{"system":"http://terminology.hl7.org/CodeSystem/v2-0360|2.7","code":"BS","display":"Bachelor of Science"}],"text":"Bachelor of Science"},"period":{"start":"1995"},"issuer":{"display":"Example University"}}]},"request":{"method":"PUT","url":"Practitioner/9e2a40a8-2ee6-4691-880e-cea53abb7342"}},{"fullUrl":"https://madie.cms.gov/MedicationRequest/9b1a12ae-2f10-4cda-9f24-dfda63a8e631","resource":{"resourceType":"MedicationRequest","id":"9b1a12ae-2f10-4cda-9f24-dfda63a8e631","meta":{"profile":["http://hl7.org/fhir/us/qicore/StructureDefinition/qicore-medicationrequest"]},"status":"active","intent":"order","category":[{"coding":[{"system":"http://terminology.hl7.org/CodeSystem/medicationrequest-category","code":"discharge","display":"Discharge","userSelected":true}]}],"doNotPerform":false,"medicationCodeableConcept":{"coding":[{"system":"http://www.nlm.nih.gov/research/umls/rxnorm","code":"1014632","display":"acetaminophen 300 MG / oxycodone hydrochloride 7.5 MG Oral Tablet","userSelected":true}]},"subject":{"reference":"Patient/55a556cf-2cfa-4bc1-99cf-b3faa7a554ba"},"authoredOn":"2026-12-31T23:58:00.000+00:00","requester":{"reference":"Practitioner/9e2a40a8-2ee6-4691-880e-cea53abb7342"}},"request":{"method":"PUT","url":"MedicationRequest/9b1a12ae-2f10-4cda-9f24-dfda63a8e631"}},{"fullUrl":"https://madie.cms.gov/Coverage/aa4c1c7f-3e87-49e2-b938-870b67857917","resource":{"resourceType":"Coverage","id":"aa4c1c7f-3e87-49e2-b938-870b67857917","meta":{"profile":["http://hl7.org/fhir/us/qicore/StructureDefinition/qicore-coverage"]},"status":"active","subscriberId":"523435","beneficiary":{"reference":"Patient/55a556cf-2cfa-4bc1-99cf-b3faa7a554ba"},"relationship":{"coding":[{"system":"http://terminology.hl7.org/CodeSystem/subscriber-relationship","code":"self"}]},"payor":[{"reference":"Organization/a3be3a69-1959-4139-a515-e527f41da6bb"}]},"request":{"method":"PUT","url":"Coverage/aa4c1c7f-3e87-49e2-b938-870b67857917"}},{"fullUrl":"https://madie.cms.gov/Organization/a3be3a69-1959-4139-a515-e527f41da6bb","resource":{"resourceType":"Organization","id":"a3be3a69-1959-4139-a515-e527f41da6bb","meta":{"profile":["http://hl7.org/fhir/us/qicore/StructureDefinition/qicore-organization"]},"identifier":[{"use":"temp","system":"urn:oid:2.16.840.1.113883.4.4","value":"21-3259825"}],"active":true,"type":[{"coding":[{"system":"http://terminology.hl7.org/CodeSystem/organization-type","code":"pay","display":"Payer"}]}],"name":"Blue Cross Blue Shield of Texas","telecom":[{"system":"phone","value":"(+1) 972-766-6900"}],"address":[{"use":"billing","type":"postal","line":["P.O. Box 660044"],"city":"Dallas","state":"TX","postalCode":"75266-0044","country":"USA"}]},"request":{"method":"PUT","url":"Organization/a3be3a69-1959-4139-a515-e527f41da6bb"}},{"fullUrl":"https://madie.cms.gov/MeasureReport/6bda1af7-2507-4051-ac17-7bb5ce88c9b8","resource":{"resourceType":"MeasureReport","id":"6bda1af7-2507-4051-ac17-7bb5ce88c9b8","meta":{"profile":["http://hl7.org/fhir/us/cqfmeasures/StructureDefinition/test-case-cqfm"]},"contained":[{"resourceType":"Parameters","id":"66371360-3a43-4d4b-b652-dd924cf11d8a-parameters","parameter":[{"name":"subject","valueString":"55a556cf-2cfa-4bc1-99cf-b3faa7a554ba"}]}],"extension":[{"url":"http://hl7.org/fhir/StructureDefinition/cqf-inputParameters","valueReference":{"reference":"#66371360-3a43-4d4b-b652-dd924cf11d8a-parameters"}},{"url":"http://hl7.org/fhir/us/cqfmeasures/StructureDefinition/cqfm-testCaseDescription","valueMarkdown":"Encounter  12/29-12/31, 23:45-23:59,  2 opioids, same RxNorm code (not distinct)"}],"modifierExtension":[{"url":"http://hl7.org/fhir/us/cqfmeasures/StructureDefinition/cqfm-isTestCase","valueBoolean":true}],"status":"complete","type":"individual","measure":"https://madie.cms.gov/Measure/CMS506FHIRSafeUseofOpioids","period":{"start":"2026-01-01","end":"2026-12-31"},"group":[{"id":"Group_1","population":[{"id":"InitialPopulation_1","code":{"coding":[{"system":"http://terminology.hl7.org/CodeSystem/measure-population","code":"initial-population","display":"Initial Population"}]},"count":1},{"id":"Denominator_1","code":{"coding":[{"system":"http://terminology.hl7.org/CodeSystem/measure-population","code":"denominator","display":"Denominator"}]},"count":1},{"id":"DenominatorExclusion_1","code":{"coding":[{"system":"http://terminology.hl7.org/CodeSystem/measure-population","code":"denominator-exclusion","display":"Denominator Exclusion"}]},"count":0},{"id":"Numerator_1","code":{"coding":[{"system":"http://terminology.hl7.org/CodeSystem/measure-population","code":"numerator","display":"Numerator"}]},"count":0}],"measureScore":{"value":0.0}}],"evaluatedResource":[{"reference":"Patient/55a556cf-2cfa-4bc1-99cf-b3faa7a554ba"},{"reference":"Encounter/6128eace-b41a-4879-b957-6a72df402601"},{"reference":"MedicationRequest/aabbcfe7-6de6-4435-b56a-47d73b3172ce"},{"reference":"Practitioner/9e2a40a8-2ee6-4691-880e-cea53abb7342"},{"reference":"MedicationRequest/9b1a12ae-2f10-4cda-9f24-dfda63a8e631"},{"reference":"Coverage/aa4c1c7f-3e87-49e2-b938-870b67857917"},{"reference":"Organization/a3be3a69-1959-4139-a515-e527f41da6bb"}]},"request":{"method":"PUT","url":"MeasureReport/6bda1af7-2507-4051-ac17-7bb5ce88c9b8"}}]},"request":{"method":"PUT","url":"Bundle/63236aa88d26c655c5601f05"}},{"fullUrl":"MeasureReport/6bda1af7-2507-4051-ac17-7bb5ce88c9b8","resource":{"resourceType":"MeasureReport","id":"6bda1af7-2507-4051-ac17-7bb5ce88c9b8","meta":{"profile":["http://hl7.org/fhir/us/cqfmeasures/StructureDefinition/test-case-cqfm"]},"contained":[{"resourceType":"Parameters","id":"66371360-3a43-4d4b-b652-dd924cf11d8a-parameters","parameter":[{"name":"subject","valueString":"55a556cf-2cfa-4bc1-99cf-b3faa7a554ba"}]}],"extension":[{"url":"http://hl7.org/fhir/StructureDefinition/cqf-inputParameters","valueReference":{"reference":"#66371360-3a43-4d4b-b652-dd924cf11d8a-parameters"}},{"url":"http://hl7.org/fhir/us/cqfmeasures/StructureDefinition/cqfm-testCaseDescription","valueMarkdown":"Encounter  12/29-12/31, 23:45-23:59,  2 opioids, same RxNorm code (not distinct)"}],"modifierExtension":[{"url":"http://hl7.org/fhir/us/cqfmeasures/StructureDefinition/cqfm-isTestCase","valueBoolean":true}],"status":"complete","type":"individual","measure":"https://madie.cms.gov/Measure/CMS506FHIRSafeUseofOpioids","period":{"start":"2026-01-01","end":"2026-12-31"},"group":[{"id":"Group_1","population":[{"id":"InitialPopulation_1","code":{"coding":[{"system":"http://terminology.hl7.org/CodeSystem/measure-population","code":"initial-population","display":"Initial Population"}]},"count":1},{"id":"Denominator_1","code":{"coding":[{"system":"http://terminology.hl7.org/CodeSystem/measure-population","code":"denominator","display":"Denominator"}]},"count":1},{"id":"DenominatorExclusion_1","code":{"coding":[{"system":"http://terminology.hl7.org/CodeSystem/measure-population","code":"denominator-exclusion","display":"Denominator Exclusion"}]},"count":0},{"id":"Numerator_1","code":{"coding":[{"system":"http://terminology.hl7.org/CodeSystem/measure-population","code":"numerator","display":"Numerator"}]},"count":0}],"measureScore":{"value":0.0}}],"evaluatedResource":[{"reference":"Patient/55a556cf-2cfa-4bc1-99cf-b3faa7a554ba"},{"reference":"Encounter/6128eace-b41a-4879-b957-6a72df402601"},{"reference":"MedicationRequest/aabbcfe7-6de6-4435-b56a-47d73b3172ce"},{"reference":"Practitioner/9e2a40a8-2ee6-4691-880e-cea53abb7342"},{"reference":"MedicationRequest/9b1a12ae-2f10-4cda-9f24-dfda63a8e631"},{"reference":"Coverage/aa4c1c7f-3e87-49e2-b938-870b67857917"},{"reference":"Organization/a3be3a69-1959-4139-a515-e527f41da6bb"}]},"request":{"method":"PUT","url":"MeasureReport/6bda1af7-2507-4051-ac17-7bb5ce88c9b8"}},{"fullUrl":"Practitioner/9e2a40a8-2ee6-4691-880e-cea53abb7342","resource":{"resourceType":"Practitioner","id":"9e2a40a8-2ee6-4691-880e-cea53abb7342","meta":{"profile":["http://hl7.org/fhir/us/qicore/StructureDefinition/qicore-practitioner"]},"identifier":[{"system":"http://hl7.org/fhir/sid/us-npi","value":"9999999896"}],"active":true,"name":[{"family":"Ramires","given":["Alma"],"prefix":["Dr"]}],"address":[{"use":"home","line":["534 Erewhon St"],"city":"Netherville","state":"IN","postalCode":"46131"}],"qualification":[{"identifier":[{"system":"http://goodhealth.org/prIdentifier","value":"12345"}],"code":{"coding":[{"system":"http://terminology.hl7.org/CodeSystem/v2-0360|2.7","code":"BS","display":"Bachelor of Science"}],"text":"Bachelor of Science"},"period":{"start":"1995"},"issuer":{"display":"Example University"}}]},"request":{"method":"PUT","url":"Practitioner/9e2a40a8-2ee6-4691-880e-cea53abb7342"}},{"fullUrl":"Coverage/aa4c1c7f-3e87-49e2-b938-870b67857917","resource":{"resourceType":"Coverage","id":"aa4c1c7f-3e87-49e2-b938-870b67857917","meta":{"profile":["http://hl7.org/fhir/us/qicore/StructureDefinition/qicore-coverage"]},"status":"active","subscriberId":"523435","beneficiary":{"reference":"Patient/55a556cf-2cfa-4bc1-99cf-b3faa7a554ba"},"relationship":{"coding":[{"system":"http://terminology.hl7.org/CodeSystem/subscriber-relationship","code":"self"}]},"payor":[{"reference":"Organization/a3be3a69-1959-4139-a515-e527f41da6bb"}]},"request":{"method":"PUT","url":"Coverage/aa4c1c7f-3e87-49e2-b938-870b67857917"}},{"fullUrl":"Patient/55a556cf-2cfa-4bc1-99cf-b3faa7a554ba","resource":{"resourceType":"Patient","id":"55a556cf-2cfa-4bc1-99cf-b3faa7a554ba","meta":{"profile":["http://hl7.org/fhir/us/qicore/StructureDefinition/qicore-patient"]},"extension":[{"url":"http://hl7.org/fhir/us/core/StructureDefinition/us-core-race","extension":[{"url":"ombCategory","valueCoding":{"system":"urn:oid:2.16.840.1.113883.6.238","code":"1002-5","display":"American Indian or Alaska Native","userSelected":true}},{"url":"text","valueString":"American Indian or Alaska Native"}]},{"url":"http://hl7.org/fhir/us/core/StructureDefinition/us-core-ethnicity","extension":[{"url":"ombCategory","valueCoding":{"system":"urn:oid:2.16.840.1.113883.6.238","code":"2135-2","display":"Hispanic or Latino","userSelected":true}},{"url":"text","valueString":"Hispanic or Latino"}]}],"identifier":[{"type":{"coding":[{"system":"http://terminology.hl7.org/CodeSystem/v2-0203","code":"MR"}]},"system":"https://bonnie-fhir.healthit.gov/","value":"63236aa88d26c655c5601f05"}],"name":[{"family":"NUMERFail","given":["2OpioidsSameCode"]}],"gender":"male","birthDate":"2006-12-31"},"request":{"method":"PUT","url":"Patient/55a556cf-2cfa-4bc1-99cf-b3faa7a554ba"}},{"fullUrl":"MedicationRequest/9b1a12ae-2f10-4cda-9f24-dfda63a8e631","resource":{"resourceType":"MedicationRequest","id":"9b1a12ae-2f10-4cda-9f24-dfda63a8e631","meta":{"profile":["http://hl7.org/fhir/us/qicore/StructureDefinition/qicore-medicationrequest"]},"status":"active","intent":"order","category":[{"coding":[{"system":"http://terminology.hl7.org/CodeSystem/medicationrequest-category","code":"discharge","display":"Discharge","userSelected":true}]}],"doNotPerform":false,"medicationCodeableConcept":{"coding":[{"system":"http://www.nlm.nih.gov/research/umls/rxnorm","code":"1014632","display":"acetaminophen 300 MG / oxycodone hydrochloride 7.5 MG Oral Tablet","userSelected":true}]},"subject":{"reference":"Patient/55a556cf-2cfa-4bc1-99cf-b3faa7a554ba"},"authoredOn":"2026-12-31T23:58:00.000+00:00","requester":{"reference":"Practitioner/9e2a40a8-2ee6-4691-880e-cea53abb7342"}},"request":{"method":"PUT","url":"MedicationRequest/9b1a12ae-2f10-4cda-9f24-dfda63a8e631"}},{"fullUrl":"MedicationRequest/aabbcfe7-6de6-4435-b56a-47d73b3172ce","resource":{"resourceType":"MedicationRequest","id":"aabbcfe7-6de6-4435-b56a-47d73b3172ce","meta":{"profile":["http://hl7.org/fhir/us/qicore/StructureDefinition/qicore-medicationrequest"]},"status":"active","intent":"order","category":[{"coding":[{"system":"http://terminology.hl7.org/CodeSystem/medicationrequest-category","code":"discharge","display":"Discharge","userSelected":true}]}],"doNotPerform":false,"medicationCodeableConcept":{"coding":[{"system":"http://www.nlm.nih.gov/research/umls/rxnorm","code":"1014632","display":"acetaminophen 300 MG / oxycodone hydrochloride 7.5 MG Oral Tablet","userSelected":true}]},"subject":{"reference":"Patient/55a556cf-2cfa-4bc1-99cf-b3faa7a554ba"},"authoredOn":"2026-12-31T23:50:00.000+00:00","requester":{"reference":"Practitioner/9e2a40a8-2ee6-4691-880e-cea53abb7342"}},"request":{"method":"PUT","url":"MedicationRequest/aabbcfe7-6de6-4435-b56a-47d73b3172ce"}}]}