{"resourceType":"Bundle","id":"tests-3dfa6b2c-e7e1-46a4-a2cc-54602538c44e-bundle","type":"transaction","entry":[{"fullUrl":"Coverage/b02fe8fa-d817-4dde-b8a4-99ef81126dcf","resource":{"resourceType":"Coverage","id":"b02fe8fa-d817-4dde-b8a4-99ef81126dcf","meta":{"profile":["http://hl7.org/fhir/us/qicore/StructureDefinition/qicore-coverage"]},"status":"active","subscriberId":"523435","beneficiary":{"reference":"Patient/3dfa6b2c-e7e1-46a4-a2cc-54602538c44e"},"relationship":{"coding":[{"system":"http://terminology.hl7.org/CodeSystem/subscriber-relationship","code":"self"}]},"payor":[{"reference":"Organization/51617bbf-8c47-4875-97db-f963ae3f11bc"}]},"request":{"method":"PUT","url":"Coverage/b02fe8fa-d817-4dde-b8a4-99ef81126dcf"}},{"fullUrl":"MedicationRequest/ce0ef66f-09e8-41ce-b67d-9fd89a385ed3","resource":{"resourceType":"MedicationRequest","id":"ce0ef66f-09e8-41ce-b67d-9fd89a385ed3","meta":{"profile":["http://hl7.org/fhir/us/qicore/StructureDefinition/qicore-medicationrequest"]},"status":"active","intent":"order","category":[{"coding":[{"system":"http://terminology.hl7.org/CodeSystem/medicationrequest-category","code":"discharge","display":"Discharge","userSelected":true}]}],"doNotPerform":false,"medicationCodeableConcept":{"coding":[{"system":"http://www.nlm.nih.gov/research/umls/rxnorm","code":"1298088","display":"flurazepam hydrochloride 15 MG Oral Capsule","userSelected":true}]},"subject":{"reference":"Patient/3dfa6b2c-e7e1-46a4-a2cc-54602538c44e"},"authoredOn":"2026-12-31T00:05:00.000+00:00","requester":{"reference":"Practitioner/c50f8ffd-3b11-43e8-a397-0f9c492a96ff"}},"request":{"method":"PUT","url":"MedicationRequest/ce0ef66f-09e8-41ce-b67d-9fd89a385ed3"}},{"fullUrl":"Encounter/2160d079-f291-49a7-aadb-6c79dc8a5355","resource":{"resourceType":"Encounter","id":"2160d079-f291-49a7-aadb-6c79dc8a5355","meta":{"profile":["http://hl7.org/fhir/us/qicore/StructureDefinition/qicore-encounter"]},"status":"finished","class":{"system":"http://terminology.hl7.org/CodeSystem/v3-ActCode","code":"AMB","display":"ambulatory"},"type":[{"coding":[{"system":"http://snomed.info/sct","version":"2022-03","code":"183452005","display":"Emergency hospital admission (procedure)","userSelected":true}]}],"subject":{"reference":"Patient/3dfa6b2c-e7e1-46a4-a2cc-54602538c44e"},"period":{"start":"2026-12-29T00:00:00.000+00:00","end":"2026-12-31T00:30:00.000+00:00"}},"request":{"method":"PUT","url":"Encounter/2160d079-f291-49a7-aadb-6c79dc8a5355"}},{"fullUrl":"MedicationRequest/096cf211-e7e3-44e6-ac95-b5b7fbd1393c","resource":{"resourceType":"MedicationRequest","id":"096cf211-e7e3-44e6-ac95-b5b7fbd1393c","meta":{"profile":["http://hl7.org/fhir/us/qicore/StructureDefinition/qicore-medicationrequest"]},"status":"active","intent":"order","category":[{"coding":[{"system":"http://terminology.hl7.org/CodeSystem/medicationrequest-category","code":"community","display":"Community","userSelected":true}]}],"doNotPerform":false,"medicationCodeableConcept":{"coding":[{"system":"http://www.nlm.nih.gov/research/umls/rxnorm","code":"1298088","display":"flurazepam hydrochloride 15 MG Oral Capsule","userSelected":true}]},"subject":{"reference":"Patient/3dfa6b2c-e7e1-46a4-a2cc-54602538c44e"},"authoredOn":"2025-12-31T09:00:00.000+00:00","requester":{"reference":"Practitioner/c50f8ffd-3b11-43e8-a397-0f9c492a96ff"}},"request":{"method":"PUT","url":"MedicationRequest/096cf211-e7e3-44e6-ac95-b5b7fbd1393c"}},{"fullUrl":"MeasureReport/f3c0013b-8306-42e0-b912-757d1d30538c","resource":{"resourceType":"MeasureReport","id":"f3c0013b-8306-42e0-b912-757d1d30538c","meta":{"profile":["http://hl7.org/fhir/us/cqfmeasures/StructureDefinition/test-case-cqfm"]},"contained":[{"resourceType":"Parameters","id":"ce3b6007-afb5-4366-a77b-d771caa1d0ad-parameters","parameter":[{"name":"subject","valueString":"3dfa6b2c-e7e1-46a4-a2cc-54602538c44e"}]}],"extension":[{"url":"http://hl7.org/fhir/StructureDefinition/cqf-inputParameters","valueReference":{"reference":"#ce3b6007-afb5-4366-a77b-d771caa1d0ad-parameters"}},{"url":"http://hl7.org/fhir/us/cqfmeasures/StructureDefinition/cqfm-testCaseDescription","valueMarkdown":"Encounter 12/29 @  0000- 12/31, -0030, age 18, 2 benzodiazepine (not an opioid/benzo nor opioid and an opioid) \nfixed to false,  unable to test if doNotPerform is true a red validation error appears"}],"modifierExtension":[{"url":"http://hl7.org/fhir/us/cqfmeasures/StructureDefinition/cqfm-isTestCase","valueBoolean":true}],"status":"complete","type":"individual","measure":"https://madie.cms.gov/Measure/CMS506FHIRSafeUseofOpioids","period":{"start":"2026-01-01","end":"2026-12-31"},"group":[{"id":"Group_1","population":[{"id":"InitialPopulation_1","code":{"coding":[{"system":"http://terminology.hl7.org/CodeSystem/measure-population","code":"initial-population","display":"Initial Population"}]},"count":1},{"id":"Denominator_1","code":{"coding":[{"system":"http://terminology.hl7.org/CodeSystem/measure-population","code":"denominator","display":"Denominator"}]},"count":1},{"id":"DenominatorExclusion_1","code":{"coding":[{"system":"http://terminology.hl7.org/CodeSystem/measure-population","code":"denominator-exclusion","display":"Denominator Exclusion"}]},"count":0},{"id":"Numerator_1","code":{"coding":[{"system":"http://terminology.hl7.org/CodeSystem/measure-population","code":"numerator","display":"Numerator"}]},"count":0}],"measureScore":{"value":0.0}}],"evaluatedResource":[{"reference":"Patient/3dfa6b2c-e7e1-46a4-a2cc-54602538c44e"},{"reference":"Encounter/2160d079-f291-49a7-aadb-6c79dc8a5355"},{"reference":"MedicationRequest/ce0ef66f-09e8-41ce-b67d-9fd89a385ed3"},{"reference":"MedicationRequest/096cf211-e7e3-44e6-ac95-b5b7fbd1393c"},{"reference":"Practitioner/c50f8ffd-3b11-43e8-a397-0f9c492a96ff"},{"reference":"Coverage/b02fe8fa-d817-4dde-b8a4-99ef81126dcf"},{"reference":"Organization/51617bbf-8c47-4875-97db-f963ae3f11bc"}]},"request":{"method":"PUT","url":"MeasureReport/f3c0013b-8306-42e0-b912-757d1d30538c"}},{"fullUrl":"Organization/51617bbf-8c47-4875-97db-f963ae3f11bc","resource":{"resourceType":"Organization","id":"51617bbf-8c47-4875-97db-f963ae3f11bc","meta":{"profile":["http://hl7.org/fhir/us/qicore/StructureDefinition/qicore-organization"]},"identifier":[{"use":"temp","system":"urn:oid:2.16.840.1.113883.4.4","value":"21-3259825"}],"active":true,"type":[{"coding":[{"system":"http://terminology.hl7.org/CodeSystem/organization-type","code":"pay","display":"Payer"}]}],"name":"Blue Cross Blue Shield of Texas","telecom":[{"system":"phone","value":"(+1) 972-766-6900"}],"address":[{"use":"billing","type":"postal","line":["P.O. Box 660044"],"city":"Dallas","state":"TX","postalCode":"75266-0044","country":"USA"}]},"request":{"method":"PUT","url":"Organization/51617bbf-8c47-4875-97db-f963ae3f11bc"}},{"fullUrl":"Patient/3dfa6b2c-e7e1-46a4-a2cc-54602538c44e","resource":{"resourceType":"Patient","id":"3dfa6b2c-e7e1-46a4-a2cc-54602538c44e","meta":{"profile":["http://hl7.org/fhir/us/qicore/StructureDefinition/qicore-patient"]},"extension":[{"url":"http://hl7.org/fhir/us/core/StructureDefinition/us-core-race","extension":[{"url":"ombCategory","valueCoding":{"system":"urn:oid:2.16.840.1.113883.6.238","code":"2054-5","display":"Black or African American","userSelected":true}},{"url":"text","valueString":"Black or African American"}]},{"url":"http://hl7.org/fhir/us/core/StructureDefinition/us-core-ethnicity","extension":[{"url":"ombCategory","valueCoding":{"system":"urn:oid:2.16.840.1.113883.6.238","code":"2186-5","display":"Not Hispanic or Latino","userSelected":true}},{"url":"text","valueString":"Not Hispanic or Latino"}]}],"identifier":[{"type":{"coding":[{"system":"http://terminology.hl7.org/CodeSystem/v2-0203","code":"MR"}]},"system":"https://bonnie-fhir.healthit.gov/","value":"63236a248d26c655c5601f03"}],"name":[{"family":"NUMERFail","given":["2Benzodiazepines"]}],"gender":"female","birthDate":"2006-09-15"},"request":{"method":"PUT","url":"Patient/3dfa6b2c-e7e1-46a4-a2cc-54602538c44e"}},{"fullUrl":"Bundle/63236a248d26c655c5601f03","resource":{"resourceType":"Bundle","id":"63236a248d26c655c5601f03","type":"transaction","entry":[{"fullUrl":"https://madie.cms.gov/Patient/3dfa6b2c-e7e1-46a4-a2cc-54602538c44e","resource":{"resourceType":"Patient","id":"3dfa6b2c-e7e1-46a4-a2cc-54602538c44e","meta":{"profile":["http://hl7.org/fhir/us/qicore/StructureDefinition/qicore-patient"]},"extension":[{"url":"http://hl7.org/fhir/us/core/StructureDefinition/us-core-race","extension":[{"url":"ombCategory","valueCoding":{"system":"urn:oid:2.16.840.1.113883.6.238","code":"2054-5","display":"Black or African American","userSelected":true}},{"url":"text","valueString":"Black or African American"}]},{"url":"http://hl7.org/fhir/us/core/StructureDefinition/us-core-ethnicity","extension":[{"url":"ombCategory","valueCoding":{"system":"urn:oid:2.16.840.1.113883.6.238","code":"2186-5","display":"Not Hispanic or Latino","userSelected":true}},{"url":"text","valueString":"Not Hispanic or Latino"}]}],"identifier":[{"type":{"coding":[{"system":"http://terminology.hl7.org/CodeSystem/v2-0203","code":"MR"}]},"system":"https://bonnie-fhir.healthit.gov/","value":"63236a248d26c655c5601f03"}],"name":[{"family":"NUMERFail","given":["2Benzodiazepines"]}],"gender":"female","birthDate":"2006-09-15"},"request":{"method":"PUT","url":"Patient/3dfa6b2c-e7e1-46a4-a2cc-54602538c44e"}},{"fullUrl":"https://madie.cms.gov/Encounter/2160d079-f291-49a7-aadb-6c79dc8a5355","resource":{"resourceType":"Encounter","id":"2160d079-f291-49a7-aadb-6c79dc8a5355","meta":{"profile":["http://hl7.org/fhir/us/qicore/StructureDefinition/qicore-encounter"]},"status":"finished","class":{"system":"http://terminology.hl7.org/CodeSystem/v3-ActCode","code":"AMB","display":"ambulatory"},"type":[{"coding":[{"system":"http://snomed.info/sct","version":"2022-03","code":"183452005","display":"Emergency hospital admission (procedure)","userSelected":true}]}],"subject":{"reference":"Patient/3dfa6b2c-e7e1-46a4-a2cc-54602538c44e"},"period":{"start":"2026-12-29T00:00:00.000+00:00","end":"2026-12-31T00:30:00.000+00:00"}},"request":{"method":"PUT","url":"Encounter/2160d079-f291-49a7-aadb-6c79dc8a5355"}},{"fullUrl":"https://madie.cms.gov/MedicationRequest/ce0ef66f-09e8-41ce-b67d-9fd89a385ed3","resource":{"resourceType":"MedicationRequest","id":"ce0ef66f-09e8-41ce-b67d-9fd89a385ed3","meta":{"profile":["http://hl7.org/fhir/us/qicore/StructureDefinition/qicore-medicationrequest"]},"status":"active","intent":"order","category":[{"coding":[{"system":"http://terminology.hl7.org/CodeSystem/medicationrequest-category","code":"discharge","display":"Discharge","userSelected":true}]}],"doNotPerform":false,"medicationCodeableConcept":{"coding":[{"system":"http://www.nlm.nih.gov/research/umls/rxnorm","code":"1298088","display":"flurazepam hydrochloride 15 MG Oral Capsule","userSelected":true}]},"subject":{"reference":"Patient/3dfa6b2c-e7e1-46a4-a2cc-54602538c44e"},"authoredOn":"2026-12-31T00:05:00.000+00:00","requester":{"reference":"Practitioner/c50f8ffd-3b11-43e8-a397-0f9c492a96ff"}},"request":{"method":"PUT","url":"MedicationRequest/ce0ef66f-09e8-41ce-b67d-9fd89a385ed3"}},{"fullUrl":"https://madie.cms.gov/MedicationRequest/096cf211-e7e3-44e6-ac95-b5b7fbd1393c","resource":{"resourceType":"MedicationRequest","id":"096cf211-e7e3-44e6-ac95-b5b7fbd1393c","meta":{"profile":["http://hl7.org/fhir/us/qicore/StructureDefinition/qicore-medicationrequest"]},"status":"active","intent":"order","category":[{"coding":[{"system":"http://terminology.hl7.org/CodeSystem/medicationrequest-category","code":"community","display":"Community","userSelected":true}]}],"doNotPerform":false,"medicationCodeableConcept":{"coding":[{"system":"http://www.nlm.nih.gov/research/umls/rxnorm","code":"1298088","display":"flurazepam hydrochloride 15 MG Oral Capsule","userSelected":true}]},"subject":{"reference":"Patient/3dfa6b2c-e7e1-46a4-a2cc-54602538c44e"},"authoredOn":"2025-12-31T09:00:00.000+00:00","requester":{"reference":"Practitioner/c50f8ffd-3b11-43e8-a397-0f9c492a96ff"}},"request":{"method":"PUT","url":"MedicationRequest/096cf211-e7e3-44e6-ac95-b5b7fbd1393c"}},{"fullUrl":"https://madie.cms.gov/Practitioner/c50f8ffd-3b11-43e8-a397-0f9c492a96ff","resource":{"resourceType":"Practitioner","id":"c50f8ffd-3b11-43e8-a397-0f9c492a96ff","meta":{"profile":["http://hl7.org/fhir/us/qicore/StructureDefinition/qicore-practitioner"]},"identifier":[{"system":"http://hl7.org/fhir/sid/us-npi","value":"9999999896"}],"active":true,"name":[{"family":"Ramires","given":["Alma"],"prefix":["Dr"]}],"address":[{"use":"home","line":["534 Erewhon St"],"city":"Netherville","state":"IN","postalCode":"46131"}],"qualification":[{"identifier":[{"system":"http://goodhealth.org/prIdentifier","value":"12345"}],"code":{"coding":[{"system":"http://terminology.hl7.org/CodeSystem/v2-0360|2.7","code":"BS","display":"Bachelor of Science"}],"text":"Bachelor of Science"},"period":{"start":"1995"},"issuer":{"display":"Example University"}}]},"request":{"method":"PUT","url":"Practitioner/c50f8ffd-3b11-43e8-a397-0f9c492a96ff"}},{"fullUrl":"https://madie.cms.gov/Coverage/b02fe8fa-d817-4dde-b8a4-99ef81126dcf","resource":{"resourceType":"Coverage","id":"b02fe8fa-d817-4dde-b8a4-99ef81126dcf","meta":{"profile":["http://hl7.org/fhir/us/qicore/StructureDefinition/qicore-coverage"]},"status":"active","subscriberId":"523435","beneficiary":{"reference":"Patient/3dfa6b2c-e7e1-46a4-a2cc-54602538c44e"},"relationship":{"coding":[{"system":"http://terminology.hl7.org/CodeSystem/subscriber-relationship","code":"self"}]},"payor":[{"reference":"Organization/51617bbf-8c47-4875-97db-f963ae3f11bc"}]},"request":{"method":"PUT","url":"Coverage/b02fe8fa-d817-4dde-b8a4-99ef81126dcf"}},{"fullUrl":"https://madie.cms.gov/Organization/51617bbf-8c47-4875-97db-f963ae3f11bc","resource":{"resourceType":"Organization","id":"51617bbf-8c47-4875-97db-f963ae3f11bc","meta":{"profile":["http://hl7.org/fhir/us/qicore/StructureDefinition/qicore-organization"]},"identifier":[{"use":"temp","system":"urn:oid:2.16.840.1.113883.4.4","value":"21-3259825"}],"active":true,"type":[{"coding":[{"system":"http://terminology.hl7.org/CodeSystem/organization-type","code":"pay","display":"Payer"}]}],"name":"Blue Cross Blue Shield of Texas","telecom":[{"system":"phone","value":"(+1) 972-766-6900"}],"address":[{"use":"billing","type":"postal","line":["P.O. Box 660044"],"city":"Dallas","state":"TX","postalCode":"75266-0044","country":"USA"}]},"request":{"method":"PUT","url":"Organization/51617bbf-8c47-4875-97db-f963ae3f11bc"}},{"fullUrl":"https://madie.cms.gov/MeasureReport/f3c0013b-8306-42e0-b912-757d1d30538c","resource":{"resourceType":"MeasureReport","id":"f3c0013b-8306-42e0-b912-757d1d30538c","meta":{"profile":["http://hl7.org/fhir/us/cqfmeasures/StructureDefinition/test-case-cqfm"]},"contained":[{"resourceType":"Parameters","id":"ce3b6007-afb5-4366-a77b-d771caa1d0ad-parameters","parameter":[{"name":"subject","valueString":"3dfa6b2c-e7e1-46a4-a2cc-54602538c44e"}]}],"extension":[{"url":"http://hl7.org/fhir/StructureDefinition/cqf-inputParameters","valueReference":{"reference":"#ce3b6007-afb5-4366-a77b-d771caa1d0ad-parameters"}},{"url":"http://hl7.org/fhir/us/cqfmeasures/StructureDefinition/cqfm-testCaseDescription","valueMarkdown":"Encounter 12/29 @  0000- 12/31, -0030, age 18, 2 benzodiazepine (not an opioid/benzo nor opioid and an opioid) \nfixed to false,  unable to test if doNotPerform is true a red validation error appears"}],"modifierExtension":[{"url":"http://hl7.org/fhir/us/cqfmeasures/StructureDefinition/cqfm-isTestCase","valueBoolean":true}],"status":"complete","type":"individual","measure":"https://madie.cms.gov/Measure/CMS506FHIRSafeUseofOpioids","period":{"start":"2026-01-01","end":"2026-12-31"},"group":[{"id":"Group_1","population":[{"id":"InitialPopulation_1","code":{"coding":[{"system":"http://terminology.hl7.org/CodeSystem/measure-population","code":"initial-population","display":"Initial Population"}]},"count":1},{"id":"Denominator_1","code":{"coding":[{"system":"http://terminology.hl7.org/CodeSystem/measure-population","code":"denominator","display":"Denominator"}]},"count":1},{"id":"DenominatorExclusion_1","code":{"coding":[{"system":"http://terminology.hl7.org/CodeSystem/measure-population","code":"denominator-exclusion","display":"Denominator Exclusion"}]},"count":0},{"id":"Numerator_1","code":{"coding":[{"system":"http://terminology.hl7.org/CodeSystem/measure-population","code":"numerator","display":"Numerator"}]},"count":0}],"measureScore":{"value":0.0}}],"evaluatedResource":[{"reference":"Patient/3dfa6b2c-e7e1-46a4-a2cc-54602538c44e"},{"reference":"Encounter/2160d079-f291-49a7-aadb-6c79dc8a5355"},{"reference":"MedicationRequest/ce0ef66f-09e8-41ce-b67d-9fd89a385ed3"},{"reference":"MedicationRequest/096cf211-e7e3-44e6-ac95-b5b7fbd1393c"},{"reference":"Practitioner/c50f8ffd-3b11-43e8-a397-0f9c492a96ff"},{"reference":"Coverage/b02fe8fa-d817-4dde-b8a4-99ef81126dcf"},{"reference":"Organization/51617bbf-8c47-4875-97db-f963ae3f11bc"}]},"request":{"method":"PUT","url":"MeasureReport/f3c0013b-8306-42e0-b912-757d1d30538c"}}]},"request":{"method":"PUT","url":"Bundle/63236a248d26c655c5601f03"}},{"fullUrl":"Practitioner/c50f8ffd-3b11-43e8-a397-0f9c492a96ff","resource":{"resourceType":"Practitioner","id":"c50f8ffd-3b11-43e8-a397-0f9c492a96ff","meta":{"profile":["http://hl7.org/fhir/us/qicore/StructureDefinition/qicore-practitioner"]},"identifier":[{"system":"http://hl7.org/fhir/sid/us-npi","value":"9999999896"}],"active":true,"name":[{"family":"Ramires","given":["Alma"],"prefix":["Dr"]}],"address":[{"use":"home","line":["534 Erewhon St"],"city":"Netherville","state":"IN","postalCode":"46131"}],"qualification":[{"identifier":[{"system":"http://goodhealth.org/prIdentifier","value":"12345"}],"code":{"coding":[{"system":"http://terminology.hl7.org/CodeSystem/v2-0360|2.7","code":"BS","display":"Bachelor of Science"}],"text":"Bachelor of Science"},"period":{"start":"1995"},"issuer":{"display":"Example University"}}]},"request":{"method":"PUT","url":"Practitioner/c50f8ffd-3b11-43e8-a397-0f9c492a96ff"}}]}