{"resourceType":"Bundle","id":"tests-c9d33132-11ce-455c-9fda-92c433d8c499-bundle","type":"transaction","entry":[{"fullUrl":"Practitioner/e945c0c9-2781-42bd-9106-af571c43dbb6","resource":{"resourceType":"Practitioner","id":"e945c0c9-2781-42bd-9106-af571c43dbb6","meta":{"profile":["http://hl7.org/fhir/us/qicore/StructureDefinition/qicore-practitioner"]},"identifier":[{"system":"http://hl7.org/fhir/sid/us-npi","value":"9999999896"}],"active":true,"name":[{"family":"Ramires","given":["Alma"],"prefix":["Dr"]}],"address":[{"use":"home","line":["534 Erewhon St"],"city":"Netherville","state":"IN","postalCode":"46131"}],"qualification":[{"identifier":[{"system":"http://goodhealth.org/prIdentifier","value":"12345"}],"code":{"coding":[{"system":"http://terminology.hl7.org/CodeSystem/v2-0360|2.7","code":"BS","display":"Bachelor of Science"}],"text":"Bachelor of Science"},"period":{"start":"1995"},"issuer":{"display":"Example University"}}]},"request":{"method":"PUT","url":"Practitioner/e945c0c9-2781-42bd-9106-af571c43dbb6"}},{"fullUrl":"Bundle/632336b2414ba67d4e1d1c36","resource":{"resourceType":"Bundle","id":"632336b2414ba67d4e1d1c36","type":"transaction","entry":[{"fullUrl":"https://madie.cms.gov/Patient/c9d33132-11ce-455c-9fda-92c433d8c499","resource":{"resourceType":"Patient","id":"c9d33132-11ce-455c-9fda-92c433d8c499","meta":{"profile":["http://hl7.org/fhir/us/qicore/StructureDefinition/qicore-patient"]},"extension":[{"url":"http://hl7.org/fhir/us/core/StructureDefinition/us-core-race","extension":[{"url":"ombCategory","valueCoding":{"system":"urn:oid:2.16.840.1.113883.6.238","code":"2106-3","display":"White","userSelected":true}},{"url":"text","valueString":"Other Race"}]},{"url":"http://hl7.org/fhir/us/core/StructureDefinition/us-core-ethnicity","extension":[{"url":"ombCategory","valueCoding":{"system":"urn:oid:2.16.840.1.113883.6.238","code":"2135-2","display":"Hispanic or Latino","userSelected":true}},{"url":"text","valueString":"Hispanic or Latino"}]}],"identifier":[{"type":{"coding":[{"system":"http://terminology.hl7.org/CodeSystem/v2-0203","code":"MR"}]},"system":"https://bonnie-fhir.healthit.gov/","value":"632336b2414ba67d4e1d1c36"}],"name":[{"family":"DENOMPass","given":["EncounterWithBenzo"]}],"gender":"male","birthDate":"2008-01-01"},"request":{"method":"PUT","url":"Patient/c9d33132-11ce-455c-9fda-92c433d8c499"}},{"fullUrl":"https://madie.cms.gov/Encounter/2134b38a-dcea-4973-9ee3-026fa64e5e67","resource":{"resourceType":"Encounter","id":"2134b38a-dcea-4973-9ee3-026fa64e5e67","meta":{"profile":["http://hl7.org/fhir/us/qicore/StructureDefinition/qicore-encounter"]},"status":"finished","class":{"system":"http://terminology.hl7.org/CodeSystem/v3-ActCode","code":"AMB","display":"ambulatory"},"type":[{"coding":[{"system":"http://snomed.info/sct","version":"2022-03","code":"183452005","display":"Emergency hospital admission (procedure)","userSelected":true}]}],"subject":{"reference":"Patient/c9d33132-11ce-455c-9fda-92c433d8c499"},"period":{"start":"2026-01-02T12:00:00.000+00:00","end":"2026-01-05T12:30:00.000+00:00"}},"request":{"method":"PUT","url":"Encounter/2134b38a-dcea-4973-9ee3-026fa64e5e67"}},{"fullUrl":"https://madie.cms.gov/MedicationRequest/eaccb612-ebd0-41ae-95a0-4b79b89ff9bd","resource":{"resourceType":"MedicationRequest","id":"eaccb612-ebd0-41ae-95a0-4b79b89ff9bd","meta":{"profile":["http://hl7.org/fhir/us/qicore/StructureDefinition/qicore-medicationrequest"]},"status":"active","intent":"order","category":[{"coding":[{"system":"http://terminology.hl7.org/CodeSystem/medicationrequest-category","code":"discharge","display":"Discharge","userSelected":true}]}],"doNotPerform":false,"medicationCodeableConcept":{"coding":[{"system":"http://www.nlm.nih.gov/research/umls/rxnorm","code":"1551393","display":"2 ML midazolam 5 MG/ML Prefilled Syringe","userSelected":true}]},"subject":{"reference":"Patient/c9d33132-11ce-455c-9fda-92c433d8c499"},"authoredOn":"2026-01-05T12:29:00.000+00:00","requester":{"reference":"Practitioner/e945c0c9-2781-42bd-9106-af571c43dbb6"}},"request":{"method":"PUT","url":"MedicationRequest/eaccb612-ebd0-41ae-95a0-4b79b89ff9bd"}},{"fullUrl":"https://madie.cms.gov/Practitioner/e945c0c9-2781-42bd-9106-af571c43dbb6","resource":{"resourceType":"Practitioner","id":"e945c0c9-2781-42bd-9106-af571c43dbb6","meta":{"profile":["http://hl7.org/fhir/us/qicore/StructureDefinition/qicore-practitioner"]},"identifier":[{"system":"http://hl7.org/fhir/sid/us-npi","value":"9999999896"}],"active":true,"name":[{"family":"Ramires","given":["Alma"],"prefix":["Dr"]}],"address":[{"use":"home","line":["534 Erewhon St"],"city":"Netherville","state":"IN","postalCode":"46131"}],"qualification":[{"identifier":[{"system":"http://goodhealth.org/prIdentifier","value":"12345"}],"code":{"coding":[{"system":"http://terminology.hl7.org/CodeSystem/v2-0360|2.7","code":"BS","display":"Bachelor of Science"}],"text":"Bachelor of Science"},"period":{"start":"1995"},"issuer":{"display":"Example University"}}]},"request":{"method":"PUT","url":"Practitioner/e945c0c9-2781-42bd-9106-af571c43dbb6"}},{"fullUrl":"https://madie.cms.gov/Coverage/fb5c9862-b0b7-405d-82cb-43d8084c1fc0","resource":{"resourceType":"Coverage","id":"fb5c9862-b0b7-405d-82cb-43d8084c1fc0","meta":{"profile":["http://hl7.org/fhir/us/qicore/StructureDefinition/qicore-coverage"]},"status":"active","subscriberId":"523435","beneficiary":{"reference":"Patient/c9d33132-11ce-455c-9fda-92c433d8c499"},"relationship":{"coding":[{"system":"http://terminology.hl7.org/CodeSystem/subscriber-relationship","code":"self"}]},"payor":[{"reference":"Organization/0bb31cf7-8b07-4706-99d3-bfa5858c6fcd"}]},"request":{"method":"PUT","url":"Coverage/fb5c9862-b0b7-405d-82cb-43d8084c1fc0"}},{"fullUrl":"https://madie.cms.gov/Organization/0bb31cf7-8b07-4706-99d3-bfa5858c6fcd","resource":{"resourceType":"Organization","id":"0bb31cf7-8b07-4706-99d3-bfa5858c6fcd","meta":{"profile":["http://hl7.org/fhir/us/qicore/StructureDefinition/qicore-organization"]},"identifier":[{"use":"temp","system":"urn:oid:2.16.840.1.113883.4.4","value":"21-3259825"}],"active":true,"type":[{"coding":[{"system":"http://terminology.hl7.org/CodeSystem/organization-type","code":"pay","display":"Payer"}]}],"name":"Blue Cross Blue Shield of Texas","telecom":[{"system":"phone","value":"(+1) 972-766-6900"}],"address":[{"use":"billing","type":"postal","line":["P.O. Box 660044"],"city":"Dallas","state":"TX","postalCode":"75266-0044","country":"USA"}]},"request":{"method":"PUT","url":"Organization/0bb31cf7-8b07-4706-99d3-bfa5858c6fcd"}},{"fullUrl":"https://madie.cms.gov/MeasureReport/9c56866b-3d1a-4565-8e85-9814bfffd0af","resource":{"resourceType":"MeasureReport","id":"9c56866b-3d1a-4565-8e85-9814bfffd0af","meta":{"profile":["http://hl7.org/fhir/us/cqfmeasures/StructureDefinition/test-case-cqfm"]},"contained":[{"resourceType":"Parameters","id":"f57607ca-cac6-4865-b02d-a99fc15a2bb1-parameters","parameter":[{"name":"subject","valueString":"c9d33132-11ce-455c-9fda-92c433d8c499"}]}],"extension":[{"url":"http://hl7.org/fhir/StructureDefinition/cqf-inputParameters","valueReference":{"reference":"#f57607ca-cac6-4865-b02d-a99fc15a2bb1-parameters"}},{"url":"http://hl7.org/fhir/us/cqfmeasures/StructureDefinition/cqfm-testCaseDescription","valueMarkdown":"Encounter 1/1 - 1/5, Age 18 one day before enc, benzo prescribed on 1/5 @12:29-  1 min before discharged"}],"modifierExtension":[{"url":"http://hl7.org/fhir/us/cqfmeasures/StructureDefinition/cqfm-isTestCase","valueBoolean":true}],"status":"complete","type":"individual","measure":"https://madie.cms.gov/Measure/CMS506FHIRSafeUseofOpioids","period":{"start":"2026-01-01","end":"2026-12-31"},"group":[{"id":"Group_1","population":[{"id":"InitialPopulation_1","code":{"coding":[{"system":"http://terminology.hl7.org/CodeSystem/measure-population","code":"initial-population","display":"Initial Population"}]},"count":1},{"id":"Denominator_1","code":{"coding":[{"system":"http://terminology.hl7.org/CodeSystem/measure-population","code":"denominator","display":"Denominator"}]},"count":1},{"id":"DenominatorExclusion_1","code":{"coding":[{"system":"http://terminology.hl7.org/CodeSystem/measure-population","code":"denominator-exclusion","display":"Denominator Exclusion"}]},"count":0},{"id":"Numerator_1","code":{"coding":[{"system":"http://terminology.hl7.org/CodeSystem/measure-population","code":"numerator","display":"Numerator"}]},"count":0}],"measureScore":{"value":0.0}}],"evaluatedResource":[{"reference":"Patient/c9d33132-11ce-455c-9fda-92c433d8c499"},{"reference":"Encounter/2134b38a-dcea-4973-9ee3-026fa64e5e67"},{"reference":"MedicationRequest/eaccb612-ebd0-41ae-95a0-4b79b89ff9bd"},{"reference":"Practitioner/e945c0c9-2781-42bd-9106-af571c43dbb6"},{"reference":"Coverage/fb5c9862-b0b7-405d-82cb-43d8084c1fc0"},{"reference":"Organization/0bb31cf7-8b07-4706-99d3-bfa5858c6fcd"}]},"request":{"method":"PUT","url":"MeasureReport/9c56866b-3d1a-4565-8e85-9814bfffd0af"}}]},"request":{"method":"PUT","url":"Bundle/632336b2414ba67d4e1d1c36"}},{"fullUrl":"Coverage/fb5c9862-b0b7-405d-82cb-43d8084c1fc0","resource":{"resourceType":"Coverage","id":"fb5c9862-b0b7-405d-82cb-43d8084c1fc0","meta":{"profile":["http://hl7.org/fhir/us/qicore/StructureDefinition/qicore-coverage"]},"status":"active","subscriberId":"523435","beneficiary":{"reference":"Patient/c9d33132-11ce-455c-9fda-92c433d8c499"},"relationship":{"coding":[{"system":"http://terminology.hl7.org/CodeSystem/subscriber-relationship","code":"self"}]},"payor":[{"reference":"Organization/0bb31cf7-8b07-4706-99d3-bfa5858c6fcd"}]},"request":{"method":"PUT","url":"Coverage/fb5c9862-b0b7-405d-82cb-43d8084c1fc0"}},{"fullUrl":"Encounter/2134b38a-dcea-4973-9ee3-026fa64e5e67","resource":{"resourceType":"Encounter","id":"2134b38a-dcea-4973-9ee3-026fa64e5e67","meta":{"profile":["http://hl7.org/fhir/us/qicore/StructureDefinition/qicore-encounter"]},"status":"finished","class":{"system":"http://terminology.hl7.org/CodeSystem/v3-ActCode","code":"AMB","display":"ambulatory"},"type":[{"coding":[{"system":"http://snomed.info/sct","version":"2022-03","code":"183452005","display":"Emergency hospital admission (procedure)","userSelected":true}]}],"subject":{"reference":"Patient/c9d33132-11ce-455c-9fda-92c433d8c499"},"period":{"start":"2026-01-02T12:00:00.000+00:00","end":"2026-01-05T12:30:00.000+00:00"}},"request":{"method":"PUT","url":"Encounter/2134b38a-dcea-4973-9ee3-026fa64e5e67"}},{"fullUrl":"MedicationRequest/eaccb612-ebd0-41ae-95a0-4b79b89ff9bd","resource":{"resourceType":"MedicationRequest","id":"eaccb612-ebd0-41ae-95a0-4b79b89ff9bd","meta":{"profile":["http://hl7.org/fhir/us/qicore/StructureDefinition/qicore-medicationrequest"]},"status":"active","intent":"order","category":[{"coding":[{"system":"http://terminology.hl7.org/CodeSystem/medicationrequest-category","code":"discharge","display":"Discharge","userSelected":true}]}],"doNotPerform":false,"medicationCodeableConcept":{"coding":[{"system":"http://www.nlm.nih.gov/research/umls/rxnorm","code":"1551393","display":"2 ML midazolam 5 MG/ML Prefilled Syringe","userSelected":true}]},"subject":{"reference":"Patient/c9d33132-11ce-455c-9fda-92c433d8c499"},"authoredOn":"2026-01-05T12:29:00.000+00:00","requester":{"reference":"Practitioner/e945c0c9-2781-42bd-9106-af571c43dbb6"}},"request":{"method":"PUT","url":"MedicationRequest/eaccb612-ebd0-41ae-95a0-4b79b89ff9bd"}},{"fullUrl":"Organization/0bb31cf7-8b07-4706-99d3-bfa5858c6fcd","resource":{"resourceType":"Organization","id":"0bb31cf7-8b07-4706-99d3-bfa5858c6fcd","meta":{"profile":["http://hl7.org/fhir/us/qicore/StructureDefinition/qicore-organization"]},"identifier":[{"use":"temp","system":"urn:oid:2.16.840.1.113883.4.4","value":"21-3259825"}],"active":true,"type":[{"coding":[{"system":"http://terminology.hl7.org/CodeSystem/organization-type","code":"pay","display":"Payer"}]}],"name":"Blue Cross Blue Shield of Texas","telecom":[{"system":"phone","value":"(+1) 972-766-6900"}],"address":[{"use":"billing","type":"postal","line":["P.O. Box 660044"],"city":"Dallas","state":"TX","postalCode":"75266-0044","country":"USA"}]},"request":{"method":"PUT","url":"Organization/0bb31cf7-8b07-4706-99d3-bfa5858c6fcd"}},{"fullUrl":"MeasureReport/9c56866b-3d1a-4565-8e85-9814bfffd0af","resource":{"resourceType":"MeasureReport","id":"9c56866b-3d1a-4565-8e85-9814bfffd0af","meta":{"profile":["http://hl7.org/fhir/us/cqfmeasures/StructureDefinition/test-case-cqfm"]},"contained":[{"resourceType":"Parameters","id":"f57607ca-cac6-4865-b02d-a99fc15a2bb1-parameters","parameter":[{"name":"subject","valueString":"c9d33132-11ce-455c-9fda-92c433d8c499"}]}],"extension":[{"url":"http://hl7.org/fhir/StructureDefinition/cqf-inputParameters","valueReference":{"reference":"#f57607ca-cac6-4865-b02d-a99fc15a2bb1-parameters"}},{"url":"http://hl7.org/fhir/us/cqfmeasures/StructureDefinition/cqfm-testCaseDescription","valueMarkdown":"Encounter 1/1 - 1/5, Age 18 one day before enc, benzo prescribed on 1/5 @12:29-  1 min before discharged"}],"modifierExtension":[{"url":"http://hl7.org/fhir/us/cqfmeasures/StructureDefinition/cqfm-isTestCase","valueBoolean":true}],"status":"complete","type":"individual","measure":"https://madie.cms.gov/Measure/CMS506FHIRSafeUseofOpioids","period":{"start":"2026-01-01","end":"2026-12-31"},"group":[{"id":"Group_1","population":[{"id":"InitialPopulation_1","code":{"coding":[{"system":"http://terminology.hl7.org/CodeSystem/measure-population","code":"initial-population","display":"Initial Population"}]},"count":1},{"id":"Denominator_1","code":{"coding":[{"system":"http://terminology.hl7.org/CodeSystem/measure-population","code":"denominator","display":"Denominator"}]},"count":1},{"id":"DenominatorExclusion_1","code":{"coding":[{"system":"http://terminology.hl7.org/CodeSystem/measure-population","code":"denominator-exclusion","display":"Denominator Exclusion"}]},"count":0},{"id":"Numerator_1","code":{"coding":[{"system":"http://terminology.hl7.org/CodeSystem/measure-population","code":"numerator","display":"Numerator"}]},"count":0}],"measureScore":{"value":0.0}}],"evaluatedResource":[{"reference":"Patient/c9d33132-11ce-455c-9fda-92c433d8c499"},{"reference":"Encounter/2134b38a-dcea-4973-9ee3-026fa64e5e67"},{"reference":"MedicationRequest/eaccb612-ebd0-41ae-95a0-4b79b89ff9bd"},{"reference":"Practitioner/e945c0c9-2781-42bd-9106-af571c43dbb6"},{"reference":"Coverage/fb5c9862-b0b7-405d-82cb-43d8084c1fc0"},{"reference":"Organization/0bb31cf7-8b07-4706-99d3-bfa5858c6fcd"}]},"request":{"method":"PUT","url":"MeasureReport/9c56866b-3d1a-4565-8e85-9814bfffd0af"}},{"fullUrl":"Patient/c9d33132-11ce-455c-9fda-92c433d8c499","resource":{"resourceType":"Patient","id":"c9d33132-11ce-455c-9fda-92c433d8c499","meta":{"profile":["http://hl7.org/fhir/us/qicore/StructureDefinition/qicore-patient"]},"extension":[{"url":"http://hl7.org/fhir/us/core/StructureDefinition/us-core-race","extension":[{"url":"ombCategory","valueCoding":{"system":"urn:oid:2.16.840.1.113883.6.238","code":"2106-3","display":"White","userSelected":true}},{"url":"text","valueString":"Other Race"}]},{"url":"http://hl7.org/fhir/us/core/StructureDefinition/us-core-ethnicity","extension":[{"url":"ombCategory","valueCoding":{"system":"urn:oid:2.16.840.1.113883.6.238","code":"2135-2","display":"Hispanic or Latino","userSelected":true}},{"url":"text","valueString":"Hispanic or Latino"}]}],"identifier":[{"type":{"coding":[{"system":"http://terminology.hl7.org/CodeSystem/v2-0203","code":"MR"}]},"system":"https://bonnie-fhir.healthit.gov/","value":"632336b2414ba67d4e1d1c36"}],"name":[{"family":"DENOMPass","given":["EncounterWithBenzo"]}],"gender":"male","birthDate":"2008-01-01"},"request":{"method":"PUT","url":"Patient/c9d33132-11ce-455c-9fda-92c433d8c499"}}]}