{"resourceType":"Bundle","id":"tests-6bbda026-cf4e-4843-91cd-30e8e052fc43-bundle","type":"transaction","entry":[{"fullUrl":"Patient/6bbda026-cf4e-4843-91cd-30e8e052fc43","resource":{"resourceType":"Patient","id":"6bbda026-cf4e-4843-91cd-30e8e052fc43","meta":{"profile":["http://hl7.org/fhir/us/qicore/StructureDefinition/qicore-patient"]},"extension":[{"url":"http://hl7.org/fhir/us/core/StructureDefinition/us-core-race","extension":[{"url":"ombCategory","valueCoding":{"system":"urn:oid:2.16.840.1.113883.6.238","code":"2054-5","display":"Black or African American","userSelected":true}},{"url":"text","valueString":"Black or African American"}]},{"url":"http://hl7.org/fhir/us/core/StructureDefinition/us-core-ethnicity","extension":[{"url":"ombCategory","valueCoding":{"system":"urn:oid:2.16.840.1.113883.6.238","code":"2186-5","display":"Not Hispanic or Latino","userSelected":true}},{"url":"text","valueString":"Not Hispanic or Latino"}]}],"identifier":[{"type":{"coding":[{"system":"http://terminology.hl7.org/CodeSystem/v2-0203","code":"MR"}]},"system":"https://bonnie-fhir.healthit.gov/","value":"632368e98d26c655c5601f01"}],"name":[{"family":"NUMERPass","given":["OpioidAndBenzodiazepine"]}],"gender":"female","birthDate":"2006-12-31"},"request":{"method":"PUT","url":"Patient/6bbda026-cf4e-4843-91cd-30e8e052fc43"}},{"fullUrl":"MedicationRequest/c6399a1f-a47c-46fb-993f-33300956a84e","resource":{"resourceType":"MedicationRequest","id":"c6399a1f-a47c-46fb-993f-33300956a84e","meta":{"profile":["http://hl7.org/fhir/us/qicore/StructureDefinition/qicore-medicationrequest"]},"status":"active","intent":"order","category":[{"coding":[{"system":"http://terminology.hl7.org/CodeSystem/medicationrequest-category","code":"community","display":"Community","userSelected":true}]}],"doNotPerform":false,"medicationCodeableConcept":{"coding":[{"system":"http://www.nlm.nih.gov/research/umls/rxnorm","code":"1298088","display":"flurazepam hydrochloride 15 MG Oral Capsule","userSelected":true}]},"subject":{"reference":"Patient/6bbda026-cf4e-4843-91cd-30e8e052fc43"},"authoredOn":"2026-01-02T00:10:00.000+00:00","requester":{"reference":"Practitioner/2a05d217-e982-4e67-9c7c-1c10281edd9f"}},"request":{"method":"PUT","url":"MedicationRequest/c6399a1f-a47c-46fb-993f-33300956a84e"}},{"fullUrl":"Practitioner/2a05d217-e982-4e67-9c7c-1c10281edd9f","resource":{"resourceType":"Practitioner","id":"2a05d217-e982-4e67-9c7c-1c10281edd9f","meta":{"profile":["http://hl7.org/fhir/us/qicore/StructureDefinition/qicore-practitioner"]},"identifier":[{"system":"http://hl7.org/fhir/sid/us-npi","value":"9999999896"}],"active":true,"name":[{"family":"Ramires","given":["Alma"],"prefix":["Dr"]}],"address":[{"use":"home","line":["534 Erewhon St"],"city":"Netherville","state":"IN","postalCode":"46131"}],"qualification":[{"identifier":[{"system":"http://goodhealth.org/prIdentifier","value":"12345"}],"code":{"coding":[{"system":"http://terminology.hl7.org/CodeSystem/v2-0360|2.7","code":"BS","display":"Bachelor of Science"}],"text":"Bachelor of Science"},"period":{"start":"1995"},"issuer":{"display":"Example University"}}]},"request":{"method":"PUT","url":"Practitioner/2a05d217-e982-4e67-9c7c-1c10281edd9f"}},{"fullUrl":"Encounter/79f83b25-d34c-412d-9008-a6213b934817","resource":{"resourceType":"Encounter","id":"79f83b25-d34c-412d-9008-a6213b934817","meta":{"profile":["http://hl7.org/fhir/us/qicore/StructureDefinition/qicore-encounter"]},"status":"finished","class":{"system":"http://terminology.hl7.org/CodeSystem/v3-ActCode","code":"IMP","display":"inpatient"},"type":[{"coding":[{"system":"http://snomed.info/sct","version":"2022-03","code":"183452005","display":"Emergency hospital admission (procedure)","userSelected":true}]}],"subject":{"reference":"Patient/6bbda026-cf4e-4843-91cd-30e8e052fc43"},"period":{"start":"2026-01-01T00:00:00.000+00:00","end":"2026-01-02T00:15:00.000+00:00"}},"request":{"method":"PUT","url":"Encounter/79f83b25-d34c-412d-9008-a6213b934817"}},{"fullUrl":"MeasureReport/4dd22afe-2bb3-407c-8f9c-2a4f4dbf4162","resource":{"resourceType":"MeasureReport","id":"4dd22afe-2bb3-407c-8f9c-2a4f4dbf4162","meta":{"profile":["http://hl7.org/fhir/us/cqfmeasures/StructureDefinition/test-case-cqfm"]},"contained":[{"resourceType":"Parameters","id":"ff8d5fc5-d4df-451b-a4d1-1f2d2246cec9-parameters","parameter":[{"name":"subject","valueString":"6bbda026-cf4e-4843-91cd-30e8e052fc43"}]}],"extension":[{"url":"http://hl7.org/fhir/StructureDefinition/cqf-inputParameters","valueReference":{"reference":"#ff8d5fc5-d4df-451b-a4d1-1f2d2246cec9-parameters"}},{"url":"http://hl7.org/fhir/us/cqfmeasures/StructureDefinition/cqfm-testCaseDescription","valueMarkdown":"Encounter 01/01,  00:00 - 1/2 00:15, age 18, opioid and benzodiazepines at discharge on 1/2"}],"modifierExtension":[{"url":"http://hl7.org/fhir/us/cqfmeasures/StructureDefinition/cqfm-isTestCase","valueBoolean":true}],"status":"complete","type":"individual","measure":"https://madie.cms.gov/Measure/CMS506FHIRSafeUseofOpioids","period":{"start":"2026-01-01","end":"2026-12-31"},"group":[{"id":"Group_1","population":[{"id":"InitialPopulation_1","code":{"coding":[{"system":"http://terminology.hl7.org/CodeSystem/measure-population","code":"initial-population","display":"Initial Population"}]},"count":1},{"id":"Denominator_1","code":{"coding":[{"system":"http://terminology.hl7.org/CodeSystem/measure-population","code":"denominator","display":"Denominator"}]},"count":1},{"id":"DenominatorExclusion_1","code":{"coding":[{"system":"http://terminology.hl7.org/CodeSystem/measure-population","code":"denominator-exclusion","display":"Denominator Exclusion"}]},"count":0},{"id":"Numerator_1","code":{"coding":[{"system":"http://terminology.hl7.org/CodeSystem/measure-population","code":"numerator","display":"Numerator"}]},"count":1}],"measureScore":{"value":0.0}}],"evaluatedResource":[{"reference":"Patient/6bbda026-cf4e-4843-91cd-30e8e052fc43"},{"reference":"Encounter/79f83b25-d34c-412d-9008-a6213b934817"},{"reference":"MedicationRequest/584b84ab-302d-449e-9ee7-c67b91c2ee93"},{"reference":"Practitioner/2a05d217-e982-4e67-9c7c-1c10281edd9f"},{"reference":"MedicationRequest/c6399a1f-a47c-46fb-993f-33300956a84e"},{"reference":"Coverage/98baefc2-82df-451d-a779-84cb28f2b7c2"},{"reference":"Organization/062ca1c4-9e15-4c70-85f4-911e451bdecc"}]},"request":{"method":"PUT","url":"MeasureReport/4dd22afe-2bb3-407c-8f9c-2a4f4dbf4162"}},{"fullUrl":"MedicationRequest/584b84ab-302d-449e-9ee7-c67b91c2ee93","resource":{"resourceType":"MedicationRequest","id":"584b84ab-302d-449e-9ee7-c67b91c2ee93","meta":{"profile":["http://hl7.org/fhir/us/qicore/StructureDefinition/qicore-medicationrequest"]},"status":"active","intent":"order","category":[{"coding":[{"system":"http://terminology.hl7.org/CodeSystem/medicationrequest-category","code":"community","display":"Community","userSelected":true}]}],"doNotPerform":false,"medicationCodeableConcept":{"coding":[{"system":"http://www.nlm.nih.gov/research/umls/rxnorm","code":"1014632","display":"acetaminophen 300 MG / oxycodone hydrochloride 7.5 MG Oral Tablet","userSelected":true}]},"subject":{"reference":"Patient/6bbda026-cf4e-4843-91cd-30e8e052fc43"},"authoredOn":"2026-01-02T00:15:00.000+00:00","requester":{"reference":"Practitioner/2a05d217-e982-4e67-9c7c-1c10281edd9f"}},"request":{"method":"PUT","url":"MedicationRequest/584b84ab-302d-449e-9ee7-c67b91c2ee93"}},{"fullUrl":"Coverage/98baefc2-82df-451d-a779-84cb28f2b7c2","resource":{"resourceType":"Coverage","id":"98baefc2-82df-451d-a779-84cb28f2b7c2","meta":{"profile":["http://hl7.org/fhir/us/qicore/StructureDefinition/qicore-coverage"]},"status":"active","subscriberId":"523435","beneficiary":{"reference":"Patient/6bbda026-cf4e-4843-91cd-30e8e052fc43"},"relationship":{"coding":[{"system":"http://terminology.hl7.org/CodeSystem/subscriber-relationship","code":"self"}]},"payor":[{"reference":"Organization/062ca1c4-9e15-4c70-85f4-911e451bdecc"}]},"request":{"method":"PUT","url":"Coverage/98baefc2-82df-451d-a779-84cb28f2b7c2"}},{"fullUrl":"Bundle/632368e98d26c655c5601f01","resource":{"resourceType":"Bundle","id":"632368e98d26c655c5601f01","type":"transaction","entry":[{"fullUrl":"https://madie.cms.gov/Patient/6bbda026-cf4e-4843-91cd-30e8e052fc43","resource":{"resourceType":"Patient","id":"6bbda026-cf4e-4843-91cd-30e8e052fc43","meta":{"profile":["http://hl7.org/fhir/us/qicore/StructureDefinition/qicore-patient"]},"extension":[{"url":"http://hl7.org/fhir/us/core/StructureDefinition/us-core-race","extension":[{"url":"ombCategory","valueCoding":{"system":"urn:oid:2.16.840.1.113883.6.238","code":"2054-5","display":"Black or African American","userSelected":true}},{"url":"text","valueString":"Black or African American"}]},{"url":"http://hl7.org/fhir/us/core/StructureDefinition/us-core-ethnicity","extension":[{"url":"ombCategory","valueCoding":{"system":"urn:oid:2.16.840.1.113883.6.238","code":"2186-5","display":"Not Hispanic or Latino","userSelected":true}},{"url":"text","valueString":"Not Hispanic or Latino"}]}],"identifier":[{"type":{"coding":[{"system":"http://terminology.hl7.org/CodeSystem/v2-0203","code":"MR"}]},"system":"https://bonnie-fhir.healthit.gov/","value":"632368e98d26c655c5601f01"}],"name":[{"family":"NUMERPass","given":["OpioidAndBenzodiazepine"]}],"gender":"female","birthDate":"2006-12-31"},"request":{"method":"PUT","url":"Patient/6bbda026-cf4e-4843-91cd-30e8e052fc43"}},{"fullUrl":"https://madie.cms.gov/Encounter/79f83b25-d34c-412d-9008-a6213b934817","resource":{"resourceType":"Encounter","id":"79f83b25-d34c-412d-9008-a6213b934817","meta":{"profile":["http://hl7.org/fhir/us/qicore/StructureDefinition/qicore-encounter"]},"status":"finished","class":{"system":"http://terminology.hl7.org/CodeSystem/v3-ActCode","code":"IMP","display":"inpatient"},"type":[{"coding":[{"system":"http://snomed.info/sct","version":"2022-03","code":"183452005","display":"Emergency hospital admission (procedure)","userSelected":true}]}],"subject":{"reference":"Patient/6bbda026-cf4e-4843-91cd-30e8e052fc43"},"period":{"start":"2026-01-01T00:00:00.000+00:00","end":"2026-01-02T00:15:00.000+00:00"}},"request":{"method":"PUT","url":"Encounter/79f83b25-d34c-412d-9008-a6213b934817"}},{"fullUrl":"https://madie.cms.gov/MedicationRequest/584b84ab-302d-449e-9ee7-c67b91c2ee93","resource":{"resourceType":"MedicationRequest","id":"584b84ab-302d-449e-9ee7-c67b91c2ee93","meta":{"profile":["http://hl7.org/fhir/us/qicore/StructureDefinition/qicore-medicationrequest"]},"status":"active","intent":"order","category":[{"coding":[{"system":"http://terminology.hl7.org/CodeSystem/medicationrequest-category","code":"community","display":"Community","userSelected":true}]}],"doNotPerform":false,"medicationCodeableConcept":{"coding":[{"system":"http://www.nlm.nih.gov/research/umls/rxnorm","code":"1014632","display":"acetaminophen 300 MG / oxycodone hydrochloride 7.5 MG Oral Tablet","userSelected":true}]},"subject":{"reference":"Patient/6bbda026-cf4e-4843-91cd-30e8e052fc43"},"authoredOn":"2026-01-02T00:15:00.000+00:00","requester":{"reference":"Practitioner/2a05d217-e982-4e67-9c7c-1c10281edd9f"}},"request":{"method":"PUT","url":"MedicationRequest/584b84ab-302d-449e-9ee7-c67b91c2ee93"}},{"fullUrl":"https://madie.cms.gov/Practitioner/2a05d217-e982-4e67-9c7c-1c10281edd9f","resource":{"resourceType":"Practitioner","id":"2a05d217-e982-4e67-9c7c-1c10281edd9f","meta":{"profile":["http://hl7.org/fhir/us/qicore/StructureDefinition/qicore-practitioner"]},"identifier":[{"system":"http://hl7.org/fhir/sid/us-npi","value":"9999999896"}],"active":true,"name":[{"family":"Ramires","given":["Alma"],"prefix":["Dr"]}],"address":[{"use":"home","line":["534 Erewhon St"],"city":"Netherville","state":"IN","postalCode":"46131"}],"qualification":[{"identifier":[{"system":"http://goodhealth.org/prIdentifier","value":"12345"}],"code":{"coding":[{"system":"http://terminology.hl7.org/CodeSystem/v2-0360|2.7","code":"BS","display":"Bachelor of Science"}],"text":"Bachelor of Science"},"period":{"start":"1995"},"issuer":{"display":"Example University"}}]},"request":{"method":"PUT","url":"Practitioner/2a05d217-e982-4e67-9c7c-1c10281edd9f"}},{"fullUrl":"https://madie.cms.gov/MedicationRequest/c6399a1f-a47c-46fb-993f-33300956a84e","resource":{"resourceType":"MedicationRequest","id":"c6399a1f-a47c-46fb-993f-33300956a84e","meta":{"profile":["http://hl7.org/fhir/us/qicore/StructureDefinition/qicore-medicationrequest"]},"status":"active","intent":"order","category":[{"coding":[{"system":"http://terminology.hl7.org/CodeSystem/medicationrequest-category","code":"community","display":"Community","userSelected":true}]}],"doNotPerform":false,"medicationCodeableConcept":{"coding":[{"system":"http://www.nlm.nih.gov/research/umls/rxnorm","code":"1298088","display":"flurazepam hydrochloride 15 MG Oral Capsule","userSelected":true}]},"subject":{"reference":"Patient/6bbda026-cf4e-4843-91cd-30e8e052fc43"},"authoredOn":"2026-01-02T00:10:00.000+00:00","requester":{"reference":"Practitioner/2a05d217-e982-4e67-9c7c-1c10281edd9f"}},"request":{"method":"PUT","url":"MedicationRequest/c6399a1f-a47c-46fb-993f-33300956a84e"}},{"fullUrl":"https://madie.cms.gov/Coverage/98baefc2-82df-451d-a779-84cb28f2b7c2","resource":{"resourceType":"Coverage","id":"98baefc2-82df-451d-a779-84cb28f2b7c2","meta":{"profile":["http://hl7.org/fhir/us/qicore/StructureDefinition/qicore-coverage"]},"status":"active","subscriberId":"523435","beneficiary":{"reference":"Patient/6bbda026-cf4e-4843-91cd-30e8e052fc43"},"relationship":{"coding":[{"system":"http://terminology.hl7.org/CodeSystem/subscriber-relationship","code":"self"}]},"payor":[{"reference":"Organization/062ca1c4-9e15-4c70-85f4-911e451bdecc"}]},"request":{"method":"PUT","url":"Coverage/98baefc2-82df-451d-a779-84cb28f2b7c2"}},{"fullUrl":"https://madie.cms.gov/Organization/062ca1c4-9e15-4c70-85f4-911e451bdecc","resource":{"resourceType":"Organization","id":"062ca1c4-9e15-4c70-85f4-911e451bdecc","meta":{"profile":["http://hl7.org/fhir/us/qicore/StructureDefinition/qicore-organization"]},"identifier":[{"use":"temp","system":"urn:oid:2.16.840.1.113883.4.4","value":"21-3259825"}],"active":true,"type":[{"coding":[{"system":"http://terminology.hl7.org/CodeSystem/organization-type","code":"pay","display":"Payer"}]}],"name":"Blue Cross Blue Shield of Texas","telecom":[{"system":"phone","value":"(+1) 972-766-6900"}],"address":[{"use":"billing","type":"postal","line":["P.O. Box 660044"],"city":"Dallas","state":"TX","postalCode":"75266-0044","country":"USA"}]},"request":{"method":"PUT","url":"Organization/062ca1c4-9e15-4c70-85f4-911e451bdecc"}},{"fullUrl":"https://madie.cms.gov/MeasureReport/4dd22afe-2bb3-407c-8f9c-2a4f4dbf4162","resource":{"resourceType":"MeasureReport","id":"4dd22afe-2bb3-407c-8f9c-2a4f4dbf4162","meta":{"profile":["http://hl7.org/fhir/us/cqfmeasures/StructureDefinition/test-case-cqfm"]},"contained":[{"resourceType":"Parameters","id":"ff8d5fc5-d4df-451b-a4d1-1f2d2246cec9-parameters","parameter":[{"name":"subject","valueString":"6bbda026-cf4e-4843-91cd-30e8e052fc43"}]}],"extension":[{"url":"http://hl7.org/fhir/StructureDefinition/cqf-inputParameters","valueReference":{"reference":"#ff8d5fc5-d4df-451b-a4d1-1f2d2246cec9-parameters"}},{"url":"http://hl7.org/fhir/us/cqfmeasures/StructureDefinition/cqfm-testCaseDescription","valueMarkdown":"Encounter 01/01,  00:00 - 1/2 00:15, age 18, opioid and benzodiazepines at discharge on 1/2"}],"modifierExtension":[{"url":"http://hl7.org/fhir/us/cqfmeasures/StructureDefinition/cqfm-isTestCase","valueBoolean":true}],"status":"complete","type":"individual","measure":"https://madie.cms.gov/Measure/CMS506FHIRSafeUseofOpioids","period":{"start":"2026-01-01","end":"2026-12-31"},"group":[{"id":"Group_1","population":[{"id":"InitialPopulation_1","code":{"coding":[{"system":"http://terminology.hl7.org/CodeSystem/measure-population","code":"initial-population","display":"Initial Population"}]},"count":1},{"id":"Denominator_1","code":{"coding":[{"system":"http://terminology.hl7.org/CodeSystem/measure-population","code":"denominator","display":"Denominator"}]},"count":1},{"id":"DenominatorExclusion_1","code":{"coding":[{"system":"http://terminology.hl7.org/CodeSystem/measure-population","code":"denominator-exclusion","display":"Denominator Exclusion"}]},"count":0},{"id":"Numerator_1","code":{"coding":[{"system":"http://terminology.hl7.org/CodeSystem/measure-population","code":"numerator","display":"Numerator"}]},"count":1}],"measureScore":{"value":0.0}}],"evaluatedResource":[{"reference":"Patient/6bbda026-cf4e-4843-91cd-30e8e052fc43"},{"reference":"Encounter/79f83b25-d34c-412d-9008-a6213b934817"},{"reference":"MedicationRequest/584b84ab-302d-449e-9ee7-c67b91c2ee93"},{"reference":"Practitioner/2a05d217-e982-4e67-9c7c-1c10281edd9f"},{"reference":"MedicationRequest/c6399a1f-a47c-46fb-993f-33300956a84e"},{"reference":"Coverage/98baefc2-82df-451d-a779-84cb28f2b7c2"},{"reference":"Organization/062ca1c4-9e15-4c70-85f4-911e451bdecc"}]},"request":{"method":"PUT","url":"MeasureReport/4dd22afe-2bb3-407c-8f9c-2a4f4dbf4162"}}]},"request":{"method":"PUT","url":"Bundle/632368e98d26c655c5601f01"}},{"fullUrl":"Organization/062ca1c4-9e15-4c70-85f4-911e451bdecc","resource":{"resourceType":"Organization","id":"062ca1c4-9e15-4c70-85f4-911e451bdecc","meta":{"profile":["http://hl7.org/fhir/us/qicore/StructureDefinition/qicore-organization"]},"identifier":[{"use":"temp","system":"urn:oid:2.16.840.1.113883.4.4","value":"21-3259825"}],"active":true,"type":[{"coding":[{"system":"http://terminology.hl7.org/CodeSystem/organization-type","code":"pay","display":"Payer"}]}],"name":"Blue Cross Blue Shield of Texas","telecom":[{"system":"phone","value":"(+1) 972-766-6900"}],"address":[{"use":"billing","type":"postal","line":["P.O. Box 660044"],"city":"Dallas","state":"TX","postalCode":"75266-0044","country":"USA"}]},"request":{"method":"PUT","url":"Organization/062ca1c4-9e15-4c70-85f4-911e451bdecc"}}]}