{"resourceType":"Bundle","id":"tests-412e213e-a1ef-4e5d-ac46-fa7e741cf160-bundle","type":"transaction","entry":[{"fullUrl":"Practitioner/971847e1-21d0-4515-93c8-a1e63d405661","resource":{"resourceType":"Practitioner","id":"971847e1-21d0-4515-93c8-a1e63d405661","meta":{"profile":["http://hl7.org/fhir/us/qicore/StructureDefinition/qicore-practitioner"]},"identifier":[{"system":"http://hl7.org/fhir/sid/us-npi","value":"9999999896"}],"active":true,"name":[{"family":"Ramires","given":["Alma"],"prefix":["Dr"]}],"address":[{"use":"home","line":["534 Erewhon St"],"city":"Netherville","state":"IN","postalCode":"46131"}],"qualification":[{"identifier":[{"system":"http://goodhealth.org/prIdentifier","value":"12345"}],"code":{"coding":[{"system":"http://terminology.hl7.org/CodeSystem/v2-0360|2.7","code":"BS","display":"Bachelor of Science"}],"text":"Bachelor of Science"},"period":{"start":"1995"},"issuer":{"display":"Example University"}}]},"request":{"method":"PUT","url":"Practitioner/971847e1-21d0-4515-93c8-a1e63d405661"}},{"fullUrl":"MedicationRequest/b8b62971-ba60-462e-89de-30631e3117f8","resource":{"resourceType":"MedicationRequest","id":"b8b62971-ba60-462e-89de-30631e3117f8","meta":{"profile":["http://hl7.org/fhir/us/qicore/StructureDefinition/qicore-medicationrequest"]},"status":"active","intent":"order","category":[{"coding":[{"system":"http://terminology.hl7.org/CodeSystem/medicationrequest-category","code":"discharge","display":"Discharge","userSelected":true}]}],"doNotPerform":false,"medicationCodeableConcept":{"coding":[{"system":"http://www.nlm.nih.gov/research/umls/rxnorm","code":"1014632","display":"acetaminophen 300 MG / oxycodone hydrochloride 7.5 MG Oral Tablet","userSelected":true}]},"subject":{"reference":"Patient/412e213e-a1ef-4e5d-ac46-fa7e741cf160"},"authoredOn":"2026-12-31T23:59:00.000+00:00","requester":{"reference":"Practitioner/971847e1-21d0-4515-93c8-a1e63d405661"}},"request":{"method":"PUT","url":"MedicationRequest/b8b62971-ba60-462e-89de-30631e3117f8"}},{"fullUrl":"MeasureReport/fac1639a-a388-43d7-b305-e553becb3f1d","resource":{"resourceType":"MeasureReport","id":"fac1639a-a388-43d7-b305-e553becb3f1d","meta":{"profile":["http://hl7.org/fhir/us/cqfmeasures/StructureDefinition/test-case-cqfm"]},"contained":[{"resourceType":"Parameters","id":"5d32ff7f-5aed-495b-ba26-57fa16cdd768-parameters","parameter":[{"name":"subject","valueString":"412e213e-a1ef-4e5d-ac46-fa7e741cf160"}]}],"extension":[{"url":"http://hl7.org/fhir/StructureDefinition/cqf-inputParameters","valueReference":{"reference":"#5d32ff7f-5aed-495b-ba26-57fa16cdd768-parameters"}},{"url":"http://hl7.org/fhir/us/cqfmeasures/StructureDefinition/cqfm-testCaseDescription","valueMarkdown":"Encounter last days of MP, opioid prescribed 12/31 @23:59"}],"modifierExtension":[{"url":"http://hl7.org/fhir/us/cqfmeasures/StructureDefinition/cqfm-isTestCase","valueBoolean":true}],"status":"complete","type":"individual","measure":"https://madie.cms.gov/Measure/CMS506FHIRSafeUseofOpioids","period":{"start":"2026-01-01","end":"2026-12-31"},"group":[{"id":"Group_1","population":[{"id":"InitialPopulation_1","code":{"coding":[{"system":"http://terminology.hl7.org/CodeSystem/measure-population","code":"initial-population","display":"Initial Population"}]},"count":1},{"id":"Denominator_1","code":{"coding":[{"system":"http://terminology.hl7.org/CodeSystem/measure-population","code":"denominator","display":"Denominator"}]},"count":1},{"id":"DenominatorExclusion_1","code":{"coding":[{"system":"http://terminology.hl7.org/CodeSystem/measure-population","code":"denominator-exclusion","display":"Denominator Exclusion"}]},"count":0},{"id":"Numerator_1","code":{"coding":[{"system":"http://terminology.hl7.org/CodeSystem/measure-population","code":"numerator","display":"Numerator"}]},"count":1}],"measureScore":{"value":0.0}}],"evaluatedResource":[{"reference":"Patient/412e213e-a1ef-4e5d-ac46-fa7e741cf160"},{"reference":"Encounter/e626362d-3a43-4f43-aadf-656468c7d4d1"},{"reference":"MedicationRequest/b8b62971-ba60-462e-89de-30631e3117f8"},{"reference":"Practitioner/971847e1-21d0-4515-93c8-a1e63d405661"},{"reference":"MedicationRequest/ba17a157-23e1-4abf-900b-b33ac56a8df5"},{"reference":"Coverage/194c97b1-40e3-4825-bfb1-8a235345d864"},{"reference":"Organization/842e3cdb-1725-41ec-aac4-37d32d56254a"}]},"request":{"method":"PUT","url":"MeasureReport/fac1639a-a388-43d7-b305-e553becb3f1d"}},{"fullUrl":"Encounter/e626362d-3a43-4f43-aadf-656468c7d4d1","resource":{"resourceType":"Encounter","id":"e626362d-3a43-4f43-aadf-656468c7d4d1","meta":{"profile":["http://hl7.org/fhir/us/qicore/StructureDefinition/qicore-encounter"]},"status":"finished","class":{"system":"http://terminology.hl7.org/CodeSystem/v3-ActCode","code":"IMP","display":"inpatient"},"type":[{"coding":[{"system":"http://snomed.info/sct","version":"2022-03","code":"183452005","display":"Emergency hospital admission (procedure)","userSelected":true}]}],"subject":{"reference":"Patient/412e213e-a1ef-4e5d-ac46-fa7e741cf160"},"period":{"start":"2026-12-31T23:30:00.000+00:00","end":"2026-12-31T23:59:00.000+00:00"}},"request":{"method":"PUT","url":"Encounter/e626362d-3a43-4f43-aadf-656468c7d4d1"}},{"fullUrl":"Coverage/194c97b1-40e3-4825-bfb1-8a235345d864","resource":{"resourceType":"Coverage","id":"194c97b1-40e3-4825-bfb1-8a235345d864","meta":{"profile":["http://hl7.org/fhir/us/qicore/StructureDefinition/qicore-coverage"]},"status":"active","subscriberId":"523435","beneficiary":{"reference":"Patient/412e213e-a1ef-4e5d-ac46-fa7e741cf160"},"relationship":{"coding":[{"system":"http://terminology.hl7.org/CodeSystem/subscriber-relationship","code":"self"}]},"payor":[{"reference":"Organization/842e3cdb-1725-41ec-aac4-37d32d56254a"}]},"request":{"method":"PUT","url":"Coverage/194c97b1-40e3-4825-bfb1-8a235345d864"}},{"fullUrl":"Organization/842e3cdb-1725-41ec-aac4-37d32d56254a","resource":{"resourceType":"Organization","id":"842e3cdb-1725-41ec-aac4-37d32d56254a","meta":{"profile":["http://hl7.org/fhir/us/qicore/StructureDefinition/qicore-organization"]},"identifier":[{"use":"temp","system":"urn:oid:2.16.840.1.113883.4.4","value":"21-3259825"}],"active":true,"type":[{"coding":[{"system":"http://terminology.hl7.org/CodeSystem/organization-type","code":"pay","display":"Payer"}]}],"name":"Blue Cross Blue Shield of Texas","telecom":[{"system":"phone","value":"(+1) 972-766-6900"}],"address":[{"use":"billing","type":"postal","line":["P.O. Box 660044"],"city":"Dallas","state":"TX","postalCode":"75266-0044","country":"USA"}]},"request":{"method":"PUT","url":"Organization/842e3cdb-1725-41ec-aac4-37d32d56254a"}},{"fullUrl":"MedicationRequest/ba17a157-23e1-4abf-900b-b33ac56a8df5","resource":{"resourceType":"MedicationRequest","id":"ba17a157-23e1-4abf-900b-b33ac56a8df5","meta":{"profile":["http://hl7.org/fhir/us/qicore/StructureDefinition/qicore-medicationrequest"]},"status":"active","intent":"order","category":[{"coding":[{"system":"http://terminology.hl7.org/CodeSystem/medicationrequest-category","code":"discharge","display":"Discharge","userSelected":true}]}],"doNotPerform":false,"medicationCodeableConcept":{"coding":[{"system":"http://www.nlm.nih.gov/research/umls/rxnorm","code":"863845","display":"Abuse-Deterrent morphine sulfate 100 MG / naltrexone hydrochloride 4 MG Extended Release Oral Capsule","userSelected":true}]},"subject":{"reference":"Patient/412e213e-a1ef-4e5d-ac46-fa7e741cf160"},"authoredOn":"2026-12-31T23:59:00.000+00:00","requester":{"reference":"Practitioner/971847e1-21d0-4515-93c8-a1e63d405661"}},"request":{"method":"PUT","url":"MedicationRequest/ba17a157-23e1-4abf-900b-b33ac56a8df5"}},{"fullUrl":"Patient/412e213e-a1ef-4e5d-ac46-fa7e741cf160","resource":{"resourceType":"Patient","id":"412e213e-a1ef-4e5d-ac46-fa7e741cf160","meta":{"profile":["http://hl7.org/fhir/us/qicore/StructureDefinition/qicore-patient"]},"extension":[{"url":"http://hl7.org/fhir/us/core/StructureDefinition/us-core-race","extension":[{"url":"ombCategory","valueCoding":{"system":"urn:oid:2.16.840.1.113883.6.238","code":"1002-5","display":"American Indian or Alaska Native","userSelected":true}},{"url":"text","valueString":"American Indian or Alaska Native"}]},{"url":"http://hl7.org/fhir/us/core/StructureDefinition/us-core-ethnicity","extension":[{"url":"ombCategory","valueCoding":{"system":"urn:oid:2.16.840.1.113883.6.238","code":"2135-2","display":"Hispanic or Latino","userSelected":true}},{"url":"text","valueString":"Hispanic or Latino"}]}],"identifier":[{"type":{"coding":[{"system":"http://terminology.hl7.org/CodeSystem/v2-0203","code":"MR"}]},"system":"https://bonnie-fhir.healthit.gov/","value":"6323489059967e30c06d0774"}],"name":[{"family":"NUMERPass","given":["2OpioidsLastMinuteOfMP"]}],"gender":"male","birthDate":"2006-09-15"},"request":{"method":"PUT","url":"Patient/412e213e-a1ef-4e5d-ac46-fa7e741cf160"}},{"fullUrl":"Bundle/6323489059967e30c06d0774","resource":{"resourceType":"Bundle","id":"6323489059967e30c06d0774","type":"transaction","entry":[{"fullUrl":"https://madie.cms.gov/Patient/412e213e-a1ef-4e5d-ac46-fa7e741cf160","resource":{"resourceType":"Patient","id":"412e213e-a1ef-4e5d-ac46-fa7e741cf160","meta":{"profile":["http://hl7.org/fhir/us/qicore/StructureDefinition/qicore-patient"]},"extension":[{"url":"http://hl7.org/fhir/us/core/StructureDefinition/us-core-race","extension":[{"url":"ombCategory","valueCoding":{"system":"urn:oid:2.16.840.1.113883.6.238","code":"1002-5","display":"American Indian or Alaska Native","userSelected":true}},{"url":"text","valueString":"American Indian or Alaska Native"}]},{"url":"http://hl7.org/fhir/us/core/StructureDefinition/us-core-ethnicity","extension":[{"url":"ombCategory","valueCoding":{"system":"urn:oid:2.16.840.1.113883.6.238","code":"2135-2","display":"Hispanic or Latino","userSelected":true}},{"url":"text","valueString":"Hispanic or Latino"}]}],"identifier":[{"type":{"coding":[{"system":"http://terminology.hl7.org/CodeSystem/v2-0203","code":"MR"}]},"system":"https://bonnie-fhir.healthit.gov/","value":"6323489059967e30c06d0774"}],"name":[{"family":"NUMERPass","given":["2OpioidsLastMinuteOfMP"]}],"gender":"male","birthDate":"2006-09-15"},"request":{"method":"PUT","url":"Patient/412e213e-a1ef-4e5d-ac46-fa7e741cf160"}},{"fullUrl":"https://madie.cms.gov/Encounter/e626362d-3a43-4f43-aadf-656468c7d4d1","resource":{"resourceType":"Encounter","id":"e626362d-3a43-4f43-aadf-656468c7d4d1","meta":{"profile":["http://hl7.org/fhir/us/qicore/StructureDefinition/qicore-encounter"]},"status":"finished","class":{"system":"http://terminology.hl7.org/CodeSystem/v3-ActCode","code":"IMP","display":"inpatient"},"type":[{"coding":[{"system":"http://snomed.info/sct","version":"2022-03","code":"183452005","display":"Emergency hospital admission (procedure)","userSelected":true}]}],"subject":{"reference":"Patient/412e213e-a1ef-4e5d-ac46-fa7e741cf160"},"period":{"start":"2026-12-31T23:30:00.000+00:00","end":"2026-12-31T23:59:00.000+00:00"}},"request":{"method":"PUT","url":"Encounter/e626362d-3a43-4f43-aadf-656468c7d4d1"}},{"fullUrl":"https://madie.cms.gov/MedicationRequest/b8b62971-ba60-462e-89de-30631e3117f8","resource":{"resourceType":"MedicationRequest","id":"b8b62971-ba60-462e-89de-30631e3117f8","meta":{"profile":["http://hl7.org/fhir/us/qicore/StructureDefinition/qicore-medicationrequest"]},"status":"active","intent":"order","category":[{"coding":[{"system":"http://terminology.hl7.org/CodeSystem/medicationrequest-category","code":"discharge","display":"Discharge","userSelected":true}]}],"doNotPerform":false,"medicationCodeableConcept":{"coding":[{"system":"http://www.nlm.nih.gov/research/umls/rxnorm","code":"1014632","display":"acetaminophen 300 MG / oxycodone hydrochloride 7.5 MG Oral Tablet","userSelected":true}]},"subject":{"reference":"Patient/412e213e-a1ef-4e5d-ac46-fa7e741cf160"},"authoredOn":"2026-12-31T23:59:00.000+00:00","requester":{"reference":"Practitioner/971847e1-21d0-4515-93c8-a1e63d405661"}},"request":{"method":"PUT","url":"MedicationRequest/b8b62971-ba60-462e-89de-30631e3117f8"}},{"fullUrl":"https://madie.cms.gov/Practitioner/971847e1-21d0-4515-93c8-a1e63d405661","resource":{"resourceType":"Practitioner","id":"971847e1-21d0-4515-93c8-a1e63d405661","meta":{"profile":["http://hl7.org/fhir/us/qicore/StructureDefinition/qicore-practitioner"]},"identifier":[{"system":"http://hl7.org/fhir/sid/us-npi","value":"9999999896"}],"active":true,"name":[{"family":"Ramires","given":["Alma"],"prefix":["Dr"]}],"address":[{"use":"home","line":["534 Erewhon St"],"city":"Netherville","state":"IN","postalCode":"46131"}],"qualification":[{"identifier":[{"system":"http://goodhealth.org/prIdentifier","value":"12345"}],"code":{"coding":[{"system":"http://terminology.hl7.org/CodeSystem/v2-0360|2.7","code":"BS","display":"Bachelor of Science"}],"text":"Bachelor of Science"},"period":{"start":"1995"},"issuer":{"display":"Example University"}}]},"request":{"method":"PUT","url":"Practitioner/971847e1-21d0-4515-93c8-a1e63d405661"}},{"fullUrl":"https://madie.cms.gov/MedicationRequest/ba17a157-23e1-4abf-900b-b33ac56a8df5","resource":{"resourceType":"MedicationRequest","id":"ba17a157-23e1-4abf-900b-b33ac56a8df5","meta":{"profile":["http://hl7.org/fhir/us/qicore/StructureDefinition/qicore-medicationrequest"]},"status":"active","intent":"order","category":[{"coding":[{"system":"http://terminology.hl7.org/CodeSystem/medicationrequest-category","code":"discharge","display":"Discharge","userSelected":true}]}],"doNotPerform":false,"medicationCodeableConcept":{"coding":[{"system":"http://www.nlm.nih.gov/research/umls/rxnorm","code":"863845","display":"Abuse-Deterrent morphine sulfate 100 MG / naltrexone hydrochloride 4 MG Extended Release Oral Capsule","userSelected":true}]},"subject":{"reference":"Patient/412e213e-a1ef-4e5d-ac46-fa7e741cf160"},"authoredOn":"2026-12-31T23:59:00.000+00:00","requester":{"reference":"Practitioner/971847e1-21d0-4515-93c8-a1e63d405661"}},"request":{"method":"PUT","url":"MedicationRequest/ba17a157-23e1-4abf-900b-b33ac56a8df5"}},{"fullUrl":"https://madie.cms.gov/Coverage/194c97b1-40e3-4825-bfb1-8a235345d864","resource":{"resourceType":"Coverage","id":"194c97b1-40e3-4825-bfb1-8a235345d864","meta":{"profile":["http://hl7.org/fhir/us/qicore/StructureDefinition/qicore-coverage"]},"status":"active","subscriberId":"523435","beneficiary":{"reference":"Patient/412e213e-a1ef-4e5d-ac46-fa7e741cf160"},"relationship":{"coding":[{"system":"http://terminology.hl7.org/CodeSystem/subscriber-relationship","code":"self"}]},"payor":[{"reference":"Organization/842e3cdb-1725-41ec-aac4-37d32d56254a"}]},"request":{"method":"PUT","url":"Coverage/194c97b1-40e3-4825-bfb1-8a235345d864"}},{"fullUrl":"https://madie.cms.gov/Organization/842e3cdb-1725-41ec-aac4-37d32d56254a","resource":{"resourceType":"Organization","id":"842e3cdb-1725-41ec-aac4-37d32d56254a","meta":{"profile":["http://hl7.org/fhir/us/qicore/StructureDefinition/qicore-organization"]},"identifier":[{"use":"temp","system":"urn:oid:2.16.840.1.113883.4.4","value":"21-3259825"}],"active":true,"type":[{"coding":[{"system":"http://terminology.hl7.org/CodeSystem/organization-type","code":"pay","display":"Payer"}]}],"name":"Blue Cross Blue Shield of Texas","telecom":[{"system":"phone","value":"(+1) 972-766-6900"}],"address":[{"use":"billing","type":"postal","line":["P.O. Box 660044"],"city":"Dallas","state":"TX","postalCode":"75266-0044","country":"USA"}]},"request":{"method":"PUT","url":"Organization/842e3cdb-1725-41ec-aac4-37d32d56254a"}},{"fullUrl":"https://madie.cms.gov/MeasureReport/fac1639a-a388-43d7-b305-e553becb3f1d","resource":{"resourceType":"MeasureReport","id":"fac1639a-a388-43d7-b305-e553becb3f1d","meta":{"profile":["http://hl7.org/fhir/us/cqfmeasures/StructureDefinition/test-case-cqfm"]},"contained":[{"resourceType":"Parameters","id":"5d32ff7f-5aed-495b-ba26-57fa16cdd768-parameters","parameter":[{"name":"subject","valueString":"412e213e-a1ef-4e5d-ac46-fa7e741cf160"}]}],"extension":[{"url":"http://hl7.org/fhir/StructureDefinition/cqf-inputParameters","valueReference":{"reference":"#5d32ff7f-5aed-495b-ba26-57fa16cdd768-parameters"}},{"url":"http://hl7.org/fhir/us/cqfmeasures/StructureDefinition/cqfm-testCaseDescription","valueMarkdown":"Encounter last days of MP, opioid prescribed 12/31 @23:59"}],"modifierExtension":[{"url":"http://hl7.org/fhir/us/cqfmeasures/StructureDefinition/cqfm-isTestCase","valueBoolean":true}],"status":"complete","type":"individual","measure":"https://madie.cms.gov/Measure/CMS506FHIRSafeUseofOpioids","period":{"start":"2026-01-01","end":"2026-12-31"},"group":[{"id":"Group_1","population":[{"id":"InitialPopulation_1","code":{"coding":[{"system":"http://terminology.hl7.org/CodeSystem/measure-population","code":"initial-population","display":"Initial Population"}]},"count":1},{"id":"Denominator_1","code":{"coding":[{"system":"http://terminology.hl7.org/CodeSystem/measure-population","code":"denominator","display":"Denominator"}]},"count":1},{"id":"DenominatorExclusion_1","code":{"coding":[{"system":"http://terminology.hl7.org/CodeSystem/measure-population","code":"denominator-exclusion","display":"Denominator Exclusion"}]},"count":0},{"id":"Numerator_1","code":{"coding":[{"system":"http://terminology.hl7.org/CodeSystem/measure-population","code":"numerator","display":"Numerator"}]},"count":1}],"measureScore":{"value":0.0}}],"evaluatedResource":[{"reference":"Patient/412e213e-a1ef-4e5d-ac46-fa7e741cf160"},{"reference":"Encounter/e626362d-3a43-4f43-aadf-656468c7d4d1"},{"reference":"MedicationRequest/b8b62971-ba60-462e-89de-30631e3117f8"},{"reference":"Practitioner/971847e1-21d0-4515-93c8-a1e63d405661"},{"reference":"MedicationRequest/ba17a157-23e1-4abf-900b-b33ac56a8df5"},{"reference":"Coverage/194c97b1-40e3-4825-bfb1-8a235345d864"},{"reference":"Organization/842e3cdb-1725-41ec-aac4-37d32d56254a"}]},"request":{"method":"PUT","url":"MeasureReport/fac1639a-a388-43d7-b305-e553becb3f1d"}}]},"request":{"method":"PUT","url":"Bundle/6323489059967e30c06d0774"}}]}