{"resourceType":"Bundle","id":"tests-26aeca6a-53c4-4934-9598-e91888f4c696-bundle","type":"transaction","entry":[{"fullUrl":"MedicationRequest/066f3c14-c81a-48a0-a4ba-3ba5218fa3b3","resource":{"resourceType":"MedicationRequest","id":"066f3c14-c81a-48a0-a4ba-3ba5218fa3b3","meta":{"profile":["http://hl7.org/fhir/us/qicore/StructureDefinition/qicore-medicationrequest"]},"status":"active","intent":"order","category":[{"coding":[{"system":"http://terminology.hl7.org/CodeSystem/medicationrequest-category","code":"community","display":"Community","userSelected":true}]}],"doNotPerform":false,"medicationCodeableConcept":{"coding":[{"system":"http://www.nlm.nih.gov/research/umls/rxnorm","code":"1014632","display":"acetaminophen 300 MG / oxycodone hydrochloride 7.5 MG Oral Tablet","userSelected":true}]},"subject":{"reference":"Patient/26aeca6a-53c4-4934-9598-e91888f4c696"},"authoredOn":"2026-01-02T00:15:00.000+00:00","requester":{"reference":"Practitioner/68576b74-530c-4651-a1e0-bdc6d6e84e95"}},"request":{"method":"PUT","url":"MedicationRequest/066f3c14-c81a-48a0-a4ba-3ba5218fa3b3"}},{"fullUrl":"Coverage/b988b571-fe41-4a0c-b8ca-8f290a0bfc2b","resource":{"resourceType":"Coverage","id":"b988b571-fe41-4a0c-b8ca-8f290a0bfc2b","meta":{"profile":["http://hl7.org/fhir/us/qicore/StructureDefinition/qicore-coverage"]},"status":"active","subscriberId":"523435","beneficiary":{"reference":"Patient/26aeca6a-53c4-4934-9598-e91888f4c696"},"relationship":{"coding":[{"system":"http://terminology.hl7.org/CodeSystem/subscriber-relationship","code":"self"}]},"payor":[{"reference":"Organization/fcf970fb-2ce0-4140-af13-cc94b71372fa"}]},"request":{"method":"PUT","url":"Coverage/b988b571-fe41-4a0c-b8ca-8f290a0bfc2b"}},{"fullUrl":"MedicationRequest/797966fb-76d0-4c51-9407-157ad4276ae8","resource":{"resourceType":"MedicationRequest","id":"797966fb-76d0-4c51-9407-157ad4276ae8","meta":{"profile":["http://hl7.org/fhir/us/qicore/StructureDefinition/qicore-medicationrequest"]},"status":"entered-in-error","intent":"order","category":[{"coding":[{"system":"http://terminology.hl7.org/CodeSystem/medicationrequest-category","code":"community","display":"Community","userSelected":true}]}],"doNotPerform":false,"medicationCodeableConcept":{"coding":[{"system":"http://www.nlm.nih.gov/research/umls/rxnorm","code":"1298088","display":"flurazepam hydrochloride 15 MG Oral Capsule","userSelected":true}]},"subject":{"reference":"Patient/26aeca6a-53c4-4934-9598-e91888f4c696"},"authoredOn":"2026-01-02T00:10:00.000+00:00","requester":{"reference":"Practitioner/68576b74-530c-4651-a1e0-bdc6d6e84e95"}},"request":{"method":"PUT","url":"MedicationRequest/797966fb-76d0-4c51-9407-157ad4276ae8"}},{"fullUrl":"MeasureReport/1f2b13b5-4352-4954-9ca4-d0ec4cc337d9","resource":{"resourceType":"MeasureReport","id":"1f2b13b5-4352-4954-9ca4-d0ec4cc337d9","meta":{"profile":["http://hl7.org/fhir/us/cqfmeasures/StructureDefinition/test-case-cqfm"]},"contained":[{"resourceType":"Parameters","id":"e0c79a68-8698-45cb-a7c0-9bd823d0daea-parameters","parameter":[{"name":"subject","valueString":"26aeca6a-53c4-4934-9598-e91888f4c696"}]}],"extension":[{"url":"http://hl7.org/fhir/StructureDefinition/cqf-inputParameters","valueReference":{"reference":"#e0c79a68-8698-45cb-a7c0-9bd823d0daea-parameters"}},{"url":"http://hl7.org/fhir/us/cqfmeasures/StructureDefinition/cqfm-testCaseDescription","valueMarkdown":"Encounter first 2 days of MP, 2 orders for distinct opioids but one was entered in error."}],"modifierExtension":[{"url":"http://hl7.org/fhir/us/cqfmeasures/StructureDefinition/cqfm-isTestCase","valueBoolean":true}],"status":"complete","type":"individual","measure":"https://madie.cms.gov/Measure/CMS506FHIRSafeUseofOpioids","period":{"start":"2026-01-01","end":"2026-12-31"},"group":[{"id":"Group_1","population":[{"id":"InitialPopulation_1","code":{"coding":[{"system":"http://terminology.hl7.org/CodeSystem/measure-population","code":"initial-population","display":"Initial Population"}]},"count":1},{"id":"Denominator_1","code":{"coding":[{"system":"http://terminology.hl7.org/CodeSystem/measure-population","code":"denominator","display":"Denominator"}]},"count":1},{"id":"DenominatorExclusion_1","code":{"coding":[{"system":"http://terminology.hl7.org/CodeSystem/measure-population","code":"denominator-exclusion","display":"Denominator Exclusion"}]},"count":0},{"id":"Numerator_1","code":{"coding":[{"system":"http://terminology.hl7.org/CodeSystem/measure-population","code":"numerator","display":"Numerator"}]},"count":0}],"measureScore":{"value":0.0}}],"evaluatedResource":[{"reference":"Patient/26aeca6a-53c4-4934-9598-e91888f4c696"},{"reference":"Encounter/297b6e97-4113-49f6-a619-717148e20819"},{"reference":"MedicationRequest/066f3c14-c81a-48a0-a4ba-3ba5218fa3b3"},{"reference":"Practitioner/68576b74-530c-4651-a1e0-bdc6d6e84e95"},{"reference":"MedicationRequest/797966fb-76d0-4c51-9407-157ad4276ae8"},{"reference":"Coverage/b988b571-fe41-4a0c-b8ca-8f290a0bfc2b"},{"reference":"Organization/fcf970fb-2ce0-4140-af13-cc94b71372fa"}]},"request":{"method":"PUT","url":"MeasureReport/1f2b13b5-4352-4954-9ca4-d0ec4cc337d9"}},{"fullUrl":"Encounter/297b6e97-4113-49f6-a619-717148e20819","resource":{"resourceType":"Encounter","id":"297b6e97-4113-49f6-a619-717148e20819","meta":{"profile":["http://hl7.org/fhir/us/qicore/StructureDefinition/qicore-encounter"]},"status":"finished","class":{"system":"http://terminology.hl7.org/CodeSystem/v3-ActCode","code":"IMP","display":"inpatient"},"type":[{"coding":[{"system":"http://snomed.info/sct","version":"2022-03","code":"183452005","display":"Emergency hospital admission (procedure)","userSelected":true}]}],"subject":{"reference":"Patient/26aeca6a-53c4-4934-9598-e91888f4c696"},"period":{"start":"2026-01-01T00:00:00.000+00:00","end":"2026-01-02T00:15:00.000+00:00"}},"request":{"method":"PUT","url":"Encounter/297b6e97-4113-49f6-a619-717148e20819"}},{"fullUrl":"Bundle/632368e98d26c655c5601f01","resource":{"resourceType":"Bundle","id":"632368e98d26c655c5601f01","type":"transaction","entry":[{"fullUrl":"https://madie.cms.gov/Patient/26aeca6a-53c4-4934-9598-e91888f4c696","resource":{"resourceType":"Patient","id":"26aeca6a-53c4-4934-9598-e91888f4c696","meta":{"profile":["http://hl7.org/fhir/us/qicore/StructureDefinition/qicore-patient"]},"extension":[{"url":"http://hl7.org/fhir/us/core/StructureDefinition/us-core-race","extension":[{"url":"ombCategory","valueCoding":{"system":"urn:oid:2.16.840.1.113883.6.238","code":"2054-5","display":"Black or African American","userSelected":true}},{"url":"text","valueString":"Black or African American"}]},{"url":"http://hl7.org/fhir/us/core/StructureDefinition/us-core-ethnicity","extension":[{"url":"ombCategory","valueCoding":{"system":"urn:oid:2.16.840.1.113883.6.238","code":"2186-5","display":"Not Hispanic or Latino","userSelected":true}},{"url":"text","valueString":"Not Hispanic or Latino"}]}],"identifier":[{"type":{"coding":[{"system":"http://terminology.hl7.org/CodeSystem/v2-0203","code":"MR"}]},"system":"https://bonnie-fhir.healthit.gov/","value":"632368e98d26c655c5601f01"}],"name":[{"family":"NUMERFail","given":["OpioidStatusEnteredInError"]}],"gender":"female","birthDate":"2006-12-31"},"request":{"method":"PUT","url":"Patient/26aeca6a-53c4-4934-9598-e91888f4c696"}},{"fullUrl":"https://madie.cms.gov/Encounter/297b6e97-4113-49f6-a619-717148e20819","resource":{"resourceType":"Encounter","id":"297b6e97-4113-49f6-a619-717148e20819","meta":{"profile":["http://hl7.org/fhir/us/qicore/StructureDefinition/qicore-encounter"]},"status":"finished","class":{"system":"http://terminology.hl7.org/CodeSystem/v3-ActCode","code":"IMP","display":"inpatient"},"type":[{"coding":[{"system":"http://snomed.info/sct","version":"2022-03","code":"183452005","display":"Emergency hospital admission (procedure)","userSelected":true}]}],"subject":{"reference":"Patient/26aeca6a-53c4-4934-9598-e91888f4c696"},"period":{"start":"2026-01-01T00:00:00.000+00:00","end":"2026-01-02T00:15:00.000+00:00"}},"request":{"method":"PUT","url":"Encounter/297b6e97-4113-49f6-a619-717148e20819"}},{"fullUrl":"https://madie.cms.gov/MedicationRequest/066f3c14-c81a-48a0-a4ba-3ba5218fa3b3","resource":{"resourceType":"MedicationRequest","id":"066f3c14-c81a-48a0-a4ba-3ba5218fa3b3","meta":{"profile":["http://hl7.org/fhir/us/qicore/StructureDefinition/qicore-medicationrequest"]},"status":"active","intent":"order","category":[{"coding":[{"system":"http://terminology.hl7.org/CodeSystem/medicationrequest-category","code":"community","display":"Community","userSelected":true}]}],"doNotPerform":false,"medicationCodeableConcept":{"coding":[{"system":"http://www.nlm.nih.gov/research/umls/rxnorm","code":"1014632","display":"acetaminophen 300 MG / oxycodone hydrochloride 7.5 MG Oral Tablet","userSelected":true}]},"subject":{"reference":"Patient/26aeca6a-53c4-4934-9598-e91888f4c696"},"authoredOn":"2026-01-02T00:15:00.000+00:00","requester":{"reference":"Practitioner/68576b74-530c-4651-a1e0-bdc6d6e84e95"}},"request":{"method":"PUT","url":"MedicationRequest/066f3c14-c81a-48a0-a4ba-3ba5218fa3b3"}},{"fullUrl":"https://madie.cms.gov/Practitioner/68576b74-530c-4651-a1e0-bdc6d6e84e95","resource":{"resourceType":"Practitioner","id":"68576b74-530c-4651-a1e0-bdc6d6e84e95","meta":{"profile":["http://hl7.org/fhir/us/qicore/StructureDefinition/qicore-practitioner"]},"identifier":[{"system":"http://hl7.org/fhir/sid/us-npi","value":"9999999896"}],"active":true,"name":[{"family":"Ramires","given":["Alma"],"prefix":["Dr"]}],"address":[{"use":"home","line":["534 Erewhon St"],"city":"Netherville","state":"IN","postalCode":"46131"}],"qualification":[{"identifier":[{"system":"http://goodhealth.org/prIdentifier","value":"12345"}],"code":{"coding":[{"system":"http://terminology.hl7.org/CodeSystem/v2-0360|2.7","code":"BS","display":"Bachelor of Science"}],"text":"Bachelor of Science"},"period":{"start":"1995"},"issuer":{"display":"Example University"}}]},"request":{"method":"PUT","url":"Practitioner/68576b74-530c-4651-a1e0-bdc6d6e84e95"}},{"fullUrl":"https://madie.cms.gov/MedicationRequest/797966fb-76d0-4c51-9407-157ad4276ae8","resource":{"resourceType":"MedicationRequest","id":"797966fb-76d0-4c51-9407-157ad4276ae8","meta":{"profile":["http://hl7.org/fhir/us/qicore/StructureDefinition/qicore-medicationrequest"]},"status":"entered-in-error","intent":"order","category":[{"coding":[{"system":"http://terminology.hl7.org/CodeSystem/medicationrequest-category","code":"community","display":"Community","userSelected":true}]}],"doNotPerform":false,"medicationCodeableConcept":{"coding":[{"system":"http://www.nlm.nih.gov/research/umls/rxnorm","code":"1298088","display":"flurazepam hydrochloride 15 MG Oral Capsule","userSelected":true}]},"subject":{"reference":"Patient/26aeca6a-53c4-4934-9598-e91888f4c696"},"authoredOn":"2026-01-02T00:10:00.000+00:00","requester":{"reference":"Practitioner/68576b74-530c-4651-a1e0-bdc6d6e84e95"}},"request":{"method":"PUT","url":"MedicationRequest/797966fb-76d0-4c51-9407-157ad4276ae8"}},{"fullUrl":"https://madie.cms.gov/Coverage/b988b571-fe41-4a0c-b8ca-8f290a0bfc2b","resource":{"resourceType":"Coverage","id":"b988b571-fe41-4a0c-b8ca-8f290a0bfc2b","meta":{"profile":["http://hl7.org/fhir/us/qicore/StructureDefinition/qicore-coverage"]},"status":"active","subscriberId":"523435","beneficiary":{"reference":"Patient/26aeca6a-53c4-4934-9598-e91888f4c696"},"relationship":{"coding":[{"system":"http://terminology.hl7.org/CodeSystem/subscriber-relationship","code":"self"}]},"payor":[{"reference":"Organization/fcf970fb-2ce0-4140-af13-cc94b71372fa"}]},"request":{"method":"PUT","url":"Coverage/b988b571-fe41-4a0c-b8ca-8f290a0bfc2b"}},{"fullUrl":"https://madie.cms.gov/Organization/fcf970fb-2ce0-4140-af13-cc94b71372fa","resource":{"resourceType":"Organization","id":"fcf970fb-2ce0-4140-af13-cc94b71372fa","meta":{"profile":["http://hl7.org/fhir/us/qicore/StructureDefinition/qicore-organization"]},"identifier":[{"use":"temp","system":"urn:oid:2.16.840.1.113883.4.4","value":"21-3259825"}],"active":true,"type":[{"coding":[{"system":"http://terminology.hl7.org/CodeSystem/organization-type","code":"pay","display":"Payer"}]}],"name":"Blue Cross Blue Shield of Texas","telecom":[{"system":"phone","value":"(+1) 972-766-6900"}],"address":[{"use":"billing","type":"postal","line":["P.O. Box 660044"],"city":"Dallas","state":"TX","postalCode":"75266-0044","country":"USA"}]},"request":{"method":"PUT","url":"Organization/fcf970fb-2ce0-4140-af13-cc94b71372fa"}},{"fullUrl":"https://madie.cms.gov/MeasureReport/1f2b13b5-4352-4954-9ca4-d0ec4cc337d9","resource":{"resourceType":"MeasureReport","id":"1f2b13b5-4352-4954-9ca4-d0ec4cc337d9","meta":{"profile":["http://hl7.org/fhir/us/cqfmeasures/StructureDefinition/test-case-cqfm"]},"contained":[{"resourceType":"Parameters","id":"e0c79a68-8698-45cb-a7c0-9bd823d0daea-parameters","parameter":[{"name":"subject","valueString":"26aeca6a-53c4-4934-9598-e91888f4c696"}]}],"extension":[{"url":"http://hl7.org/fhir/StructureDefinition/cqf-inputParameters","valueReference":{"reference":"#e0c79a68-8698-45cb-a7c0-9bd823d0daea-parameters"}},{"url":"http://hl7.org/fhir/us/cqfmeasures/StructureDefinition/cqfm-testCaseDescription","valueMarkdown":"Encounter first 2 days of MP, 2 orders for distinct opioids but one was entered in error."}],"modifierExtension":[{"url":"http://hl7.org/fhir/us/cqfmeasures/StructureDefinition/cqfm-isTestCase","valueBoolean":true}],"status":"complete","type":"individual","measure":"https://madie.cms.gov/Measure/CMS506FHIRSafeUseofOpioids","period":{"start":"2026-01-01","end":"2026-12-31"},"group":[{"id":"Group_1","population":[{"id":"InitialPopulation_1","code":{"coding":[{"system":"http://terminology.hl7.org/CodeSystem/measure-population","code":"initial-population","display":"Initial Population"}]},"count":1},{"id":"Denominator_1","code":{"coding":[{"system":"http://terminology.hl7.org/CodeSystem/measure-population","code":"denominator","display":"Denominator"}]},"count":1},{"id":"DenominatorExclusion_1","code":{"coding":[{"system":"http://terminology.hl7.org/CodeSystem/measure-population","code":"denominator-exclusion","display":"Denominator Exclusion"}]},"count":0},{"id":"Numerator_1","code":{"coding":[{"system":"http://terminology.hl7.org/CodeSystem/measure-population","code":"numerator","display":"Numerator"}]},"count":0}],"measureScore":{"value":0.0}}],"evaluatedResource":[{"reference":"Patient/26aeca6a-53c4-4934-9598-e91888f4c696"},{"reference":"Encounter/297b6e97-4113-49f6-a619-717148e20819"},{"reference":"MedicationRequest/066f3c14-c81a-48a0-a4ba-3ba5218fa3b3"},{"reference":"Practitioner/68576b74-530c-4651-a1e0-bdc6d6e84e95"},{"reference":"MedicationRequest/797966fb-76d0-4c51-9407-157ad4276ae8"},{"reference":"Coverage/b988b571-fe41-4a0c-b8ca-8f290a0bfc2b"},{"reference":"Organization/fcf970fb-2ce0-4140-af13-cc94b71372fa"}]},"request":{"method":"PUT","url":"MeasureReport/1f2b13b5-4352-4954-9ca4-d0ec4cc337d9"}}]},"request":{"method":"PUT","url":"Bundle/632368e98d26c655c5601f01"}},{"fullUrl":"Organization/fcf970fb-2ce0-4140-af13-cc94b71372fa","resource":{"resourceType":"Organization","id":"fcf970fb-2ce0-4140-af13-cc94b71372fa","meta":{"profile":["http://hl7.org/fhir/us/qicore/StructureDefinition/qicore-organization"]},"identifier":[{"use":"temp","system":"urn:oid:2.16.840.1.113883.4.4","value":"21-3259825"}],"active":true,"type":[{"coding":[{"system":"http://terminology.hl7.org/CodeSystem/organization-type","code":"pay","display":"Payer"}]}],"name":"Blue Cross Blue Shield of Texas","telecom":[{"system":"phone","value":"(+1) 972-766-6900"}],"address":[{"use":"billing","type":"postal","line":["P.O. Box 660044"],"city":"Dallas","state":"TX","postalCode":"75266-0044","country":"USA"}]},"request":{"method":"PUT","url":"Organization/fcf970fb-2ce0-4140-af13-cc94b71372fa"}},{"fullUrl":"Patient/26aeca6a-53c4-4934-9598-e91888f4c696","resource":{"resourceType":"Patient","id":"26aeca6a-53c4-4934-9598-e91888f4c696","meta":{"profile":["http://hl7.org/fhir/us/qicore/StructureDefinition/qicore-patient"]},"extension":[{"url":"http://hl7.org/fhir/us/core/StructureDefinition/us-core-race","extension":[{"url":"ombCategory","valueCoding":{"system":"urn:oid:2.16.840.1.113883.6.238","code":"2054-5","display":"Black or African American","userSelected":true}},{"url":"text","valueString":"Black or African American"}]},{"url":"http://hl7.org/fhir/us/core/StructureDefinition/us-core-ethnicity","extension":[{"url":"ombCategory","valueCoding":{"system":"urn:oid:2.16.840.1.113883.6.238","code":"2186-5","display":"Not Hispanic or Latino","userSelected":true}},{"url":"text","valueString":"Not Hispanic or Latino"}]}],"identifier":[{"type":{"coding":[{"system":"http://terminology.hl7.org/CodeSystem/v2-0203","code":"MR"}]},"system":"https://bonnie-fhir.healthit.gov/","value":"632368e98d26c655c5601f01"}],"name":[{"family":"NUMERFail","given":["OpioidStatusEnteredInError"]}],"gender":"female","birthDate":"2006-12-31"},"request":{"method":"PUT","url":"Patient/26aeca6a-53c4-4934-9598-e91888f4c696"}},{"fullUrl":"Practitioner/68576b74-530c-4651-a1e0-bdc6d6e84e95","resource":{"resourceType":"Practitioner","id":"68576b74-530c-4651-a1e0-bdc6d6e84e95","meta":{"profile":["http://hl7.org/fhir/us/qicore/StructureDefinition/qicore-practitioner"]},"identifier":[{"system":"http://hl7.org/fhir/sid/us-npi","value":"9999999896"}],"active":true,"name":[{"family":"Ramires","given":["Alma"],"prefix":["Dr"]}],"address":[{"use":"home","line":["534 Erewhon St"],"city":"Netherville","state":"IN","postalCode":"46131"}],"qualification":[{"identifier":[{"system":"http://goodhealth.org/prIdentifier","value":"12345"}],"code":{"coding":[{"system":"http://terminology.hl7.org/CodeSystem/v2-0360|2.7","code":"BS","display":"Bachelor of Science"}],"text":"Bachelor of Science"},"period":{"start":"1995"},"issuer":{"display":"Example University"}}]},"request":{"method":"PUT","url":"Practitioner/68576b74-530c-4651-a1e0-bdc6d6e84e95"}}]}