{"resourceType":"Bundle","id":"tests-f8bc4adf-30b1-405a-89a2-385b302e0106-bundle","type":"transaction","entry":[{"fullUrl":"Patient/f8bc4adf-30b1-405a-89a2-385b302e0106","resource":{"resourceType":"Patient","id":"f8bc4adf-30b1-405a-89a2-385b302e0106","meta":{"profile":["http://hl7.org/fhir/us/qicore/StructureDefinition/qicore-patient"]},"extension":[{"url":"http://hl7.org/fhir/us/core/StructureDefinition/us-core-race","extension":[{"url":"ombCategory","valueCoding":{"system":"urn:oid:2.16.840.1.113883.6.238","code":"1002-5","display":"American Indian or Alaska Native","userSelected":true}},{"url":"text","valueString":"American Indian or Alaska Native"}]},{"url":"http://hl7.org/fhir/us/core/StructureDefinition/us-core-ethnicity","extension":[{"url":"ombCategory","valueCoding":{"system":"urn:oid:2.16.840.1.113883.6.238","code":"2135-2","display":"Hispanic or Latino","userSelected":true}},{"url":"text","valueString":"Hispanic or Latino"}]}],"identifier":[{"type":{"coding":[{"system":"http://terminology.hl7.org/CodeSystem/v2-0203","code":"MR"}]},"system":"https://bonnie-fhir.healthit.gov/","value":"63233588414ba67d4e1d1c34"}],"name":[{"family":"DENEXFail","given":["OrderForPalliativeCareB4Enc"]}],"gender":"male","birthDate":"2006-02-01"},"request":{"method":"PUT","url":"Patient/f8bc4adf-30b1-405a-89a2-385b302e0106"}},{"fullUrl":"Bundle/63233588414ba67d4e1d1c34","resource":{"resourceType":"Bundle","id":"63233588414ba67d4e1d1c34","type":"transaction","entry":[{"fullUrl":"https://madie.cms.gov/Patient/f8bc4adf-30b1-405a-89a2-385b302e0106","resource":{"resourceType":"Patient","id":"f8bc4adf-30b1-405a-89a2-385b302e0106","meta":{"profile":["http://hl7.org/fhir/us/qicore/StructureDefinition/qicore-patient"]},"extension":[{"url":"http://hl7.org/fhir/us/core/StructureDefinition/us-core-race","extension":[{"url":"ombCategory","valueCoding":{"system":"urn:oid:2.16.840.1.113883.6.238","code":"1002-5","display":"American Indian or Alaska Native","userSelected":true}},{"url":"text","valueString":"American Indian or Alaska Native"}]},{"url":"http://hl7.org/fhir/us/core/StructureDefinition/us-core-ethnicity","extension":[{"url":"ombCategory","valueCoding":{"system":"urn:oid:2.16.840.1.113883.6.238","code":"2135-2","display":"Hispanic or Latino","userSelected":true}},{"url":"text","valueString":"Hispanic or Latino"}]}],"identifier":[{"type":{"coding":[{"system":"http://terminology.hl7.org/CodeSystem/v2-0203","code":"MR"}]},"system":"https://bonnie-fhir.healthit.gov/","value":"63233588414ba67d4e1d1c34"}],"name":[{"family":"DENEXFail","given":["OrderForPalliativeCareB4Enc"]}],"gender":"male","birthDate":"2006-02-01"},"request":{"method":"PUT","url":"Patient/f8bc4adf-30b1-405a-89a2-385b302e0106"}},{"fullUrl":"https://madie.cms.gov/Encounter/9d436187-4b48-44bd-b265-605d7ada13a0","resource":{"resourceType":"Encounter","id":"9d436187-4b48-44bd-b265-605d7ada13a0","meta":{"profile":["http://hl7.org/fhir/us/qicore/StructureDefinition/qicore-encounter"]},"status":"finished","class":{"system":"http://terminology.hl7.org/CodeSystem/v3-ActCode","code":"AMB","display":"ambulatory"},"type":[{"coding":[{"system":"http://snomed.info/sct","version":"2022-03","code":"183452005","display":"Emergency hospital admission (procedure)","userSelected":true}]}],"subject":{"reference":"Patient/f8bc4adf-30b1-405a-89a2-385b302e0106"},"period":{"start":"2026-12-29T23:45:00.000+00:00","end":"2026-12-31T23:59:00.000+00:00"}},"request":{"method":"PUT","url":"Encounter/9d436187-4b48-44bd-b265-605d7ada13a0"}},{"fullUrl":"https://madie.cms.gov/MedicationRequest/ca15e9b2-a9f8-460b-a661-8bc0bbe9c7ff","resource":{"resourceType":"MedicationRequest","id":"ca15e9b2-a9f8-460b-a661-8bc0bbe9c7ff","meta":{"profile":["http://hl7.org/fhir/us/qicore/StructureDefinition/qicore-medicationrequest"]},"status":"active","intent":"order","category":[{"coding":[{"system":"http://terminology.hl7.org/CodeSystem/medicationrequest-category","code":"discharge","display":"Discharge","userSelected":true}]}],"doNotPerform":false,"medicationCodeableConcept":{"coding":[{"system":"http://www.nlm.nih.gov/research/umls/rxnorm","code":"1298088","display":"flurazepam hydrochloride 15 MG Oral Capsule","userSelected":true}]},"subject":{"reference":"Patient/f8bc4adf-30b1-405a-89a2-385b302e0106"},"authoredOn":"2026-12-31T23:59:00.000+00:00","requester":{"reference":"Practitioner/a6905707-4f25-4b14-9ca7-db6268ca8a28"}},"request":{"method":"PUT","url":"MedicationRequest/ca15e9b2-a9f8-460b-a661-8bc0bbe9c7ff"}},{"fullUrl":"https://madie.cms.gov/Practitioner/a6905707-4f25-4b14-9ca7-db6268ca8a28","resource":{"resourceType":"Practitioner","id":"a6905707-4f25-4b14-9ca7-db6268ca8a28","meta":{"profile":["http://hl7.org/fhir/us/qicore/StructureDefinition/qicore-practitioner"]},"identifier":[{"system":"http://hl7.org/fhir/sid/us-npi","value":"9999999896"}],"active":true,"name":[{"family":"Ramires","given":["Alma"],"prefix":["Dr"]}],"address":[{"use":"home","line":["534 Erewhon St"],"city":"Netherville","state":"IN","postalCode":"46131"}],"qualification":[{"identifier":[{"system":"http://goodhealth.org/prIdentifier","value":"12345"}],"code":{"coding":[{"system":"http://terminology.hl7.org/CodeSystem/v2-0360|2.7","code":"BS","display":"Bachelor of Science"}],"text":"Bachelor of Science"},"period":{"start":"1995"},"issuer":{"display":"Example University"}}]},"request":{"method":"PUT","url":"Practitioner/a6905707-4f25-4b14-9ca7-db6268ca8a28"}},{"fullUrl":"https://madie.cms.gov/ServiceRequest/511aabbf-1ca7-4588-9486-ffa808da085f","resource":{"resourceType":"ServiceRequest","id":"511aabbf-1ca7-4588-9486-ffa808da085f","meta":{"profile":["http://hl7.org/fhir/us/qicore/StructureDefinition/qicore-servicerequest"]},"status":"active","intent":"order","code":{"coding":[{"system":"http://snomed.info/sct","version":"2022-03","code":"103735009","display":"Palliative care (regime/therapy)","userSelected":true}]},"subject":{"reference":"Patient/f8bc4adf-30b1-405a-89a2-385b302e0106"},"authoredOn":"2026-12-28T00:55:00.000+00:00"},"request":{"method":"PUT","url":"ServiceRequest/511aabbf-1ca7-4588-9486-ffa808da085f"}},{"fullUrl":"https://madie.cms.gov/Coverage/d16e4cf9-a8a1-414b-90ee-573538d449df","resource":{"resourceType":"Coverage","id":"d16e4cf9-a8a1-414b-90ee-573538d449df","meta":{"profile":["http://hl7.org/fhir/us/qicore/StructureDefinition/qicore-coverage"]},"status":"active","subscriberId":"523435","beneficiary":{"reference":"Patient/f8bc4adf-30b1-405a-89a2-385b302e0106"},"relationship":{"coding":[{"system":"http://terminology.hl7.org/CodeSystem/subscriber-relationship","code":"self"}]},"payor":[{"reference":"Organization/e5f8c24f-ae6f-48a5-9b43-1074baa8ec8a"}]},"request":{"method":"PUT","url":"Coverage/d16e4cf9-a8a1-414b-90ee-573538d449df"}},{"fullUrl":"https://madie.cms.gov/Organization/e5f8c24f-ae6f-48a5-9b43-1074baa8ec8a","resource":{"resourceType":"Organization","id":"e5f8c24f-ae6f-48a5-9b43-1074baa8ec8a","meta":{"profile":["http://hl7.org/fhir/us/qicore/StructureDefinition/qicore-organization"]},"identifier":[{"use":"temp","system":"urn:oid:2.16.840.1.113883.4.4","value":"21-3259825"}],"active":true,"type":[{"coding":[{"system":"http://terminology.hl7.org/CodeSystem/organization-type","code":"pay","display":"Payer"}]}],"name":"Blue Cross Blue Shield of Texas","telecom":[{"system":"phone","value":"(+1) 972-766-6900"}],"address":[{"use":"billing","type":"postal","line":["P.O. Box 660044"],"city":"Dallas","state":"TX","postalCode":"75266-0044","country":"USA"}]},"request":{"method":"PUT","url":"Organization/e5f8c24f-ae6f-48a5-9b43-1074baa8ec8a"}},{"fullUrl":"https://madie.cms.gov/MeasureReport/8e8bd6d0-6b3c-4595-be39-c3182c97e331","resource":{"resourceType":"MeasureReport","id":"8e8bd6d0-6b3c-4595-be39-c3182c97e331","meta":{"profile":["http://hl7.org/fhir/us/cqfmeasures/StructureDefinition/test-case-cqfm"]},"contained":[{"resourceType":"Parameters","id":"c4bfde68-c49c-440f-90ed-ad2248211d07-parameters","parameter":[{"name":"subject","valueString":"f8bc4adf-30b1-405a-89a2-385b302e0106"}]}],"extension":[{"url":"http://hl7.org/fhir/StructureDefinition/cqf-inputParameters","valueReference":{"reference":"#c4bfde68-c49c-440f-90ed-ad2248211d07-parameters"}},{"url":"http://hl7.org/fhir/us/cqfmeasures/StructureDefinition/cqfm-testCaseDescription","valueMarkdown":"Encounter 12/29 - 12/31, 23:45 -23:59, age 18, opioids, order for palliative care 1 day before encounter"}],"modifierExtension":[{"url":"http://hl7.org/fhir/us/cqfmeasures/StructureDefinition/cqfm-isTestCase","valueBoolean":true}],"status":"complete","type":"individual","measure":"https://madie.cms.gov/Measure/CMS506FHIRSafeUseofOpioids","period":{"start":"2026-01-01","end":"2026-12-31"},"group":[{"id":"Group_1","population":[{"id":"InitialPopulation_1","code":{"coding":[{"system":"http://terminology.hl7.org/CodeSystem/measure-population","code":"initial-population","display":"Initial Population"}]},"count":1},{"id":"Denominator_1","code":{"coding":[{"system":"http://terminology.hl7.org/CodeSystem/measure-population","code":"denominator","display":"Denominator"}]},"count":1},{"id":"DenominatorExclusion_1","code":{"coding":[{"system":"http://terminology.hl7.org/CodeSystem/measure-population","code":"denominator-exclusion","display":"Denominator Exclusion"}]},"count":0},{"id":"Numerator_1","code":{"coding":[{"system":"http://terminology.hl7.org/CodeSystem/measure-population","code":"numerator","display":"Numerator"}]},"count":0}],"measureScore":{"value":0.0}}],"evaluatedResource":[{"reference":"Patient/f8bc4adf-30b1-405a-89a2-385b302e0106"},{"reference":"Encounter/9d436187-4b48-44bd-b265-605d7ada13a0"},{"reference":"MedicationRequest/ca15e9b2-a9f8-460b-a661-8bc0bbe9c7ff"},{"reference":"Practitioner/a6905707-4f25-4b14-9ca7-db6268ca8a28"},{"reference":"ServiceRequest/511aabbf-1ca7-4588-9486-ffa808da085f"},{"reference":"Coverage/d16e4cf9-a8a1-414b-90ee-573538d449df"},{"reference":"Organization/e5f8c24f-ae6f-48a5-9b43-1074baa8ec8a"}]},"request":{"method":"PUT","url":"MeasureReport/8e8bd6d0-6b3c-4595-be39-c3182c97e331"}}]},"request":{"method":"PUT","url":"Bundle/63233588414ba67d4e1d1c34"}},{"fullUrl":"MedicationRequest/ca15e9b2-a9f8-460b-a661-8bc0bbe9c7ff","resource":{"resourceType":"MedicationRequest","id":"ca15e9b2-a9f8-460b-a661-8bc0bbe9c7ff","meta":{"profile":["http://hl7.org/fhir/us/qicore/StructureDefinition/qicore-medicationrequest"]},"status":"active","intent":"order","category":[{"coding":[{"system":"http://terminology.hl7.org/CodeSystem/medicationrequest-category","code":"discharge","display":"Discharge","userSelected":true}]}],"doNotPerform":false,"medicationCodeableConcept":{"coding":[{"system":"http://www.nlm.nih.gov/research/umls/rxnorm","code":"1298088","display":"flurazepam hydrochloride 15 MG Oral Capsule","userSelected":true}]},"subject":{"reference":"Patient/f8bc4adf-30b1-405a-89a2-385b302e0106"},"authoredOn":"2026-12-31T23:59:00.000+00:00","requester":{"reference":"Practitioner/a6905707-4f25-4b14-9ca7-db6268ca8a28"}},"request":{"method":"PUT","url":"MedicationRequest/ca15e9b2-a9f8-460b-a661-8bc0bbe9c7ff"}},{"fullUrl":"Organization/e5f8c24f-ae6f-48a5-9b43-1074baa8ec8a","resource":{"resourceType":"Organization","id":"e5f8c24f-ae6f-48a5-9b43-1074baa8ec8a","meta":{"profile":["http://hl7.org/fhir/us/qicore/StructureDefinition/qicore-organization"]},"identifier":[{"use":"temp","system":"urn:oid:2.16.840.1.113883.4.4","value":"21-3259825"}],"active":true,"type":[{"coding":[{"system":"http://terminology.hl7.org/CodeSystem/organization-type","code":"pay","display":"Payer"}]}],"name":"Blue Cross Blue Shield of Texas","telecom":[{"system":"phone","value":"(+1) 972-766-6900"}],"address":[{"use":"billing","type":"postal","line":["P.O. Box 660044"],"city":"Dallas","state":"TX","postalCode":"75266-0044","country":"USA"}]},"request":{"method":"PUT","url":"Organization/e5f8c24f-ae6f-48a5-9b43-1074baa8ec8a"}},{"fullUrl":"Encounter/9d436187-4b48-44bd-b265-605d7ada13a0","resource":{"resourceType":"Encounter","id":"9d436187-4b48-44bd-b265-605d7ada13a0","meta":{"profile":["http://hl7.org/fhir/us/qicore/StructureDefinition/qicore-encounter"]},"status":"finished","class":{"system":"http://terminology.hl7.org/CodeSystem/v3-ActCode","code":"AMB","display":"ambulatory"},"type":[{"coding":[{"system":"http://snomed.info/sct","version":"2022-03","code":"183452005","display":"Emergency hospital admission (procedure)","userSelected":true}]}],"subject":{"reference":"Patient/f8bc4adf-30b1-405a-89a2-385b302e0106"},"period":{"start":"2026-12-29T23:45:00.000+00:00","end":"2026-12-31T23:59:00.000+00:00"}},"request":{"method":"PUT","url":"Encounter/9d436187-4b48-44bd-b265-605d7ada13a0"}},{"fullUrl":"Coverage/d16e4cf9-a8a1-414b-90ee-573538d449df","resource":{"resourceType":"Coverage","id":"d16e4cf9-a8a1-414b-90ee-573538d449df","meta":{"profile":["http://hl7.org/fhir/us/qicore/StructureDefinition/qicore-coverage"]},"status":"active","subscriberId":"523435","beneficiary":{"reference":"Patient/f8bc4adf-30b1-405a-89a2-385b302e0106"},"relationship":{"coding":[{"system":"http://terminology.hl7.org/CodeSystem/subscriber-relationship","code":"self"}]},"payor":[{"reference":"Organization/e5f8c24f-ae6f-48a5-9b43-1074baa8ec8a"}]},"request":{"method":"PUT","url":"Coverage/d16e4cf9-a8a1-414b-90ee-573538d449df"}},{"fullUrl":"ServiceRequest/511aabbf-1ca7-4588-9486-ffa808da085f","resource":{"resourceType":"ServiceRequest","id":"511aabbf-1ca7-4588-9486-ffa808da085f","meta":{"profile":["http://hl7.org/fhir/us/qicore/StructureDefinition/qicore-servicerequest"]},"status":"active","intent":"order","code":{"coding":[{"system":"http://snomed.info/sct","version":"2022-03","code":"103735009","display":"Palliative care (regime/therapy)","userSelected":true}]},"subject":{"reference":"Patient/f8bc4adf-30b1-405a-89a2-385b302e0106"},"authoredOn":"2026-12-28T00:55:00.000+00:00"},"request":{"method":"PUT","url":"ServiceRequest/511aabbf-1ca7-4588-9486-ffa808da085f"}},{"fullUrl":"Practitioner/a6905707-4f25-4b14-9ca7-db6268ca8a28","resource":{"resourceType":"Practitioner","id":"a6905707-4f25-4b14-9ca7-db6268ca8a28","meta":{"profile":["http://hl7.org/fhir/us/qicore/StructureDefinition/qicore-practitioner"]},"identifier":[{"system":"http://hl7.org/fhir/sid/us-npi","value":"9999999896"}],"active":true,"name":[{"family":"Ramires","given":["Alma"],"prefix":["Dr"]}],"address":[{"use":"home","line":["534 Erewhon St"],"city":"Netherville","state":"IN","postalCode":"46131"}],"qualification":[{"identifier":[{"system":"http://goodhealth.org/prIdentifier","value":"12345"}],"code":{"coding":[{"system":"http://terminology.hl7.org/CodeSystem/v2-0360|2.7","code":"BS","display":"Bachelor of Science"}],"text":"Bachelor of Science"},"period":{"start":"1995"},"issuer":{"display":"Example University"}}]},"request":{"method":"PUT","url":"Practitioner/a6905707-4f25-4b14-9ca7-db6268ca8a28"}},{"fullUrl":"MeasureReport/8e8bd6d0-6b3c-4595-be39-c3182c97e331","resource":{"resourceType":"MeasureReport","id":"8e8bd6d0-6b3c-4595-be39-c3182c97e331","meta":{"profile":["http://hl7.org/fhir/us/cqfmeasures/StructureDefinition/test-case-cqfm"]},"contained":[{"resourceType":"Parameters","id":"c4bfde68-c49c-440f-90ed-ad2248211d07-parameters","parameter":[{"name":"subject","valueString":"f8bc4adf-30b1-405a-89a2-385b302e0106"}]}],"extension":[{"url":"http://hl7.org/fhir/StructureDefinition/cqf-inputParameters","valueReference":{"reference":"#c4bfde68-c49c-440f-90ed-ad2248211d07-parameters"}},{"url":"http://hl7.org/fhir/us/cqfmeasures/StructureDefinition/cqfm-testCaseDescription","valueMarkdown":"Encounter 12/29 - 12/31, 23:45 -23:59, age 18, opioids, order for palliative care 1 day before encounter"}],"modifierExtension":[{"url":"http://hl7.org/fhir/us/cqfmeasures/StructureDefinition/cqfm-isTestCase","valueBoolean":true}],"status":"complete","type":"individual","measure":"https://madie.cms.gov/Measure/CMS506FHIRSafeUseofOpioids","period":{"start":"2026-01-01","end":"2026-12-31"},"group":[{"id":"Group_1","population":[{"id":"InitialPopulation_1","code":{"coding":[{"system":"http://terminology.hl7.org/CodeSystem/measure-population","code":"initial-population","display":"Initial Population"}]},"count":1},{"id":"Denominator_1","code":{"coding":[{"system":"http://terminology.hl7.org/CodeSystem/measure-population","code":"denominator","display":"Denominator"}]},"count":1},{"id":"DenominatorExclusion_1","code":{"coding":[{"system":"http://terminology.hl7.org/CodeSystem/measure-population","code":"denominator-exclusion","display":"Denominator Exclusion"}]},"count":0},{"id":"Numerator_1","code":{"coding":[{"system":"http://terminology.hl7.org/CodeSystem/measure-population","code":"numerator","display":"Numerator"}]},"count":0}],"measureScore":{"value":0.0}}],"evaluatedResource":[{"reference":"Patient/f8bc4adf-30b1-405a-89a2-385b302e0106"},{"reference":"Encounter/9d436187-4b48-44bd-b265-605d7ada13a0"},{"reference":"MedicationRequest/ca15e9b2-a9f8-460b-a661-8bc0bbe9c7ff"},{"reference":"Practitioner/a6905707-4f25-4b14-9ca7-db6268ca8a28"},{"reference":"ServiceRequest/511aabbf-1ca7-4588-9486-ffa808da085f"},{"reference":"Coverage/d16e4cf9-a8a1-414b-90ee-573538d449df"},{"reference":"Organization/e5f8c24f-ae6f-48a5-9b43-1074baa8ec8a"}]},"request":{"method":"PUT","url":"MeasureReport/8e8bd6d0-6b3c-4595-be39-c3182c97e331"}}]}