{"resourceType":"Bundle","id":"tests-b792f3b9-b8f5-4d5c-ad66-f580b47ebffd-bundle","type":"transaction","entry":[{"fullUrl":"MeasureReport/87280a14-7046-4057-b51f-ab45097571a6","resource":{"resourceType":"MeasureReport","id":"87280a14-7046-4057-b51f-ab45097571a6","meta":{"profile":["http://hl7.org/fhir/us/cqfmeasures/StructureDefinition/test-case-cqfm"]},"contained":[{"resourceType":"Parameters","id":"c86cca6b-71e2-4dcb-91eb-920f485d699a-parameters","parameter":[{"name":"subject","valueString":"b792f3b9-b8f5-4d5c-ad66-f580b47ebffd"}]}],"extension":[{"url":"http://hl7.org/fhir/StructureDefinition/cqf-inputParameters","valueReference":{"reference":"#c86cca6b-71e2-4dcb-91eb-920f485d699a-parameters"}},{"url":"http://hl7.org/fhir/us/cqfmeasures/StructureDefinition/cqfm-testCaseDescription","valueMarkdown":"Encounter during MP, 2 opioids but on has an intent of 'plan' instead of order"}],"modifierExtension":[{"url":"http://hl7.org/fhir/us/cqfmeasures/StructureDefinition/cqfm-isTestCase","valueBoolean":true}],"status":"complete","type":"individual","measure":"https://madie.cms.gov/Measure/CMS506FHIRSafeUseofOpioids","period":{"start":"2026-01-01","end":"2026-12-31"},"group":[{"id":"Group_1","population":[{"id":"InitialPopulation_1","code":{"coding":[{"system":"http://terminology.hl7.org/CodeSystem/measure-population","code":"initial-population","display":"Initial Population"}]},"count":1},{"id":"Denominator_1","code":{"coding":[{"system":"http://terminology.hl7.org/CodeSystem/measure-population","code":"denominator","display":"Denominator"}]},"count":1},{"id":"DenominatorExclusion_1","code":{"coding":[{"system":"http://terminology.hl7.org/CodeSystem/measure-population","code":"denominator-exclusion","display":"Denominator Exclusion"}]},"count":0},{"id":"Numerator_1","code":{"coding":[{"system":"http://terminology.hl7.org/CodeSystem/measure-population","code":"numerator","display":"Numerator"}]},"count":0}],"measureScore":{"value":0.0}}],"evaluatedResource":[{"reference":"Patient/b792f3b9-b8f5-4d5c-ad66-f580b47ebffd"},{"reference":"Encounter/dab0a987-fa89-4e5d-b107-64f9365f1c6f"},{"reference":"MedicationRequest/2c100d2f-0adf-4031-b881-3c06191c8599"},{"reference":"Practitioner/3cc84bfb-2d59-4d12-b66d-1cf303f65052"},{"reference":"MedicationRequest/57e20732-0aa3-4537-94dd-0d2635b362c5"},{"reference":"Coverage/157b433c-820f-4b61-abf0-9a4229430b89"},{"reference":"Organization/e6166e5d-8cd2-4268-8f9d-b8d40b633ba8"}]},"request":{"method":"PUT","url":"MeasureReport/87280a14-7046-4057-b51f-ab45097571a6"}},{"fullUrl":"Encounter/dab0a987-fa89-4e5d-b107-64f9365f1c6f","resource":{"resourceType":"Encounter","id":"dab0a987-fa89-4e5d-b107-64f9365f1c6f","meta":{"profile":["http://hl7.org/fhir/us/qicore/StructureDefinition/qicore-encounter"]},"status":"finished","class":{"system":"http://terminology.hl7.org/CodeSystem/v3-ActCode","code":"IMP","display":"inpatient"},"type":[{"coding":[{"system":"http://snomed.info/sct","version":"2022-03","code":"183452005","display":"Emergency hospital admission (procedure)","userSelected":true}]}],"subject":{"reference":"Patient/b792f3b9-b8f5-4d5c-ad66-f580b47ebffd"},"period":{"start":"2026-01-01T00:00:00.000+00:00","end":"2026-01-03T00:00:00.000+00:00"}},"request":{"method":"PUT","url":"Encounter/dab0a987-fa89-4e5d-b107-64f9365f1c6f"}},{"fullUrl":"Practitioner/3cc84bfb-2d59-4d12-b66d-1cf303f65052","resource":{"resourceType":"Practitioner","id":"3cc84bfb-2d59-4d12-b66d-1cf303f65052","meta":{"profile":["http://hl7.org/fhir/us/qicore/StructureDefinition/qicore-practitioner"]},"identifier":[{"system":"http://hl7.org/fhir/sid/us-npi","value":"9999999896"}],"active":true,"name":[{"family":"Ramires","given":["Alma"],"prefix":["Dr"]}],"address":[{"use":"home","line":["534 Erewhon St"],"city":"Netherville","state":"IN","postalCode":"46131"}],"qualification":[{"identifier":[{"system":"http://goodhealth.org/prIdentifier","value":"12345"}],"code":{"coding":[{"system":"http://terminology.hl7.org/CodeSystem/v2-0360|2.7","code":"BS","display":"Bachelor of Science"}],"text":"Bachelor of Science"},"period":{"start":"1995"},"issuer":{"display":"Example University"}}]},"request":{"method":"PUT","url":"Practitioner/3cc84bfb-2d59-4d12-b66d-1cf303f65052"}},{"fullUrl":"Bundle/6323489059967e30c06d0774","resource":{"resourceType":"Bundle","id":"6323489059967e30c06d0774","type":"transaction","entry":[{"fullUrl":"https://madie.cms.gov/Patient/b792f3b9-b8f5-4d5c-ad66-f580b47ebffd","resource":{"resourceType":"Patient","id":"b792f3b9-b8f5-4d5c-ad66-f580b47ebffd","meta":{"profile":["http://hl7.org/fhir/us/qicore/StructureDefinition/qicore-patient"]},"extension":[{"url":"http://hl7.org/fhir/us/core/StructureDefinition/us-core-race","extension":[{"url":"ombCategory","valueCoding":{"system":"urn:oid:2.16.840.1.113883.6.238","code":"1002-5","display":"American Indian or Alaska Native","userSelected":true}},{"url":"text","valueString":"American Indian or Alaska Native"}]},{"url":"http://hl7.org/fhir/us/core/StructureDefinition/us-core-ethnicity","extension":[{"url":"ombCategory","valueCoding":{"system":"urn:oid:2.16.840.1.113883.6.238","code":"2135-2","display":"Hispanic or Latino","userSelected":true}},{"url":"text","valueString":"Hispanic or Latino"}]}],"identifier":[{"type":{"coding":[{"system":"http://terminology.hl7.org/CodeSystem/v2-0203","code":"MR"}]},"system":"https://bonnie-fhir.healthit.gov/","value":"6323489059967e30c06d0774"}],"name":[{"family":"NUMERFail","given":["MedicationIntentPlan"]}],"gender":"male","birthDate":"2006-09-15"},"request":{"method":"PUT","url":"Patient/b792f3b9-b8f5-4d5c-ad66-f580b47ebffd"}},{"fullUrl":"https://madie.cms.gov/Encounter/dab0a987-fa89-4e5d-b107-64f9365f1c6f","resource":{"resourceType":"Encounter","id":"dab0a987-fa89-4e5d-b107-64f9365f1c6f","meta":{"profile":["http://hl7.org/fhir/us/qicore/StructureDefinition/qicore-encounter"]},"status":"finished","class":{"system":"http://terminology.hl7.org/CodeSystem/v3-ActCode","code":"IMP","display":"inpatient"},"type":[{"coding":[{"system":"http://snomed.info/sct","version":"2022-03","code":"183452005","display":"Emergency hospital admission (procedure)","userSelected":true}]}],"subject":{"reference":"Patient/b792f3b9-b8f5-4d5c-ad66-f580b47ebffd"},"period":{"start":"2026-01-01T00:00:00.000+00:00","end":"2026-01-03T00:00:00.000+00:00"}},"request":{"method":"PUT","url":"Encounter/dab0a987-fa89-4e5d-b107-64f9365f1c6f"}},{"fullUrl":"https://madie.cms.gov/MedicationRequest/2c100d2f-0adf-4031-b881-3c06191c8599","resource":{"resourceType":"MedicationRequest","id":"2c100d2f-0adf-4031-b881-3c06191c8599","meta":{"profile":["http://hl7.org/fhir/us/qicore/StructureDefinition/qicore-medicationrequest"]},"status":"active","intent":"plan","category":[{"coding":[{"system":"http://terminology.hl7.org/CodeSystem/medicationrequest-category","code":"discharge","display":"Discharge","userSelected":true}]}],"doNotPerform":false,"medicationCodeableConcept":{"coding":[{"system":"http://www.nlm.nih.gov/research/umls/rxnorm","code":"1014632","display":"acetaminophen 300 MG / oxycodone hydrochloride 7.5 MG Oral Tablet","userSelected":true}]},"subject":{"reference":"Patient/b792f3b9-b8f5-4d5c-ad66-f580b47ebffd"},"authoredOn":"2026-01-03T00:15:00.000+00:00","requester":{"reference":"Practitioner/3cc84bfb-2d59-4d12-b66d-1cf303f65052"}},"request":{"method":"PUT","url":"MedicationRequest/2c100d2f-0adf-4031-b881-3c06191c8599"}},{"fullUrl":"https://madie.cms.gov/Practitioner/3cc84bfb-2d59-4d12-b66d-1cf303f65052","resource":{"resourceType":"Practitioner","id":"3cc84bfb-2d59-4d12-b66d-1cf303f65052","meta":{"profile":["http://hl7.org/fhir/us/qicore/StructureDefinition/qicore-practitioner"]},"identifier":[{"system":"http://hl7.org/fhir/sid/us-npi","value":"9999999896"}],"active":true,"name":[{"family":"Ramires","given":["Alma"],"prefix":["Dr"]}],"address":[{"use":"home","line":["534 Erewhon St"],"city":"Netherville","state":"IN","postalCode":"46131"}],"qualification":[{"identifier":[{"system":"http://goodhealth.org/prIdentifier","value":"12345"}],"code":{"coding":[{"system":"http://terminology.hl7.org/CodeSystem/v2-0360|2.7","code":"BS","display":"Bachelor of Science"}],"text":"Bachelor of Science"},"period":{"start":"1995"},"issuer":{"display":"Example University"}}]},"request":{"method":"PUT","url":"Practitioner/3cc84bfb-2d59-4d12-b66d-1cf303f65052"}},{"fullUrl":"https://madie.cms.gov/MedicationRequest/57e20732-0aa3-4537-94dd-0d2635b362c5","resource":{"resourceType":"MedicationRequest","id":"57e20732-0aa3-4537-94dd-0d2635b362c5","meta":{"profile":["http://hl7.org/fhir/us/qicore/StructureDefinition/qicore-medicationrequest"]},"status":"active","intent":"order","category":[{"coding":[{"system":"http://terminology.hl7.org/CodeSystem/medicationrequest-category","code":"discharge","display":"Discharge","userSelected":true}]}],"doNotPerform":false,"medicationCodeableConcept":{"coding":[{"system":"http://www.nlm.nih.gov/research/umls/rxnorm","code":"863845","display":"Abuse-Deterrent morphine sulfate 100 MG / naltrexone hydrochloride 4 MG Extended Release Oral Capsule","userSelected":true}]},"subject":{"reference":"Patient/b792f3b9-b8f5-4d5c-ad66-f580b47ebffd"},"authoredOn":"2026-01-03T00:10:00.000+00:00","requester":{"reference":"Practitioner/3cc84bfb-2d59-4d12-b66d-1cf303f65052"}},"request":{"method":"PUT","url":"MedicationRequest/57e20732-0aa3-4537-94dd-0d2635b362c5"}},{"fullUrl":"https://madie.cms.gov/Coverage/157b433c-820f-4b61-abf0-9a4229430b89","resource":{"resourceType":"Coverage","id":"157b433c-820f-4b61-abf0-9a4229430b89","meta":{"profile":["http://hl7.org/fhir/us/qicore/StructureDefinition/qicore-coverage"]},"status":"active","subscriberId":"523435","beneficiary":{"reference":"Patient/b792f3b9-b8f5-4d5c-ad66-f580b47ebffd"},"relationship":{"coding":[{"system":"http://terminology.hl7.org/CodeSystem/subscriber-relationship","code":"self"}]},"payor":[{"reference":"Organization/e6166e5d-8cd2-4268-8f9d-b8d40b633ba8"}]},"request":{"method":"PUT","url":"Coverage/157b433c-820f-4b61-abf0-9a4229430b89"}},{"fullUrl":"https://madie.cms.gov/Organization/e6166e5d-8cd2-4268-8f9d-b8d40b633ba8","resource":{"resourceType":"Organization","id":"e6166e5d-8cd2-4268-8f9d-b8d40b633ba8","meta":{"profile":["http://hl7.org/fhir/us/qicore/StructureDefinition/qicore-organization"]},"identifier":[{"use":"temp","system":"urn:oid:2.16.840.1.113883.4.4","value":"21-3259825"}],"active":true,"type":[{"coding":[{"system":"http://terminology.hl7.org/CodeSystem/organization-type","code":"pay","display":"Payer"}]}],"name":"Blue Cross Blue Shield of Texas","telecom":[{"system":"phone","value":"(+1) 972-766-6900"}],"address":[{"use":"billing","type":"postal","line":["P.O. Box 660044"],"city":"Dallas","state":"TX","postalCode":"75266-0044","country":"USA"}]},"request":{"method":"PUT","url":"Organization/e6166e5d-8cd2-4268-8f9d-b8d40b633ba8"}},{"fullUrl":"https://madie.cms.gov/MeasureReport/87280a14-7046-4057-b51f-ab45097571a6","resource":{"resourceType":"MeasureReport","id":"87280a14-7046-4057-b51f-ab45097571a6","meta":{"profile":["http://hl7.org/fhir/us/cqfmeasures/StructureDefinition/test-case-cqfm"]},"contained":[{"resourceType":"Parameters","id":"c86cca6b-71e2-4dcb-91eb-920f485d699a-parameters","parameter":[{"name":"subject","valueString":"b792f3b9-b8f5-4d5c-ad66-f580b47ebffd"}]}],"extension":[{"url":"http://hl7.org/fhir/StructureDefinition/cqf-inputParameters","valueReference":{"reference":"#c86cca6b-71e2-4dcb-91eb-920f485d699a-parameters"}},{"url":"http://hl7.org/fhir/us/cqfmeasures/StructureDefinition/cqfm-testCaseDescription","valueMarkdown":"Encounter during MP, 2 opioids but on has an intent of 'plan' instead of order"}],"modifierExtension":[{"url":"http://hl7.org/fhir/us/cqfmeasures/StructureDefinition/cqfm-isTestCase","valueBoolean":true}],"status":"complete","type":"individual","measure":"https://madie.cms.gov/Measure/CMS506FHIRSafeUseofOpioids","period":{"start":"2026-01-01","end":"2026-12-31"},"group":[{"id":"Group_1","population":[{"id":"InitialPopulation_1","code":{"coding":[{"system":"http://terminology.hl7.org/CodeSystem/measure-population","code":"initial-population","display":"Initial Population"}]},"count":1},{"id":"Denominator_1","code":{"coding":[{"system":"http://terminology.hl7.org/CodeSystem/measure-population","code":"denominator","display":"Denominator"}]},"count":1},{"id":"DenominatorExclusion_1","code":{"coding":[{"system":"http://terminology.hl7.org/CodeSystem/measure-population","code":"denominator-exclusion","display":"Denominator Exclusion"}]},"count":0},{"id":"Numerator_1","code":{"coding":[{"system":"http://terminology.hl7.org/CodeSystem/measure-population","code":"numerator","display":"Numerator"}]},"count":0}],"measureScore":{"value":0.0}}],"evaluatedResource":[{"reference":"Patient/b792f3b9-b8f5-4d5c-ad66-f580b47ebffd"},{"reference":"Encounter/dab0a987-fa89-4e5d-b107-64f9365f1c6f"},{"reference":"MedicationRequest/2c100d2f-0adf-4031-b881-3c06191c8599"},{"reference":"Practitioner/3cc84bfb-2d59-4d12-b66d-1cf303f65052"},{"reference":"MedicationRequest/57e20732-0aa3-4537-94dd-0d2635b362c5"},{"reference":"Coverage/157b433c-820f-4b61-abf0-9a4229430b89"},{"reference":"Organization/e6166e5d-8cd2-4268-8f9d-b8d40b633ba8"}]},"request":{"method":"PUT","url":"MeasureReport/87280a14-7046-4057-b51f-ab45097571a6"}}]},"request":{"method":"PUT","url":"Bundle/6323489059967e30c06d0774"}},{"fullUrl":"MedicationRequest/57e20732-0aa3-4537-94dd-0d2635b362c5","resource":{"resourceType":"MedicationRequest","id":"57e20732-0aa3-4537-94dd-0d2635b362c5","meta":{"profile":["http://hl7.org/fhir/us/qicore/StructureDefinition/qicore-medicationrequest"]},"status":"active","intent":"order","category":[{"coding":[{"system":"http://terminology.hl7.org/CodeSystem/medicationrequest-category","code":"discharge","display":"Discharge","userSelected":true}]}],"doNotPerform":false,"medicationCodeableConcept":{"coding":[{"system":"http://www.nlm.nih.gov/research/umls/rxnorm","code":"863845","display":"Abuse-Deterrent morphine sulfate 100 MG / naltrexone hydrochloride 4 MG Extended Release Oral Capsule","userSelected":true}]},"subject":{"reference":"Patient/b792f3b9-b8f5-4d5c-ad66-f580b47ebffd"},"authoredOn":"2026-01-03T00:10:00.000+00:00","requester":{"reference":"Practitioner/3cc84bfb-2d59-4d12-b66d-1cf303f65052"}},"request":{"method":"PUT","url":"MedicationRequest/57e20732-0aa3-4537-94dd-0d2635b362c5"}},{"fullUrl":"Organization/e6166e5d-8cd2-4268-8f9d-b8d40b633ba8","resource":{"resourceType":"Organization","id":"e6166e5d-8cd2-4268-8f9d-b8d40b633ba8","meta":{"profile":["http://hl7.org/fhir/us/qicore/StructureDefinition/qicore-organization"]},"identifier":[{"use":"temp","system":"urn:oid:2.16.840.1.113883.4.4","value":"21-3259825"}],"active":true,"type":[{"coding":[{"system":"http://terminology.hl7.org/CodeSystem/organization-type","code":"pay","display":"Payer"}]}],"name":"Blue Cross Blue Shield of Texas","telecom":[{"system":"phone","value":"(+1) 972-766-6900"}],"address":[{"use":"billing","type":"postal","line":["P.O. Box 660044"],"city":"Dallas","state":"TX","postalCode":"75266-0044","country":"USA"}]},"request":{"method":"PUT","url":"Organization/e6166e5d-8cd2-4268-8f9d-b8d40b633ba8"}},{"fullUrl":"Coverage/157b433c-820f-4b61-abf0-9a4229430b89","resource":{"resourceType":"Coverage","id":"157b433c-820f-4b61-abf0-9a4229430b89","meta":{"profile":["http://hl7.org/fhir/us/qicore/StructureDefinition/qicore-coverage"]},"status":"active","subscriberId":"523435","beneficiary":{"reference":"Patient/b792f3b9-b8f5-4d5c-ad66-f580b47ebffd"},"relationship":{"coding":[{"system":"http://terminology.hl7.org/CodeSystem/subscriber-relationship","code":"self"}]},"payor":[{"reference":"Organization/e6166e5d-8cd2-4268-8f9d-b8d40b633ba8"}]},"request":{"method":"PUT","url":"Coverage/157b433c-820f-4b61-abf0-9a4229430b89"}},{"fullUrl":"Patient/b792f3b9-b8f5-4d5c-ad66-f580b47ebffd","resource":{"resourceType":"Patient","id":"b792f3b9-b8f5-4d5c-ad66-f580b47ebffd","meta":{"profile":["http://hl7.org/fhir/us/qicore/StructureDefinition/qicore-patient"]},"extension":[{"url":"http://hl7.org/fhir/us/core/StructureDefinition/us-core-race","extension":[{"url":"ombCategory","valueCoding":{"system":"urn:oid:2.16.840.1.113883.6.238","code":"1002-5","display":"American Indian or Alaska Native","userSelected":true}},{"url":"text","valueString":"American Indian or Alaska Native"}]},{"url":"http://hl7.org/fhir/us/core/StructureDefinition/us-core-ethnicity","extension":[{"url":"ombCategory","valueCoding":{"system":"urn:oid:2.16.840.1.113883.6.238","code":"2135-2","display":"Hispanic or Latino","userSelected":true}},{"url":"text","valueString":"Hispanic or Latino"}]}],"identifier":[{"type":{"coding":[{"system":"http://terminology.hl7.org/CodeSystem/v2-0203","code":"MR"}]},"system":"https://bonnie-fhir.healthit.gov/","value":"6323489059967e30c06d0774"}],"name":[{"family":"NUMERFail","given":["MedicationIntentPlan"]}],"gender":"male","birthDate":"2006-09-15"},"request":{"method":"PUT","url":"Patient/b792f3b9-b8f5-4d5c-ad66-f580b47ebffd"}},{"fullUrl":"MedicationRequest/2c100d2f-0adf-4031-b881-3c06191c8599","resource":{"resourceType":"MedicationRequest","id":"2c100d2f-0adf-4031-b881-3c06191c8599","meta":{"profile":["http://hl7.org/fhir/us/qicore/StructureDefinition/qicore-medicationrequest"]},"status":"active","intent":"plan","category":[{"coding":[{"system":"http://terminology.hl7.org/CodeSystem/medicationrequest-category","code":"discharge","display":"Discharge","userSelected":true}]}],"doNotPerform":false,"medicationCodeableConcept":{"coding":[{"system":"http://www.nlm.nih.gov/research/umls/rxnorm","code":"1014632","display":"acetaminophen 300 MG / oxycodone hydrochloride 7.5 MG Oral Tablet","userSelected":true}]},"subject":{"reference":"Patient/b792f3b9-b8f5-4d5c-ad66-f580b47ebffd"},"authoredOn":"2026-01-03T00:15:00.000+00:00","requester":{"reference":"Practitioner/3cc84bfb-2d59-4d12-b66d-1cf303f65052"}},"request":{"method":"PUT","url":"MedicationRequest/2c100d2f-0adf-4031-b881-3c06191c8599"}}]}