{"resourceType":"Bundle","id":"tests-57da77da-de92-4ef5-9311-1d86e67c9de4-bundle","type":"transaction","entry":[{"fullUrl":"Bundle/63233350414ba67d4e1d1c2f","resource":{"resourceType":"Bundle","id":"63233350414ba67d4e1d1c2f","type":"transaction","entry":[{"fullUrl":"https://madie.cms.gov/Patient/57da77da-de92-4ef5-9311-1d86e67c9de4","resource":{"resourceType":"Patient","id":"57da77da-de92-4ef5-9311-1d86e67c9de4","meta":{"profile":["http://hl7.org/fhir/us/qicore/StructureDefinition/qicore-patient"]},"extension":[{"url":"http://hl7.org/fhir/us/core/StructureDefinition/us-core-race","extension":[{"url":"ombCategory","valueCoding":{"system":"urn:oid:2.16.840.1.113883.6.238","code":"2028-9","display":"Asian","userSelected":true}},{"url":"text","valueString":"Asian"},{"url":"detailed","valueCoding":{"system":"urn:oid:2.16.840.1.113883.6.238","code":"1653-5","display":"Tohono O'Odham"}}]},{"url":"http://hl7.org/fhir/us/core/StructureDefinition/us-core-ethnicity","extension":[{"url":"ombCategory","valueCoding":{"system":"urn:oid:2.16.840.1.113883.6.238","code":"2186-5","display":"Not Hispanic or Latino","userSelected":true}},{"url":"text","valueString":"Not Hispanic or Latino"},{"url":"detailed","valueCoding":{"system":"urn:oid:2.16.840.1.113883.6.238","code":"2153-5","display":"Mexican American Indian"}}]}],"identifier":[{"type":{"coding":[{"system":"http://terminology.hl7.org/CodeSystem/v2-0203","code":"MR"}]},"system":"https://bonnie-fhir.healthit.gov/","value":"63233350414ba67d4e1d1c2f"}],"name":[{"family":"DENEXPass","given":["OpioidUseDisorder"]}],"gender":"female","birthDate":"1944-02-01"},"request":{"method":"PUT","url":"Patient/57da77da-de92-4ef5-9311-1d86e67c9de4"}},{"fullUrl":"https://madie.cms.gov/Encounter/e62e6819-0686-44f2-9c89-553976eb4b20","resource":{"resourceType":"Encounter","id":"e62e6819-0686-44f2-9c89-553976eb4b20","meta":{"profile":["http://hl7.org/fhir/us/qicore/StructureDefinition/qicore-encounter"]},"status":"finished","class":{"system":"http://terminology.hl7.org/CodeSystem/v3-ActCode","code":"AMB","display":"ambulatory"},"type":[{"coding":[{"system":"http://snomed.info/sct","version":"2022-03","code":"183452005","display":"Emergency hospital admission (procedure)","userSelected":true}]}],"subject":{"reference":"Patient/57da77da-de92-4ef5-9311-1d86e67c9de4"},"period":{"start":"2026-01-01T11:45:00.000+00:00","end":"2026-01-03T11:59:00.000+00:00"}},"request":{"method":"PUT","url":"Encounter/e62e6819-0686-44f2-9c89-553976eb4b20"}},{"fullUrl":"https://madie.cms.gov/MedicationRequest/ab98c0e1-7ca4-42cf-8ec6-f0587609d42f","resource":{"resourceType":"MedicationRequest","id":"ab98c0e1-7ca4-42cf-8ec6-f0587609d42f","meta":{"profile":["http://hl7.org/fhir/us/qicore/StructureDefinition/qicore-medicationrequest"]},"status":"completed","intent":"order","category":[{"coding":[{"system":"http://terminology.hl7.org/CodeSystem/medicationrequest-category","code":"discharge","display":"Discharge","userSelected":true}]}],"doNotPerform":false,"medicationCodeableConcept":{"coding":[{"system":"http://www.nlm.nih.gov/research/umls/rxnorm","code":"2103192","display":"sufentanil 0.03 MG Sublingual Tablet","userSelected":true}]},"subject":{"reference":"Patient/57da77da-de92-4ef5-9311-1d86e67c9de4"},"authoredOn":"2026-01-03T11:59:00.000+00:00","requester":{"reference":"Practitioner/4df6d199-2bf7-4323-8477-9e4846cbfa1f"}},"request":{"method":"PUT","url":"MedicationRequest/ab98c0e1-7ca4-42cf-8ec6-f0587609d42f"}},{"fullUrl":"https://madie.cms.gov/Practitioner/4df6d199-2bf7-4323-8477-9e4846cbfa1f","resource":{"resourceType":"Practitioner","id":"4df6d199-2bf7-4323-8477-9e4846cbfa1f","meta":{"profile":["http://hl7.org/fhir/us/qicore/StructureDefinition/qicore-practitioner"]},"identifier":[{"system":"http://hl7.org/fhir/sid/us-npi","value":"9999999896"}],"active":true,"name":[{"family":"Ramires","given":["Alma"],"prefix":["Dr"]}],"address":[{"use":"home","line":["534 Erewhon St"],"city":"Netherville","state":"IN","postalCode":"46131"}],"qualification":[{"identifier":[{"system":"http://goodhealth.org/prIdentifier","value":"12345"}],"code":{"coding":[{"system":"http://terminology.hl7.org/CodeSystem/v2-0360|2.7","code":"BS","display":"Bachelor of Science"}],"text":"Bachelor of Science"},"period":{"start":"1995"},"issuer":{"display":"Example University"}}]},"request":{"method":"PUT","url":"Practitioner/4df6d199-2bf7-4323-8477-9e4846cbfa1f"}},{"fullUrl":"https://madie.cms.gov/Condition/2879540b-a880-445a-acb1-2e4d92ee653e","resource":{"resourceType":"Condition","id":"2879540b-a880-445a-acb1-2e4d92ee653e","meta":{"profile":["http://hl7.org/fhir/us/qicore/StructureDefinition/qicore-condition-problems-health-concerns"]},"clinicalStatus":{"coding":[{"system":"http://terminology.hl7.org/CodeSystem/condition-clinical","code":"active","display":"active","userSelected":true}]},"verificationStatus":{"coding":[{"system":"http://hl7.org/fhir/ValueSet/condition-ver-status","code":"confirmed","display":"confirmed","userSelected":true}]},"category":[{"coding":[{"system":"http://terminology.hl7.org/CodeSystem/condition-category","code":"problem-list-item","display":"Problem List Item"},{"system":"http://snomed.info/sct","code":"439401001","display":"Diagnosis"}]}],"code":{"coding":[{"system":"http://snomed.info/sct","version":"2022-03","code":"75544000","display":"Opioid dependence (disorder)","userSelected":true}]},"subject":{"reference":"Patient/57da77da-de92-4ef5-9311-1d86e67c9de4"},"onsetPeriod":{"start":"2026-01-02T08:00:00.000+00:00"}},"request":{"method":"PUT","url":"Condition/2879540b-a880-445a-acb1-2e4d92ee653e"}},{"fullUrl":"https://madie.cms.gov/MedicationRequest/993fd583-7476-4a92-8255-c7165cf8ffac","resource":{"resourceType":"MedicationRequest","id":"993fd583-7476-4a92-8255-c7165cf8ffac","meta":{"profile":["http://hl7.org/fhir/us/qicore/StructureDefinition/qicore-medicationrequest"]},"status":"active","intent":"order","category":[{"coding":[{"system":"http://terminology.hl7.org/CodeSystem/medicationrequest-category","code":"community","display":"Community","userSelected":true}]}],"doNotPerform":false,"medicationCodeableConcept":{"coding":[{"system":"http://www.nlm.nih.gov/research/umls/rxnorm","code":"1010600","display":"buprenorphine 2 MG / naloxone 0.5 MG Sublingual Film","userSelected":true}]},"subject":{"reference":"Patient/57da77da-de92-4ef5-9311-1d86e67c9de4"},"authoredOn":"2026-01-02T00:05:00.000+00:00","requester":{"reference":"Practitioner/4df6d199-2bf7-4323-8477-9e4846cbfa1f"}},"request":{"method":"PUT","url":"MedicationRequest/993fd583-7476-4a92-8255-c7165cf8ffac"}},{"fullUrl":"https://madie.cms.gov/Coverage/cda31f59-bd02-4817-a2a2-e47afd4bb008","resource":{"resourceType":"Coverage","id":"cda31f59-bd02-4817-a2a2-e47afd4bb008","meta":{"profile":["http://hl7.org/fhir/us/qicore/StructureDefinition/qicore-coverage"]},"status":"active","subscriberId":"523435","beneficiary":{"reference":"Patient/57da77da-de92-4ef5-9311-1d86e67c9de4"},"relationship":{"coding":[{"system":"http://terminology.hl7.org/CodeSystem/subscriber-relationship","code":"self"}]},"payor":[{"reference":"Organization/a70ef0db-5aa8-4b0e-9e37-a9218f06c06b"}]},"request":{"method":"PUT","url":"Coverage/cda31f59-bd02-4817-a2a2-e47afd4bb008"}},{"fullUrl":"https://madie.cms.gov/Organization/a70ef0db-5aa8-4b0e-9e37-a9218f06c06b","resource":{"resourceType":"Organization","id":"a70ef0db-5aa8-4b0e-9e37-a9218f06c06b","meta":{"profile":["http://hl7.org/fhir/us/qicore/StructureDefinition/qicore-organization"]},"identifier":[{"use":"temp","system":"urn:oid:2.16.840.1.113883.4.4","value":"21-3259825"}],"active":true,"type":[{"coding":[{"system":"http://terminology.hl7.org/CodeSystem/organization-type","code":"pay","display":"Payer"}]}],"name":"Blue Cross Blue Shield of Texas","telecom":[{"system":"phone","value":"(+1) 972-766-6900"}],"address":[{"use":"billing","type":"postal","line":["P.O. Box 660044"],"city":"Dallas","state":"TX","postalCode":"75266-0044","country":"USA"}]},"request":{"method":"PUT","url":"Organization/a70ef0db-5aa8-4b0e-9e37-a9218f06c06b"}},{"fullUrl":"https://madie.cms.gov/MeasureReport/1823ff43-6a64-4656-ae6c-413059a01819","resource":{"resourceType":"MeasureReport","id":"1823ff43-6a64-4656-ae6c-413059a01819","meta":{"profile":["http://hl7.org/fhir/us/cqfmeasures/StructureDefinition/test-case-cqfm"]},"contained":[{"resourceType":"Parameters","id":"7d783d1a-54ee-4fcb-b5ac-a01854ee4c27-parameters","parameter":[{"name":"subject","valueString":"57da77da-de92-4ef5-9311-1d86e67c9de4"}]}],"extension":[{"url":"http://hl7.org/fhir/StructureDefinition/cqf-inputParameters","valueReference":{"reference":"#7d783d1a-54ee-4fcb-b5ac-a01854ee4c27-parameters"}},{"url":"http://hl7.org/fhir/us/cqfmeasures/StructureDefinition/cqfm-testCaseDescription","valueMarkdown":"Enc first day of MP, pt has opioid use disorder"}],"modifierExtension":[{"url":"http://hl7.org/fhir/us/cqfmeasures/StructureDefinition/cqfm-isTestCase","valueBoolean":true}],"status":"complete","type":"individual","measure":"https://madie.cms.gov/Measure/CMS506FHIRSafeUseofOpioids","period":{"start":"2026-01-01","end":"2026-12-31"},"group":[{"id":"Group_1","population":[{"id":"InitialPopulation_1","code":{"coding":[{"system":"http://terminology.hl7.org/CodeSystem/measure-population","code":"initial-population","display":"Initial Population"}]},"count":1},{"id":"Denominator_1","code":{"coding":[{"system":"http://terminology.hl7.org/CodeSystem/measure-population","code":"denominator","display":"Denominator"}]},"count":1},{"id":"DenominatorExclusion_1","code":{"coding":[{"system":"http://terminology.hl7.org/CodeSystem/measure-population","code":"denominator-exclusion","display":"Denominator Exclusion"}]},"count":1},{"id":"Numerator_1","code":{"coding":[{"system":"http://terminology.hl7.org/CodeSystem/measure-population","code":"numerator","display":"Numerator"}]},"count":0}],"measureScore":{"value":0.0}}],"evaluatedResource":[{"reference":"Patient/57da77da-de92-4ef5-9311-1d86e67c9de4"},{"reference":"Encounter/e62e6819-0686-44f2-9c89-553976eb4b20"},{"reference":"MedicationRequest/ab98c0e1-7ca4-42cf-8ec6-f0587609d42f"},{"reference":"Practitioner/4df6d199-2bf7-4323-8477-9e4846cbfa1f"},{"reference":"Condition/2879540b-a880-445a-acb1-2e4d92ee653e"},{"reference":"MedicationRequest/993fd583-7476-4a92-8255-c7165cf8ffac"},{"reference":"Coverage/cda31f59-bd02-4817-a2a2-e47afd4bb008"},{"reference":"Organization/a70ef0db-5aa8-4b0e-9e37-a9218f06c06b"}]},"request":{"method":"PUT","url":"MeasureReport/1823ff43-6a64-4656-ae6c-413059a01819"}}]},"request":{"method":"PUT","url":"Bundle/63233350414ba67d4e1d1c2f"}},{"fullUrl":"Condition/2879540b-a880-445a-acb1-2e4d92ee653e","resource":{"resourceType":"Condition","id":"2879540b-a880-445a-acb1-2e4d92ee653e","meta":{"profile":["http://hl7.org/fhir/us/qicore/StructureDefinition/qicore-condition-problems-health-concerns"]},"clinicalStatus":{"coding":[{"system":"http://terminology.hl7.org/CodeSystem/condition-clinical","code":"active","display":"active","userSelected":true}]},"verificationStatus":{"coding":[{"system":"http://hl7.org/fhir/ValueSet/condition-ver-status","code":"confirmed","display":"confirmed","userSelected":true}]},"category":[{"coding":[{"system":"http://terminology.hl7.org/CodeSystem/condition-category","code":"problem-list-item","display":"Problem List Item"},{"system":"http://snomed.info/sct","code":"439401001","display":"Diagnosis"}]}],"code":{"coding":[{"system":"http://snomed.info/sct","version":"2022-03","code":"75544000","display":"Opioid dependence (disorder)","userSelected":true}]},"subject":{"reference":"Patient/57da77da-de92-4ef5-9311-1d86e67c9de4"},"onsetPeriod":{"start":"2026-01-02T08:00:00.000+00:00"}},"request":{"method":"PUT","url":"Condition/2879540b-a880-445a-acb1-2e4d92ee653e"}},{"fullUrl":"MedicationRequest/993fd583-7476-4a92-8255-c7165cf8ffac","resource":{"resourceType":"MedicationRequest","id":"993fd583-7476-4a92-8255-c7165cf8ffac","meta":{"profile":["http://hl7.org/fhir/us/qicore/StructureDefinition/qicore-medicationrequest"]},"status":"active","intent":"order","category":[{"coding":[{"system":"http://terminology.hl7.org/CodeSystem/medicationrequest-category","code":"community","display":"Community","userSelected":true}]}],"doNotPerform":false,"medicationCodeableConcept":{"coding":[{"system":"http://www.nlm.nih.gov/research/umls/rxnorm","code":"1010600","display":"buprenorphine 2 MG / naloxone 0.5 MG Sublingual Film","userSelected":true}]},"subject":{"reference":"Patient/57da77da-de92-4ef5-9311-1d86e67c9de4"},"authoredOn":"2026-01-02T00:05:00.000+00:00","requester":{"reference":"Practitioner/4df6d199-2bf7-4323-8477-9e4846cbfa1f"}},"request":{"method":"PUT","url":"MedicationRequest/993fd583-7476-4a92-8255-c7165cf8ffac"}},{"fullUrl":"Organization/a70ef0db-5aa8-4b0e-9e37-a9218f06c06b","resource":{"resourceType":"Organization","id":"a70ef0db-5aa8-4b0e-9e37-a9218f06c06b","meta":{"profile":["http://hl7.org/fhir/us/qicore/StructureDefinition/qicore-organization"]},"identifier":[{"use":"temp","system":"urn:oid:2.16.840.1.113883.4.4","value":"21-3259825"}],"active":true,"type":[{"coding":[{"system":"http://terminology.hl7.org/CodeSystem/organization-type","code":"pay","display":"Payer"}]}],"name":"Blue Cross Blue Shield of Texas","telecom":[{"system":"phone","value":"(+1) 972-766-6900"}],"address":[{"use":"billing","type":"postal","line":["P.O. Box 660044"],"city":"Dallas","state":"TX","postalCode":"75266-0044","country":"USA"}]},"request":{"method":"PUT","url":"Organization/a70ef0db-5aa8-4b0e-9e37-a9218f06c06b"}},{"fullUrl":"Encounter/e62e6819-0686-44f2-9c89-553976eb4b20","resource":{"resourceType":"Encounter","id":"e62e6819-0686-44f2-9c89-553976eb4b20","meta":{"profile":["http://hl7.org/fhir/us/qicore/StructureDefinition/qicore-encounter"]},"status":"finished","class":{"system":"http://terminology.hl7.org/CodeSystem/v3-ActCode","code":"AMB","display":"ambulatory"},"type":[{"coding":[{"system":"http://snomed.info/sct","version":"2022-03","code":"183452005","display":"Emergency hospital admission (procedure)","userSelected":true}]}],"subject":{"reference":"Patient/57da77da-de92-4ef5-9311-1d86e67c9de4"},"period":{"start":"2026-01-01T11:45:00.000+00:00","end":"2026-01-03T11:59:00.000+00:00"}},"request":{"method":"PUT","url":"Encounter/e62e6819-0686-44f2-9c89-553976eb4b20"}},{"fullUrl":"Practitioner/4df6d199-2bf7-4323-8477-9e4846cbfa1f","resource":{"resourceType":"Practitioner","id":"4df6d199-2bf7-4323-8477-9e4846cbfa1f","meta":{"profile":["http://hl7.org/fhir/us/qicore/StructureDefinition/qicore-practitioner"]},"identifier":[{"system":"http://hl7.org/fhir/sid/us-npi","value":"9999999896"}],"active":true,"name":[{"family":"Ramires","given":["Alma"],"prefix":["Dr"]}],"address":[{"use":"home","line":["534 Erewhon St"],"city":"Netherville","state":"IN","postalCode":"46131"}],"qualification":[{"identifier":[{"system":"http://goodhealth.org/prIdentifier","value":"12345"}],"code":{"coding":[{"system":"http://terminology.hl7.org/CodeSystem/v2-0360|2.7","code":"BS","display":"Bachelor of Science"}],"text":"Bachelor of Science"},"period":{"start":"1995"},"issuer":{"display":"Example University"}}]},"request":{"method":"PUT","url":"Practitioner/4df6d199-2bf7-4323-8477-9e4846cbfa1f"}},{"fullUrl":"Patient/57da77da-de92-4ef5-9311-1d86e67c9de4","resource":{"resourceType":"Patient","id":"57da77da-de92-4ef5-9311-1d86e67c9de4","meta":{"profile":["http://hl7.org/fhir/us/qicore/StructureDefinition/qicore-patient"]},"extension":[{"url":"http://hl7.org/fhir/us/core/StructureDefinition/us-core-race","extension":[{"url":"ombCategory","valueCoding":{"system":"urn:oid:2.16.840.1.113883.6.238","code":"2028-9","display":"Asian","userSelected":true}},{"url":"text","valueString":"Asian"},{"url":"detailed","valueCoding":{"system":"urn:oid:2.16.840.1.113883.6.238","code":"1653-5","display":"Tohono O'Odham"}}]},{"url":"http://hl7.org/fhir/us/core/StructureDefinition/us-core-ethnicity","extension":[{"url":"ombCategory","valueCoding":{"system":"urn:oid:2.16.840.1.113883.6.238","code":"2186-5","display":"Not Hispanic or Latino","userSelected":true}},{"url":"text","valueString":"Not Hispanic or Latino"},{"url":"detailed","valueCoding":{"system":"urn:oid:2.16.840.1.113883.6.238","code":"2153-5","display":"Mexican American Indian"}}]}],"identifier":[{"type":{"coding":[{"system":"http://terminology.hl7.org/CodeSystem/v2-0203","code":"MR"}]},"system":"https://bonnie-fhir.healthit.gov/","value":"63233350414ba67d4e1d1c2f"}],"name":[{"family":"DENEXPass","given":["OpioidUseDisorder"]}],"gender":"female","birthDate":"1944-02-01"},"request":{"method":"PUT","url":"Patient/57da77da-de92-4ef5-9311-1d86e67c9de4"}},{"fullUrl":"Coverage/cda31f59-bd02-4817-a2a2-e47afd4bb008","resource":{"resourceType":"Coverage","id":"cda31f59-bd02-4817-a2a2-e47afd4bb008","meta":{"profile":["http://hl7.org/fhir/us/qicore/StructureDefinition/qicore-coverage"]},"status":"active","subscriberId":"523435","beneficiary":{"reference":"Patient/57da77da-de92-4ef5-9311-1d86e67c9de4"},"relationship":{"coding":[{"system":"http://terminology.hl7.org/CodeSystem/subscriber-relationship","code":"self"}]},"payor":[{"reference":"Organization/a70ef0db-5aa8-4b0e-9e37-a9218f06c06b"}]},"request":{"method":"PUT","url":"Coverage/cda31f59-bd02-4817-a2a2-e47afd4bb008"}},{"fullUrl":"MeasureReport/1823ff43-6a64-4656-ae6c-413059a01819","resource":{"resourceType":"MeasureReport","id":"1823ff43-6a64-4656-ae6c-413059a01819","meta":{"profile":["http://hl7.org/fhir/us/cqfmeasures/StructureDefinition/test-case-cqfm"]},"contained":[{"resourceType":"Parameters","id":"7d783d1a-54ee-4fcb-b5ac-a01854ee4c27-parameters","parameter":[{"name":"subject","valueString":"57da77da-de92-4ef5-9311-1d86e67c9de4"}]}],"extension":[{"url":"http://hl7.org/fhir/StructureDefinition/cqf-inputParameters","valueReference":{"reference":"#7d783d1a-54ee-4fcb-b5ac-a01854ee4c27-parameters"}},{"url":"http://hl7.org/fhir/us/cqfmeasures/StructureDefinition/cqfm-testCaseDescription","valueMarkdown":"Enc first day of MP, pt has opioid use disorder"}],"modifierExtension":[{"url":"http://hl7.org/fhir/us/cqfmeasures/StructureDefinition/cqfm-isTestCase","valueBoolean":true}],"status":"complete","type":"individual","measure":"https://madie.cms.gov/Measure/CMS506FHIRSafeUseofOpioids","period":{"start":"2026-01-01","end":"2026-12-31"},"group":[{"id":"Group_1","population":[{"id":"InitialPopulation_1","code":{"coding":[{"system":"http://terminology.hl7.org/CodeSystem/measure-population","code":"initial-population","display":"Initial Population"}]},"count":1},{"id":"Denominator_1","code":{"coding":[{"system":"http://terminology.hl7.org/CodeSystem/measure-population","code":"denominator","display":"Denominator"}]},"count":1},{"id":"DenominatorExclusion_1","code":{"coding":[{"system":"http://terminology.hl7.org/CodeSystem/measure-population","code":"denominator-exclusion","display":"Denominator Exclusion"}]},"count":1},{"id":"Numerator_1","code":{"coding":[{"system":"http://terminology.hl7.org/CodeSystem/measure-population","code":"numerator","display":"Numerator"}]},"count":0}],"measureScore":{"value":0.0}}],"evaluatedResource":[{"reference":"Patient/57da77da-de92-4ef5-9311-1d86e67c9de4"},{"reference":"Encounter/e62e6819-0686-44f2-9c89-553976eb4b20"},{"reference":"MedicationRequest/ab98c0e1-7ca4-42cf-8ec6-f0587609d42f"},{"reference":"Practitioner/4df6d199-2bf7-4323-8477-9e4846cbfa1f"},{"reference":"Condition/2879540b-a880-445a-acb1-2e4d92ee653e"},{"reference":"MedicationRequest/993fd583-7476-4a92-8255-c7165cf8ffac"},{"reference":"Coverage/cda31f59-bd02-4817-a2a2-e47afd4bb008"},{"reference":"Organization/a70ef0db-5aa8-4b0e-9e37-a9218f06c06b"}]},"request":{"method":"PUT","url":"MeasureReport/1823ff43-6a64-4656-ae6c-413059a01819"}},{"fullUrl":"MedicationRequest/ab98c0e1-7ca4-42cf-8ec6-f0587609d42f","resource":{"resourceType":"MedicationRequest","id":"ab98c0e1-7ca4-42cf-8ec6-f0587609d42f","meta":{"profile":["http://hl7.org/fhir/us/qicore/StructureDefinition/qicore-medicationrequest"]},"status":"completed","intent":"order","category":[{"coding":[{"system":"http://terminology.hl7.org/CodeSystem/medicationrequest-category","code":"discharge","display":"Discharge","userSelected":true}]}],"doNotPerform":false,"medicationCodeableConcept":{"coding":[{"system":"http://www.nlm.nih.gov/research/umls/rxnorm","code":"2103192","display":"sufentanil 0.03 MG Sublingual Tablet","userSelected":true}]},"subject":{"reference":"Patient/57da77da-de92-4ef5-9311-1d86e67c9de4"},"authoredOn":"2026-01-03T11:59:00.000+00:00","requester":{"reference":"Practitioner/4df6d199-2bf7-4323-8477-9e4846cbfa1f"}},"request":{"method":"PUT","url":"MedicationRequest/ab98c0e1-7ca4-42cf-8ec6-f0587609d42f"}}]}