{"resourceType":"Bundle","id":"tests-0a9ce53d-32ec-45be-b981-0fae3d3e91f5-bundle","type":"transaction","entry":[{"fullUrl":"Practitioner/7c59d717-e16b-4b37-932d-408ffc6fa0cf","resource":{"resourceType":"Practitioner","id":"7c59d717-e16b-4b37-932d-408ffc6fa0cf","meta":{"profile":["http://hl7.org/fhir/us/qicore/StructureDefinition/qicore-practitioner"]},"identifier":[{"system":"http://hl7.org/fhir/sid/us-npi","value":"9999999896"}],"active":true,"name":[{"family":"Ramires","given":["Alma"],"prefix":["Dr"]}],"address":[{"use":"home","line":["534 Erewhon St"],"city":"Netherville","state":"IN","postalCode":"46131"}],"qualification":[{"identifier":[{"system":"http://goodhealth.org/prIdentifier","value":"12345"}],"code":{"coding":[{"system":"http://terminology.hl7.org/CodeSystem/v2-0360|2.7","code":"BS","display":"Bachelor of Science"}],"text":"Bachelor of Science"},"period":{"start":"1995"},"issuer":{"display":"Example University"}}]},"request":{"method":"PUT","url":"Practitioner/7c59d717-e16b-4b37-932d-408ffc6fa0cf"}},{"fullUrl":"MeasureReport/92ed148d-bef7-4440-9f7a-50672ebc694f","resource":{"resourceType":"MeasureReport","id":"92ed148d-bef7-4440-9f7a-50672ebc694f","meta":{"profile":["http://hl7.org/fhir/us/cqfmeasures/StructureDefinition/test-case-cqfm"]},"contained":[{"resourceType":"Parameters","id":"c9d0a2e8-90cc-4936-8333-1a1a05b9da90-parameters","parameter":[{"name":"subject","valueString":"0a9ce53d-32ec-45be-b981-0fae3d3e91f5"}]}],"extension":[{"url":"http://hl7.org/fhir/StructureDefinition/cqf-inputParameters","valueReference":{"reference":"#c9d0a2e8-90cc-4936-8333-1a1a05b9da90-parameters"}},{"url":"http://hl7.org/fhir/us/cqfmeasures/StructureDefinition/cqfm-testCaseDescription","valueMarkdown":"Encounter ended last minute of year prior and Opioid prescribed (active) minutes before start of MP"}],"modifierExtension":[{"url":"http://hl7.org/fhir/us/cqfmeasures/StructureDefinition/cqfm-isTestCase","valueBoolean":true}],"status":"complete","type":"individual","measure":"https://madie.cms.gov/Measure/CMS506FHIRSafeUseofOpioids","period":{"start":"2026-01-01","end":"2026-12-31"},"group":[{"id":"Group_1","population":[{"id":"InitialPopulation_1","code":{"coding":[{"system":"http://terminology.hl7.org/CodeSystem/measure-population","code":"initial-population","display":"Initial Population"}]},"count":0},{"id":"Denominator_1","code":{"coding":[{"system":"http://terminology.hl7.org/CodeSystem/measure-population","code":"denominator","display":"Denominator"}]},"count":0},{"id":"DenominatorExclusion_1","code":{"coding":[{"system":"http://terminology.hl7.org/CodeSystem/measure-population","code":"denominator-exclusion","display":"Denominator Exclusion"}]},"count":0},{"id":"Numerator_1","code":{"coding":[{"system":"http://terminology.hl7.org/CodeSystem/measure-population","code":"numerator","display":"Numerator"}]},"count":0}],"measureScore":{"value":0.0}}],"evaluatedResource":[{"reference":"Patient/0a9ce53d-32ec-45be-b981-0fae3d3e91f5"},{"reference":"Encounter/90c88dcc-56a9-4a00-bd3d-e7d09806dadd"},{"reference":"MedicationRequest/9ad876ad-0c8c-440c-a831-f280b22ffb48"},{"reference":"Practitioner/7c59d717-e16b-4b37-932d-408ffc6fa0cf"},{"reference":"Coverage/d9461c0d-ff93-405a-a443-5d6e4a25c7cc"},{"reference":"Organization/6e624fc9-7024-4564-ac80-e0ee2bf0e6fa"}]},"request":{"method":"PUT","url":"MeasureReport/92ed148d-bef7-4440-9f7a-50672ebc694f"}},{"fullUrl":"MedicationRequest/9ad876ad-0c8c-440c-a831-f280b22ffb48","resource":{"resourceType":"MedicationRequest","id":"9ad876ad-0c8c-440c-a831-f280b22ffb48","meta":{"profile":["http://hl7.org/fhir/us/qicore/StructureDefinition/qicore-medicationrequest"]},"status":"active","intent":"order","category":[{"coding":[{"system":"http://terminology.hl7.org/CodeSystem/medicationrequest-category","code":"discharge","display":"Discharge","userSelected":true}]}],"doNotPerform":false,"medicationCodeableConcept":{"coding":[{"system":"http://www.nlm.nih.gov/research/umls/rxnorm","code":"1014632","display":"acetaminophen 300 MG / oxycodone hydrochloride 7.5 MG Oral Tablet","userSelected":true}]},"subject":{"reference":"Patient/0a9ce53d-32ec-45be-b981-0fae3d3e91f5"},"authoredOn":"2025-12-31T23:59:00.000+00:00","requester":{"reference":"Practitioner/7c59d717-e16b-4b37-932d-408ffc6fa0cf"}},"request":{"method":"PUT","url":"MedicationRequest/9ad876ad-0c8c-440c-a831-f280b22ffb48"}},{"fullUrl":"Encounter/90c88dcc-56a9-4a00-bd3d-e7d09806dadd","resource":{"resourceType":"Encounter","id":"90c88dcc-56a9-4a00-bd3d-e7d09806dadd","meta":{"profile":["http://hl7.org/fhir/us/qicore/StructureDefinition/qicore-encounter"]},"status":"finished","class":{"system":"http://terminology.hl7.org/CodeSystem/v3-ActCode","code":"AMB","display":"ambulatory"},"type":[{"coding":[{"system":"http://snomed.info/sct","version":"2022-03","code":"183452005","display":"Emergency hospital admission (procedure)","userSelected":true}]}],"subject":{"reference":"Patient/0a9ce53d-32ec-45be-b981-0fae3d3e91f5"},"period":{"start":"2025-12-30T00:01:00.000+00:00","end":"2025-12-31T23:59:00.000+00:00"}},"request":{"method":"PUT","url":"Encounter/90c88dcc-56a9-4a00-bd3d-e7d09806dadd"}},{"fullUrl":"Coverage/d9461c0d-ff93-405a-a443-5d6e4a25c7cc","resource":{"resourceType":"Coverage","id":"d9461c0d-ff93-405a-a443-5d6e4a25c7cc","meta":{"profile":["http://hl7.org/fhir/us/qicore/StructureDefinition/qicore-coverage"]},"status":"active","subscriberId":"523435","beneficiary":{"reference":"Patient/0a9ce53d-32ec-45be-b981-0fae3d3e91f5"},"relationship":{"coding":[{"system":"http://terminology.hl7.org/CodeSystem/subscriber-relationship","code":"self"}]},"payor":[{"reference":"Organization/6e624fc9-7024-4564-ac80-e0ee2bf0e6fa"}]},"request":{"method":"PUT","url":"Coverage/d9461c0d-ff93-405a-a443-5d6e4a25c7cc"}},{"fullUrl":"Patient/0a9ce53d-32ec-45be-b981-0fae3d3e91f5","resource":{"resourceType":"Patient","id":"0a9ce53d-32ec-45be-b981-0fae3d3e91f5","meta":{"profile":["http://hl7.org/fhir/us/qicore/StructureDefinition/qicore-patient"]},"extension":[{"url":"http://hl7.org/fhir/us/core/StructureDefinition/us-core-race","extension":[{"url":"ombCategory","valueCoding":{"system":"urn:oid:2.16.840.1.113883.6.238","code":"1002-5","display":"American Indian or Alaska Native","userSelected":true}},{"url":"text","valueString":"American Indian or Alaska Native"}]},{"url":"http://hl7.org/fhir/us/core/StructureDefinition/us-core-ethnicity","extension":[{"url":"ombCategory","valueCoding":{"system":"urn:oid:2.16.840.1.113883.6.238","code":"2135-2","display":"Hispanic or Latino","userSelected":true}},{"url":"text","valueString":"Hispanic or Latino"}]}],"identifier":[{"type":{"coding":[{"system":"http://terminology.hl7.org/CodeSystem/v2-0203","code":"MR"}]},"system":"https://bonnie-fhir.healthit.gov/","value":"63231ae12a56ae63756a53ee"}],"name":[{"family":"IPPFail","given":["EncounterAndOpioidBeforeMP"]}],"gender":"unknown","birthDate":"2006-12-31"},"request":{"method":"PUT","url":"Patient/0a9ce53d-32ec-45be-b981-0fae3d3e91f5"}},{"fullUrl":"Bundle/63231ae12a56ae63756a53ee","resource":{"resourceType":"Bundle","id":"63231ae12a56ae63756a53ee","type":"transaction","entry":[{"fullUrl":"https://madie.cms.gov/Patient/0a9ce53d-32ec-45be-b981-0fae3d3e91f5","resource":{"resourceType":"Patient","id":"0a9ce53d-32ec-45be-b981-0fae3d3e91f5","meta":{"profile":["http://hl7.org/fhir/us/qicore/StructureDefinition/qicore-patient"]},"extension":[{"url":"http://hl7.org/fhir/us/core/StructureDefinition/us-core-race","extension":[{"url":"ombCategory","valueCoding":{"system":"urn:oid:2.16.840.1.113883.6.238","code":"1002-5","display":"American Indian or Alaska Native","userSelected":true}},{"url":"text","valueString":"American Indian or Alaska Native"}]},{"url":"http://hl7.org/fhir/us/core/StructureDefinition/us-core-ethnicity","extension":[{"url":"ombCategory","valueCoding":{"system":"urn:oid:2.16.840.1.113883.6.238","code":"2135-2","display":"Hispanic or Latino","userSelected":true}},{"url":"text","valueString":"Hispanic or Latino"}]}],"identifier":[{"type":{"coding":[{"system":"http://terminology.hl7.org/CodeSystem/v2-0203","code":"MR"}]},"system":"https://bonnie-fhir.healthit.gov/","value":"63231ae12a56ae63756a53ee"}],"name":[{"family":"IPPFail","given":["EncounterAndOpioidBeforeMP"]}],"gender":"unknown","birthDate":"2006-12-31"},"request":{"method":"PUT","url":"Patient/0a9ce53d-32ec-45be-b981-0fae3d3e91f5"}},{"fullUrl":"https://madie.cms.gov/Encounter/90c88dcc-56a9-4a00-bd3d-e7d09806dadd","resource":{"resourceType":"Encounter","id":"90c88dcc-56a9-4a00-bd3d-e7d09806dadd","meta":{"profile":["http://hl7.org/fhir/us/qicore/StructureDefinition/qicore-encounter"]},"status":"finished","class":{"system":"http://terminology.hl7.org/CodeSystem/v3-ActCode","code":"AMB","display":"ambulatory"},"type":[{"coding":[{"system":"http://snomed.info/sct","version":"2022-03","code":"183452005","display":"Emergency hospital admission (procedure)","userSelected":true}]}],"subject":{"reference":"Patient/0a9ce53d-32ec-45be-b981-0fae3d3e91f5"},"period":{"start":"2025-12-30T00:01:00.000+00:00","end":"2025-12-31T23:59:00.000+00:00"}},"request":{"method":"PUT","url":"Encounter/90c88dcc-56a9-4a00-bd3d-e7d09806dadd"}},{"fullUrl":"https://madie.cms.gov/MedicationRequest/9ad876ad-0c8c-440c-a831-f280b22ffb48","resource":{"resourceType":"MedicationRequest","id":"9ad876ad-0c8c-440c-a831-f280b22ffb48","meta":{"profile":["http://hl7.org/fhir/us/qicore/StructureDefinition/qicore-medicationrequest"]},"status":"active","intent":"order","category":[{"coding":[{"system":"http://terminology.hl7.org/CodeSystem/medicationrequest-category","code":"discharge","display":"Discharge","userSelected":true}]}],"doNotPerform":false,"medicationCodeableConcept":{"coding":[{"system":"http://www.nlm.nih.gov/research/umls/rxnorm","code":"1014632","display":"acetaminophen 300 MG / oxycodone hydrochloride 7.5 MG Oral Tablet","userSelected":true}]},"subject":{"reference":"Patient/0a9ce53d-32ec-45be-b981-0fae3d3e91f5"},"authoredOn":"2025-12-31T23:59:00.000+00:00","requester":{"reference":"Practitioner/7c59d717-e16b-4b37-932d-408ffc6fa0cf"}},"request":{"method":"PUT","url":"MedicationRequest/9ad876ad-0c8c-440c-a831-f280b22ffb48"}},{"fullUrl":"https://madie.cms.gov/Practitioner/7c59d717-e16b-4b37-932d-408ffc6fa0cf","resource":{"resourceType":"Practitioner","id":"7c59d717-e16b-4b37-932d-408ffc6fa0cf","meta":{"profile":["http://hl7.org/fhir/us/qicore/StructureDefinition/qicore-practitioner"]},"identifier":[{"system":"http://hl7.org/fhir/sid/us-npi","value":"9999999896"}],"active":true,"name":[{"family":"Ramires","given":["Alma"],"prefix":["Dr"]}],"address":[{"use":"home","line":["534 Erewhon St"],"city":"Netherville","state":"IN","postalCode":"46131"}],"qualification":[{"identifier":[{"system":"http://goodhealth.org/prIdentifier","value":"12345"}],"code":{"coding":[{"system":"http://terminology.hl7.org/CodeSystem/v2-0360|2.7","code":"BS","display":"Bachelor of Science"}],"text":"Bachelor of Science"},"period":{"start":"1995"},"issuer":{"display":"Example University"}}]},"request":{"method":"PUT","url":"Practitioner/7c59d717-e16b-4b37-932d-408ffc6fa0cf"}},{"fullUrl":"https://madie.cms.gov/Coverage/d9461c0d-ff93-405a-a443-5d6e4a25c7cc","resource":{"resourceType":"Coverage","id":"d9461c0d-ff93-405a-a443-5d6e4a25c7cc","meta":{"profile":["http://hl7.org/fhir/us/qicore/StructureDefinition/qicore-coverage"]},"status":"active","subscriberId":"523435","beneficiary":{"reference":"Patient/0a9ce53d-32ec-45be-b981-0fae3d3e91f5"},"relationship":{"coding":[{"system":"http://terminology.hl7.org/CodeSystem/subscriber-relationship","code":"self"}]},"payor":[{"reference":"Organization/6e624fc9-7024-4564-ac80-e0ee2bf0e6fa"}]},"request":{"method":"PUT","url":"Coverage/d9461c0d-ff93-405a-a443-5d6e4a25c7cc"}},{"fullUrl":"https://madie.cms.gov/Organization/6e624fc9-7024-4564-ac80-e0ee2bf0e6fa","resource":{"resourceType":"Organization","id":"6e624fc9-7024-4564-ac80-e0ee2bf0e6fa","meta":{"profile":["http://hl7.org/fhir/us/qicore/StructureDefinition/qicore-organization"]},"identifier":[{"use":"temp","system":"urn:oid:2.16.840.1.113883.4.4","value":"21-3259825"}],"active":true,"type":[{"coding":[{"system":"http://terminology.hl7.org/CodeSystem/organization-type","code":"pay","display":"Payer"}]}],"name":"Blue Cross Blue Shield of Texas","telecom":[{"system":"phone","value":"(+1) 972-766-6900"}],"address":[{"use":"billing","type":"postal","line":["P.O. Box 660044"],"city":"Dallas","state":"TX","postalCode":"75266-0044","country":"USA"}]},"request":{"method":"PUT","url":"Organization/6e624fc9-7024-4564-ac80-e0ee2bf0e6fa"}},{"fullUrl":"https://madie.cms.gov/MeasureReport/92ed148d-bef7-4440-9f7a-50672ebc694f","resource":{"resourceType":"MeasureReport","id":"92ed148d-bef7-4440-9f7a-50672ebc694f","meta":{"profile":["http://hl7.org/fhir/us/cqfmeasures/StructureDefinition/test-case-cqfm"]},"contained":[{"resourceType":"Parameters","id":"c9d0a2e8-90cc-4936-8333-1a1a05b9da90-parameters","parameter":[{"name":"subject","valueString":"0a9ce53d-32ec-45be-b981-0fae3d3e91f5"}]}],"extension":[{"url":"http://hl7.org/fhir/StructureDefinition/cqf-inputParameters","valueReference":{"reference":"#c9d0a2e8-90cc-4936-8333-1a1a05b9da90-parameters"}},{"url":"http://hl7.org/fhir/us/cqfmeasures/StructureDefinition/cqfm-testCaseDescription","valueMarkdown":"Encounter ended last minute of year prior and Opioid prescribed (active) minutes before start of MP"}],"modifierExtension":[{"url":"http://hl7.org/fhir/us/cqfmeasures/StructureDefinition/cqfm-isTestCase","valueBoolean":true}],"status":"complete","type":"individual","measure":"https://madie.cms.gov/Measure/CMS506FHIRSafeUseofOpioids","period":{"start":"2026-01-01","end":"2026-12-31"},"group":[{"id":"Group_1","population":[{"id":"InitialPopulation_1","code":{"coding":[{"system":"http://terminology.hl7.org/CodeSystem/measure-population","code":"initial-population","display":"Initial Population"}]},"count":0},{"id":"Denominator_1","code":{"coding":[{"system":"http://terminology.hl7.org/CodeSystem/measure-population","code":"denominator","display":"Denominator"}]},"count":0},{"id":"DenominatorExclusion_1","code":{"coding":[{"system":"http://terminology.hl7.org/CodeSystem/measure-population","code":"denominator-exclusion","display":"Denominator Exclusion"}]},"count":0},{"id":"Numerator_1","code":{"coding":[{"system":"http://terminology.hl7.org/CodeSystem/measure-population","code":"numerator","display":"Numerator"}]},"count":0}],"measureScore":{"value":0.0}}],"evaluatedResource":[{"reference":"Patient/0a9ce53d-32ec-45be-b981-0fae3d3e91f5"},{"reference":"Encounter/90c88dcc-56a9-4a00-bd3d-e7d09806dadd"},{"reference":"MedicationRequest/9ad876ad-0c8c-440c-a831-f280b22ffb48"},{"reference":"Practitioner/7c59d717-e16b-4b37-932d-408ffc6fa0cf"},{"reference":"Coverage/d9461c0d-ff93-405a-a443-5d6e4a25c7cc"},{"reference":"Organization/6e624fc9-7024-4564-ac80-e0ee2bf0e6fa"}]},"request":{"method":"PUT","url":"MeasureReport/92ed148d-bef7-4440-9f7a-50672ebc694f"}}]},"request":{"method":"PUT","url":"Bundle/63231ae12a56ae63756a53ee"}},{"fullUrl":"Organization/6e624fc9-7024-4564-ac80-e0ee2bf0e6fa","resource":{"resourceType":"Organization","id":"6e624fc9-7024-4564-ac80-e0ee2bf0e6fa","meta":{"profile":["http://hl7.org/fhir/us/qicore/StructureDefinition/qicore-organization"]},"identifier":[{"use":"temp","system":"urn:oid:2.16.840.1.113883.4.4","value":"21-3259825"}],"active":true,"type":[{"coding":[{"system":"http://terminology.hl7.org/CodeSystem/organization-type","code":"pay","display":"Payer"}]}],"name":"Blue Cross Blue Shield of Texas","telecom":[{"system":"phone","value":"(+1) 972-766-6900"}],"address":[{"use":"billing","type":"postal","line":["P.O. Box 660044"],"city":"Dallas","state":"TX","postalCode":"75266-0044","country":"USA"}]},"request":{"method":"PUT","url":"Organization/6e624fc9-7024-4564-ac80-e0ee2bf0e6fa"}}]}