{"resourceType":"Bundle","id":"CMS128FHIRAntidepressantMedManagement-bundle","type":"transaction","timestamp":"2025-07-14T13:55:21.106-06:00","entry":[{"resource":{"resourceType":"Library","id":"CMS128FHIRAntidepressantMedManagement","meta":{"profile":["http://hl7.org/fhir/uv/crmi/StructureDefinition/crmi-shareablelibrary","http://hl7.org/fhir/uv/crmi/StructureDefinition/crmi-computablelibrary","http://hl7.org/fhir/uv/crmi/StructureDefinition/crmi-publishablelibrary","http://hl7.org/fhir/uv/crmi/StructureDefinition/crmi-executablelibrary","http://hl7.org/fhir/uv/cql/StructureDefinition/cql-library","http://hl7.org/fhir/uv/cql/StructureDefinition/elm-json-library","http://hl7.org/fhir/uv/cql/StructureDefinition/elm-xml-library"]},"language":"en","text":{"status":"extensions","div":"<div xmlns=\"http://www.w3.org/1999/xhtml\">\n    <table class=\"grid dict\">\n        \n        \n        <tr>\n            <th scope=\"row\"><b>Title: </b></th>\n            <td style=\"padding-left: 4px;\">CMS128FHIRAntidepressantMedManagement</td>\n        </tr>\n        \n\n        \n        \n        <tr>\n            <th scope=\"row\"><b>Id: </b></th>\n            <td style=\"padding-left: 4px;\">CMS128FHIRAntidepressantMedManagement</td>\n        </tr>\n        \n\n        \n        \n        <tr>\n            <th scope=\"row\"><b>Version: </b></th>\n            <td style=\"padding-left: 4px;\">0.3.000</td>\n        </tr>\n        \n\n        \n        <tr>\n            <th scope=\"row\"><b>Url: </b></th>\n            <td style=\"padding-left: 4px;\">https://madie.cms.gov/Library/CMS128FHIRAntidepressantMedManagement</td>\n        </tr>\n        \n\n        \n        <tr>\n            <th scope=\"row\">\n                <b>\n                    \n                        official\n                    \n                </b>\n            </th>\n            <td style=\"padding-left: 4px;\">\n                \n                <p style=\"margin-bottom: 5px;\">\n                    <span>CMS128FHIRAntidepressantMedManagement</span>\n                </p>\n                \n            </td>\n        </tr>\n        \n\n        \n\n        \n\n        \n\n        \n        <tr>\n            <th scope=\"row\"><b>Type: </b></th>\n            <td style=\"padding-left: 4px;\">\n                \n                    \n                        \n                        <p style=\"margin-bottom: 5px;\">\n                            <b>system: </b> <span>http://terminology.hl7.org/CodeSystem/library-type</span>\n                        </p>\n                        \n                        \n                        <p style=\"margin-bottom: 5px;\">\n                            <b>code: </b> <span>logic-library</span>\n                        </p>\n                        \n                        \n                    \n                \n                \n            </td>\n        </tr>\n        \n\n        \n\n        \n        <tr>\n            <th scope=\"row\"><b>Date: </b></th>\n            <td style=\"padding-left: 4px;\">2025-04-15T20:43:08+00:00</td>\n        </tr>\n        \n\n        \n        <tr>\n            <th scope=\"row\"><b>Publisher: </b></th>\n            <td style=\"padding-left: 4px;\">National Committee for Quality Assurance</td>\n        </tr>\n        \n\n        \n        <tr>\n            <th scope=\"row\"><b>Description: </b></th>\n            <td style=\"padding-left: 4px;\">CMS128FHIRAntidepressantMedManagement</td>\n        </tr>\n        \n\n        \n\n        \n\n        \n\n        \n\n        \n\n        \n\n        \n\n        \n\n        \n\n        \n\n        \n        <tr>\n            <th scope=\"row\"><b>Related Artifacts: </b></th>\n            <td style=\"padding-left: 4px;\">\n                \n                \n                \n                <p><b>Dependencies</b></p>\n                <ul>\n                  \n                    <li>https://madie.cms.gov/Library/SupplementalDataElements|5.1.000</li>\n                  \n                    <li>https://madie.cms.gov/Library/Status|1.13.000</li>\n                  \n                    <li>https://madie.cms.gov/Library/FHIRHelpers|4.4.000</li>\n                  \n                    <li>https://madie.cms.gov/Library/CumulativeMedicationDuration|6.0.000</li>\n                  \n                    <li>https://madie.cms.gov/Library/QICoreCommon|4.0.000</li>\n                  \n                    <li>https://madie.cms.gov/Library/Hospice|6.15.000</li>\n                  \n                    <li>https://madie.cms.gov/Library/CQMCommon|4.0.000</li>\n                  \n                    <li>http://cts.nlm.nih.gov/fhir/ValueSet/2.16.840.1.113883.3.464.1003.196.12.1213</li>\n                  \n                    <li>http://cts.nlm.nih.gov/fhir/ValueSet/2.16.840.1.113883.3.464.1003.105.12.1007</li>\n                  \n                    <li>http://cts.nlm.nih.gov/fhir/ValueSet/2.16.840.1.113883.3.464.1003.101.12.1001</li>\n                  \n                    <li>http://cts.nlm.nih.gov/fhir/ValueSet/2.16.840.1.113883.3.464.1003.101.12.1025</li>\n                  \n                    <li>http://cts.nlm.nih.gov/fhir/ValueSet/2.16.840.1.113883.3.464.1003.101.12.1023</li>\n                  \n                    <li>http://cts.nlm.nih.gov/fhir/ValueSet/2.16.840.1.113883.3.464.1003.101.12.1016</li>\n                  \n                    <li>http://cts.nlm.nih.gov/fhir/ValueSet/2.16.840.1.113883.3.526.3.1240</li>\n                  \n                    <li>http://cts.nlm.nih.gov/fhir/ValueSet/2.16.840.1.113883.3.464.1003.101.12.1012</li>\n                  \n                    <li>http://cts.nlm.nih.gov/fhir/ValueSet/2.16.840.1.113883.3.526.3.1492</li>\n                  \n                    <li>http://cts.nlm.nih.gov/fhir/ValueSet/2.16.840.1.113883.3.526.3.1496</li>\n                  \n                    <li>http://cts.nlm.nih.gov/fhir/ValueSet/2.16.840.1.113883.3.464.1003.101.12.1080</li>\n                  \n                    <li>http://cts.nlm.nih.gov/fhir/ValueSet/2.16.840.1.113883.3.464.1003.101.12.1089</li>\n                  \n                </ul>\n                \n                \n                \n                \n                \n            </td>\n        </tr>\n        \n\n        \n\n        \n        <tr>\n          <th scope=\"row\"><b>Data Requirements:</b></th>\n          <td style=\"padding-left: 4px;\">\n            <table class=\"grid-dict\">\n              <tr><th><b>Type</b></th><th><b>Profile</b></th><th><b>MS</b></th><th><b>Code Filter</b></th></tr>\n              \n                <tr>\n                  <th>Patient</th>\n                  <th>http://hl7.org/fhir/us/qicore/StructureDefinition/qicore-patient</th>\n                  <th>;;</th>\n                  <th>\n                    \n                  </th>\n                </tr>\n              \n                <tr>\n                  <th>MedicationDispense</th>\n                  <th>http://hl7.org/fhir/us/qicore/StructureDefinition/qicore-medicationdispense</th>\n                  <th>;</th>\n                  <th>\n                    \n                      <b>code filter: </b>\n                      \n                      <br/>\n                      \n                      \n                      <span style=\"padding-left: 4px;\">\n                          <b>path: </b><span>medication</span>\n                      </span>\n                      \n                      <br/>\n                      \n                      \n                      \n                      <span style=\"padding-left: 4px;\">\n                          <b>value set: </b><span>http://cts.nlm.nih.gov/fhir/ValueSet/2.16.840.1.113883.3.464.1003.196.12.1213</span>\n                      </span>\n                      \n                      \n                    \n                  </th>\n                </tr>\n              \n                <tr>\n                  <th>MedicationDispense</th>\n                  <th>http://hl7.org/fhir/us/qicore/StructureDefinition/qicore-medicationdispense</th>\n                  <th>;</th>\n                  <th>\n                    \n                  </th>\n                </tr>\n              \n                <tr>\n                  <th>Medication</th>\n                  <th>http://hl7.org/fhir/us/qicore/StructureDefinition/qicore-medication</th>\n                  <th>;;</th>\n                  <th>\n                    \n                  </th>\n                </tr>\n              \n                <tr>\n                  <th>Condition</th>\n                  <th>http://hl7.org/fhir/us/qicore/StructureDefinition/qicore-condition-problems-health-concerns</th>\n                  <th>;</th>\n                  <th>\n                    \n                      <b>code filter: </b>\n                      \n                      <br/>\n                      \n                      \n                      <span style=\"padding-left: 4px;\">\n                          <b>path: </b><span>code</span>\n                      </span>\n                      \n                      <br/>\n                      \n                      \n                      \n                      <span style=\"padding-left: 4px;\">\n                          <b>value set: </b><span>http://cts.nlm.nih.gov/fhir/ValueSet/2.16.840.1.113883.3.464.1003.105.12.1007</span>\n                      </span>\n                      \n                      \n                    \n                  </th>\n                </tr>\n              \n                <tr>\n                  <th>Condition</th>\n                  <th>http://hl7.org/fhir/us/qicore/StructureDefinition/qicore-condition-problems-health-concerns</th>\n                  <th>;</th>\n                  <th>\n                    \n                      <b>code filter: </b>\n                      \n                      <br/>\n                      \n                      \n                      <span style=\"padding-left: 4px;\">\n                          <b>path: </b><span>code</span>\n                      </span>\n                      \n                      <br/>\n                      \n                      \n                      \n                      <span style=\"padding-left: 4px;\">\n                          <b>value set: </b><span>http://cts.nlm.nih.gov/fhir/ValueSet/2.16.840.1.113883.3.464.1003.1165</span>\n                      </span>\n                      \n                      \n                    \n                  </th>\n                </tr>\n              \n                <tr>\n                  <th>Condition</th>\n                  <th>http://hl7.org/fhir/us/qicore/StructureDefinition/qicore-condition-encounter-diagnosis</th>\n                  <th>;</th>\n                  <th>\n                    \n                      <b>code filter: </b>\n                      \n                      <br/>\n                      \n                      \n                      <span style=\"padding-left: 4px;\">\n                          <b>path: </b><span>code</span>\n                      </span>\n                      \n                      <br/>\n                      \n                      \n                      \n                      <span style=\"padding-left: 4px;\">\n                          <b>value set: </b><span>http://cts.nlm.nih.gov/fhir/ValueSet/2.16.840.1.113883.3.464.1003.105.12.1007</span>\n                      </span>\n                      \n                      \n                    \n                  </th>\n                </tr>\n              \n                <tr>\n                  <th>Condition</th>\n                  <th>http://hl7.org/fhir/us/qicore/StructureDefinition/qicore-condition-encounter-diagnosis</th>\n                  <th>;</th>\n                  <th>\n                    \n                      <b>code filter: </b>\n                      \n                      <br/>\n                      \n                      \n                      <span style=\"padding-left: 4px;\">\n                          <b>path: </b><span>code</span>\n                      </span>\n                      \n                      <br/>\n                      \n                      \n                      \n                      <span style=\"padding-left: 4px;\">\n                          <b>value set: </b><span>http://cts.nlm.nih.gov/fhir/ValueSet/2.16.840.1.113883.3.464.1003.1165</span>\n                      </span>\n                      \n                      \n                    \n                  </th>\n                </tr>\n              \n                <tr>\n                  <th>Encounter</th>\n                  <th>http://hl7.org/fhir/us/qicore/StructureDefinition/qicore-encounter</th>\n                  <th>;</th>\n                  <th>\n                    \n                      <b>code filter: </b>\n                      \n                      <br/>\n                      \n                      \n                      <span style=\"padding-left: 4px;\">\n                          <b>path: </b><span>type</span>\n                      </span>\n                      \n                      <br/>\n                      \n                      \n                      \n                      <span style=\"padding-left: 4px;\">\n                          <b>value set: </b><span>http://cts.nlm.nih.gov/fhir/ValueSet/2.16.840.1.113883.3.464.1003.101.12.1001</span>\n                      </span>\n                      \n                      \n                    \n                  </th>\n                </tr>\n              \n                <tr>\n                  <th>Encounter</th>\n                  <th>http://hl7.org/fhir/us/qicore/StructureDefinition/qicore-encounter</th>\n                  <th>;</th>\n                  <th>\n                    \n                      <b>code filter: </b>\n                      \n                      <br/>\n                      \n                      \n                      <span style=\"padding-left: 4px;\">\n                          <b>path: </b><span>type</span>\n                      </span>\n                      \n                      <br/>\n                      \n                      \n                      \n                      <span style=\"padding-left: 4px;\">\n                          <b>value set: </b><span>http://cts.nlm.nih.gov/fhir/ValueSet/2.16.840.1.113883.3.464.1003.101.12.1025</span>\n                      </span>\n                      \n                      \n                    \n                  </th>\n                </tr>\n              \n                <tr>\n                  <th>Encounter</th>\n                  <th>http://hl7.org/fhir/us/qicore/StructureDefinition/qicore-encounter</th>\n                  <th>;</th>\n                  <th>\n                    \n                      <b>code filter: </b>\n                      \n                      <br/>\n                      \n                      \n                      <span style=\"padding-left: 4px;\">\n                          <b>path: </b><span>type</span>\n                      </span>\n                      \n                      <br/>\n                      \n                      \n                      \n                      <span style=\"padding-left: 4px;\">\n                          <b>value set: </b><span>http://cts.nlm.nih.gov/fhir/ValueSet/2.16.840.1.113883.3.464.1003.101.12.1023</span>\n                      </span>\n                      \n                      \n                    \n                  </th>\n                </tr>\n              \n                <tr>\n                  <th>Encounter</th>\n                  <th>http://hl7.org/fhir/us/qicore/StructureDefinition/qicore-encounter</th>\n                  <th>;</th>\n                  <th>\n                    \n                      <b>code filter: </b>\n                      \n                      <br/>\n                      \n                      \n                      <span style=\"padding-left: 4px;\">\n                          <b>path: </b><span>type</span>\n                      </span>\n                      \n                      <br/>\n                      \n                      \n                      \n                      <span style=\"padding-left: 4px;\">\n                          <b>value set: </b><span>http://cts.nlm.nih.gov/fhir/ValueSet/2.16.840.1.113883.3.464.1003.101.12.1016</span>\n                      </span>\n                      \n                      \n                    \n                  </th>\n                </tr>\n              \n                <tr>\n                  <th>Encounter</th>\n                  <th>http://hl7.org/fhir/us/qicore/StructureDefinition/qicore-encounter</th>\n                  <th>;</th>\n                  <th>\n                    \n                      <b>code filter: </b>\n                      \n                      <br/>\n                      \n                      \n                      <span style=\"padding-left: 4px;\">\n                          <b>path: </b><span>type</span>\n                      </span>\n                      \n                      <br/>\n                      \n                      \n                      \n                      <span style=\"padding-left: 4px;\">\n                          <b>value set: </b><span>http://cts.nlm.nih.gov/fhir/ValueSet/2.16.840.1.113883.3.526.3.1240</span>\n                      </span>\n                      \n                      \n                    \n                  </th>\n                </tr>\n              \n                <tr>\n                  <th>Encounter</th>\n                  <th>http://hl7.org/fhir/us/qicore/StructureDefinition/qicore-encounter</th>\n                  <th>;</th>\n                  <th>\n                    \n                      <b>code filter: </b>\n                      \n                      <br/>\n                      \n                      \n                      <span style=\"padding-left: 4px;\">\n                          <b>path: </b><span>type</span>\n                      </span>\n                      \n                      <br/>\n                      \n                      \n                      \n                      <span style=\"padding-left: 4px;\">\n                          <b>value set: </b><span>http://cts.nlm.nih.gov/fhir/ValueSet/2.16.840.1.113883.3.464.1003.101.12.1012</span>\n                      </span>\n                      \n                      \n                    \n                  </th>\n                </tr>\n              \n                <tr>\n                  <th>Encounter</th>\n                  <th>http://hl7.org/fhir/us/qicore/StructureDefinition/qicore-encounter</th>\n                  <th>;</th>\n                  <th>\n                    \n                      <b>code filter: </b>\n                      \n                      <br/>\n                      \n                      \n                      <span style=\"padding-left: 4px;\">\n                          <b>path: </b><span>type</span>\n                      </span>\n                      \n                      <br/>\n                      \n                      \n                      \n                      <span style=\"padding-left: 4px;\">\n                          <b>value set: </b><span>http://cts.nlm.nih.gov/fhir/ValueSet/2.16.840.1.113883.3.526.3.1492</span>\n                      </span>\n                      \n                      \n                    \n                  </th>\n                </tr>\n              \n                <tr>\n                  <th>Encounter</th>\n                  <th>http://hl7.org/fhir/us/qicore/StructureDefinition/qicore-encounter</th>\n                  <th>;</th>\n                  <th>\n                    \n                      <b>code filter: </b>\n                      \n                      <br/>\n                      \n                      \n                      <span style=\"padding-left: 4px;\">\n                          <b>path: </b><span>type</span>\n                      </span>\n                      \n                      <br/>\n                      \n                      \n                      \n                      <span style=\"padding-left: 4px;\">\n                          <b>value set: </b><span>http://cts.nlm.nih.gov/fhir/ValueSet/2.16.840.1.113883.3.526.3.1496</span>\n                      </span>\n                      \n                      \n                    \n                  </th>\n                </tr>\n              \n                <tr>\n                  <th>Encounter</th>\n                  <th>http://hl7.org/fhir/us/qicore/StructureDefinition/qicore-encounter</th>\n                  <th>;</th>\n                  <th>\n                    \n                      <b>code filter: </b>\n                      \n                      <br/>\n                      \n                      \n                      <span style=\"padding-left: 4px;\">\n                          <b>path: </b><span>type</span>\n                      </span>\n                      \n                      <br/>\n                      \n                      \n                      \n                      <span style=\"padding-left: 4px;\">\n                          <b>value set: </b><span>http://cts.nlm.nih.gov/fhir/ValueSet/2.16.840.1.113883.3.464.1003.101.12.1080</span>\n                      </span>\n                      \n                      \n                    \n                  </th>\n                </tr>\n              \n                <tr>\n                  <th>Encounter</th>\n                  <th>http://hl7.org/fhir/us/qicore/StructureDefinition/qicore-encounter</th>\n                  <th>;</th>\n                  <th>\n                    \n                      <b>code filter: </b>\n                      \n                      <br/>\n                      \n                      \n                      <span style=\"padding-left: 4px;\">\n                          <b>path: </b><span>type</span>\n                      </span>\n                      \n                      <br/>\n                      \n                      \n                      \n                      <span style=\"padding-left: 4px;\">\n                          <b>value set: </b><span>http://cts.nlm.nih.gov/fhir/ValueSet/2.16.840.1.113883.3.464.1003.101.12.1089</span>\n                      </span>\n                      \n                      \n                    \n                  </th>\n                </tr>\n              \n                <tr>\n                  <th>Encounter</th>\n                  <th>http://hl7.org/fhir/us/qicore/StructureDefinition/qicore-encounter</th>\n                  <th>;;;;</th>\n                  <th>\n                    \n                      <b>code filter: </b>\n                      \n                      <br/>\n                      \n                      \n                      <span style=\"padding-left: 4px;\">\n                          <b>path: </b><span>type</span>\n                      </span>\n                      \n                      <br/>\n                      \n                      \n                      \n                      <span style=\"padding-left: 4px;\">\n                          <b>value set: </b><span>http://cts.nlm.nih.gov/fhir/ValueSet/2.16.840.1.113883.3.666.5.307</span>\n                      </span>\n                      \n                      \n                    \n                  </th>\n                </tr>\n              \n                <tr>\n                  <th>Encounter</th>\n                  <th>http://hl7.org/fhir/us/qicore/StructureDefinition/qicore-encounter</th>\n                  <th>;;</th>\n                  <th>\n                    \n                      <b>code filter: </b>\n                      \n                      <br/>\n                      \n                      \n                      <span style=\"padding-left: 4px;\">\n                          <b>path: </b><span>type</span>\n                      </span>\n                      \n                      <br/>\n                      \n                      \n                      \n                      <span style=\"padding-left: 4px;\">\n                          <b>value set: </b><span>http://cts.nlm.nih.gov/fhir/ValueSet/2.16.840.1.113883.3.464.1003.1003</span>\n                      </span>\n                      \n                      \n                    \n                  </th>\n                </tr>\n              \n                <tr>\n                  <th>Coverage</th>\n                  <th>http://hl7.org/fhir/us/qicore/StructureDefinition/qicore-coverage</th>\n                  <th>;;</th>\n                  <th>\n                    \n                      <b>code filter: </b>\n                      \n                      <br/>\n                      \n                      \n                      <span style=\"padding-left: 4px;\">\n                          <b>path: </b><span>type</span>\n                      </span>\n                      \n                      <br/>\n                      \n                      \n                      \n                      <span style=\"padding-left: 4px;\">\n                          <b>value set: </b><span>http://cts.nlm.nih.gov/fhir/ValueSet/2.16.840.1.114222.4.11.3591</span>\n                      </span>\n                      \n                      \n                    \n                  </th>\n                </tr>\n              \n                <tr>\n                  <th>Observation</th>\n                  <th>http://hl7.org/fhir/us/qicore/StructureDefinition/qicore-observation-screening-assessment</th>\n                  <th>;;;</th>\n                  <th>\n                    \n                      <b>code filter: </b>\n                      \n                      <br/>\n                      \n                      \n                      <span style=\"padding-left: 4px;\">\n                          <b>path: </b><span>code</span>\n                      </span>\n                      \n                      <br/>\n                      \n                      \n                      \n                      \n                          \n                          <p style=\"margin-bottom: 5px;\">\n                              <b>system: </b> <span>http://loinc.org</span>\n                          </p>\n                          \n                          \n                          <p style=\"margin-bottom: 5px;\">\n                              <b>code: </b> <span>45755-6</span>\n                          </p>\n                          \n                          \n                          <p style=\"margin-bottom: 5px;\">\n                              <b>display: </b> <span>Hospice care [Minimum Data Set]</span>\n                          </p>\n                          \n                      \n                    \n                  </th>\n                </tr>\n              \n                <tr>\n                  <th>ServiceRequest</th>\n                  <th>http://hl7.org/fhir/us/qicore/StructureDefinition/qicore-servicerequest</th>\n                  <th>;;;</th>\n                  <th>\n                    \n                      <b>code filter: </b>\n                      \n                      <br/>\n                      \n                      \n                      <span style=\"padding-left: 4px;\">\n                          <b>path: </b><span>code</span>\n                      </span>\n                      \n                      <br/>\n                      \n                      \n                      \n                      <span style=\"padding-left: 4px;\">\n                          <b>value set: </b><span>http://cts.nlm.nih.gov/fhir/ValueSet/2.16.840.1.113883.3.526.3.1584</span>\n                      </span>\n                      \n                      \n                    \n                  </th>\n                </tr>\n              \n                <tr>\n                  <th>Procedure</th>\n                  <th>http://hl7.org/fhir/us/qicore/StructureDefinition/qicore-procedure</th>\n                  <th>;;</th>\n                  <th>\n                    \n                      <b>code filter: </b>\n                      \n                      <br/>\n                      \n                      \n                      <span style=\"padding-left: 4px;\">\n                          <b>path: </b><span>code</span>\n                      </span>\n                      \n                      <br/>\n                      \n                      \n                      \n                      <span style=\"padding-left: 4px;\">\n                          <b>value set: </b><span>http://cts.nlm.nih.gov/fhir/ValueSet/2.16.840.1.113883.3.526.3.1584</span>\n                      </span>\n                      \n                      \n                    \n                  </th>\n                </tr>\n              \n                <tr>\n                  <th>MedicationRequest</th>\n                  <th>http://hl7.org/fhir/us/qicore/StructureDefinition/qicore-medicationrequest</th>\n                  <th>;</th>\n                  <th>\n                    \n                      <b>code filter: </b>\n                      \n                      <br/>\n                      \n                      \n                      <span style=\"padding-left: 4px;\">\n                          <b>path: </b><span>medication</span>\n                      </span>\n                      \n                      <br/>\n                      \n                      \n                      \n                      <span style=\"padding-left: 4px;\">\n                          <b>value set: </b><span>http://cts.nlm.nih.gov/fhir/ValueSet/2.16.840.1.113883.3.464.1003.196.12.1213</span>\n                      </span>\n                      \n                      \n                    \n                  </th>\n                </tr>\n              \n                <tr>\n                  <th>MedicationRequest</th>\n                  <th>http://hl7.org/fhir/us/qicore/StructureDefinition/qicore-medicationrequest</th>\n                  <th>;</th>\n                  <th>\n                    \n                  </th>\n                </tr>\n              \n            </table>\n          </td>\n        </tr>\n        \n\n        \n        \n        <tr>\n          <td colspan=\"2\">\n            <table>\n              <tr><th><a id=\"cql-content\"><b>Content: </b></a> text/cql</th></tr>\n              <tr><td><pre><code class=\"language-cql\">library CMS128FHIRAntidepressantMedManagement version '0.3.000'\r\n\r\nusing QICore version '6.0.0'\r\n\r\ninclude FHIRHelpers version '4.4.000' called FHIRHelpers\r\ninclude SupplementalDataElements version '5.1.000' called SDE\r\ninclude Hospice version '6.15.000' called Hospice\r\ninclude CumulativeMedicationDuration version '6.0.000' called CMD\r\ninclude Status version '1.13.000' called Status\r\ninclude QICoreCommon version '4.0.000' called QICoreCommon\r\ninclude CQMCommon version '4.0.000' called CQMCommon\r\n\r\nvalueset &quot;Annual Wellness Visit&quot;: 'http://cts.nlm.nih.gov/fhir/ValueSet/2.16.840.1.113883.3.526.3.1240'\r\nvalueset &quot;Antidepressant Medication&quot;: 'http://cts.nlm.nih.gov/fhir/ValueSet/2.16.840.1.113883.3.464.1003.196.12.1213'\r\nvalueset &quot;Home Healthcare Services&quot;: 'http://cts.nlm.nih.gov/fhir/ValueSet/2.16.840.1.113883.3.464.1003.101.12.1016'\r\nvalueset &quot;Major Depression&quot;: 'http://cts.nlm.nih.gov/fhir/ValueSet/2.16.840.1.113883.3.464.1003.105.12.1007'\r\nvalueset &quot;Nursing Facility Visit&quot;: 'http://cts.nlm.nih.gov/fhir/ValueSet/2.16.840.1.113883.3.464.1003.101.12.1012'\r\nvalueset &quot;Office Visit&quot;: 'http://cts.nlm.nih.gov/fhir/ValueSet/2.16.840.1.113883.3.464.1003.101.12.1001'\r\nvalueset &quot;Preventive Care Services Established Office Visit, 18 and Up&quot;: 'http://cts.nlm.nih.gov/fhir/ValueSet/2.16.840.1.113883.3.464.1003.101.12.1025'\r\nvalueset &quot;Preventive Care Services Initial Office Visit, 18 and Up&quot;: 'http://cts.nlm.nih.gov/fhir/ValueSet/2.16.840.1.113883.3.464.1003.101.12.1023'\r\nvalueset &quot;Psych Visit Diagnostic Evaluation&quot;: 'http://cts.nlm.nih.gov/fhir/ValueSet/2.16.840.1.113883.3.526.3.1492'\r\nvalueset &quot;Psych Visit Psychotherapy&quot;: 'http://cts.nlm.nih.gov/fhir/ValueSet/2.16.840.1.113883.3.526.3.1496'\r\nvalueset &quot;Telephone Visits&quot;: 'http://cts.nlm.nih.gov/fhir/ValueSet/2.16.840.1.113883.3.464.1003.101.12.1080'\r\nvalueset &quot;Virtual Encounter&quot;: 'http://cts.nlm.nih.gov/fhir/ValueSet/2.16.840.1.113883.3.464.1003.101.12.1089'\r\n\r\nparameter &quot;Measurement Period&quot; Interval&lt;DateTime&gt;\r\n\r\ncontext Patient\r\n\r\ndefine &quot;Initial Population&quot;:\r\n  AgeInYearsAt(date from &quot;IPSD&quot;) &gt;= 18\r\n    and &quot;Has IPSD and Major Depression Diagnosis&quot;\r\n    and exists &quot;Qualifying Encounters&quot;\r\n\r\ndefine &quot;April 30 of the Measurement Period&quot;:\r\n  DateTime((year from start of &quot;Measurement Period&quot;), 4, 30, 23, 59, 59, 0, 0)\r\n\r\ndefine &quot;Has IPSD and Major Depression Diagnosis&quot;:\r\n  exists ( ( [ConditionProblemsHealthConcerns: &quot;Major Depression&quot;]\r\n      union [ConditionEncounterDiagnosis: &quot;Major Depression&quot;] ) MajorDepression\r\n      where &quot;IPSD&quot; is not null\r\n        and date from start of MajorDepression.prevalenceInterval ( ) within 60 days of &quot;IPSD&quot;\r\n  )\r\n\r\ndefine &quot;IPSD&quot;:\r\n  First((([MedicationDispense: &quot;Antidepressant Medication&quot;]).isMedicationDispensed()) Antidepressant\r\n      where start of Antidepressant.medicationDispensePeriod() in day of &quot;Intake Period&quot;\r\n      return {\r\n        AntidepressantDate: date from start of Antidepressant.medicationDispensePeriod()\r\n      }\r\n      sort by AntidepressantDate\r\n  ).AntidepressantDate\r\n\r\ndefine &quot;Intake Period&quot;:\r\n  Interval[&quot;May 1 of the Year Prior to the Measurement Period&quot;, &quot;April 30 of the Measurement Period&quot;]\r\n\r\ndefine &quot;May 1 of the Year Prior to the Measurement Period&quot;:\r\n  DateTime((year from start of &quot;Measurement Period&quot; - 1), 5, 1, 0, 0, 0, 0, 0)\r\n\r\ndefine &quot;Qualifying Encounters&quot;:\r\n  ( ( [Encounter: &quot;Office Visit&quot;]\r\n      union [Encounter: &quot;Preventive Care Services Established Office Visit, 18 and Up&quot;]\r\n      union [Encounter: &quot;Preventive Care Services Initial Office Visit, 18 and Up&quot;]\r\n      union [Encounter: &quot;Home Healthcare Services&quot;]\r\n      union [Encounter: &quot;Annual Wellness Visit&quot;]\r\n      union [Encounter: &quot;Nursing Facility Visit&quot;]\r\n      union [Encounter: &quot;Psych Visit Diagnostic Evaluation&quot;]\r\n      union [Encounter: &quot;Psych Visit Psychotherapy&quot;]\r\n      union [Encounter: &quot;Telephone Visits&quot;]\r\n      union [Encounter: &quot;Virtual Encounter&quot;]\r\n  ).isEncounterPerformed ( ) ) ValidEncounter\r\n    where date from start of ValidEncounter.period.toInterval ( ) within 60 days of &quot;IPSD&quot;\r\n\r\ndefine &quot;Denominator&quot;:\r\n  &quot;Initial Population&quot;\r\n\r\ndefine &quot;Denominator Exclusions&quot;:\r\n  Hospice.&quot;Has Hospice Services&quot;\r\n    or exists ( ( ( [MedicationRequest: &quot;Antidepressant Medication&quot;] ).isMedicationActive ( ) ) ActiveAntidepressant\r\n        where &quot;IPSD&quot; is not null\r\n          and CQMCommon.ToDateInterval ( ActiveAntidepressant.medicationRequestPeriod ( ) ) overlaps Interval[&quot;IPSD&quot; - 105 days, &quot;IPSD&quot; )\r\n    )\r\n\r\ndefine &quot;Numerator 1&quot;:\r\n  &quot;Cumulative Medication Duration Greater Than or Equal to 84 Days&quot;\r\n\r\ndefine &quot;Cumulative Medication Duration Greater Than or Equal to 84 Days&quot;:\r\n  ( &quot;Antidepressant Medication Period Between IPSD and 114 Days After IPSD&quot;.cumulativeDuration ( ) ) &gt;= 84\r\n\r\ndefine &quot;Antidepressant Medication Period Between IPSD and 114 Days After IPSD&quot;:\r\n  ( ( [MedicationDispense: &quot;Antidepressant Medication&quot;] ).isMedicationDispensed ( ) ) Antidepressant\r\n    let MedicationPeriod: Antidepressant.medicationDispensePeriod ( )\r\n    return MedicationPeriod\r\n      intersect Interval[&quot;IPSD&quot;, &quot;IPSD&quot; + 114 days]\r\n\r\ndefine &quot;Numerator 2&quot;:\r\n  &quot;Cumulative Medication Duration Greater Than or Equal to 180 Days&quot;\r\n\r\ndefine &quot;Cumulative Medication Duration Greater Than or Equal to 180 Days&quot;:\r\n  ( &quot;Antidepressant Medication Period Between IPSD and 231 Days After IPSD&quot;.cumulativeDuration ( ) ) &gt;= 180\r\n\r\ndefine &quot;Antidepressant Medication Period Between IPSD and 231 Days After IPSD&quot;:\r\n  ( ( [MedicationDispense: &quot;Antidepressant Medication&quot;] ).isMedicationDispensed ( ) ) Antidepressant\r\n    let MedicationPeriod: Antidepressant.medicationDispensePeriod ( )\r\n    return MedicationPeriod\r\n      intersect Interval[&quot;IPSD&quot;, &quot;IPSD&quot; + 231 days]\r\n\r\ndefine &quot;SDE Ethnicity&quot;:\r\n  SDE.&quot;SDE Ethnicity&quot;\r\n\r\ndefine &quot;SDE Payer&quot;:\r\n  SDE.&quot;SDE Payer&quot;\r\n\r\ndefine &quot;SDE Race&quot;:\r\n  SDE.&quot;SDE Race&quot;\r\n\r\ndefine &quot;SDE Sex&quot;:\r\n  SDE.&quot;SDE Sex&quot;</code></pre></td></tr>\n            </table>\n          </td>\n        </tr>\n        \n        \n        \n    </table>\n</div>"},"contained":[{"resourceType":"Parameters","id":"options","parameter":[{"name":"translatorVersion","valueString":"3.25.0"},{"name":"option","valueString":"EnableAnnotations"},{"name":"option","valueString":"EnableLocators"},{"name":"option","valueString":"DisableListDemotion"},{"name":"option","valueString":"DisableListPromotion"},{"name":"format","valueString":"XML"},{"name":"format","valueString":"JSON"},{"name":"analyzeDataRequirements","valueBoolean":false},{"name":"collapseDataRequirements","valueBoolean":false},{"name":"compatibilityLevel","valueString":"1.5"},{"name":"enableCqlOnly","valueBoolean":false},{"name":"errorLevel","valueString":"Info"},{"name":"signatureLevel","valueString":"Overloads"},{"name":"validateUnits","valueBoolean":true},{"name":"verifyOnly","valueBoolean":false}]}],"extension":[{"url":"http://hl7.org/fhir/StructureDefinition/cqf-cqlOptions","valueReference":{"reference":"#options"}}],"url":"https://madie.cms.gov/Library/CMS128FHIRAntidepressantMedManagement","identifier":[{"use":"official","system":"https://madie.cms.gov/login","value":"CMS128FHIRAntidepressantMedManagement"}],"version":"0.3.000","name":"CMS128FHIRAntidepressantMedManagement","title":"CMS128FHIRAntidepressantMedManagement","status":"active","experimental":false,"type":{"coding":[{"system":"http://terminology.hl7.org/CodeSystem/library-type","code":"logic-library"}]},"date":"2025-04-15T20:43:08+00:00","publisher":"National Committee for Quality Assurance","description":"CMS128FHIRAntidepressantMedManagement","content":[{"contentType":"text/cql","data":""}]},"request":{"method":"PUT","url":"Library/CMS128FHIRAntidepressantMedManagement"}},{"resource":{"resourceType":"Encounter","id":"db1c9ef4-30a8-450d-99d2-7affa51cc3f6","meta":{"profile":["http://hl7.org/fhir/us/qicore/StructureDefinition/qicore-encounter"]},"status":"finished","class":{"system":"http://terminology.hl7.org/CodeSystem/v3-ActCode","code":"AMB","display":"ambulatory"},"type":[{"coding":[{"system":"http://snomed.info/sct","code":"401267002","display":"Telephone triage encounter (procedure)"}]}],"subject":{"reference":"Patient/dc4c8b59-2a44-4a74-9983-48baabe5679f"},"period":{"start":"2026-01-01T00:00:00.000Z","end":"2026-01-01T01:00:00.000Z"}},"request":{"method":"PUT","url":"Encounter/db1c9ef4-30a8-450d-99d2-7affa51cc3f6"}},{"resource":{"resourceType":"MeasureReport","id":"404f5262-3a81-4a07-8ec2-04636d48b7d4","meta":{"profile":["http://hl7.org/fhir/us/cqfmeasures/StructureDefinition/test-case-cqfm"]},"contained":[{"resourceType":"Parameters","id":"7ed69a70-4983-487d-8dcf-354ee2e69518-parameters","parameter":[{"name":"subject","valueString":"dc4c8b59-2a44-4a74-9983-48baabe5679f"}]}],"extension":[{"url":"http://hl7.org/fhir/StructureDefinition/cqf-inputParameters","valueReference":{"reference":"#7ed69a70-4983-487d-8dcf-354ee2e69518-parameters"}},{"url":"http://hl7.org/fhir/us/cqfmeasures/StructureDefinition/cqfm-testCaseDescription","valueMarkdown":"Qualifying encounter is Telephone Visit"}],"modifierExtension":[{"url":"http://hl7.org/fhir/us/cqfmeasures/StructureDefinition/cqfm-isTestCase","valueBoolean":true}],"status":"complete","type":"individual","measure":"https://madie.cms.gov/Measure/CMS128FHIRAntidepressantMedManagement","period":{"start":"2026-01-01","end":"2026-12-31"},"group":[{"id":"Group_1","population":[{"id":"InitialPopulation_1","code":{"coding":[{"system":"http://terminology.hl7.org/CodeSystem/measure-population","code":"initial-population","display":"Initial Population"}]},"count":1},{"id":"Denominator_1","code":{"coding":[{"system":"http://terminology.hl7.org/CodeSystem/measure-population","code":"denominator","display":"Denominator"}]},"count":1},{"id":"DenominatorExclusion_1","code":{"coding":[{"system":"http://terminology.hl7.org/CodeSystem/measure-population","code":"denominator-exclusion","display":"Denominator Exclusion"}]},"count":0},{"id":"Numerator_1","code":{"coding":[{"system":"http://terminology.hl7.org/CodeSystem/measure-population","code":"numerator","display":"Numerator"}]},"count":0}],"measureScore":{"value":1.0}},{"id":"Group_2","population":[{"id":"InitialPopulation_2","code":{"coding":[{"system":"http://terminology.hl7.org/CodeSystem/measure-population","code":"initial-population","display":"Initial Population"}]},"count":1},{"id":"Denominator_2","code":{"coding":[{"system":"http://terminology.hl7.org/CodeSystem/measure-population","code":"denominator","display":"Denominator"}]},"count":1},{"id":"DenominatorExclusion_2","code":{"coding":[{"system":"http://terminology.hl7.org/CodeSystem/measure-population","code":"denominator-exclusion","display":"Denominator Exclusion"}]},"count":0},{"id":"Numerator_2","code":{"coding":[{"system":"http://terminology.hl7.org/CodeSystem/measure-population","code":"numerator","display":"Numerator"}]},"count":0}],"measureScore":{"value":1.0}}],"evaluatedResource":[{"reference":"Patient/dc4c8b59-2a44-4a74-9983-48baabe5679f"},{"reference":"Encounter/db1c9ef4-30a8-450d-99d2-7affa51cc3f6"},{"reference":"MedicationDispense/5d868052-7ad7-49c3-9221-d078fe83d766"},{"reference":"MedicationDispense/f357ff59-1ecd-457d-8c93-071b5abf27de"},{"reference":"Condition/7a78cbd4-61e3-405d-a79a-0aa87eb3f42d"}]},"request":{"method":"PUT","url":"MeasureReport/404f5262-3a81-4a07-8ec2-04636d48b7d4"}},{"resource":{"resourceType":"MedicationDispense","id":"f357ff59-1ecd-457d-8c93-071b5abf27de","meta":{"profile":["http://hl7.org/fhir/us/qicore/StructureDefinition/qicore-medicationdispense"]},"status":"completed","medicationCodeableConcept":{"coding":[{"system":"http://www.nlm.nih.gov/research/umls/rxnorm","code":"1099316","display":"desipramine hydrochloride 75 MG Oral Tablet"}]},"subject":{"reference":"Patient/dc4c8b59-2a44-4a74-9983-48baabe5679f"},"daysSupply":{"value":10,"system":"http://unitsofmeasure.org","code":"days"},"whenHandedOver":"2026-03-01T01:00:00.000Z"},"request":{"method":"PUT","url":"MedicationDispense/f357ff59-1ecd-457d-8c93-071b5abf27de"}},{"resource":{"resourceType":"Condition","id":"7a78cbd4-61e3-405d-a79a-0aa87eb3f42d","meta":{"profile":["http://hl7.org/fhir/us/qicore/StructureDefinition/qicore-condition-encounter-diagnosis"]},"clinicalStatus":{"coding":[{"system":"http://terminology.hl7.org/CodeSystem/condition-clinical","code":"active"}]},"category":[{"coding":[{"system":"http://terminology.hl7.org/CodeSystem/condition-category","code":"problem-list-item","display":"Problem List Item"}]}],"code":{"coding":[{"system":"http://snomed.info/sct","code":"15193003","display":"Severe recurrent major depression with psychotic features, mood-incongruent (disorder)"}]},"subject":{"reference":"Patient/dc4c8b59-2a44-4a74-9983-48baabe5679f"},"onsetDateTime":"2026-01-01T01:00:00.000Z"},"request":{"method":"PUT","url":"Condition/7a78cbd4-61e3-405d-a79a-0aa87eb3f42d"}},{"resource":{"resourceType":"Patient","id":"dc4c8b59-2a44-4a74-9983-48baabe5679f","meta":{"profile":["http://hl7.org/fhir/us/qicore/StructureDefinition/qicore-patient"]},"extension":[{"url":"http://hl7.org/fhir/us/core/StructureDefinition/us-core-race","extension":[{"url":"ombCategory","valueCoding":{"system":"urn:oid:2.16.840.1.113883.6.238","code":"2028-9","display":"Asian","userSelected":true}},{"url":"text","valueString":"Asian"}]},{"url":"http://hl7.org/fhir/us/core/StructureDefinition/us-core-ethnicity","extension":[{"url":"ombCategory","valueCoding":{"system":"urn:oid:2.16.840.1.113883.6.238","code":"2135-2","display":"Hispanic or Latino","userSelected":true}},{"url":"text","valueString":"Hispanic or Latino"}]}],"identifier":[{"type":{"coding":[{"system":"http://terminology.hl7.org/CodeSystem/v2-0203","code":"MR"}]},"system":"http://hospital.smarthealthit.org","value":"999999995"}],"name":[{"family":"Bertha","given":["Betty"]}],"gender":"male","birthDate":"2007-01-01"},"request":{"method":"PUT","url":"Patient/dc4c8b59-2a44-4a74-9983-48baabe5679f"}},{"resource":{"resourceType":"MedicationDispense","id":"5d868052-7ad7-49c3-9221-d078fe83d766","meta":{"profile":["http://hl7.org/fhir/us/qicore/StructureDefinition/qicore-medicationdispense"]},"status":"completed","medicationCodeableConcept":{"coding":[{"system":"http://www.nlm.nih.gov/research/umls/rxnorm","code":"1099316","display":"desipramine hydrochloride 75 MG Oral Tablet"}]},"subject":{"reference":"Patient/dc4c8b59-2a44-4a74-9983-48baabe5679f"},"daysSupply":{"value":10,"system":"http://unitsofmeasure.org","code":"days"},"whenHandedOver":"2026-01-01T01:00:00.000Z"},"request":{"method":"PUT","url":"MedicationDispense/5d868052-7ad7-49c3-9221-d078fe83d766"}},{"resource":{"resourceType":"MeasureReport","id":"a0c34dfc-58cb-4111-a2e5-62a109e5c3c0","meta":{"profile":["http://hl7.org/fhir/us/cqfmeasures/StructureDefinition/test-case-cqfm"]},"contained":[{"resourceType":"Parameters","id":"03730b89-05eb-4c36-9253-918f406d8598-parameters","parameter":[{"name":"subject","valueString":"bdbc73af-00ed-4eca-b5a4-dfaab4fc2c8c"}]}],"extension":[{"url":"http://hl7.org/fhir/StructureDefinition/cqf-inputParameters","valueReference":{"reference":"#03730b89-05eb-4c36-9253-918f406d8598-parameters"}},{"url":"http://hl7.org/fhir/us/cqfmeasures/StructureDefinition/cqfm-testCaseDescription","valueMarkdown":"Qualifying encounter is Preventive Care Services Established Office Visit, 18 and Up"}],"modifierExtension":[{"url":"http://hl7.org/fhir/us/cqfmeasures/StructureDefinition/cqfm-isTestCase","valueBoolean":true}],"status":"complete","type":"individual","measure":"https://madie.cms.gov/Measure/CMS128FHIRAntidepressantMedManagement","period":{"start":"2026-01-01","end":"2026-12-31"},"group":[{"id":"Group_1","population":[{"id":"InitialPopulation_1","code":{"coding":[{"system":"http://terminology.hl7.org/CodeSystem/measure-population","code":"initial-population","display":"Initial Population"}]},"count":1},{"id":"Denominator_1","code":{"coding":[{"system":"http://terminology.hl7.org/CodeSystem/measure-population","code":"denominator","display":"Denominator"}]},"count":1},{"id":"DenominatorExclusion_1","code":{"coding":[{"system":"http://terminology.hl7.org/CodeSystem/measure-population","code":"denominator-exclusion","display":"Denominator Exclusion"}]},"count":0},{"id":"Numerator_1","code":{"coding":[{"system":"http://terminology.hl7.org/CodeSystem/measure-population","code":"numerator","display":"Numerator"}]},"count":0}],"measureScore":{"value":1.0}},{"id":"Group_2","population":[{"id":"InitialPopulation_2","code":{"coding":[{"system":"http://terminology.hl7.org/CodeSystem/measure-population","code":"initial-population","display":"Initial Population"}]},"count":1},{"id":"Denominator_2","code":{"coding":[{"system":"http://terminology.hl7.org/CodeSystem/measure-population","code":"denominator","display":"Denominator"}]},"count":1},{"id":"DenominatorExclusion_2","code":{"coding":[{"system":"http://terminology.hl7.org/CodeSystem/measure-population","code":"denominator-exclusion","display":"Denominator Exclusion"}]},"count":0},{"id":"Numerator_2","code":{"coding":[{"system":"http://terminology.hl7.org/CodeSystem/measure-population","code":"numerator","display":"Numerator"}]},"count":0}],"measureScore":{"value":1.0}}],"evaluatedResource":[{"reference":"Patient/bdbc73af-00ed-4eca-b5a4-dfaab4fc2c8c"},{"reference":"Encounter/31f7ef37-de7e-4ac0-b594-cdaeecc34bde"},{"reference":"MedicationDispense/a7bd9065-750c-451c-8660-e486b2c02709"},{"reference":"MedicationDispense/b8e2c353-cdc1-45e7-92d8-e03b62d4db71"},{"reference":"Condition/6dbcff17-fe47-477f-87e3-1494b05774ae"}]},"request":{"method":"PUT","url":"MeasureReport/a0c34dfc-58cb-4111-a2e5-62a109e5c3c0"}},{"resource":{"resourceType":"MedicationDispense","id":"a7bd9065-750c-451c-8660-e486b2c02709","meta":{"profile":["http://hl7.org/fhir/us/qicore/StructureDefinition/qicore-medicationdispense"]},"status":"completed","medicationCodeableConcept":{"coding":[{"system":"http://www.nlm.nih.gov/research/umls/rxnorm","code":"1099316","display":"desipramine hydrochloride 75 MG Oral Tablet"}]},"subject":{"reference":"Patient/bdbc73af-00ed-4eca-b5a4-dfaab4fc2c8c"},"daysSupply":{"value":10,"system":"http://unitsofmeasure.org","code":"days"},"whenHandedOver":"2026-01-01T01:00:00.000Z"},"request":{"method":"PUT","url":"MedicationDispense/a7bd9065-750c-451c-8660-e486b2c02709"}},{"resource":{"resourceType":"Patient","id":"bdbc73af-00ed-4eca-b5a4-dfaab4fc2c8c","meta":{"profile":["http://hl7.org/fhir/us/qicore/StructureDefinition/qicore-patient"]},"extension":[{"url":"http://hl7.org/fhir/us/core/StructureDefinition/us-core-race","extension":[{"url":"ombCategory","valueCoding":{"system":"urn:oid:2.16.840.1.113883.6.238","code":"2028-9","display":"Asian","userSelected":true}},{"url":"text","valueString":"Asian"}]},{"url":"http://hl7.org/fhir/us/core/StructureDefinition/us-core-ethnicity","extension":[{"url":"ombCategory","valueCoding":{"system":"urn:oid:2.16.840.1.113883.6.238","code":"2135-2","display":"Hispanic or Latino","userSelected":true}},{"url":"text","valueString":"Hispanic or Latino"}]}],"identifier":[{"type":{"coding":[{"system":"http://terminology.hl7.org/CodeSystem/v2-0203","code":"MR"}]},"system":"http://hospital.smarthealthit.org","value":"999999995"}],"name":[{"family":"Bertha","given":["Betty"]}],"gender":"male","birthDate":"2007-01-01"},"request":{"method":"PUT","url":"Patient/bdbc73af-00ed-4eca-b5a4-dfaab4fc2c8c"}},{"resource":{"resourceType":"Condition","id":"6dbcff17-fe47-477f-87e3-1494b05774ae","meta":{"profile":["http://hl7.org/fhir/us/qicore/StructureDefinition/qicore-condition-encounter-diagnosis"]},"clinicalStatus":{"coding":[{"system":"http://terminology.hl7.org/CodeSystem/condition-clinical","code":"active"}]},"category":[{"coding":[{"system":"http://terminology.hl7.org/CodeSystem/condition-category","code":"problem-list-item","display":"Problem List Item"}]}],"code":{"coding":[{"system":"http://snomed.info/sct","code":"15193003","display":"Severe recurrent major depression with psychotic features, mood-incongruent (disorder)"}]},"subject":{"reference":"Patient/bdbc73af-00ed-4eca-b5a4-dfaab4fc2c8c"},"onsetDateTime":"2026-01-01T01:00:00.000Z"},"request":{"method":"PUT","url":"Condition/6dbcff17-fe47-477f-87e3-1494b05774ae"}},{"resource":{"resourceType":"Encounter","id":"31f7ef37-de7e-4ac0-b594-cdaeecc34bde","meta":{"profile":["http://hl7.org/fhir/us/qicore/StructureDefinition/qicore-encounter"]},"status":"finished","class":{"system":"http://terminology.hl7.org/CodeSystem/v3-ActCode","code":"AMB","display":"ambulatory"},"type":[{"coding":[{"system":"http://www.ama-assn.org/go/cpt","code":"99395","display":"\tPeriodic comprehensive preventive medicine reevaluation and management of an individual including an age and gender appropriate history, examination, counseling/anticipatory guidance/risk factor reduction interventions, and the ordering of laboratory/diagnostic procedures, established patient; 18-39 years"}]}],"subject":{"reference":"Patient/bdbc73af-00ed-4eca-b5a4-dfaab4fc2c8c"},"period":{"start":"2026-01-01T00:00:00.000Z","end":"2026-01-01T01:00:00.000Z"}},"request":{"method":"PUT","url":"Encounter/31f7ef37-de7e-4ac0-b594-cdaeecc34bde"}},{"resource":{"resourceType":"MedicationDispense","id":"b8e2c353-cdc1-45e7-92d8-e03b62d4db71","meta":{"profile":["http://hl7.org/fhir/us/qicore/StructureDefinition/qicore-medicationdispense"]},"status":"completed","medicationCodeableConcept":{"coding":[{"system":"http://www.nlm.nih.gov/research/umls/rxnorm","code":"1099316","display":"desipramine hydrochloride 75 MG Oral Tablet"}]},"subject":{"reference":"Patient/bdbc73af-00ed-4eca-b5a4-dfaab4fc2c8c"},"daysSupply":{"value":10,"system":"http://unitsofmeasure.org","code":"days"},"whenHandedOver":"2026-03-01T01:00:00.000Z"},"request":{"method":"PUT","url":"MedicationDispense/b8e2c353-cdc1-45e7-92d8-e03b62d4db71"}},{"resource":{"resourceType":"MedicationDispense","id":"3cc31e2e-5119-4451-a0a1-d4090ba3c39b","meta":{"profile":["http://hl7.org/fhir/us/qicore/StructureDefinition/qicore-medicationdispense"]},"status":"completed","medicationCodeableConcept":{"coding":[{"system":"http://www.nlm.nih.gov/research/umls/rxnorm","code":"1099316","display":"desipramine hydrochloride 75 MG Oral Tablet"}]},"subject":{"reference":"Patient/ce747de2-3f8f-4ad8-8370-3ed53b990094"},"daysSupply":{"value":10,"system":"http://unitsofmeasure.org","code":"days"},"whenHandedOver":"2026-03-01T01:00:00.000Z"},"request":{"method":"PUT","url":"MedicationDispense/3cc31e2e-5119-4451-a0a1-d4090ba3c39b"}},{"resource":{"resourceType":"MeasureReport","id":"bbd3f7ae-ef29-4017-b331-0fe142c91ad7","meta":{"profile":["http://hl7.org/fhir/us/cqfmeasures/StructureDefinition/test-case-cqfm"]},"contained":[{"resourceType":"Parameters","id":"be36191e-a411-48a5-accc-d7a2b09a03d0-parameters","parameter":[{"name":"subject","valueString":"ce747de2-3f8f-4ad8-8370-3ed53b990094"}]}],"extension":[{"url":"http://hl7.org/fhir/StructureDefinition/cqf-inputParameters","valueReference":{"reference":"#be36191e-a411-48a5-accc-d7a2b09a03d0-parameters"}},{"url":"http://hl7.org/fhir/us/cqfmeasures/StructureDefinition/cqfm-testCaseDescription","valueMarkdown":"Qualifying encounter is Psych Visit Diagnostic Evaluation"}],"modifierExtension":[{"url":"http://hl7.org/fhir/us/cqfmeasures/StructureDefinition/cqfm-isTestCase","valueBoolean":true}],"status":"complete","type":"individual","measure":"https://madie.cms.gov/Measure/CMS128FHIRAntidepressantMedManagement","period":{"start":"2026-01-01","end":"2026-12-31"},"group":[{"id":"Group_1","population":[{"id":"InitialPopulation_1","code":{"coding":[{"system":"http://terminology.hl7.org/CodeSystem/measure-population","code":"initial-population","display":"Initial Population"}]},"count":1},{"id":"Denominator_1","code":{"coding":[{"system":"http://terminology.hl7.org/CodeSystem/measure-population","code":"denominator","display":"Denominator"}]},"count":1},{"id":"DenominatorExclusion_1","code":{"coding":[{"system":"http://terminology.hl7.org/CodeSystem/measure-population","code":"denominator-exclusion","display":"Denominator Exclusion"}]},"count":0},{"id":"Numerator_1","code":{"coding":[{"system":"http://terminology.hl7.org/CodeSystem/measure-population","code":"numerator","display":"Numerator"}]},"count":0}],"measureScore":{"value":1.0}},{"id":"Group_2","population":[{"id":"InitialPopulation_2","code":{"coding":[{"system":"http://terminology.hl7.org/CodeSystem/measure-population","code":"initial-population","display":"Initial Population"}]},"count":1},{"id":"Denominator_2","code":{"coding":[{"system":"http://terminology.hl7.org/CodeSystem/measure-population","code":"denominator","display":"Denominator"}]},"count":1},{"id":"DenominatorExclusion_2","code":{"coding":[{"system":"http://terminology.hl7.org/CodeSystem/measure-population","code":"denominator-exclusion","display":"Denominator Exclusion"}]},"count":0},{"id":"Numerator_2","code":{"coding":[{"system":"http://terminology.hl7.org/CodeSystem/measure-population","code":"numerator","display":"Numerator"}]},"count":0}],"measureScore":{"value":1.0}}],"evaluatedResource":[{"reference":"Patient/ce747de2-3f8f-4ad8-8370-3ed53b990094"},{"reference":"Encounter/aefae8f5-7bbb-4eb1-8446-cdce2bab4b96"},{"reference":"MedicationDispense/220216e9-e65e-48ba-9c47-dbc16c9d9439"},{"reference":"MedicationDispense/3cc31e2e-5119-4451-a0a1-d4090ba3c39b"},{"reference":"Condition/9c3dacf1-9d70-4caf-9b5b-697418d80e6e"}]},"request":{"method":"PUT","url":"MeasureReport/bbd3f7ae-ef29-4017-b331-0fe142c91ad7"}},{"resource":{"resourceType":"Condition","id":"9c3dacf1-9d70-4caf-9b5b-697418d80e6e","meta":{"profile":["http://hl7.org/fhir/us/qicore/StructureDefinition/qicore-condition-encounter-diagnosis"]},"clinicalStatus":{"coding":[{"system":"http://terminology.hl7.org/CodeSystem/condition-clinical","code":"active"}]},"category":[{"coding":[{"system":"http://terminology.hl7.org/CodeSystem/condition-category","code":"problem-list-item","display":"Problem List Item"}]}],"code":{"coding":[{"system":"http://snomed.info/sct","code":"15193003","display":"Severe recurrent major depression with psychotic features, mood-incongruent (disorder)"}]},"subject":{"reference":"Patient/ce747de2-3f8f-4ad8-8370-3ed53b990094"},"onsetDateTime":"2026-01-01T01:00:00.000Z"},"request":{"method":"PUT","url":"Condition/9c3dacf1-9d70-4caf-9b5b-697418d80e6e"}},{"resource":{"resourceType":"Patient","id":"ce747de2-3f8f-4ad8-8370-3ed53b990094","meta":{"profile":["http://hl7.org/fhir/us/qicore/StructureDefinition/qicore-patient"]},"extension":[{"url":"http://hl7.org/fhir/us/core/StructureDefinition/us-core-race","extension":[{"url":"ombCategory","valueCoding":{"system":"urn:oid:2.16.840.1.113883.6.238","code":"2028-9","display":"Asian","userSelected":true}},{"url":"text","valueString":"Asian"}]},{"url":"http://hl7.org/fhir/us/core/StructureDefinition/us-core-ethnicity","extension":[{"url":"ombCategory","valueCoding":{"system":"urn:oid:2.16.840.1.113883.6.238","code":"2135-2","display":"Hispanic or Latino","userSelected":true}},{"url":"text","valueString":"Hispanic or Latino"}]}],"identifier":[{"type":{"coding":[{"system":"http://terminology.hl7.org/CodeSystem/v2-0203","code":"MR"}]},"system":"http://hospital.smarthealthit.org","value":"999999995"}],"name":[{"family":"Bertha","given":["Betty"]}],"gender":"male","birthDate":"2007-01-01"},"request":{"method":"PUT","url":"Patient/ce747de2-3f8f-4ad8-8370-3ed53b990094"}},{"resource":{"resourceType":"MedicationDispense","id":"220216e9-e65e-48ba-9c47-dbc16c9d9439","meta":{"profile":["http://hl7.org/fhir/us/qicore/StructureDefinition/qicore-medicationdispense"]},"status":"completed","medicationCodeableConcept":{"coding":[{"system":"http://www.nlm.nih.gov/research/umls/rxnorm","code":"1099316","display":"desipramine hydrochloride 75 MG Oral Tablet"}]},"subject":{"reference":"Patient/ce747de2-3f8f-4ad8-8370-3ed53b990094"},"daysSupply":{"value":10,"system":"http://unitsofmeasure.org","code":"days"},"whenHandedOver":"2026-01-01T01:00:00.000Z"},"request":{"method":"PUT","url":"MedicationDispense/220216e9-e65e-48ba-9c47-dbc16c9d9439"}},{"resource":{"resourceType":"Encounter","id":"aefae8f5-7bbb-4eb1-8446-cdce2bab4b96","meta":{"profile":["http://hl7.org/fhir/us/qicore/StructureDefinition/qicore-encounter"]},"status":"finished","class":{"system":"http://terminology.hl7.org/CodeSystem/v3-ActCode","code":"AMB","display":"ambulatory"},"type":[{"coding":[{"system":"http://www.ama-assn.org/go/cpt","code":"90791","display":"Psychiatric diagnostic evaluation"}]}],"subject":{"reference":"Patient/ce747de2-3f8f-4ad8-8370-3ed53b990094"},"period":{"start":"2026-01-01T00:00:00.000Z","end":"2026-01-01T01:00:00.000Z"}},"request":{"method":"PUT","url":"Encounter/aefae8f5-7bbb-4eb1-8446-cdce2bab4b96"}},{"resource":{"resourceType":"Encounter","id":"fcbc4a28-a521-4180-b72d-3aad0b095dc8","meta":{"profile":["http://hl7.org/fhir/us/qicore/StructureDefinition/qicore-encounter"]},"status":"finished","class":{"system":"http://terminology.hl7.org/CodeSystem/v3-ActCode","code":"AMB","display":"ambulatory"},"type":[{"coding":[{"system":"http://snomed.info/sct","code":"444971000124105","display":"Annual wellness visit (procedure)"}]}],"subject":{"reference":"Patient/3207b0d6-43cb-4dd7-a71f-db8ad4b9e07a"},"period":{"start":"2026-01-01T00:00:00.000Z","end":"2026-01-01T01:00:00.000Z"}},"request":{"method":"PUT","url":"Encounter/fcbc4a28-a521-4180-b72d-3aad0b095dc8"}},{"resource":{"resourceType":"MedicationDispense","id":"95a9912d-e388-4225-8a68-2e9d894b59d9","meta":{"profile":["http://hl7.org/fhir/us/qicore/StructureDefinition/qicore-medicationdispense"]},"status":"completed","medicationCodeableConcept":{"coding":[{"system":"http://www.nlm.nih.gov/research/umls/rxnorm","code":"1099316","display":"desipramine hydrochloride 75 MG Oral Tablet"}]},"subject":{"reference":"Patient/3207b0d6-43cb-4dd7-a71f-db8ad4b9e07a"},"daysSupply":{"value":10,"system":"http://unitsofmeasure.org","code":"days"},"whenHandedOver":"2026-03-01T01:00:00.000Z"},"request":{"method":"PUT","url":"MedicationDispense/95a9912d-e388-4225-8a68-2e9d894b59d9"}},{"resource":{"resourceType":"Condition","id":"defe48ba-fec4-435b-8e37-122d5bf7b0b2","meta":{"profile":["http://hl7.org/fhir/us/qicore/StructureDefinition/qicore-condition-encounter-diagnosis"]},"clinicalStatus":{"coding":[{"system":"http://terminology.hl7.org/CodeSystem/condition-clinical","code":"active"}]},"category":[{"coding":[{"system":"http://terminology.hl7.org/CodeSystem/condition-category","code":"problem-list-item","display":"Problem List Item"}]}],"code":{"coding":[{"system":"http://snomed.info/sct","code":"15193003","display":"Severe recurrent major depression with psychotic features, mood-incongruent (disorder)"}]},"subject":{"reference":"Patient/3207b0d6-43cb-4dd7-a71f-db8ad4b9e07a"},"onsetDateTime":"2026-01-01T01:00:00.000Z"},"request":{"method":"PUT","url":"Condition/defe48ba-fec4-435b-8e37-122d5bf7b0b2"}},{"resource":{"resourceType":"MeasureReport","id":"3bb16881-c895-433a-9b99-77ed598e6e61","meta":{"profile":["http://hl7.org/fhir/us/cqfmeasures/StructureDefinition/test-case-cqfm"]},"contained":[{"resourceType":"Parameters","id":"fd501a7e-079a-4e47-a91e-f02ae8e9f575-parameters","parameter":[{"name":"subject","valueString":"3207b0d6-43cb-4dd7-a71f-db8ad4b9e07a"}]}],"extension":[{"url":"http://hl7.org/fhir/StructureDefinition/cqf-inputParameters","valueReference":{"reference":"#fd501a7e-079a-4e47-a91e-f02ae8e9f575-parameters"}},{"url":"http://hl7.org/fhir/us/cqfmeasures/StructureDefinition/cqfm-testCaseDescription","valueMarkdown":"Qualifying encounter is annual wellness visit"}],"modifierExtension":[{"url":"http://hl7.org/fhir/us/cqfmeasures/StructureDefinition/cqfm-isTestCase","valueBoolean":true}],"status":"complete","type":"individual","measure":"https://madie.cms.gov/Measure/CMS128FHIRAntidepressantMedManagement","period":{"start":"2026-01-01","end":"2026-12-31"},"group":[{"id":"Group_1","population":[{"id":"InitialPopulation_1","code":{"coding":[{"system":"http://terminology.hl7.org/CodeSystem/measure-population","code":"initial-population","display":"Initial Population"}]},"count":1},{"id":"Denominator_1","code":{"coding":[{"system":"http://terminology.hl7.org/CodeSystem/measure-population","code":"denominator","display":"Denominator"}]},"count":1},{"id":"DenominatorExclusion_1","code":{"coding":[{"system":"http://terminology.hl7.org/CodeSystem/measure-population","code":"denominator-exclusion","display":"Denominator Exclusion"}]},"count":0},{"id":"Numerator_1","code":{"coding":[{"system":"http://terminology.hl7.org/CodeSystem/measure-population","code":"numerator","display":"Numerator"}]},"count":0}],"measureScore":{"value":1.0}},{"id":"Group_2","population":[{"id":"InitialPopulation_2","code":{"coding":[{"system":"http://terminology.hl7.org/CodeSystem/measure-population","code":"initial-population","display":"Initial Population"}]},"count":1},{"id":"Denominator_2","code":{"coding":[{"system":"http://terminology.hl7.org/CodeSystem/measure-population","code":"denominator","display":"Denominator"}]},"count":1},{"id":"DenominatorExclusion_2","code":{"coding":[{"system":"http://terminology.hl7.org/CodeSystem/measure-population","code":"denominator-exclusion","display":"Denominator Exclusion"}]},"count":0},{"id":"Numerator_2","code":{"coding":[{"system":"http://terminology.hl7.org/CodeSystem/measure-population","code":"numerator","display":"Numerator"}]},"count":0}],"measureScore":{"value":1.0}}],"evaluatedResource":[{"reference":"Patient/3207b0d6-43cb-4dd7-a71f-db8ad4b9e07a"},{"reference":"Encounter/fcbc4a28-a521-4180-b72d-3aad0b095dc8"},{"reference":"MedicationDispense/530a5c06-6ad9-40d4-9415-1c574811a9a1"},{"reference":"MedicationDispense/95a9912d-e388-4225-8a68-2e9d894b59d9"},{"reference":"Condition/defe48ba-fec4-435b-8e37-122d5bf7b0b2"}]},"request":{"method":"PUT","url":"MeasureReport/3bb16881-c895-433a-9b99-77ed598e6e61"}},{"resource":{"resourceType":"MedicationDispense","id":"530a5c06-6ad9-40d4-9415-1c574811a9a1","meta":{"profile":["http://hl7.org/fhir/us/qicore/StructureDefinition/qicore-medicationdispense"]},"status":"completed","medicationCodeableConcept":{"coding":[{"system":"http://www.nlm.nih.gov/research/umls/rxnorm","code":"1099316","display":"desipramine hydrochloride 75 MG Oral Tablet"}]},"subject":{"reference":"Patient/3207b0d6-43cb-4dd7-a71f-db8ad4b9e07a"},"daysSupply":{"value":10,"system":"http://unitsofmeasure.org","code":"days"},"whenHandedOver":"2026-01-01T01:00:00.000Z"},"request":{"method":"PUT","url":"MedicationDispense/530a5c06-6ad9-40d4-9415-1c574811a9a1"}},{"resource":{"resourceType":"Patient","id":"3207b0d6-43cb-4dd7-a71f-db8ad4b9e07a","meta":{"profile":["http://hl7.org/fhir/us/qicore/StructureDefinition/qicore-patient"]},"extension":[{"url":"http://hl7.org/fhir/us/core/StructureDefinition/us-core-race","extension":[{"url":"ombCategory","valueCoding":{"system":"urn:oid:2.16.840.1.113883.6.238","code":"2028-9","display":"Asian","userSelected":true}},{"url":"text","valueString":"Asian"}]},{"url":"http://hl7.org/fhir/us/core/StructureDefinition/us-core-ethnicity","extension":[{"url":"ombCategory","valueCoding":{"system":"urn:oid:2.16.840.1.113883.6.238","code":"2135-2","display":"Hispanic or Latino","userSelected":true}},{"url":"text","valueString":"Hispanic or Latino"}]}],"identifier":[{"type":{"coding":[{"system":"http://terminology.hl7.org/CodeSystem/v2-0203","code":"MR"}]},"system":"http://hospital.smarthealthit.org","value":"999999995"}],"name":[{"family":"Bertha","given":["Betty"]}],"gender":"male","birthDate":"2007-01-01"},"request":{"method":"PUT","url":"Patient/3207b0d6-43cb-4dd7-a71f-db8ad4b9e07a"}},{"resource":{"resourceType":"Encounter","id":"f66f17c3-18c1-42bf-8623-a697912ef2f1","meta":{"profile":["http://hl7.org/fhir/us/qicore/StructureDefinition/qicore-encounter"]},"status":"finished","class":{"system":"http://terminology.hl7.org/CodeSystem/v3-ActCode","code":"AMB","display":"ambulatory"},"type":[{"coding":[{"system":"http://www.ama-assn.org/go/cpt","code":"99457","display":"Remote physiologic monitoring treatment management services, clinical staff/physician/other qualified health care professional time in a calendar month requiring interactive communication with the patient/caregiver during the month; first 20 minutes"}]}],"subject":{"reference":"Patient/b4cd38ff-6828-49bc-b8e6-d4a24b9624b1"},"period":{"start":"2026-01-01T00:00:00.000Z","end":"2026-01-01T01:00:00.000Z"}},"request":{"method":"PUT","url":"Encounter/f66f17c3-18c1-42bf-8623-a697912ef2f1"}},{"resource":{"resourceType":"MeasureReport","id":"4764755c-95e8-47bd-bf56-f347f890f321","meta":{"profile":["http://hl7.org/fhir/us/cqfmeasures/StructureDefinition/test-case-cqfm"]},"contained":[{"resourceType":"Parameters","id":"8a44d799-6f77-495a-b581-c959ef628086-parameters","parameter":[{"name":"subject","valueString":"b4cd38ff-6828-49bc-b8e6-d4a24b9624b1"}]}],"extension":[{"url":"http://hl7.org/fhir/StructureDefinition/cqf-inputParameters","valueReference":{"reference":"#8a44d799-6f77-495a-b581-c959ef628086-parameters"}},{"url":"http://hl7.org/fhir/us/cqfmeasures/StructureDefinition/cqfm-testCaseDescription","valueMarkdown":"Qualifying encounter is Virtual Encounter"}],"modifierExtension":[{"url":"http://hl7.org/fhir/us/cqfmeasures/StructureDefinition/cqfm-isTestCase","valueBoolean":true}],"status":"complete","type":"individual","measure":"https://madie.cms.gov/Measure/CMS128FHIRAntidepressantMedManagement","period":{"start":"2026-01-01","end":"2026-12-31"},"group":[{"id":"Group_1","population":[{"id":"InitialPopulation_1","code":{"coding":[{"system":"http://terminology.hl7.org/CodeSystem/measure-population","code":"initial-population","display":"Initial Population"}]},"count":1},{"id":"Denominator_1","code":{"coding":[{"system":"http://terminology.hl7.org/CodeSystem/measure-population","code":"denominator","display":"Denominator"}]},"count":1},{"id":"DenominatorExclusion_1","code":{"coding":[{"system":"http://terminology.hl7.org/CodeSystem/measure-population","code":"denominator-exclusion","display":"Denominator Exclusion"}]},"count":0},{"id":"Numerator_1","code":{"coding":[{"system":"http://terminology.hl7.org/CodeSystem/measure-population","code":"numerator","display":"Numerator"}]},"count":0}],"measureScore":{"value":1.0}},{"id":"Group_2","population":[{"id":"InitialPopulation_2","code":{"coding":[{"system":"http://terminology.hl7.org/CodeSystem/measure-population","code":"initial-population","display":"Initial Population"}]},"count":1},{"id":"Denominator_2","code":{"coding":[{"system":"http://terminology.hl7.org/CodeSystem/measure-population","code":"denominator","display":"Denominator"}]},"count":1},{"id":"DenominatorExclusion_2","code":{"coding":[{"system":"http://terminology.hl7.org/CodeSystem/measure-population","code":"denominator-exclusion","display":"Denominator Exclusion"}]},"count":0},{"id":"Numerator_2","code":{"coding":[{"system":"http://terminology.hl7.org/CodeSystem/measure-population","code":"numerator","display":"Numerator"}]},"count":0}],"measureScore":{"value":1.0}}],"evaluatedResource":[{"reference":"Patient/b4cd38ff-6828-49bc-b8e6-d4a24b9624b1"},{"reference":"Encounter/f66f17c3-18c1-42bf-8623-a697912ef2f1"},{"reference":"MedicationDispense/b1a652f0-cc28-4f85-a40e-0931229fa9eb"},{"reference":"MedicationDispense/ae261b51-668a-4358-bb89-0e0a297f1716"},{"reference":"Condition/ed29c7f8-8faa-427e-811d-1f276ce4fcfe"}]},"request":{"method":"PUT","url":"MeasureReport/4764755c-95e8-47bd-bf56-f347f890f321"}},{"resource":{"resourceType":"MedicationDispense","id":"b1a652f0-cc28-4f85-a40e-0931229fa9eb","meta":{"profile":["http://hl7.org/fhir/us/qicore/StructureDefinition/qicore-medicationdispense"]},"status":"completed","medicationCodeableConcept":{"coding":[{"system":"http://www.nlm.nih.gov/research/umls/rxnorm","code":"1099316","display":"desipramine hydrochloride 75 MG Oral Tablet"}]},"subject":{"reference":"Patient/b4cd38ff-6828-49bc-b8e6-d4a24b9624b1"},"daysSupply":{"value":10,"system":"http://unitsofmeasure.org","code":"days"},"whenHandedOver":"2026-01-01T01:00:00.000Z"},"request":{"method":"PUT","url":"MedicationDispense/b1a652f0-cc28-4f85-a40e-0931229fa9eb"}},{"resource":{"resourceType":"Patient","id":"b4cd38ff-6828-49bc-b8e6-d4a24b9624b1","meta":{"profile":["http://hl7.org/fhir/us/qicore/StructureDefinition/qicore-patient"]},"extension":[{"url":"http://hl7.org/fhir/us/core/StructureDefinition/us-core-race","extension":[{"url":"ombCategory","valueCoding":{"system":"urn:oid:2.16.840.1.113883.6.238","code":"2028-9","display":"Asian","userSelected":true}},{"url":"text","valueString":"Asian"}]},{"url":"http://hl7.org/fhir/us/core/StructureDefinition/us-core-ethnicity","extension":[{"url":"ombCategory","valueCoding":{"system":"urn:oid:2.16.840.1.113883.6.238","code":"2135-2","display":"Hispanic or Latino","userSelected":true}},{"url":"text","valueString":"Hispanic or Latino"}]}],"identifier":[{"type":{"coding":[{"system":"http://terminology.hl7.org/CodeSystem/v2-0203","code":"MR"}]},"system":"http://hospital.smarthealthit.org","value":"999999995"}],"name":[{"family":"Bertha","given":["Betty"]}],"gender":"male","birthDate":"2008-01-01"},"request":{"method":"PUT","url":"Patient/b4cd38ff-6828-49bc-b8e6-d4a24b9624b1"}},{"resource":{"resourceType":"Condition","id":"ed29c7f8-8faa-427e-811d-1f276ce4fcfe","meta":{"profile":["http://hl7.org/fhir/us/qicore/StructureDefinition/qicore-condition-encounter-diagnosis"]},"clinicalStatus":{"coding":[{"system":"http://terminology.hl7.org/CodeSystem/condition-clinical","code":"active"}]},"category":[{"coding":[{"system":"http://terminology.hl7.org/CodeSystem/condition-category","code":"problem-list-item","display":"Problem List Item"}]}],"code":{"coding":[{"system":"http://snomed.info/sct","code":"15193003","display":"Severe recurrent major depression with psychotic features, mood-incongruent (disorder)"}]},"subject":{"reference":"Patient/b4cd38ff-6828-49bc-b8e6-d4a24b9624b1"},"onsetDateTime":"2026-01-01T01:00:00.000Z"},"request":{"method":"PUT","url":"Condition/ed29c7f8-8faa-427e-811d-1f276ce4fcfe"}},{"resource":{"resourceType":"MedicationDispense","id":"ae261b51-668a-4358-bb89-0e0a297f1716","meta":{"profile":["http://hl7.org/fhir/us/qicore/StructureDefinition/qicore-medicationdispense"]},"status":"completed","medicationCodeableConcept":{"coding":[{"system":"http://www.nlm.nih.gov/research/umls/rxnorm","code":"1099316","display":"desipramine hydrochloride 75 MG Oral Tablet"}]},"subject":{"reference":"Patient/b4cd38ff-6828-49bc-b8e6-d4a24b9624b1"},"daysSupply":{"value":10,"system":"http://unitsofmeasure.org","code":"days"},"whenHandedOver":"2026-03-01T01:00:00.000Z"},"request":{"method":"PUT","url":"MedicationDispense/ae261b51-668a-4358-bb89-0e0a297f1716"}},{"resource":{"resourceType":"Patient","id":"0b61ffb2-9d2d-4eb4-a208-f34f74824543","meta":{"profile":["http://hl7.org/fhir/us/qicore/StructureDefinition/qicore-patient"]},"extension":[{"url":"http://hl7.org/fhir/us/core/StructureDefinition/us-core-race","extension":[{"url":"ombCategory","valueCoding":{"system":"urn:oid:2.16.840.1.113883.6.238","code":"2028-9","display":"Asian","userSelected":true}},{"url":"text","valueString":"Asian"}]},{"url":"http://hl7.org/fhir/us/core/StructureDefinition/us-core-ethnicity","extension":[{"url":"ombCategory","valueCoding":{"system":"urn:oid:2.16.840.1.113883.6.238","code":"2135-2","display":"Hispanic or Latino","userSelected":true}},{"url":"text","valueString":"Hispanic or Latino"}]}],"identifier":[{"type":{"coding":[{"system":"http://terminology.hl7.org/CodeSystem/v2-0203","code":"MR"}]},"system":"http://hospital.smarthealthit.org","value":"999999995"}],"name":[{"family":"Bertha","given":["Betty"]}],"gender":"male","birthDate":"2007-01-01"},"request":{"method":"PUT","url":"Patient/0b61ffb2-9d2d-4eb4-a208-f34f74824543"}},{"resource":{"resourceType":"Condition","id":"b1ca58ca-aecf-4968-a058-ba6dae59dc8e","meta":{"profile":["http://hl7.org/fhir/us/qicore/StructureDefinition/qicore-condition-encounter-diagnosis"]},"clinicalStatus":{"coding":[{"system":"http://terminology.hl7.org/CodeSystem/condition-clinical","code":"active"}]},"category":[{"coding":[{"system":"http://terminology.hl7.org/CodeSystem/condition-category","code":"problem-list-item","display":"Problem List Item"}]}],"code":{"coding":[{"system":"http://snomed.info/sct","code":"15193003","display":"Severe recurrent major depression with psychotic features, mood-incongruent (disorder)"}]},"subject":{"reference":"Patient/0b61ffb2-9d2d-4eb4-a208-f34f74824543"},"onsetDateTime":"2026-01-01T01:00:00.000Z"},"request":{"method":"PUT","url":"Condition/b1ca58ca-aecf-4968-a058-ba6dae59dc8e"}},{"resource":{"resourceType":"MedicationDispense","id":"520f4f0e-f1d3-401d-b5e7-37afcf39f4e8","meta":{"profile":["http://hl7.org/fhir/us/qicore/StructureDefinition/qicore-medicationdispense"]},"status":"completed","medicationCodeableConcept":{"coding":[{"system":"http://www.nlm.nih.gov/research/umls/rxnorm","code":"1099316","display":"desipramine hydrochloride 75 MG Oral Tablet"}]},"subject":{"reference":"Patient/0b61ffb2-9d2d-4eb4-a208-f34f74824543"},"daysSupply":{"value":10,"system":"http://unitsofmeasure.org","code":"days"},"whenHandedOver":"2026-01-01T01:00:00.000Z"},"request":{"method":"PUT","url":"MedicationDispense/520f4f0e-f1d3-401d-b5e7-37afcf39f4e8"}},{"resource":{"resourceType":"Encounter","id":"1a2ff5b6-64ad-4947-9761-313eaee38f8b","meta":{"profile":["http://hl7.org/fhir/us/qicore/StructureDefinition/qicore-encounter"]},"status":"finished","class":{"system":"http://terminology.hl7.org/CodeSystem/v3-ActCode","code":"AMB","display":"ambulatory"},"type":[{"coding":[{"system":"http://www.ama-assn.org/go/cpt","code":"99315","display":"Nursing facility discharge management; 30 minutes or less total time on the date of the encounter"}]}],"subject":{"reference":"Patient/0b61ffb2-9d2d-4eb4-a208-f34f74824543"},"period":{"start":"2026-01-01T00:00:00.000Z","end":"2026-01-01T01:00:00.000Z"}},"request":{"method":"PUT","url":"Encounter/1a2ff5b6-64ad-4947-9761-313eaee38f8b"}},{"resource":{"resourceType":"MeasureReport","id":"358ce1fc-8ffe-45e9-8cc2-94bfb82150b5","meta":{"profile":["http://hl7.org/fhir/us/cqfmeasures/StructureDefinition/test-case-cqfm"]},"contained":[{"resourceType":"Parameters","id":"1ed8c76c-2b1c-4282-b10b-7a3dd697dd29-parameters","parameter":[{"name":"subject","valueString":"0b61ffb2-9d2d-4eb4-a208-f34f74824543"}]}],"extension":[{"url":"http://hl7.org/fhir/StructureDefinition/cqf-inputParameters","valueReference":{"reference":"#1ed8c76c-2b1c-4282-b10b-7a3dd697dd29-parameters"}},{"url":"http://hl7.org/fhir/us/cqfmeasures/StructureDefinition/cqfm-testCaseDescription","valueMarkdown":"Qualifying encounter is nursing facility visit"}],"modifierExtension":[{"url":"http://hl7.org/fhir/us/cqfmeasures/StructureDefinition/cqfm-isTestCase","valueBoolean":true}],"status":"complete","type":"individual","measure":"https://madie.cms.gov/Measure/CMS128FHIRAntidepressantMedManagement","period":{"start":"2026-01-01","end":"2026-12-31"},"group":[{"id":"Group_1","population":[{"id":"InitialPopulation_1","code":{"coding":[{"system":"http://terminology.hl7.org/CodeSystem/measure-population","code":"initial-population","display":"Initial Population"}]},"count":1},{"id":"Denominator_1","code":{"coding":[{"system":"http://terminology.hl7.org/CodeSystem/measure-population","code":"denominator","display":"Denominator"}]},"count":1},{"id":"DenominatorExclusion_1","code":{"coding":[{"system":"http://terminology.hl7.org/CodeSystem/measure-population","code":"denominator-exclusion","display":"Denominator Exclusion"}]},"count":0},{"id":"Numerator_1","code":{"coding":[{"system":"http://terminology.hl7.org/CodeSystem/measure-population","code":"numerator","display":"Numerator"}]},"count":0}],"measureScore":{"value":1.0}},{"id":"Group_2","population":[{"id":"InitialPopulation_2","code":{"coding":[{"system":"http://terminology.hl7.org/CodeSystem/measure-population","code":"initial-population","display":"Initial Population"}]},"count":1},{"id":"Denominator_2","code":{"coding":[{"system":"http://terminology.hl7.org/CodeSystem/measure-population","code":"denominator","display":"Denominator"}]},"count":1},{"id":"DenominatorExclusion_2","code":{"coding":[{"system":"http://terminology.hl7.org/CodeSystem/measure-population","code":"denominator-exclusion","display":"Denominator Exclusion"}]},"count":0},{"id":"Numerator_2","code":{"coding":[{"system":"http://terminology.hl7.org/CodeSystem/measure-population","code":"numerator","display":"Numerator"}]},"count":0}],"measureScore":{"value":1.0}}],"evaluatedResource":[{"reference":"Patient/0b61ffb2-9d2d-4eb4-a208-f34f74824543"},{"reference":"Encounter/1a2ff5b6-64ad-4947-9761-313eaee38f8b"},{"reference":"MedicationDispense/520f4f0e-f1d3-401d-b5e7-37afcf39f4e8"},{"reference":"MedicationDispense/439d4549-3b38-4cd7-8884-99728468f448"},{"reference":"Condition/b1ca58ca-aecf-4968-a058-ba6dae59dc8e"}]},"request":{"method":"PUT","url":"MeasureReport/358ce1fc-8ffe-45e9-8cc2-94bfb82150b5"}},{"resource":{"resourceType":"MedicationDispense","id":"439d4549-3b38-4cd7-8884-99728468f448","meta":{"profile":["http://hl7.org/fhir/us/qicore/StructureDefinition/qicore-medicationdispense"]},"status":"completed","medicationCodeableConcept":{"coding":[{"system":"http://www.nlm.nih.gov/research/umls/rxnorm","code":"1099316","display":"desipramine hydrochloride 75 MG Oral Tablet"}]},"subject":{"reference":"Patient/0b61ffb2-9d2d-4eb4-a208-f34f74824543"},"daysSupply":{"value":10,"system":"http://unitsofmeasure.org","code":"days"},"whenHandedOver":"2026-03-01T01:00:00.000Z"},"request":{"method":"PUT","url":"MedicationDispense/439d4549-3b38-4cd7-8884-99728468f448"}},{"resource":{"resourceType":"Condition","id":"c0f1c2fe-e388-4275-8e25-686d6cc93445","meta":{"profile":["http://hl7.org/fhir/us/qicore/StructureDefinition/qicore-condition-encounter-diagnosis"]},"clinicalStatus":{"coding":[{"system":"http://terminology.hl7.org/CodeSystem/condition-clinical","code":"active"}]},"category":[{"coding":[{"system":"http://terminology.hl7.org/CodeSystem/condition-category","code":"problem-list-item","display":"Problem List Item"}]}],"code":{"coding":[{"system":"http://snomed.info/sct","code":"15193003","display":"Severe recurrent major depression with psychotic features, mood-incongruent (disorder)"}]},"subject":{"reference":"Patient/62ea0c3d-46da-48a1-87dd-d1927ed2df75"},"onsetDateTime":"2026-01-01T01:00:00.000Z"},"request":{"method":"PUT","url":"Condition/c0f1c2fe-e388-4275-8e25-686d6cc93445"}},{"resource":{"resourceType":"MedicationDispense","id":"feb28801-b4ae-4797-8a22-5efee165e292","meta":{"profile":["http://hl7.org/fhir/us/qicore/StructureDefinition/qicore-medicationdispense"]},"status":"completed","medicationCodeableConcept":{"coding":[{"system":"http://www.nlm.nih.gov/research/umls/rxnorm","code":"1099316","display":"desipramine hydrochloride 75 MG Oral Tablet"}]},"subject":{"reference":"Patient/62ea0c3d-46da-48a1-87dd-d1927ed2df75"},"daysSupply":{"value":10,"system":"http://unitsofmeasure.org","code":"days"},"whenHandedOver":"2026-01-01T01:00:00.000Z"},"request":{"method":"PUT","url":"MedicationDispense/feb28801-b4ae-4797-8a22-5efee165e292"}},{"resource":{"resourceType":"Patient","id":"62ea0c3d-46da-48a1-87dd-d1927ed2df75","meta":{"profile":["http://hl7.org/fhir/us/qicore/StructureDefinition/qicore-patient"]},"extension":[{"url":"http://hl7.org/fhir/us/core/StructureDefinition/us-core-race","extension":[{"url":"ombCategory","valueCoding":{"system":"urn:oid:2.16.840.1.113883.6.238","code":"2028-9","display":"Asian","userSelected":true}},{"url":"text","valueString":"Asian"}]},{"url":"http://hl7.org/fhir/us/core/StructureDefinition/us-core-ethnicity","extension":[{"url":"ombCategory","valueCoding":{"system":"urn:oid:2.16.840.1.113883.6.238","code":"2135-2","display":"Hispanic or Latino","userSelected":true}},{"url":"text","valueString":"Hispanic or Latino"}]}],"identifier":[{"type":{"coding":[{"system":"http://terminology.hl7.org/CodeSystem/v2-0203","code":"MR"}]},"system":"http://hospital.smarthealthit.org","value":"999999995"}],"name":[{"family":"Bertha","given":["Betty"]}],"gender":"male","birthDate":"2007-01-01"},"request":{"method":"PUT","url":"Patient/62ea0c3d-46da-48a1-87dd-d1927ed2df75"}},{"resource":{"resourceType":"MedicationDispense","id":"a0ef9fe3-5ee7-497f-9045-4b770d142a6a","meta":{"profile":["http://hl7.org/fhir/us/qicore/StructureDefinition/qicore-medicationdispense"]},"status":"completed","medicationCodeableConcept":{"coding":[{"system":"http://www.nlm.nih.gov/research/umls/rxnorm","code":"1099316","display":"desipramine hydrochloride 75 MG Oral Tablet"}]},"subject":{"reference":"Patient/62ea0c3d-46da-48a1-87dd-d1927ed2df75"},"daysSupply":{"value":10,"system":"http://unitsofmeasure.org","code":"days"},"whenHandedOver":"2026-03-01T01:00:00.000Z"},"request":{"method":"PUT","url":"MedicationDispense/a0ef9fe3-5ee7-497f-9045-4b770d142a6a"}},{"resource":{"resourceType":"MeasureReport","id":"2b69eef4-1cd6-4a3a-bd7d-04dbea04030d","meta":{"profile":["http://hl7.org/fhir/us/cqfmeasures/StructureDefinition/test-case-cqfm"]},"contained":[{"resourceType":"Parameters","id":"8a5056a5-8109-46d2-8095-0af064695296-parameters","parameter":[{"name":"subject","valueString":"62ea0c3d-46da-48a1-87dd-d1927ed2df75"}]}],"extension":[{"url":"http://hl7.org/fhir/StructureDefinition/cqf-inputParameters","valueReference":{"reference":"#8a5056a5-8109-46d2-8095-0af064695296-parameters"}},{"url":"http://hl7.org/fhir/us/cqfmeasures/StructureDefinition/cqfm-testCaseDescription","valueMarkdown":"Hospice service request during the MP"}],"modifierExtension":[{"url":"http://hl7.org/fhir/us/cqfmeasures/StructureDefinition/cqfm-isTestCase","valueBoolean":true}],"status":"complete","type":"individual","measure":"https://madie.cms.gov/Measure/CMS128FHIRAntidepressantMedManagement","period":{"start":"2026-01-01","end":"2026-12-31"},"group":[{"id":"Group_1","population":[{"id":"InitialPopulation_1","code":{"coding":[{"system":"http://terminology.hl7.org/CodeSystem/measure-population","code":"initial-population","display":"Initial Population"}]},"count":1},{"id":"Denominator_1","code":{"coding":[{"system":"http://terminology.hl7.org/CodeSystem/measure-population","code":"denominator","display":"Denominator"}]},"count":1},{"id":"DenominatorExclusion_1","code":{"coding":[{"system":"http://terminology.hl7.org/CodeSystem/measure-population","code":"denominator-exclusion","display":"Denominator Exclusion"}]},"count":1},{"id":"Numerator_1","code":{"coding":[{"system":"http://terminology.hl7.org/CodeSystem/measure-population","code":"numerator","display":"Numerator"}]},"count":0}],"measureScore":{"value":1.0}},{"id":"Group_2","population":[{"id":"InitialPopulation_2","code":{"coding":[{"system":"http://terminology.hl7.org/CodeSystem/measure-population","code":"initial-population","display":"Initial Population"}]},"count":1},{"id":"Denominator_2","code":{"coding":[{"system":"http://terminology.hl7.org/CodeSystem/measure-population","code":"denominator","display":"Denominator"}]},"count":1},{"id":"DenominatorExclusion_2","code":{"coding":[{"system":"http://terminology.hl7.org/CodeSystem/measure-population","code":"denominator-exclusion","display":"Denominator Exclusion"}]},"count":1},{"id":"Numerator_2","code":{"coding":[{"system":"http://terminology.hl7.org/CodeSystem/measure-population","code":"numerator","display":"Numerator"}]},"count":0}],"measureScore":{"value":1.0}}],"evaluatedResource":[{"reference":"Patient/62ea0c3d-46da-48a1-87dd-d1927ed2df75"},{"reference":"Encounter/fd87b496-98da-46be-b0e9-28d30110289f"},{"reference":"MedicationDispense/feb28801-b4ae-4797-8a22-5efee165e292"},{"reference":"MedicationDispense/a0ef9fe3-5ee7-497f-9045-4b770d142a6a"},{"reference":"Condition/c0f1c2fe-e388-4275-8e25-686d6cc93445"},{"reference":"ServiceRequest/38d38ca6-af62-4b53-b236-42febf736d30"}]},"request":{"method":"PUT","url":"MeasureReport/2b69eef4-1cd6-4a3a-bd7d-04dbea04030d"}},{"resource":{"resourceType":"ServiceRequest","id":"38d38ca6-af62-4b53-b236-42febf736d30","meta":{"profile":["http://hl7.org/fhir/us/qicore/StructureDefinition/qicore-servicerequest"]},"status":"completed","intent":"order","category":[{"coding":[{"system":"http://snomed.info/sct","code":"387713003","display":"Surgical procedure"}]}],"priority":"routine","code":{"coding":[{"system":"http://snomed.info/sct","code":"385763009","display":"Hospice care (regime/therapy)"}]},"subject":{"reference":"Patient/62ea0c3d-46da-48a1-87dd-d1927ed2df75"},"authoredOn":"2026-01-02T00:00:00.000Z","performerType":{"coding":[{"system":"http://snomed.info/sct","code":"405279007","display":"Attending physician (occupation)"}]}},"request":{"method":"PUT","url":"ServiceRequest/38d38ca6-af62-4b53-b236-42febf736d30"}},{"resource":{"resourceType":"Encounter","id":"fd87b496-98da-46be-b0e9-28d30110289f","meta":{"profile":["http://hl7.org/fhir/us/qicore/StructureDefinition/qicore-encounter"]},"status":"finished","class":{"system":"http://terminology.hl7.org/CodeSystem/v3-ActCode","code":"AMB","display":"ambulatory"},"type":[{"coding":[{"system":"http://snomed.info/sct","code":"3391000175108","display":"Office visit for pediatric care and assessment (procedure)"}]}],"subject":{"reference":"Patient/62ea0c3d-46da-48a1-87dd-d1927ed2df75"},"period":{"start":"2026-01-01T00:00:00.000Z","end":"2026-01-01T01:00:00.000Z"}},"request":{"method":"PUT","url":"Encounter/fd87b496-98da-46be-b0e9-28d30110289f"}},{"resource":{"resourceType":"MedicationDispense","id":"dd45827b-495c-4e54-bb80-9bf415ffa585","meta":{"profile":["http://hl7.org/fhir/us/qicore/StructureDefinition/qicore-medicationdispense"]},"status":"completed","medicationCodeableConcept":{"coding":[{"system":"http://www.nlm.nih.gov/research/umls/rxnorm","code":"1099316","display":"desipramine hydrochloride 75 MG Oral Tablet"}]},"subject":{"reference":"Patient/a3733b4f-0049-45cf-8b30-3e56ec3d5301"},"daysSupply":{"value":10,"system":"http://unitsofmeasure.org","code":"days"},"whenHandedOver":"2026-03-01T01:00:00.000Z"},"request":{"method":"PUT","url":"MedicationDispense/dd45827b-495c-4e54-bb80-9bf415ffa585"}},{"resource":{"resourceType":"MedicationDispense","id":"ab0cf95c-bb5c-41e8-9303-d2c8185f36b1","meta":{"profile":["http://hl7.org/fhir/us/qicore/StructureDefinition/qicore-medicationdispense"]},"status":"completed","medicationCodeableConcept":{"coding":[{"system":"http://www.nlm.nih.gov/research/umls/rxnorm","code":"1099316","display":"desipramine hydrochloride 75 MG Oral Tablet"}]},"subject":{"reference":"Patient/a3733b4f-0049-45cf-8b30-3e56ec3d5301"},"daysSupply":{"value":10,"system":"http://unitsofmeasure.org","code":"days"},"whenHandedOver":"2026-01-01T01:00:00.000Z"},"request":{"method":"PUT","url":"MedicationDispense/ab0cf95c-bb5c-41e8-9303-d2c8185f36b1"}},{"resource":{"resourceType":"Condition","id":"99109ea5-993e-442e-af49-b0a606e18ac3","meta":{"profile":["http://hl7.org/fhir/us/qicore/StructureDefinition/qicore-condition-encounter-diagnosis"]},"clinicalStatus":{"coding":[{"system":"http://terminology.hl7.org/CodeSystem/condition-clinical","code":"active"}]},"category":[{"coding":[{"system":"http://terminology.hl7.org/CodeSystem/condition-category","code":"problem-list-item","display":"Problem List Item"}]}],"code":{"coding":[{"system":"http://snomed.info/sct","code":"15193003","display":"Severe recurrent major depression with psychotic features, mood-incongruent (disorder)"}]},"subject":{"reference":"Patient/a3733b4f-0049-45cf-8b30-3e56ec3d5301"},"onsetDateTime":"2026-01-01T01:00:00.000Z"},"request":{"method":"PUT","url":"Condition/99109ea5-993e-442e-af49-b0a606e18ac3"}},{"resource":{"resourceType":"Patient","id":"a3733b4f-0049-45cf-8b30-3e56ec3d5301","meta":{"profile":["http://hl7.org/fhir/us/qicore/StructureDefinition/qicore-patient"]},"extension":[{"url":"http://hl7.org/fhir/us/core/StructureDefinition/us-core-race","extension":[{"url":"ombCategory","valueCoding":{"system":"urn:oid:2.16.840.1.113883.6.238","code":"2028-9","display":"Asian","userSelected":true}},{"url":"text","valueString":"Asian"}]},{"url":"http://hl7.org/fhir/us/core/StructureDefinition/us-core-ethnicity","extension":[{"url":"ombCategory","valueCoding":{"system":"urn:oid:2.16.840.1.113883.6.238","code":"2135-2","display":"Hispanic or Latino","userSelected":true}},{"url":"text","valueString":"Hispanic or Latino"}]}],"identifier":[{"type":{"coding":[{"system":"http://terminology.hl7.org/CodeSystem/v2-0203","code":"MR"}]},"system":"http://hospital.smarthealthit.org","value":"999999995"}],"name":[{"family":"Bertha","given":["Betty"]}],"gender":"male","birthDate":"2007-01-01"},"request":{"method":"PUT","url":"Patient/a3733b4f-0049-45cf-8b30-3e56ec3d5301"}},{"resource":{"resourceType":"MeasureReport","id":"7edd892c-6af8-4a05-9158-53ad6c725bd1","meta":{"profile":["http://hl7.org/fhir/us/cqfmeasures/StructureDefinition/test-case-cqfm"]},"contained":[{"resourceType":"Parameters","id":"02ea67e3-a9c1-4118-95bf-8edf6ff477db-parameters","parameter":[{"name":"subject","valueString":"a3733b4f-0049-45cf-8b30-3e56ec3d5301"}]}],"extension":[{"url":"http://hl7.org/fhir/StructureDefinition/cqf-inputParameters","valueReference":{"reference":"#02ea67e3-a9c1-4118-95bf-8edf6ff477db-parameters"}},{"url":"http://hl7.org/fhir/us/cqfmeasures/StructureDefinition/cqfm-testCaseDescription","valueMarkdown":"Qualifying encounter is Home Healthcare Services"}],"modifierExtension":[{"url":"http://hl7.org/fhir/us/cqfmeasures/StructureDefinition/cqfm-isTestCase","valueBoolean":true}],"status":"complete","type":"individual","measure":"https://madie.cms.gov/Measure/CMS128FHIRAntidepressantMedManagement","period":{"start":"2026-01-01","end":"2026-12-31"},"group":[{"id":"Group_1","population":[{"id":"InitialPopulation_1","code":{"coding":[{"system":"http://terminology.hl7.org/CodeSystem/measure-population","code":"initial-population","display":"Initial Population"}]},"count":1},{"id":"Denominator_1","code":{"coding":[{"system":"http://terminology.hl7.org/CodeSystem/measure-population","code":"denominator","display":"Denominator"}]},"count":1},{"id":"DenominatorExclusion_1","code":{"coding":[{"system":"http://terminology.hl7.org/CodeSystem/measure-population","code":"denominator-exclusion","display":"Denominator Exclusion"}]},"count":0},{"id":"Numerator_1","code":{"coding":[{"system":"http://terminology.hl7.org/CodeSystem/measure-population","code":"numerator","display":"Numerator"}]},"count":0}],"measureScore":{"value":1.0}},{"id":"Group_2","population":[{"id":"InitialPopulation_2","code":{"coding":[{"system":"http://terminology.hl7.org/CodeSystem/measure-population","code":"initial-population","display":"Initial Population"}]},"count":1},{"id":"Denominator_2","code":{"coding":[{"system":"http://terminology.hl7.org/CodeSystem/measure-population","code":"denominator","display":"Denominator"}]},"count":1},{"id":"DenominatorExclusion_2","code":{"coding":[{"system":"http://terminology.hl7.org/CodeSystem/measure-population","code":"denominator-exclusion","display":"Denominator Exclusion"}]},"count":0},{"id":"Numerator_2","code":{"coding":[{"system":"http://terminology.hl7.org/CodeSystem/measure-population","code":"numerator","display":"Numerator"}]},"count":0}],"measureScore":{"value":1.0}}],"evaluatedResource":[{"reference":"Patient/a3733b4f-0049-45cf-8b30-3e56ec3d5301"},{"reference":"Encounter/07908e5f-7f22-4869-89a9-0ad08f8ead95"},{"reference":"MedicationDispense/ab0cf95c-bb5c-41e8-9303-d2c8185f36b1"},{"reference":"MedicationDispense/dd45827b-495c-4e54-bb80-9bf415ffa585"},{"reference":"Condition/99109ea5-993e-442e-af49-b0a606e18ac3"}]},"request":{"method":"PUT","url":"MeasureReport/7edd892c-6af8-4a05-9158-53ad6c725bd1"}},{"resource":{"resourceType":"Encounter","id":"07908e5f-7f22-4869-89a9-0ad08f8ead95","meta":{"profile":["http://hl7.org/fhir/us/qicore/StructureDefinition/qicore-encounter"]},"status":"finished","class":{"system":"http://terminology.hl7.org/CodeSystem/v3-ActCode","code":"AMB","display":"ambulatory"},"type":[{"coding":[{"system":"http://snomed.info/sct","code":"698704008","display":"Home visit for rheumatology service (procedure)"}]}],"subject":{"reference":"Patient/a3733b4f-0049-45cf-8b30-3e56ec3d5301"},"period":{"start":"2026-01-01T00:00:00.000Z","end":"2026-01-01T01:00:00.000Z"}},"request":{"method":"PUT","url":"Encounter/07908e5f-7f22-4869-89a9-0ad08f8ead95"}},{"resource":{"resourceType":"MedicationDispense","id":"3f9ec18c-3430-462c-92ec-7cf07080fa94","meta":{"profile":["http://hl7.org/fhir/us/qicore/StructureDefinition/qicore-medicationdispense"]},"status":"completed","medicationCodeableConcept":{"coding":[{"system":"http://www.nlm.nih.gov/research/umls/rxnorm","code":"1099316","display":"desipramine hydrochloride 75 MG Oral Tablet"}]},"subject":{"reference":"Patient/40ed567d-9ecf-4bf8-b552-be9b87a6834d"},"daysSupply":{"value":10,"system":"http://unitsofmeasure.org","code":"days"},"whenHandedOver":"2026-03-01T01:00:00.000Z"},"request":{"method":"PUT","url":"MedicationDispense/3f9ec18c-3430-462c-92ec-7cf07080fa94"}},{"resource":{"resourceType":"Encounter","id":"56752591-8631-4f11-8d2c-061db6eeffb2","meta":{"profile":["http://hl7.org/fhir/us/qicore/StructureDefinition/qicore-encounter"]},"status":"finished","class":{"system":"http://terminology.hl7.org/CodeSystem/v3-ActCode","code":"AMB","display":"ambulatory"},"type":[{"coding":[{"system":"http://www.ama-assn.org/go/cpt","code":"99385","display":"Initial comprehensive preventive medicine evaluation and management of an individual including an age and gender appropriate history, examination, counseling/anticipatory guidance/risk factor reduction interventions, and the ordering of laboratory/diagnostic procedures, new patient; 18-39 years"}]}],"subject":{"reference":"Patient/40ed567d-9ecf-4bf8-b552-be9b87a6834d"},"period":{"start":"2026-01-01T00:00:00.000Z","end":"2026-01-01T01:00:00.000Z"}},"request":{"method":"PUT","url":"Encounter/56752591-8631-4f11-8d2c-061db6eeffb2"}},{"resource":{"resourceType":"Condition","id":"4c1a089a-f9cc-4654-9bdd-cd34d208804e","meta":{"profile":["http://hl7.org/fhir/us/qicore/StructureDefinition/qicore-condition-encounter-diagnosis"]},"clinicalStatus":{"coding":[{"system":"http://terminology.hl7.org/CodeSystem/condition-clinical","code":"active"}]},"category":[{"coding":[{"system":"http://terminology.hl7.org/CodeSystem/condition-category","code":"problem-list-item","display":"Problem List Item"}]}],"code":{"coding":[{"system":"http://snomed.info/sct","code":"15193003","display":"Severe recurrent major depression with psychotic features, mood-incongruent (disorder)"}]},"subject":{"reference":"Patient/40ed567d-9ecf-4bf8-b552-be9b87a6834d"},"onsetDateTime":"2026-01-01T01:00:00.000Z"},"request":{"method":"PUT","url":"Condition/4c1a089a-f9cc-4654-9bdd-cd34d208804e"}},{"resource":{"resourceType":"MedicationDispense","id":"e5ca8271-f053-4922-b2ad-f4f49accdf6a","meta":{"profile":["http://hl7.org/fhir/us/qicore/StructureDefinition/qicore-medicationdispense"]},"status":"completed","medicationCodeableConcept":{"coding":[{"system":"http://www.nlm.nih.gov/research/umls/rxnorm","code":"1099316","display":"desipramine hydrochloride 75 MG Oral Tablet"}]},"subject":{"reference":"Patient/40ed567d-9ecf-4bf8-b552-be9b87a6834d"},"daysSupply":{"value":10,"system":"http://unitsofmeasure.org","code":"days"},"whenHandedOver":"2026-01-01T01:00:00.000Z"},"request":{"method":"PUT","url":"MedicationDispense/e5ca8271-f053-4922-b2ad-f4f49accdf6a"}},{"resource":{"resourceType":"MeasureReport","id":"652e30bc-ec7a-45a1-9624-94cfc449e944","meta":{"profile":["http://hl7.org/fhir/us/cqfmeasures/StructureDefinition/test-case-cqfm"]},"contained":[{"resourceType":"Parameters","id":"8a1f87d7-c8a8-47c2-b9e3-e3b2c8ed7ac9-parameters","parameter":[{"name":"subject","valueString":"40ed567d-9ecf-4bf8-b552-be9b87a6834d"}]}],"extension":[{"url":"http://hl7.org/fhir/StructureDefinition/cqf-inputParameters","valueReference":{"reference":"#8a1f87d7-c8a8-47c2-b9e3-e3b2c8ed7ac9-parameters"}},{"url":"http://hl7.org/fhir/us/cqfmeasures/StructureDefinition/cqfm-testCaseDescription","valueMarkdown":"Qualifying encounter is Preventive Care Services Initial Office Visit, 18 and Up"}],"modifierExtension":[{"url":"http://hl7.org/fhir/us/cqfmeasures/StructureDefinition/cqfm-isTestCase","valueBoolean":true}],"status":"complete","type":"individual","measure":"https://madie.cms.gov/Measure/CMS128FHIRAntidepressantMedManagement","period":{"start":"2026-01-01","end":"2026-12-31"},"group":[{"id":"Group_1","population":[{"id":"InitialPopulation_1","code":{"coding":[{"system":"http://terminology.hl7.org/CodeSystem/measure-population","code":"initial-population","display":"Initial Population"}]},"count":1},{"id":"Denominator_1","code":{"coding":[{"system":"http://terminology.hl7.org/CodeSystem/measure-population","code":"denominator","display":"Denominator"}]},"count":1},{"id":"DenominatorExclusion_1","code":{"coding":[{"system":"http://terminology.hl7.org/CodeSystem/measure-population","code":"denominator-exclusion","display":"Denominator Exclusion"}]},"count":0},{"id":"Numerator_1","code":{"coding":[{"system":"http://terminology.hl7.org/CodeSystem/measure-population","code":"numerator","display":"Numerator"}]},"count":0}],"measureScore":{"value":1.0}},{"id":"Group_2","population":[{"id":"InitialPopulation_2","code":{"coding":[{"system":"http://terminology.hl7.org/CodeSystem/measure-population","code":"initial-population","display":"Initial Population"}]},"count":1},{"id":"Denominator_2","code":{"coding":[{"system":"http://terminology.hl7.org/CodeSystem/measure-population","code":"denominator","display":"Denominator"}]},"count":1},{"id":"DenominatorExclusion_2","code":{"coding":[{"system":"http://terminology.hl7.org/CodeSystem/measure-population","code":"denominator-exclusion","display":"Denominator Exclusion"}]},"count":0},{"id":"Numerator_2","code":{"coding":[{"system":"http://terminology.hl7.org/CodeSystem/measure-population","code":"numerator","display":"Numerator"}]},"count":0}],"measureScore":{"value":1.0}}],"evaluatedResource":[{"reference":"Patient/40ed567d-9ecf-4bf8-b552-be9b87a6834d"},{"reference":"Encounter/56752591-8631-4f11-8d2c-061db6eeffb2"},{"reference":"MedicationDispense/e5ca8271-f053-4922-b2ad-f4f49accdf6a"},{"reference":"MedicationDispense/3f9ec18c-3430-462c-92ec-7cf07080fa94"},{"reference":"Condition/4c1a089a-f9cc-4654-9bdd-cd34d208804e"}]},"request":{"method":"PUT","url":"MeasureReport/652e30bc-ec7a-45a1-9624-94cfc449e944"}},{"resource":{"resourceType":"Patient","id":"40ed567d-9ecf-4bf8-b552-be9b87a6834d","meta":{"profile":["http://hl7.org/fhir/us/qicore/StructureDefinition/qicore-patient"]},"extension":[{"url":"http://hl7.org/fhir/us/core/StructureDefinition/us-core-race","extension":[{"url":"ombCategory","valueCoding":{"system":"urn:oid:2.16.840.1.113883.6.238","code":"2028-9","display":"Asian","userSelected":true}},{"url":"text","valueString":"Asian"}]},{"url":"http://hl7.org/fhir/us/core/StructureDefinition/us-core-ethnicity","extension":[{"url":"ombCategory","valueCoding":{"system":"urn:oid:2.16.840.1.113883.6.238","code":"2135-2","display":"Hispanic or Latino","userSelected":true}},{"url":"text","valueString":"Hispanic or Latino"}]}],"identifier":[{"type":{"coding":[{"system":"http://terminology.hl7.org/CodeSystem/v2-0203","code":"MR"}]},"system":"http://hospital.smarthealthit.org","value":"999999995"}],"name":[{"family":"Bertha","given":["Betty"]}],"gender":"male","birthDate":"2007-01-01"},"request":{"method":"PUT","url":"Patient/40ed567d-9ecf-4bf8-b552-be9b87a6834d"}},{"resource":{"resourceType":"MeasureReport","id":"73eefafa-3ac8-4e7a-bce8-3f6da82bd409","meta":{"profile":["http://hl7.org/fhir/us/cqfmeasures/StructureDefinition/test-case-cqfm"]},"contained":[{"resourceType":"Parameters","id":"94026128-08b1-4a42-9806-d4a00041ddc3-parameters","parameter":[{"name":"subject","valueString":"778e804e-7356-400f-bc36-8d202d775509"}]}],"extension":[{"url":"http://hl7.org/fhir/StructureDefinition/cqf-inputParameters","valueReference":{"reference":"#94026128-08b1-4a42-9806-d4a00041ddc3-parameters"}},{"url":"http://hl7.org/fhir/us/cqfmeasures/StructureDefinition/cqfm-testCaseDescription","valueMarkdown":"Qualifying encounter is Psych Visit Psychotherapy"}],"modifierExtension":[{"url":"http://hl7.org/fhir/us/cqfmeasures/StructureDefinition/cqfm-isTestCase","valueBoolean":true}],"status":"complete","type":"individual","measure":"https://madie.cms.gov/Measure/CMS128FHIRAntidepressantMedManagement","period":{"start":"2026-01-01","end":"2026-12-31"},"group":[{"id":"Group_1","population":[{"id":"InitialPopulation_1","code":{"coding":[{"system":"http://terminology.hl7.org/CodeSystem/measure-population","code":"initial-population","display":"Initial Population"}]},"count":1},{"id":"Denominator_1","code":{"coding":[{"system":"http://terminology.hl7.org/CodeSystem/measure-population","code":"denominator","display":"Denominator"}]},"count":1},{"id":"DenominatorExclusion_1","code":{"coding":[{"system":"http://terminology.hl7.org/CodeSystem/measure-population","code":"denominator-exclusion","display":"Denominator Exclusion"}]},"count":0},{"id":"Numerator_1","code":{"coding":[{"system":"http://terminology.hl7.org/CodeSystem/measure-population","code":"numerator","display":"Numerator"}]},"count":0}],"measureScore":{"value":1.0}},{"id":"Group_2","population":[{"id":"InitialPopulation_2","code":{"coding":[{"system":"http://terminology.hl7.org/CodeSystem/measure-population","code":"initial-population","display":"Initial Population"}]},"count":1},{"id":"Denominator_2","code":{"coding":[{"system":"http://terminology.hl7.org/CodeSystem/measure-population","code":"denominator","display":"Denominator"}]},"count":1},{"id":"DenominatorExclusion_2","code":{"coding":[{"system":"http://terminology.hl7.org/CodeSystem/measure-population","code":"denominator-exclusion","display":"Denominator Exclusion"}]},"count":0},{"id":"Numerator_2","code":{"coding":[{"system":"http://terminology.hl7.org/CodeSystem/measure-population","code":"numerator","display":"Numerator"}]},"count":0}],"measureScore":{"value":1.0}}],"evaluatedResource":[{"reference":"Patient/778e804e-7356-400f-bc36-8d202d775509"},{"reference":"Encounter/46b0991a-5287-4eb6-9117-99b32b889278"},{"reference":"MedicationDispense/09c1c4df-d2f2-4c11-9f3a-088a518fff23"},{"reference":"MedicationDispense/3c3cebe0-abf5-40fe-b08b-0c7166da6032"},{"reference":"Condition/bc0b2439-20b3-4f86-8e63-ae482885f73e"}]},"request":{"method":"PUT","url":"MeasureReport/73eefafa-3ac8-4e7a-bce8-3f6da82bd409"}},{"resource":{"resourceType":"Encounter","id":"46b0991a-5287-4eb6-9117-99b32b889278","meta":{"profile":["http://hl7.org/fhir/us/qicore/StructureDefinition/qicore-encounter"]},"status":"finished","class":{"system":"http://terminology.hl7.org/CodeSystem/v3-ActCode","code":"AMB","display":"ambulatory"},"type":[{"coding":[{"system":"http://www.ama-assn.org/go/cpt","code":"90832","display":"Psychotherapy, 30 minutes with patient"}]}],"subject":{"reference":"Patient/778e804e-7356-400f-bc36-8d202d775509"},"period":{"start":"2026-01-01T00:00:00.000Z","end":"2026-01-01T01:00:00.000Z"}},"request":{"method":"PUT","url":"Encounter/46b0991a-5287-4eb6-9117-99b32b889278"}},{"resource":{"resourceType":"MedicationDispense","id":"09c1c4df-d2f2-4c11-9f3a-088a518fff23","meta":{"profile":["http://hl7.org/fhir/us/qicore/StructureDefinition/qicore-medicationdispense"]},"status":"completed","medicationCodeableConcept":{"coding":[{"system":"http://www.nlm.nih.gov/research/umls/rxnorm","code":"1099316","display":"desipramine hydrochloride 75 MG Oral Tablet"}]},"subject":{"reference":"Patient/778e804e-7356-400f-bc36-8d202d775509"},"daysSupply":{"value":10,"system":"http://unitsofmeasure.org","code":"days"},"whenHandedOver":"2026-01-01T01:00:00.000Z"},"request":{"method":"PUT","url":"MedicationDispense/09c1c4df-d2f2-4c11-9f3a-088a518fff23"}},{"resource":{"resourceType":"Patient","id":"778e804e-7356-400f-bc36-8d202d775509","meta":{"profile":["http://hl7.org/fhir/us/qicore/StructureDefinition/qicore-patient"]},"extension":[{"url":"http://hl7.org/fhir/us/core/StructureDefinition/us-core-race","extension":[{"url":"ombCategory","valueCoding":{"system":"urn:oid:2.16.840.1.113883.6.238","code":"2028-9","display":"Asian","userSelected":true}},{"url":"text","valueString":"Asian"}]},{"url":"http://hl7.org/fhir/us/core/StructureDefinition/us-core-ethnicity","extension":[{"url":"ombCategory","valueCoding":{"system":"urn:oid:2.16.840.1.113883.6.238","code":"2135-2","display":"Hispanic or Latino","userSelected":true}},{"url":"text","valueString":"Hispanic or Latino"}]}],"identifier":[{"type":{"coding":[{"system":"http://terminology.hl7.org/CodeSystem/v2-0203","code":"MR"}]},"system":"http://hospital.smarthealthit.org","value":"999999995"}],"name":[{"family":"Bertha","given":["Betty"]}],"gender":"male","birthDate":"2007-01-01"},"request":{"method":"PUT","url":"Patient/778e804e-7356-400f-bc36-8d202d775509"}},{"resource":{"resourceType":"Condition","id":"bc0b2439-20b3-4f86-8e63-ae482885f73e","meta":{"profile":["http://hl7.org/fhir/us/qicore/StructureDefinition/qicore-condition-encounter-diagnosis"]},"clinicalStatus":{"coding":[{"system":"http://terminology.hl7.org/CodeSystem/condition-clinical","code":"active"}]},"category":[{"coding":[{"system":"http://terminology.hl7.org/CodeSystem/condition-category","code":"problem-list-item","display":"Problem List Item"}]}],"code":{"coding":[{"system":"http://snomed.info/sct","code":"15193003","display":"Severe recurrent major depression with psychotic features, mood-incongruent (disorder)"}]},"subject":{"reference":"Patient/778e804e-7356-400f-bc36-8d202d775509"},"onsetDateTime":"2026-01-01T01:00:00.000Z"},"request":{"method":"PUT","url":"Condition/bc0b2439-20b3-4f86-8e63-ae482885f73e"}},{"resource":{"resourceType":"MedicationDispense","id":"3c3cebe0-abf5-40fe-b08b-0c7166da6032","meta":{"profile":["http://hl7.org/fhir/us/qicore/StructureDefinition/qicore-medicationdispense"]},"status":"completed","medicationCodeableConcept":{"coding":[{"system":"http://www.nlm.nih.gov/research/umls/rxnorm","code":"1099316","display":"desipramine hydrochloride 75 MG Oral Tablet"}]},"subject":{"reference":"Patient/778e804e-7356-400f-bc36-8d202d775509"},"daysSupply":{"value":10,"system":"http://unitsofmeasure.org","code":"days"},"whenHandedOver":"2026-03-01T01:00:00.000Z"},"request":{"method":"PUT","url":"MedicationDispense/3c3cebe0-abf5-40fe-b08b-0c7166da6032"}},{"resource":{"resourceType":"Measure","id":"CMS128FHIRAntidepressantMedManagement","meta":{"profile":["http://hl7.org/fhir/uv/crmi/StructureDefinition/crmi-shareablemeasure","http://hl7.org/fhir/us/cqfmeasures/StructureDefinition/computable-measure-cqfm","http://hl7.org/fhir/us/cqfmeasures/StructureDefinition/publishable-measure-cqfm","http://hl7.org/fhir/us/cqfmeasures/StructureDefinition/executable-measure-cqfm","http://hl7.org/fhir/us/cqfmeasures/StructureDefinition/cql-measure-cqfm","http://hl7.org/fhir/us/cqfmeasures/StructureDefinition/elm-measure-cqfm","http://hl7.org/fhir/us/cqfmeasures/StructureDefinition/proportion-measure-cqfm"]},"contained":[{"resourceType":"Library","id":"effective-data-requirements","extension":[{"url":"http://hl7.org/fhir/us/cqfmeasures/StructureDefinition/cqfm-directReferenceCode","valueCoding":{"system":"http://snomed.info/sct","code":"248153007","display":"Male (finding)"}},{"url":"http://hl7.org/fhir/us/cqfmeasures/StructureDefinition/cqfm-directReferenceCode","valueCoding":{"system":"http://snomed.info/sct","code":"248152002","display":"Female (finding)"}},{"url":"http://hl7.org/fhir/us/cqfmeasures/StructureDefinition/cqfm-directReferenceCode","valueCoding":{"system":"http://snomed.info/sct","code":"428361000124107","display":"Discharge to home for hospice care (procedure)"}},{"url":"http://hl7.org/fhir/us/cqfmeasures/StructureDefinition/cqfm-directReferenceCode","valueCoding":{"system":"http://snomed.info/sct","code":"428371000124100","display":"Discharge to healthcare facility for hospice care (procedure)"}},{"url":"http://hl7.org/fhir/us/cqfmeasures/StructureDefinition/cqfm-directReferenceCode","valueCoding":{"system":"http://loinc.org","code":"45755-6","display":"Hospice care [Minimum Data Set]"}},{"url":"http://hl7.org/fhir/us/cqfmeasures/StructureDefinition/cqfm-directReferenceCode","valueCoding":{"system":"http://snomed.info/sct","code":"373066001","display":"Yes (qualifier value)"}},{"url":"http://hl7.org/fhir/us/cqfmeasures/StructureDefinition/cqfm-logicDefinition","extension":[{"url":"libraryName","valueString":"SupplementalDataElements"},{"url":"name","valueString":"SDE Sex"},{"url":"statement","valueString":"define \"SDE Sex\":\n  case\n    when Patient.sex = '248153007' then \"Male (finding)\"\n    when Patient.sex = '248152002' then \"Female (finding)\"\n    else null\n  end"},{"url":"displaySequence","valueInteger":0}]},{"url":"http://hl7.org/fhir/us/cqfmeasures/StructureDefinition/cqfm-logicDefinition","extension":[{"url":"libraryName","valueString":"CMS128FHIRAntidepressantMedManagement"},{"url":"name","valueString":"SDE Sex"},{"url":"statement","valueString":"define \"SDE Sex\":\n  SDE.\"SDE Sex\""},{"url":"displaySequence","valueInteger":1}]},{"url":"http://hl7.org/fhir/us/cqfmeasures/StructureDefinition/cqfm-logicDefinition","extension":[{"url":"libraryName","valueString":"CMS128FHIRAntidepressantMedManagement"},{"url":"name","valueString":"May 1 of the Year Prior to the Measurement Period"},{"url":"statement","valueString":"define \"May 1 of the Year Prior to the Measurement Period\":\n  DateTime((year from start of \"Measurement Period\" - 1), 5, 1, 0, 0, 0, 0, 0)"},{"url":"displaySequence","valueInteger":2}]},{"url":"http://hl7.org/fhir/us/cqfmeasures/StructureDefinition/cqfm-logicDefinition","extension":[{"url":"libraryName","valueString":"CMS128FHIRAntidepressantMedManagement"},{"url":"name","valueString":"April 30 of the Measurement Period"},{"url":"statement","valueString":"define \"April 30 of the Measurement Period\":\n  DateTime((year from start of \"Measurement Period\"), 4, 30, 23, 59, 59, 0, 0)"},{"url":"displaySequence","valueInteger":3}]},{"url":"http://hl7.org/fhir/us/cqfmeasures/StructureDefinition/cqfm-logicDefinition","extension":[{"url":"libraryName","valueString":"CMS128FHIRAntidepressantMedManagement"},{"url":"name","valueString":"Intake Period"},{"url":"statement","valueString":"define \"Intake Period\":\n  Interval[\"May 1 of the Year Prior to the Measurement Period\", \"April 30 of the Measurement Period\"]"},{"url":"displaySequence","valueInteger":4}]},{"url":"http://hl7.org/fhir/us/cqfmeasures/StructureDefinition/cqfm-logicDefinition","extension":[{"url":"libraryName","valueString":"CMS128FHIRAntidepressantMedManagement"},{"url":"name","valueString":"IPSD"},{"url":"statement","valueString":"define \"IPSD\":\n  First((([MedicationDispense: \"Antidepressant Medication\"]).isMedicationDispensed()) Antidepressant\n      where start of Antidepressant.medicationDispensePeriod() in day of \"Intake Period\"\n      return {\n        AntidepressantDate: date from start of Antidepressant.medicationDispensePeriod()\n      }\n      sort by AntidepressantDate\n  ).AntidepressantDate"},{"url":"displaySequence","valueInteger":5}]},{"url":"http://hl7.org/fhir/us/cqfmeasures/StructureDefinition/cqfm-logicDefinition","extension":[{"url":"libraryName","valueString":"CMS128FHIRAntidepressantMedManagement"},{"url":"name","valueString":"Has IPSD and Major Depression Diagnosis"},{"url":"statement","valueString":"define \"Has IPSD and Major Depression Diagnosis\":\n  exists ( ( [ConditionProblemsHealthConcerns: \"Major Depression\"]\n      union [ConditionEncounterDiagnosis: \"Major Depression\"] ) MajorDepression\n      where \"IPSD\" is not null\n        and date from start of MajorDepression.prevalenceInterval ( ) within 60 days of \"IPSD\"\n  )"},{"url":"displaySequence","valueInteger":6}]},{"url":"http://hl7.org/fhir/us/cqfmeasures/StructureDefinition/cqfm-logicDefinition","extension":[{"url":"libraryName","valueString":"CMS128FHIRAntidepressantMedManagement"},{"url":"name","valueString":"Qualifying Encounters"},{"url":"statement","valueString":"define \"Qualifying Encounters\":\n  ( ( [Encounter: \"Office Visit\"]\n      union [Encounter: \"Preventive Care Services Established Office Visit, 18 and Up\"]\n      union [Encounter: \"Preventive Care Services Initial Office Visit, 18 and Up\"]\n      union [Encounter: \"Home Healthcare Services\"]\n      union [Encounter: \"Annual Wellness Visit\"]\n      union [Encounter: \"Nursing Facility Visit\"]\n      union [Encounter: \"Psych Visit Diagnostic Evaluation\"]\n      union [Encounter: \"Psych Visit Psychotherapy\"]\n      union [Encounter: \"Telephone Visits\"]\n      union [Encounter: \"Virtual Encounter\"]\n  ).isEncounterPerformed ( ) ) ValidEncounter\n    where date from start of ValidEncounter.period.toInterval ( ) within 60 days of \"IPSD\""},{"url":"displaySequence","valueInteger":7}]},{"url":"http://hl7.org/fhir/us/cqfmeasures/StructureDefinition/cqfm-logicDefinition","extension":[{"url":"libraryName","valueString":"CMS128FHIRAntidepressantMedManagement"},{"url":"name","valueString":"Initial Population"},{"url":"statement","valueString":"define \"Initial Population\":\n  AgeInYearsAt(date from \"IPSD\") >= 18\n    and \"Has IPSD and Major Depression Diagnosis\"\n    and exists \"Qualifying Encounters\""},{"url":"displaySequence","valueInteger":8}]},{"url":"http://hl7.org/fhir/us/cqfmeasures/StructureDefinition/cqfm-logicDefinition","extension":[{"url":"libraryName","valueString":"CMS128FHIRAntidepressantMedManagement"},{"url":"name","valueString":"Denominator"},{"url":"statement","valueString":"define \"Denominator\":\n  \"Initial Population\""},{"url":"displaySequence","valueInteger":9}]},{"url":"http://hl7.org/fhir/us/cqfmeasures/StructureDefinition/cqfm-logicDefinition","extension":[{"url":"libraryName","valueString":"CMS128FHIRAntidepressantMedManagement"},{"url":"name","valueString":"Antidepressant Medication Period Between IPSD and 114 Days After IPSD"},{"url":"statement","valueString":"define \"Antidepressant Medication Period Between IPSD and 114 Days After IPSD\":\n  ( ( [MedicationDispense: \"Antidepressant Medication\"] ).isMedicationDispensed ( ) ) Antidepressant\n    let MedicationPeriod: Antidepressant.medicationDispensePeriod ( )\n    return MedicationPeriod\n      intersect Interval[\"IPSD\", \"IPSD\" + 114 days]"},{"url":"displaySequence","valueInteger":10}]},{"url":"http://hl7.org/fhir/us/cqfmeasures/StructureDefinition/cqfm-logicDefinition","extension":[{"url":"libraryName","valueString":"CMS128FHIRAntidepressantMedManagement"},{"url":"name","valueString":"Cumulative Medication Duration Greater Than or Equal to 84 Days"},{"url":"statement","valueString":"define \"Cumulative Medication Duration Greater Than or Equal to 84 Days\":\n  ( \"Antidepressant Medication Period Between IPSD and 114 Days After IPSD\".cumulativeDuration ( ) ) >= 84"},{"url":"displaySequence","valueInteger":11}]},{"url":"http://hl7.org/fhir/us/cqfmeasures/StructureDefinition/cqfm-logicDefinition","extension":[{"url":"libraryName","valueString":"CMS128FHIRAntidepressantMedManagement"},{"url":"name","valueString":"Numerator 1"},{"url":"statement","valueString":"define \"Numerator 1\":\n  \"Cumulative Medication Duration Greater Than or Equal to 84 Days\""},{"url":"displaySequence","valueInteger":12}]},{"url":"http://hl7.org/fhir/us/cqfmeasures/StructureDefinition/cqfm-logicDefinition","extension":[{"url":"libraryName","valueString":"SupplementalDataElements"},{"url":"name","valueString":"SDE Payer"},{"url":"statement","valueString":"define \"SDE Payer\":\n  [Coverage: type in \"Payer Type\"] Payer\n    return {\n      code: Payer.type,\n      period: Payer.period\n    }"},{"url":"displaySequence","valueInteger":13}]},{"url":"http://hl7.org/fhir/us/cqfmeasures/StructureDefinition/cqfm-logicDefinition","extension":[{"url":"libraryName","valueString":"CMS128FHIRAntidepressantMedManagement"},{"url":"name","valueString":"SDE Payer"},{"url":"statement","valueString":"define \"SDE Payer\":\n  SDE.\"SDE Payer\""},{"url":"displaySequence","valueInteger":14}]},{"url":"http://hl7.org/fhir/us/cqfmeasures/StructureDefinition/cqfm-logicDefinition","extension":[{"url":"libraryName","valueString":"CMS128FHIRAntidepressantMedManagement"},{"url":"name","valueString":"Antidepressant Medication Period Between IPSD and 231 Days After IPSD"},{"url":"statement","valueString":"define \"Antidepressant Medication Period Between IPSD and 231 Days After IPSD\":\n  ( ( [MedicationDispense: \"Antidepressant Medication\"] ).isMedicationDispensed ( ) ) Antidepressant\n    let MedicationPeriod: Antidepressant.medicationDispensePeriod ( )\n    return MedicationPeriod\n      intersect Interval[\"IPSD\", \"IPSD\" + 231 days]"},{"url":"displaySequence","valueInteger":15}]},{"url":"http://hl7.org/fhir/us/cqfmeasures/StructureDefinition/cqfm-logicDefinition","extension":[{"url":"libraryName","valueString":"CMS128FHIRAntidepressantMedManagement"},{"url":"name","valueString":"Cumulative Medication Duration Greater Than or Equal to 180 Days"},{"url":"statement","valueString":"define \"Cumulative Medication Duration Greater Than or Equal to 180 Days\":\n  ( \"Antidepressant Medication Period Between IPSD and 231 Days After IPSD\".cumulativeDuration ( ) ) >= 180"},{"url":"displaySequence","valueInteger":16}]},{"url":"http://hl7.org/fhir/us/cqfmeasures/StructureDefinition/cqfm-logicDefinition","extension":[{"url":"libraryName","valueString":"CMS128FHIRAntidepressantMedManagement"},{"url":"name","valueString":"Numerator 2"},{"url":"statement","valueString":"define \"Numerator 2\":\n  \"Cumulative Medication Duration Greater Than or Equal to 180 Days\""},{"url":"displaySequence","valueInteger":17}]},{"url":"http://hl7.org/fhir/us/cqfmeasures/StructureDefinition/cqfm-logicDefinition","extension":[{"url":"libraryName","valueString":"CMS128FHIRAntidepressantMedManagement"},{"url":"name","valueString":"Initial Population"},{"url":"statement","valueString":"define \"Initial Population\":\n  AgeInYearsAt(date from \"IPSD\") >= 18\n    and \"Has IPSD and Major Depression Diagnosis\"\n    and exists \"Qualifying Encounters\""},{"url":"displaySequence","valueInteger":18}]},{"url":"http://hl7.org/fhir/us/cqfmeasures/StructureDefinition/cqfm-logicDefinition","extension":[{"url":"libraryName","valueString":"SupplementalDataElements"},{"url":"name","valueString":"SDE Ethnicity"},{"url":"statement","valueString":"define \"SDE Ethnicity\":\n  Patient.ethnicity E\n    return Tuple {\n      codes: { E.ombCategory } union E.detailed,\n      display: E.text\n    }"},{"url":"displaySequence","valueInteger":19}]},{"url":"http://hl7.org/fhir/us/cqfmeasures/StructureDefinition/cqfm-logicDefinition","extension":[{"url":"libraryName","valueString":"CMS128FHIRAntidepressantMedManagement"},{"url":"name","valueString":"SDE Ethnicity"},{"url":"statement","valueString":"define \"SDE Ethnicity\":\n  SDE.\"SDE Ethnicity\""},{"url":"displaySequence","valueInteger":20}]},{"url":"http://hl7.org/fhir/us/cqfmeasures/StructureDefinition/cqfm-logicDefinition","extension":[{"url":"libraryName","valueString":"Hospice"},{"url":"name","valueString":"Has Hospice Services"},{"url":"statement","valueString":"define \"Has Hospice Services\":\n  exists ((([Encounter: \"Encounter Inpatient\"]).isEncounterPerformed()) InpatientEncounter\n      where (InpatientEncounter.hospitalization.dischargeDisposition ~ \"Discharge to home for hospice care (procedure)\"\n          or InpatientEncounter.hospitalization.dischargeDisposition ~ \"Discharge to healthcare facility for hospice care (procedure)\"\n      )\n        and InpatientEncounter.period.toInterval() ends during day of \"Measurement Period\"\n  )\n    or exists ((([Encounter: \"Hospice Encounter\"]).isEncounterPerformed()) HospiceEncounter\n        where HospiceEncounter.period.toInterval() overlaps day of \"Measurement Period\"\n    )\n    or exists ((([ObservationScreeningAssessment: \"Hospice care [Minimum Data Set]\"]).isAssessmentPerformed()) HospiceAssessment\n        where HospiceAssessment.value ~ \"Yes (qualifier value)\"\n          and HospiceAssessment.effective.toInterval() overlaps day of \"Measurement Period\"\n    )\n    or exists ((([ServiceRequest: \"Hospice Care Ambulatory\"]).isInterventionOrder()) HospiceOrder\n        where HospiceOrder.authoredOn.toInterval() during day of \"Measurement Period\"\n    )\n    or exists ((([Procedure: \"Hospice Care Ambulatory\"]).isInterventionPerformed()) HospicePerformed\n        where HospicePerformed.performed.toInterval() overlaps day of \"Measurement Period\"\n    )\n    or exists ((([ConditionProblemsHealthConcerns: \"Hospice Diagnosis\"])\n        union ([ConditionEncounterDiagnosis: \"Hospice Diagnosis\"])) HospiceCareDiagnosis\n        where HospiceCareDiagnosis.prevalenceInterval() overlaps day of \"Measurement Period\"\n    )"},{"url":"displaySequence","valueInteger":21}]},{"url":"http://hl7.org/fhir/us/cqfmeasures/StructureDefinition/cqfm-logicDefinition","extension":[{"url":"libraryName","valueString":"CMS128FHIRAntidepressantMedManagement"},{"url":"name","valueString":"Denominator Exclusions"},{"url":"statement","valueString":"define \"Denominator Exclusions\":\n  Hospice.\"Has Hospice Services\"\n    or exists ( ( ( [MedicationRequest: \"Antidepressant Medication\"] ).isMedicationActive ( ) ) ActiveAntidepressant\n        where \"IPSD\" is not null\n          and CQMCommon.ToDateInterval ( ActiveAntidepressant.medicationRequestPeriod ( ) ) overlaps Interval[\"IPSD\" - 105 days, \"IPSD\" )\n    )"},{"url":"displaySequence","valueInteger":22}]},{"url":"http://hl7.org/fhir/us/cqfmeasures/StructureDefinition/cqfm-logicDefinition","extension":[{"url":"libraryName","valueString":"SupplementalDataElements"},{"url":"name","valueString":"SDE Race"},{"url":"statement","valueString":"define \"SDE Race\":\n  Patient.race R\n    return Tuple {\n      codes: R.ombCategory union R.detailed,\n      display: R.text\n    }"},{"url":"displaySequence","valueInteger":23}]},{"url":"http://hl7.org/fhir/us/cqfmeasures/StructureDefinition/cqfm-logicDefinition","extension":[{"url":"libraryName","valueString":"CMS128FHIRAntidepressantMedManagement"},{"url":"name","valueString":"SDE Race"},{"url":"statement","valueString":"define \"SDE Race\":\n  SDE.\"SDE Race\""},{"url":"displaySequence","valueInteger":24}]},{"url":"http://hl7.org/fhir/us/cqfmeasures/StructureDefinition/cqfm-logicDefinition","extension":[{"url":"libraryName","valueString":"FHIRHelpers"},{"url":"name","valueString":"ToString"},{"url":"statement","valueString":"define function ToString(value uri): value.value"},{"url":"displaySequence","valueInteger":25}]},{"url":"http://hl7.org/fhir/us/cqfmeasures/StructureDefinition/cqfm-logicDefinition","extension":[{"url":"libraryName","valueString":"Status"},{"url":"name","valueString":"isMedicationDispensed"},{"url":"statement","valueString":"//Medication, Dispensed\ndefine fluent function isMedicationDispensed(Med List<MedicationDispense>):\n  Med M\n    where M.status in { 'completed', 'in-progress', 'on-hold' }"},{"url":"displaySequence","valueInteger":26}]},{"url":"http://hl7.org/fhir/us/cqfmeasures/StructureDefinition/cqfm-logicDefinition","extension":[{"url":"libraryName","valueString":"CumulativeMedicationDuration"},{"url":"name","valueString":"medicationDispensePeriod"},{"url":"statement","valueString":"/*\nCalculates Medication Period for a given MedicationDispense\nMedicationDispense instances provided to this function are expected\nto conform to the [TODO: MMEMedicationDispense](http://build.fhir.org/ig/cqframework/opioid-mme-r4/StructureDefinition-mmemedicationdispense.html)\nprofile, which expects:\n* 1 and only 1 dosageInstruction, multiple dosageInstruction elements will result in an error\n* 1 and only 1 doseAndRate, multiple doseAndRate elements will result in an error\n* 1 timing with 1 repeat, missing timing or repeat elements will result in a null\n* frequency, frequencyMax, defaulting to 1\n* period, periodUnit, defaulting to 1 'd'\n* timeOfDay\n* doseQuantity or doseRange, missing doseQuantity and doseRange will result in a null\n* whenHandedOver or whenPrepared, if missing both whenHandedOver and whenPrepared will result in a null\nNote that MedicationDispense status is not considered by this calculation, as the\nlist of MedicationDispense instances provided to this function should already have\nconsidered appropriate statuses, depending on the use case, typically `completed`,\nespecially since whenHandedOver would be expected to be present for a completed\nMedicationDispense.\nNote also that the dosage information recorded in a dispense is expected to be a copy of the\ndispense information from the related medication request. As such, the boundsPeriod would be expected\nto cover the entire range, and should _not_ be used for timing of the event.\nThere is also active discussion in the Pharmacy WG about what date should be used if whenPrepared/whenHandedOver is not present.\nThis may take the form of an \"original creation date\", but may also be a \"status change date\" for dispense events that are updating\nstatus of an existing dispense. That discussion is ongoing, so until that is resolved, this logic will return\nnull if whenPrepared/whenHandedOver are not available.\n*/\ndefine fluent function medicationDispensePeriod(Dispense \"MedicationDispense\"):\n  Dispense D\n    let\n      dosage: singleton from D.dosageInstruction,\n      doseAndRate: singleton from dosage.doseAndRate,\n      timing: dosage.timing,\n      frequency: Coalesce(timing.repeat.frequencyMax, timing.repeat.frequency),\n      period: Quantity(timing.repeat.period, timing.repeat.periodUnit),\n      doseRange: doseAndRate.dose,\n      doseQuantity: doseAndRate.dose,\n      dose: Coalesce(end of doseRange, doseQuantity),\n      daysSupply: (convert D.daysSupply to days).value,\n      dosesPerDay: Coalesce(ToDaily(frequency, period), Count(timing.repeat.timeOfDay), 1.0),\n      startDate:\n        Coalesce(\n          date from D.whenHandedOver,\n          date from D.whenPrepared\n        ),\n      totalDaysSupplied: Coalesce(daysSupply, D.quantity.value / (dose.value * dosesPerDay))\n    return\n      if startDate is not null and totalDaysSupplied is not null then\n        Interval[startDate, startDate + Quantity(totalDaysSupplied - 1, 'day')]\n      else\n        null"},{"url":"displaySequence","valueInteger":27}]},{"url":"http://hl7.org/fhir/us/cqfmeasures/StructureDefinition/cqfm-logicDefinition","extension":[{"url":"libraryName","valueString":"CumulativeMedicationDuration"},{"url":"name","valueString":"Quantity"},{"url":"statement","valueString":"/**********************************************************************/\n/* Functions in this region are copied from opioid-mme-r4             */\n/**********************************************************************/\n\ndefine function Quantity(value Decimal, unit String):\n  if value is not null then\n    System.Quantity { value: value, unit: unit }\n  else\n    null"},{"url":"displaySequence","valueInteger":28}]},{"url":"http://hl7.org/fhir/us/cqfmeasures/StructureDefinition/cqfm-logicDefinition","extension":[{"url":"libraryName","valueString":"CumulativeMedicationDuration"},{"url":"name","valueString":"ToDaily"},{"url":"statement","valueString":"/*\n Goal is to get to number of days\n Two broad approaches to the calculation:\n  1) Based on supply and frequency, calculate the number of expected days the medication will cover/has covered\n  2) Based on relevant period, determine a covered interval and calculate the length of that interval in days\nThis topic covers several use cases and illustrates how to calculate Cumulative\nMedication Duration for each type of medication resource using the supply and\nfrequency approach.\n*/\n\n/*\n  For the first approach, we need to get from frequency to a frequency/day\n  So we define ToDaily\n*/\n\n/*\n  Calculates daily frequency given frequency within a period\n*/\ndefine function ToDaily(frequency System.Integer, period System.Quantity):\n  case period.unit\n    when 'h' then frequency * (24.0 / period.value)\n    when 'min' then frequency * (24.0 / period.value) * 60\n    when 's' then frequency * (24.0 / period.value) * 60 * 60\n    when 'd' then frequency * (24.0 / period.value) / 24\n    when 'wk' then frequency * (24.0 / period.value) / (24 * 7)\n    when 'mo' then frequency * (24.0 / period.value) / (24 * 30) /* assuming 30 days in month */\n    when 'a' then frequency * (24.0 / period.value) / (24 * 365) /* assuming 365 days in year */\n    when 'hour' then frequency * (24.0 / period.value)\n    when 'minute' then frequency * (24.0 / period.value) * 60\n    when 'second' then frequency * (24.0 / period.value) * 60 * 60\n    when 'day' then frequency * (24.0 / period.value) / 24\n    when 'week' then frequency * (24.0 / period.value) / (24 * 7)\n    when 'month' then frequency * (24.0 / period.value) / (24 * 30) /* assuming 30 days in month */\n    when 'year' then frequency * (24.0 / period.value) / (24 * 365) /* assuming 365 days in year */\n    when 'hours' then frequency * (24.0 / period.value)\n    when 'minutes' then frequency * (24.0 / period.value) * 60\n    when 'seconds' then frequency * (24.0 / period.value) * 60 * 60\n    when 'days' then frequency * (24.0 / period.value) / 24\n    when 'weeks' then frequency * (24.0 / period.value) / (24 * 7)\n    when 'months' then frequency * (24.0 / period.value) / (24 * 30) /* assuming 30 days in month */\n    when 'years' then frequency * (24.0 / period.value) / (24 * 365) /* assuming 365 days in year */\n    else Message(null, true, 'CMDLogic.ToDaily.UnknownUnit', ErrorLevel, 'Unknown unit ' & period.unit)\n  end"},{"url":"displaySequence","valueInteger":29}]},{"url":"http://hl7.org/fhir/us/cqfmeasures/StructureDefinition/cqfm-logicDefinition","extension":[{"url":"libraryName","valueString":"Status"},{"url":"name","valueString":"isEncounterPerformed"},{"url":"statement","valueString":"//Encounter, Performed\n//General usage unless required otherwise by measure intent (e.g., follow-up encounters)\ndefine fluent function isEncounterPerformed(Enc List<Encounter>):\n  Enc E\n    where E.status in {'finished', 'arrived', 'triaged', 'in-progress', 'onleave'}"},{"url":"displaySequence","valueInteger":30}]},{"url":"http://hl7.org/fhir/us/cqfmeasures/StructureDefinition/cqfm-logicDefinition","extension":[{"url":"libraryName","valueString":"QICoreCommon"},{"url":"name","valueString":"toInterval"},{"url":"statement","valueString":"/*\n@description: Normalizes a value that is a choice of timing-valued types to an equivalent interval\n@comment: Normalizes a choice type of DateTime, Quanitty, Interval<DateTime>, or Interval<Quantity> types\nto an equivalent interval. This selection of choice types is a superset of the majority of choice types that are used as possible\nrepresentations for timing-valued elements in QICore, allowing this function to be used across any resource.\nThe input can be provided as a DateTime, Quantity, Interval<DateTime> or Interval<Quantity>.\nThe intent of this function is to provide a clear and concise mechanism to treat single\nelements that have multiple possible representations as intervals so that logic doesn't have to account\nfor the variability. More complex calculations (such as medication request period or dispense period\ncalculation) need specific guidance and consideration. That guidance may make use of this function, but\nthe focus of this function is on single element calculations where the semantics are unambiguous.\nIf the input is a DateTime, the result a DateTime Interval beginning and ending on that DateTime.\nIf the input is a Quantity, the quantity is expected to be a calendar-duration interpreted as an Age,\nand the result is a DateTime Interval beginning on the Date the patient turned that age and ending immediately before one year later.\nIf the input is a DateTime Interval, the result is the input.\nIf the input is a Quantity Interval, the quantities are expected to be calendar-durations interpreted as an Age, and the result\nis a DateTime Interval beginning on the date the patient turned the age given as the start of the quantity interval, and ending\nimmediately before one year later than the date the patient turned the age given as the end of the quantity interval.\nIf the input is a Timing, an error will be thrown indicating that Timing calculations are not implemented. Any other input will reslt in a null DateTime Interval\n*/\ndefine fluent function toInterval(choice Choice<DateTime, Quantity, Interval<DateTime>, Interval<Quantity>, Timing>):\n  case\n\t  when choice is DateTime then\n    \tInterval[choice as DateTime, choice as DateTime]\n\t\twhen choice is Interval<DateTime> then\n  \t\tchoice as Interval<DateTime>\n\t\twhen choice is Quantity then\n\t\t  Interval[Patient.birthDate + (choice as Quantity),\n\t\t\t  Patient.birthDate + (choice as Quantity) + 1 year)\n\t\twhen choice is Interval<Quantity> then\n\t\t  Interval[Patient.birthDate + (choice.low as Quantity),\n\t\t\t  Patient.birthDate + (choice.high as Quantity) + 1 year)\n\t\twhen choice is Timing then\n      Message(null, true, 'NOT_IMPLEMENTED', 'Error', 'Calculation of an interval from a Timing value is not supported') as Interval<DateTime>\n\t\telse\n\t\t\tnull as Interval<DateTime>\n\tend"},{"url":"displaySequence","valueInteger":31}]},{"url":"http://hl7.org/fhir/us/cqfmeasures/StructureDefinition/cqfm-logicDefinition","extension":[{"url":"libraryName","valueString":"FHIRHelpers"},{"url":"name","valueString":"ToInterval"},{"url":"statement","valueString":"/*\n@description: Converts the given [Period](https://hl7.org/fhir/datatypes.html#Period)\nvalue to a CQL DateTime Interval\n@comment: If the start value of the given period is unspecified, the starting\nboundary of the resulting interval will be open (meaning the start of the interval\nis unknown, as opposed to interpreted as the beginning of time).\n*/\ndefine function ToInterval(period FHIR.Period):\n    if period is null then\n        null\n    else\n        if period.\"start\" is null then\n            Interval(period.\"start\".value, period.\"end\".value]\n        else\n            Interval[period.\"start\".value, period.\"end\".value]"},{"url":"displaySequence","valueInteger":32}]},{"url":"http://hl7.org/fhir/us/cqfmeasures/StructureDefinition/cqfm-logicDefinition","extension":[{"url":"libraryName","valueString":"CumulativeMedicationDuration"},{"url":"name","valueString":"cumulativeDuration"},{"url":"statement","valueString":"/*\nNow that we have functions for determining the medication period for individual\nprescriptions, administrations, and dispenses, we can combine those using\nan overall cumulative medication duration calculation.\nThere are two broad approaches to calculating cumulative duration, one that _collapses_\noverlapping intervals so that calculations are not duplicated, and one that _rolls out_\noverlapping intervals so that the durations are laid end-to-end.\nFirst, we define a function that simply calculates CumulativeDuration of a set of\nintervals:\n*/\ndefine fluent function cumulativeDuration(Intervals List<Interval<Date>>):\n   if Intervals is not null then ( Sum((collapse Intervals per day)X\n        return all(difference in days between start of X and \n          end of X\n        )+ 1\n    )\n  ) \n    else null"},{"url":"displaySequence","valueInteger":33}]},{"url":"http://hl7.org/fhir/us/cqfmeasures/StructureDefinition/cqfm-logicDefinition","extension":[{"url":"libraryName","valueString":"FHIRHelpers"},{"url":"name","valueString":"ToCode"},{"url":"statement","valueString":"/*\n@description: Converts the given FHIR [Coding](https://hl7.org/fhir/datatypes.html#Coding) value to a CQL Code.\n*/\ndefine function ToCode(coding FHIR.Coding):\n    if coding is null then\n        null\n    else\n        System.Code {\n          code: coding.code.value,\n          system: coding.system.value,\n          version: coding.version.value,\n          display: coding.display.value\n        }"},{"url":"displaySequence","valueInteger":34}]},{"url":"http://hl7.org/fhir/us/cqfmeasures/StructureDefinition/cqfm-logicDefinition","extension":[{"url":"libraryName","valueString":"Status"},{"url":"name","valueString":"isAssessmentPerformed"},{"url":"statement","valueString":"//This library contains functions used to constrain FHIR resource elements for measures authored by NCQA, based on QICore 6.0.0 resources including IG and authoring patterns. The functions may appear similar to some QICoreCommon functions but differ in that they have constraints that are relevant for measures authored by NCQA.\n\n//Assessment, Performed\ndefine fluent function isAssessmentPerformed(Obs List<ObservationScreeningAssessment>):\n  Obs O\n    where O.status in { 'final', 'amended', 'corrected' }"},{"url":"displaySequence","valueInteger":35}]},{"url":"http://hl7.org/fhir/us/cqfmeasures/StructureDefinition/cqfm-logicDefinition","extension":[{"url":"libraryName","valueString":"Status"},{"url":"name","valueString":"isInterventionOrder"},{"url":"statement","valueString":"//Intervention, Order\ndefine fluent function isInterventionOrder(ServiceRequest List<ServiceRequest>):\n  ServiceRequest S\n    where S.status in { 'active', 'completed' }\n      and S.intent = 'order'"},{"url":"displaySequence","valueInteger":36}]},{"url":"http://hl7.org/fhir/us/cqfmeasures/StructureDefinition/cqfm-logicDefinition","extension":[{"url":"libraryName","valueString":"Status"},{"url":"name","valueString":"isInterventionPerformed"},{"url":"statement","valueString":"//Intervention, Performed\ndefine fluent function isInterventionPerformed(Proc List<Procedure>):\n  Proc P\n    where P.status ~ 'completed'"},{"url":"displaySequence","valueInteger":37}]},{"url":"http://hl7.org/fhir/us/cqfmeasures/StructureDefinition/cqfm-logicDefinition","extension":[{"url":"libraryName","valueString":"Status"},{"url":"name","valueString":"isMedicationActive"},{"url":"statement","valueString":"//Medication, Active\ndefine fluent function isMedicationActive(MedicationRequest List<MedicationRequest>):\n  MedicationRequest M\n    where M.status = 'active'\n      and M.intent = 'order'"},{"url":"displaySequence","valueInteger":38}]},{"url":"http://hl7.org/fhir/us/cqfmeasures/StructureDefinition/cqfm-logicDefinition","extension":[{"url":"libraryName","valueString":"CQMCommon"},{"url":"name","valueString":"ToDateInterval"},{"url":"statement","valueString":"/*\n@description: Returns an interval of date values extracted from the input interval of date-time values\n@comment: This function returns an interval constructed using the `date from` extractor on the start\nand end values of the input date-time interval. Note that using a precision specifier such as `day of`\nas part of a timing phrase is preferred to communicate intent to perform day-level comparison, as well\nas for general readability.\n*/\ndefine function \"ToDateInterval\"(period Interval<DateTime>):\n  Interval[date from start of period, date from end of period]"},{"url":"displaySequence","valueInteger":39}]},{"url":"http://hl7.org/fhir/us/cqfmeasures/StructureDefinition/cqfm-logicDefinition","extension":[{"url":"libraryName","valueString":"CumulativeMedicationDuration"},{"url":"name","valueString":"medicationRequestPeriod"},{"url":"statement","valueString":"define fluent function medicationRequestPeriod(Request \"MedicationRequest\"):\n  Request R\n    let\n      dosage: singleton from R.dosageInstruction,\n      doseAndRate: singleton from dosage.doseAndRate,\n      timing: dosage.timing,\n      frequency: Coalesce(timing.repeat.frequencyMax, timing.repeat.frequency),\n      period: Quantity(timing.repeat.period, timing.repeat.periodUnit),\n      doseRange: doseAndRate.dose,\n      doseQuantity: doseAndRate.dose,\n      dose: Coalesce(end of doseRange, doseQuantity),\n      dosesPerDay: Coalesce(ToDaily(frequency, period), Count(timing.repeat.timeOfDay), 1.0),\n      boundsPeriod: timing.repeat.bounds as Interval<DateTime>,\n      daysSupply: (convert R.dispenseRequest.expectedSupplyDuration to days).value,\n      quantity: R.dispenseRequest.quantity,\n      refills: Coalesce(R.dispenseRequest.numberOfRepeatsAllowed, 0),\n      startDate:\n        Coalesce(\n          date from start of boundsPeriod,\n          date from R.authoredOn,\n          date from start of R.dispenseRequest.validityPeriod\n        ),\n      totalDaysSupplied: Coalesce(daysSupply, quantity.value / (dose.value * dosesPerDay)) * (1 + refills)\n    return\n      if startDate is not null and totalDaysSupplied is not null then\n        Interval[startDate, startDate + Quantity(totalDaysSupplied - 1, 'day') ]\n      else if startDate is not null and boundsPeriod.\"high\" is not null then\n        Interval[startDate, date from end of boundsPeriod]\n      else\n        null"},{"url":"displaySequence","valueInteger":40}]}],"name":"EffectiveDataRequirements","status":"active","type":{"coding":[{"system":"http://terminology.hl7.org/CodeSystem/library-type","code":"module-definition"}]},"relatedArtifact":[{"type":"depends-on","display":"Library SDE","resource":"Library/SupplementalDataElements|5.1.000"},{"type":"depends-on","display":"Library FHIRHelpers","resource":"Library/FHIRHelpers|4.4.000"},{"type":"depends-on","display":"Library Status","resource":"Library/Status|1.13.000"},{"type":"depends-on","display":"Library FHIRHelpers","resource":"Library/FHIRHelpers|4.4.000"},{"type":"depends-on","display":"Library CMD","resource":"Library/CumulativeMedicationDuration|6.0.000"},{"type":"depends-on","display":"Library FHIRHelpers","resource":"Library/FHIRHelpers|4.4.000"},{"type":"depends-on","display":"Library QICoreCommon","resource":"Library/QICoreCommon|4.0.000"},{"type":"depends-on","display":"Library Hospice","resource":"Library/Hospice|6.15.000"},{"type":"depends-on","display":"Library Status","resource":"Library/Status|1.13.000"},{"type":"depends-on","display":"Library FHIRHelpers","resource":"Library/FHIRHelpers|4.4.000"},{"type":"depends-on","display":"Library QICoreCommon","resource":"Library/QICoreCommon|4.0.000"},{"type":"depends-on","display":"Library CQMCommon","resource":"Library/CQMCommon|4.0.000"},{"type":"depends-on","display":"Code system SNOMEDCT","resource":"http://snomed.info/sct"},{"type":"depends-on","display":"Code system SNOMEDCT","resource":"http://snomed.info/sct"},{"type":"depends-on","display":"Code system LOINC","resource":"http://loinc.org"},{"type":"depends-on","display":"Value set Antidepressant Medication","resource":"http://cts.nlm.nih.gov/fhir/ValueSet/2.16.840.1.113883.3.464.1003.196.12.1213"},{"type":"depends-on","display":"Value set Major Depression","resource":"http://cts.nlm.nih.gov/fhir/ValueSet/2.16.840.1.113883.3.464.1003.105.12.1007"},{"type":"depends-on","display":"Value set Office Visit","resource":"http://cts.nlm.nih.gov/fhir/ValueSet/2.16.840.1.113883.3.464.1003.101.12.1001"},{"type":"depends-on","display":"Value set Preventive Care Services Established Office Visit, 18 and Up","resource":"http://cts.nlm.nih.gov/fhir/ValueSet/2.16.840.1.113883.3.464.1003.101.12.1025"},{"type":"depends-on","display":"Value set Preventive Care Services Initial Office Visit, 18 and Up","resource":"http://cts.nlm.nih.gov/fhir/ValueSet/2.16.840.1.113883.3.464.1003.101.12.1023"},{"type":"depends-on","display":"Value set Home Healthcare Services","resource":"http://cts.nlm.nih.gov/fhir/ValueSet/2.16.840.1.113883.3.464.1003.101.12.1016"},{"type":"depends-on","display":"Value set Annual Wellness Visit","resource":"http://cts.nlm.nih.gov/fhir/ValueSet/2.16.840.1.113883.3.526.3.1240"},{"type":"depends-on","display":"Value set Nursing Facility Visit","resource":"http://cts.nlm.nih.gov/fhir/ValueSet/2.16.840.1.113883.3.464.1003.101.12.1012"},{"type":"depends-on","display":"Value set Psych Visit Diagnostic Evaluation","resource":"http://cts.nlm.nih.gov/fhir/ValueSet/2.16.840.1.113883.3.526.3.1492"},{"type":"depends-on","display":"Value set Psych Visit Psychotherapy","resource":"http://cts.nlm.nih.gov/fhir/ValueSet/2.16.840.1.113883.3.526.3.1496"},{"type":"depends-on","display":"Value set Telephone Visits","resource":"http://cts.nlm.nih.gov/fhir/ValueSet/2.16.840.1.113883.3.464.1003.101.12.1080"},{"type":"depends-on","display":"Value set Virtual Encounter","resource":"http://cts.nlm.nih.gov/fhir/ValueSet/2.16.840.1.113883.3.464.1003.101.12.1089"},{"type":"depends-on","display":"Value set Payer Type","resource":"http://cts.nlm.nih.gov/fhir/ValueSet/2.16.840.1.114222.4.11.3591"},{"type":"depends-on","display":"Value set Encounter Inpatient","resource":"http://cts.nlm.nih.gov/fhir/ValueSet/2.16.840.1.113883.3.666.5.307"},{"type":"depends-on","display":"Value set Hospice Encounter","resource":"http://cts.nlm.nih.gov/fhir/ValueSet/2.16.840.1.113883.3.464.1003.1003"},{"type":"depends-on","display":"Value set Hospice Care Ambulatory","resource":"http://cts.nlm.nih.gov/fhir/ValueSet/2.16.840.1.113883.3.526.3.1584"},{"type":"depends-on","display":"Value set Hospice Diagnosis","resource":"http://cts.nlm.nih.gov/fhir/ValueSet/2.16.840.1.113883.3.464.1003.1165"}],"parameter":[{"name":"ErrorLevel","use":"in","min":0,"max":"1","type":"string"},{"name":"Measurement Period","use":"in","min":0,"max":"1","type":"Period"},{"name":"SDE Sex","use":"out","min":0,"max":"1","type":"Coding"},{"name":"Denominator","use":"out","min":0,"max":"1","type":"boolean"},{"name":"Numerator 1","use":"out","min":0,"max":"1","type":"boolean"},{"name":"SDE Payer","use":"out","min":0,"max":"*","type":"Resource"},{"name":"Numerator 2","use":"out","min":0,"max":"1","type":"boolean"},{"name":"Initial Population","use":"out","min":0,"max":"1","type":"boolean"},{"name":"SDE Ethnicity","use":"out","min":0,"max":"1","type":"Resource"},{"name":"Denominator Exclusions","use":"out","min":0,"max":"1","type":"boolean"},{"name":"SDE Race","use":"out","min":0,"max":"1","type":"Resource"}],"dataRequirement":[{"type":"Patient","profile":["http://hl7.org/fhir/us/qicore/StructureDefinition/qicore-patient"]},{"type":"Patient","profile":["http://hl7.org/fhir/us/qicore/StructureDefinition/qicore-patient"],"mustSupport":["url","value.value"]},{"type":"Patient","profile":["http://hl7.org/fhir/us/qicore/StructureDefinition/qicore-patient"],"mustSupport":["url","value.value"]},{"type":"Patient","profile":["http://hl7.org/fhir/us/qicore/StructureDefinition/qicore-patient"]},{"type":"MedicationDispense","profile":["http://hl7.org/fhir/us/qicore/StructureDefinition/qicore-medicationdispense"],"mustSupport":["medication"],"codeFilter":[{"path":"medication","valueSet":"http://cts.nlm.nih.gov/fhir/ValueSet/2.16.840.1.113883.3.464.1003.196.12.1213"}]},{"type":"MedicationDispense","profile":["http://hl7.org/fhir/us/qicore/StructureDefinition/qicore-medicationdispense"],"mustSupport":["medication.reference.value"]},{"type":"Medication","profile":["http://hl7.org/fhir/us/qicore/StructureDefinition/qicore-medication"],"mustSupport":["id.value","code"]},{"type":"Condition","profile":["http://hl7.org/fhir/us/qicore/StructureDefinition/qicore-condition-problems-health-concerns"],"mustSupport":["code"],"codeFilter":[{"path":"code","valueSet":"http://cts.nlm.nih.gov/fhir/ValueSet/2.16.840.1.113883.3.464.1003.105.12.1007"}]},{"type":"Condition","profile":["http://hl7.org/fhir/us/qicore/StructureDefinition/qicore-condition-encounter-diagnosis"],"mustSupport":["code"],"codeFilter":[{"path":"code","valueSet":"http://cts.nlm.nih.gov/fhir/ValueSet/2.16.840.1.113883.3.464.1003.105.12.1007"}]},{"type":"Patient","profile":["http://hl7.org/fhir/us/qicore/StructureDefinition/qicore-patient"]},{"type":"Encounter","profile":["http://hl7.org/fhir/us/qicore/StructureDefinition/qicore-encounter"],"mustSupport":["type"],"codeFilter":[{"path":"type","valueSet":"http://cts.nlm.nih.gov/fhir/ValueSet/2.16.840.1.113883.3.464.1003.101.12.1001"}]},{"type":"Encounter","profile":["http://hl7.org/fhir/us/qicore/StructureDefinition/qicore-encounter"],"mustSupport":["type"],"codeFilter":[{"path":"type","valueSet":"http://cts.nlm.nih.gov/fhir/ValueSet/2.16.840.1.113883.3.464.1003.101.12.1025"}]},{"type":"Encounter","profile":["http://hl7.org/fhir/us/qicore/StructureDefinition/qicore-encounter"],"mustSupport":["type"],"codeFilter":[{"path":"type","valueSet":"http://cts.nlm.nih.gov/fhir/ValueSet/2.16.840.1.113883.3.464.1003.101.12.1023"}]},{"type":"Encounter","profile":["http://hl7.org/fhir/us/qicore/StructureDefinition/qicore-encounter"],"mustSupport":["type"],"codeFilter":[{"path":"type","valueSet":"http://cts.nlm.nih.gov/fhir/ValueSet/2.16.840.1.113883.3.464.1003.101.12.1016"}]},{"type":"Encounter","profile":["http://hl7.org/fhir/us/qicore/StructureDefinition/qicore-encounter"],"mustSupport":["type"],"codeFilter":[{"path":"type","valueSet":"http://cts.nlm.nih.gov/fhir/ValueSet/2.16.840.1.113883.3.526.3.1240"}]},{"type":"Encounter","profile":["http://hl7.org/fhir/us/qicore/StructureDefinition/qicore-encounter"],"mustSupport":["type"],"codeFilter":[{"path":"type","valueSet":"http://cts.nlm.nih.gov/fhir/ValueSet/2.16.840.1.113883.3.464.1003.101.12.1012"}]},{"type":"Encounter","profile":["http://hl7.org/fhir/us/qicore/StructureDefinition/qicore-encounter"],"mustSupport":["type"],"codeFilter":[{"path":"type","valueSet":"http://cts.nlm.nih.gov/fhir/ValueSet/2.16.840.1.113883.3.526.3.1492"}]},{"type":"Encounter","profile":["http://hl7.org/fhir/us/qicore/StructureDefinition/qicore-encounter"],"mustSupport":["type"],"codeFilter":[{"path":"type","valueSet":"http://cts.nlm.nih.gov/fhir/ValueSet/2.16.840.1.113883.3.526.3.1496"}]},{"type":"Encounter","profile":["http://hl7.org/fhir/us/qicore/StructureDefinition/qicore-encounter"],"mustSupport":["type"],"codeFilter":[{"path":"type","valueSet":"http://cts.nlm.nih.gov/fhir/ValueSet/2.16.840.1.113883.3.464.1003.101.12.1080"}]},{"type":"Encounter","profile":["http://hl7.org/fhir/us/qicore/StructureDefinition/qicore-encounter"],"mustSupport":["type"],"codeFilter":[{"path":"type","valueSet":"http://cts.nlm.nih.gov/fhir/ValueSet/2.16.840.1.113883.3.464.1003.101.12.1089"}]},{"type":"MedicationDispense","profile":["http://hl7.org/fhir/us/qicore/StructureDefinition/qicore-medicationdispense"],"mustSupport":["medication"],"codeFilter":[{"path":"medication","valueSet":"http://cts.nlm.nih.gov/fhir/ValueSet/2.16.840.1.113883.3.464.1003.196.12.1213"}]},{"type":"MedicationDispense","profile":["http://hl7.org/fhir/us/qicore/StructureDefinition/qicore-medicationdispense"],"mustSupport":["medication.reference.value"]},{"type":"Medication","profile":["http://hl7.org/fhir/us/qicore/StructureDefinition/qicore-medication"],"mustSupport":["id.value","code"]},{"type":"Coverage","profile":["http://hl7.org/fhir/us/qicore/StructureDefinition/qicore-coverage"],"mustSupport":["type","period"],"codeFilter":[{"path":"type","valueSet":"http://cts.nlm.nih.gov/fhir/ValueSet/2.16.840.1.114222.4.11.3591"}]},{"type":"MedicationDispense","profile":["http://hl7.org/fhir/us/qicore/StructureDefinition/qicore-medicationdispense"],"mustSupport":["medication"],"codeFilter":[{"path":"medication","valueSet":"http://cts.nlm.nih.gov/fhir/ValueSet/2.16.840.1.113883.3.464.1003.196.12.1213"}]},{"type":"MedicationDispense","profile":["http://hl7.org/fhir/us/qicore/StructureDefinition/qicore-medicationdispense"],"mustSupport":["medication.reference.value"]},{"type":"Medication","profile":["http://hl7.org/fhir/us/qicore/StructureDefinition/qicore-medication"],"mustSupport":["id.value","code"]},{"type":"Patient","profile":["http://hl7.org/fhir/us/qicore/StructureDefinition/qicore-patient"],"mustSupport":["url"]},{"type":"Patient","profile":["http://hl7.org/fhir/us/qicore/StructureDefinition/qicore-patient"],"mustSupport":["url","extension"]},{"type":"Encounter","profile":["http://hl7.org/fhir/us/qicore/StructureDefinition/qicore-encounter"],"mustSupport":["type","hospitalization","hospitalization.dischargeDisposition","period"],"codeFilter":[{"path":"type","valueSet":"http://cts.nlm.nih.gov/fhir/ValueSet/2.16.840.1.113883.3.666.5.307"}]},{"type":"Encounter","profile":["http://hl7.org/fhir/us/qicore/StructureDefinition/qicore-encounter"],"mustSupport":["type","period"],"codeFilter":[{"path":"type","valueSet":"http://cts.nlm.nih.gov/fhir/ValueSet/2.16.840.1.113883.3.464.1003.1003"}]},{"type":"Observation","profile":["http://hl7.org/fhir/us/qicore/StructureDefinition/qicore-observation-screening-assessment"],"mustSupport":["code","value","effective"],"codeFilter":[{"path":"code","code":[{"system":"http://loinc.org","code":"45755-6","display":"Hospice care [Minimum Data Set]"}]}]},{"type":"ServiceRequest","profile":["http://hl7.org/fhir/us/qicore/StructureDefinition/qicore-servicerequest"],"mustSupport":["code","authoredOn","authoredOn.value"],"codeFilter":[{"path":"code","valueSet":"http://cts.nlm.nih.gov/fhir/ValueSet/2.16.840.1.113883.3.526.3.1584"}]},{"type":"Procedure","profile":["http://hl7.org/fhir/us/qicore/StructureDefinition/qicore-procedure"],"mustSupport":["code","performed"],"codeFilter":[{"path":"code","valueSet":"http://cts.nlm.nih.gov/fhir/ValueSet/2.16.840.1.113883.3.526.3.1584"}]},{"type":"Condition","profile":["http://hl7.org/fhir/us/qicore/StructureDefinition/qicore-condition-problems-health-concerns"],"mustSupport":["code"],"codeFilter":[{"path":"code","valueSet":"http://cts.nlm.nih.gov/fhir/ValueSet/2.16.840.1.113883.3.464.1003.1165"}]},{"type":"Condition","profile":["http://hl7.org/fhir/us/qicore/StructureDefinition/qicore-condition-encounter-diagnosis"],"mustSupport":["code"],"codeFilter":[{"path":"code","valueSet":"http://cts.nlm.nih.gov/fhir/ValueSet/2.16.840.1.113883.3.464.1003.1165"}]},{"type":"MedicationRequest","profile":["http://hl7.org/fhir/us/qicore/StructureDefinition/qicore-medicationrequest"],"mustSupport":["medication"],"codeFilter":[{"path":"medication","valueSet":"http://cts.nlm.nih.gov/fhir/ValueSet/2.16.840.1.113883.3.464.1003.196.12.1213"}]},{"type":"MedicationRequest","profile":["http://hl7.org/fhir/us/qicore/StructureDefinition/qicore-medicationrequest"],"mustSupport":["medication.reference.value"]},{"type":"Medication","profile":["http://hl7.org/fhir/us/qicore/StructureDefinition/qicore-medication"],"mustSupport":["id.value","code"]},{"type":"Patient","profile":["http://hl7.org/fhir/us/qicore/StructureDefinition/qicore-patient"],"mustSupport":["url"]},{"type":"Patient","profile":["http://hl7.org/fhir/us/qicore/StructureDefinition/qicore-patient"],"mustSupport":["url","extension"]},{"type":"Coverage","profile":["http://hl7.org/fhir/us/qicore/StructureDefinition/qicore-coverage"],"mustSupport":["type","period"],"codeFilter":[{"path":"type","valueSet":"http://cts.nlm.nih.gov/fhir/ValueSet/2.16.840.1.114222.4.11.3591"}]},{"type":"Patient","profile":["http://hl7.org/fhir/us/qicore/StructureDefinition/qicore-patient"],"mustSupport":["url","extension"]},{"type":"Patient","profile":["http://hl7.org/fhir/us/qicore/StructureDefinition/qicore-patient"],"mustSupport":["url","extension"]}]}],"extension":[{"id":"supplementalDataGuidance","url":"http://hl7.org/fhir/us/cqfmeasures/StructureDefinition/cqfm-supplementalDataGuidance","extension":[{"url":"guidance","valueString":"For every patient evaluated by this measure also identify payer, race, ethnicity and sex"},{"url":"usage","valueCodeableConcept":{"coding":[{"system":"http://terminology.hl7.org/CodeSystem/measure-data-usage","code":"supplemental-data","display":"Supplemental Data"}],"text":"Supplemental Data Guidance"}}]},{"url":"http://hl7.org/fhir/uv/crmi/StructureDefinition/crmi-effectiveDataRequirements","valueCanonical":"#effective-data-requirements"},{"id":"effective-data-requirements","url":"http://hl7.org/fhir/us/cqfmeasures/StructureDefinition/cqfm-effectiveDataRequirements","valueReference":{"reference":"#effective-data-requirements"}},{"url":"http://hl7.org/fhir/uv/crmi/StructureDefinition/crmi-softwaresystem","valueReference":{"reference":"Device/cqf-tooling"}}],"url":"https://madie.cms.gov/Measure/CMS128FHIRAntidepressantMedManagement","identifier":[{"use":"usual","type":{"coding":[{"system":"http://terminology.hl7.org/CodeSystem/artifact-identifier-type","code":"short-name","display":"Short Name"}]},"system":"https://madie.cms.gov/measure/shortName","value":"CMS128FHIR"},{"use":"official","type":{"coding":[{"system":"http://terminology.hl7.org/CodeSystem/artifact-identifier-type","code":"version-independent","display":"Version Independent"}]},"system":"urn:ietf:rfc:3986","value":"urn:uuid:009a2432-6ee9-48d5-b32a-d727f847f8d2"},{"use":"official","type":{"coding":[{"system":"http://terminology.hl7.org/CodeSystem/artifact-identifier-type","code":"version-specific","display":"Version Specific"}]},"system":"urn:ietf:rfc:3986","value":"urn:uuid:637fb8a1-1873-44b2-9e79-828cf4a2cf4a"},{"use":"official","type":{"coding":[{"system":"http://terminology.hl7.org/CodeSystem/artifact-identifier-type","code":"publisher","display":"Publisher"}]},"system":"https://madie.cms.gov/measure/cmsId","value":"128FHIR","assigner":{"display":"CMS"}}],"version":"0.3.000","name":"CMS128FHIRAntidepressantMedManagement","title":"Antidepressant Medication ManagementFHIR","status":"active","experimental":false,"date":"2025-06-26T19:30:08+00:00","publisher":"National Committee for Quality Assurance","contact":[{"telecom":[{"system":"url","value":"https://www.ncqa.org/"}]}],"description":"Percentage of patients 18 years of age and older who were treated with antidepressant medication, had a diagnosis of major depression, and who remained on an antidepressant medication treatment. Two rates are reported. \na. Percentage of patients who remained on an antidepressant medication for at least 84 days (12 weeks). \nb. Percentage of patients who remained on an antidepressant medication for at least 180 days (6 months).","usage":"To identify new treatment episodes for major depression, there must be a 105-day negative medication history (a period during which the patient was not taking antidepressant medication) prior to the dispensing event associated with the IPSD.\n\nThis eCQM is a patient-based measure.\n\nThis FHIR-based measure has been derived from the QDM-based measure: CMS128v13.\n\nPlease refer to the HL7 QI-Core Implementation Guide (https://hl7.org/fhir/us/qicore/STU4.1.1/) for more information on QI-Core and mapping recommendations from QDM to QI-Core 4.1.1 (https://hl7.org/fhir/us/qicore/STU4.1.1/qdm-to-qicore.html).","copyright":"This Physician Performance Measure (Measure) and related data specifications are owned and were developed by the National Committee for Quality Assurance (NCQA). NCQA is not responsible for any use of the Measure. NCQA makes no representations, warranties, or endorsement about the quality of any organization or physician that uses or reports performance measures and NCQA has no liability to anyone who relies on such measures or specifications. NCQA holds a copyright in the Measure. The Measure can be reproduced and distributed, without modification, for noncommercial purposes (e.g., use by healthcare providers in connection with their practices) without obtaining approval from NCQA. Commercial use is defined as the sale, licensing, or distribution of the Measure for commercial gain, or incorporation of the Measure into a product or service that is sold, licensed or distributed for commercial gain. All commercial uses or requests for modification must be approved by NCQA and are subject to a license at the discretion of NCQA. (C) 2012-2024 National Committee for Quality Assurance. All Rights Reserved.\n\nLimited proprietary coding is contained in the Measure specifications for user convenience. Users of proprietary code sets should obtain all necessary licenses from the owners of the code sets. NCQA disclaims all liability for use or accuracy of any third-party codes contained in the specifications.\n\nCPT(R) codes, descriptions and other data are copyright 2024. American Medical Association. All rights reserved. CPT is a trademark of the American Medical Association. Fee schedules, relative value units, conversion factors and/or related components are not assigned by the AMA, are not part of CPT, and the AMA is not recommending their use. The AMA does not directly or indirectly practice medicine or dispense medical services. The AMA assumes no liability for data contained or not contained herein. Applicable FARS/DFARS restrictions apply to government use.\n\nSome measure specifications contain coding from LOINC(R) (http://loinc.org). The LOINC table, LOINC codes, LOINC panels and form file, LOINC linguistic variants file, LOINC/RSNA Radiology Playbook, and LOINC/IEEE Medical Device Code Mapping Table are copyright 2004-2024 Regenstrief Institute, Inc. and the Logical Observation Identifiers Names and Codes (LOINC) Committee, and are available at no cost under the license at http://loinc.org/terms-of-use.\n\nThis material contains SNOMED Clinical Terms(R) (SNOMED CT[R]) copyright 2004-2023 International Health Terminology Standards Development Organisation. \n\nICD-10 copyright 2024 World Health Organization. All Rights Reserved.\n\nSome measures use RxNorm, a standardized nomenclature and coding for clinical drugs and drug delivery devices, which is made publicly available courtesy of the U.S. National Library of Medicine (NLM), National Institutes of Health, Department of Health and Human Services. NLM is not responsible for the measures and does not endorse or recommend this or any other product.\n\n“HL7” is the registered trademark of Health Level Seven International.","effectivePeriod":{"start":"2026-01-01","end":"2026-12-31"},"author":[{"name":"National Committee for Quality Assurance","telecom":[{"system":"url","value":"https://www.ncqa.org/"}]}],"library":["https://madie.cms.gov/Library/CMS128FHIRAntidepressantMedManagement"],"disclaimer":"The performance Measure is not a clinical guideline and does not establish a standard of medical care, and has not been tested for all potential applications. THE MEASURE AND SPECIFICATIONS ARE PROVIDED \"AS IS\" WITHOUT WARRANTY OF ANY KIND.\n \nDue to technical limitations, registered trademarks are indicated by (R) or [R] and unregistered trademarks are indicated by (TM) or [TM].","rationale":"Depression affects over 17 million adults in the U.S. (NIMH, 2021) and is estimated to affect nearly a quarter of adults in their lifetime (Burcusa & Iacono, 2007). Symptoms of depression include disturbances in appetite and sleep, anxiety, decreased concentration, and suicidal ideation (NAMI, 2017; Charbonneau et al., 2005). When left untreated, depression can have a dramatic effect on one’s quality of life, causing constant feelings of hopelessness, loss of interest in daily activities and in some cases suicidal ideation (SAMHSA, 2014).\n\nThe American Psychiatric Association (APA) recommends use of antidepressant medication and behavioral therapies, such as psychotherapy, for the treatment and management of depression (APA, 2010). For the past 60 years, antidepressant medication has proven to be effective, especially for patients with more severe symptoms (Fournier et al., 2010). However, studies analyzing adherence to antidepressant medications found that prevalence of nonadherence was high, ranging from 13 percent to 55.7 percent (Sansone, 2012). \n\nClinical guidelines for depression emphasize the importance of effective clinical management in increasing patients’ medication compliance, monitoring treatment effectiveness, and identifying and managing side effects. If pharmacological treatment is initiated, appropriate dosing and continuation of therapy through the acute and continuation phases decrease recurrence of symptoms. Thus, the evaluation of the duration of pharmacological treatment serves as an important indicator in understanding patient compliance with establishing and maintaining an effective medication regimen.","clinicalRecommendationStatement":"American Psychological Association (2019): \n- \"For initial treatment of adult patients with depression, the panel recommends the following in the context of sharing decision-making with the patient when considering options: \n1. That clinicians offer either psychotherapy or second-generation antidepressant.\n2. If considering combined treatment, the panel recommends cognitive-behavioral therapy or interpersonal psychotherapy plus a second-generation antidepressant.”\n\t\n- “For initial treatment of older adult patients with depression, the panel recommends the following in the context of shared decision-making with the patient: \n1. Either group life review treatment or Group Cognitive Behavioral Therapy (either alone or added to usual care) over no treatment \n2. Combined pharmacotherapy and interpersonal psychotherapy (IPT) over IPT alone. Of note, while the study upon which this is based used nortriptyline, the panel recommends a second-generation antidepressant due to the reduced risk of side effects.”\n\nAmerican Psychiatric Association (2010): \n- “An antidepressant medication is recommended as an initial treatment choice for patients with mild to moderate major depressive disorder [I: Recommended with substantial clinical confidence] and definitely should be provided for those with severe major depressive disorder unless electroconvulsive therapy (ECT) is planned [I: Recommended with substantial clinical confidence].” \n\n- \"Patients should be given a realistic notion of what can be expected during the different phases of treatment, including the likely time course of symptom response and the importance of adherence for successful treatment and prophylaxis [I].\"\n\n- \"During the acute phase of treatment, patients should be carefully and systematically monitored on a regular basis to assess their response to pharmacotherapy, identify the emergence of side effects (e.g., gastrointestinal symptoms, sedation, insomnia, activation, changes in weight, and cardiovascular, neurological, anticholinergic, or sexual side effects), and assess patient safety [I].\"\n\n- “During the continuation phase of treatment, the patient should be carefully monitored for signs of possible relapse [I: Recommended with substantial clinical confidence]. Systematic assessment of symptoms, side effects, adherence, and functional status is essential [I: Recommended with substantial clinical confidence], and may be facilitated through the use of clinician- and/or patient-administered rating scales [II: Recommended with moderate clinical confidence]. To reduce the risk of relapse, patients who have been treated successfully with antidepressant medications in the acute phase should continue treatment with these agents for 4–9 months [I: Recommended with substantial clinical confidence].”\n\nDepartment of Veterans Affairs, and Health Affairs, Department of Defense (2022): \n- “For patients with major depressive disorder (MDD), we suggest using a quantitative measure of depression severity in the initial treatment planning and to monitor treatment progress at regular intervals to guide shared treatment decision making.” [Weak For]\n\t\n- “In patients with MDD who achieve remission with antidepressant medication, we recommend continuation of antidepressants at the therapeutic dose for at least six months to decrease risk of relapse.” [Strong For]\n\nDepartment of Veterans Affairs, and Health Affairs, Department of Defense (2016):\n- ”In patients at high risk for recurrent depressive episodes and who are treated with pharmacotherapy, we recommend offering maintenance pharmacotherapy for at least 12 months and possibly indefinitely.” [Strong For] \n \n- “After initiation of therapy or a change in treatment, we recommend monitoring patients at least monthly until the patient achieves remission. At minimum, assessments should include a measure of symptoms, adherence to medication and psychotherapy, and emergence of adverse effects.” [Strong For] \n\n- “In patients with MDD who achieve remission with antidepressant medication, we recommend continuation of antidepressants at the therapeutic dose for at least six months to decrease risk of relapse.” [Strong For]","guidance":"To identify new treatment episodes for major depression, there must be a 105-day negative medication history (a period during which the patient was not taking antidepressant medication) prior to the dispensing event associated with the IPSD.\n\nThis eCQM is a patient-based measure.\n\nThis FHIR-based measure has been derived from the QDM-based measure: CMS128v13.\n\nPlease refer to the HL7 QI-Core Implementation Guide (https://hl7.org/fhir/us/qicore/STU4.1.1/) for more information on QI-Core and mapping recommendations from QDM to QI-Core 4.1.1 (https://hl7.org/fhir/us/qicore/STU4.1.1/qdm-to-qicore.html).","group":[{"id":"Group_1","extension":[{"url":"http://hl7.org/fhir/us/cqfmeasures/StructureDefinition/cqfm-scoring","valueCodeableConcept":{"coding":[{"system":"http://terminology.hl7.org/CodeSystem/measure-scoring","code":"proportion","display":"Proportion"}]}},{"url":"http://hl7.org/fhir/us/cqfmeasures/StructureDefinition/cqfm-populationBasis","valueCode":"boolean"},{"url":"http://hl7.org/fhir/us/cqfmeasures/StructureDefinition/cqfm-type","valueCodeableConcept":{"coding":[{"system":"http://terminology.hl7.org/CodeSystem/measure-type","code":"process","display":"Process"}]}},{"url":"http://hl7.org/fhir/us/cqfmeasures/StructureDefinition/cqfm-rateAggregation","valueCode":"None"},{"url":"http://hl7.org/fhir/us/cqfmeasures/StructureDefinition/cqfm-improvementNotation","valueCodeableConcept":{"coding":[{"system":"http://terminology.hl7.org/CodeSystem/measure-improvement-notation","code":"increase","display":"Increased score indicates improvement"}]}}],"population":[{"id":"InitialPopulation_1","code":{"coding":[{"system":"http://terminology.hl7.org/CodeSystem/measure-population","code":"initial-population","display":"Initial Population"}]},"description":"Patients 18 years of age and older as of the IPSD who were dispensed antidepressant medications during the Intake Period, and were diagnosed with major depression 60 days prior to, or 60 days after the dispensing event and had a visit 60 days prior to, or 60 days after the dispensing event","criteria":{"language":"text/cql-identifier","expression":"Initial Population"}},{"id":"Denominator_1","code":{"coding":[{"system":"http://terminology.hl7.org/CodeSystem/measure-population","code":"denominator","display":"Denominator"}]},"description":"Equals Initial Population","criteria":{"language":"text/cql-identifier","expression":"Denominator"}},{"id":"DenominatorExclusion_1","code":{"coding":[{"system":"http://terminology.hl7.org/CodeSystem/measure-population","code":"denominator-exclusion","display":"Denominator Exclusion"}]},"description":"Exclude patients who are in hospice care for any part of the measurement period.\n\nPatients who were actively on an antidepressant medication in the 105 days prior to the IPSD.","criteria":{"language":"text/cql-identifier","expression":"Denominator Exclusions"}},{"id":"Numerator_1","code":{"coding":[{"system":"http://terminology.hl7.org/CodeSystem/measure-population","code":"numerator","display":"Numerator"}]},"description":"Numerator 1: Patients who have received antidepressant medication for at least 84 days (12 weeks) of continuous treatment beginning on the IPSD through 114 days after the IPSD (115 total days).","criteria":{"language":"text/cql-identifier","expression":"Numerator 1"}}]},{"id":"Group_2","extension":[{"url":"http://hl7.org/fhir/us/cqfmeasures/StructureDefinition/cqfm-scoring","valueCodeableConcept":{"coding":[{"system":"http://terminology.hl7.org/CodeSystem/measure-scoring","code":"proportion","display":"Proportion"}]}},{"url":"http://hl7.org/fhir/us/cqfmeasures/StructureDefinition/cqfm-populationBasis","valueCode":"boolean"},{"url":"http://hl7.org/fhir/us/cqfmeasures/StructureDefinition/cqfm-type","valueCodeableConcept":{"coding":[{"system":"http://terminology.hl7.org/CodeSystem/measure-type","code":"process","display":"Process"}]}},{"url":"http://hl7.org/fhir/us/cqfmeasures/StructureDefinition/cqfm-rateAggregation","valueCode":"None"},{"url":"http://hl7.org/fhir/us/cqfmeasures/StructureDefinition/cqfm-improvementNotation","valueCodeableConcept":{"coding":[{"system":"http://terminology.hl7.org/CodeSystem/measure-improvement-notation","code":"increase","display":"Increased score indicates improvement"}]}}],"population":[{"id":"InitialPopulation_2","code":{"coding":[{"system":"http://terminology.hl7.org/CodeSystem/measure-population","code":"initial-population","display":"Initial Population"}]},"criteria":{"language":"text/cql-identifier","expression":"Initial Population"}},{"id":"Denominator_2","code":{"coding":[{"system":"http://terminology.hl7.org/CodeSystem/measure-population","code":"denominator","display":"Denominator"}]},"criteria":{"language":"text/cql-identifier","expression":"Denominator"}},{"id":"DenominatorExclusion_2","code":{"coding":[{"system":"http://terminology.hl7.org/CodeSystem/measure-population","code":"denominator-exclusion","display":"Denominator Exclusion"}]},"description":"Exclude patients who are in hospice care for any part of the measurement period.\n\nPatients who were actively on an antidepressant medication in the 105 days prior to the IPSD.","criteria":{"language":"text/cql-identifier","expression":"Denominator Exclusions"}},{"id":"Numerator_2","code":{"coding":[{"system":"http://terminology.hl7.org/CodeSystem/measure-population","code":"numerator","display":"Numerator"}]},"description":"Numerator 2: Patients who have received antidepressant medications for at least 180 days (6 months) of continuous treatment beginning on the IPSD through 231 days after the IPSD (232 total days).","criteria":{"language":"text/cql-identifier","expression":"Numerator 2"}}]}],"supplementalData":[{"id":"sde-ethnicity","usage":[{"coding":[{"system":"http://terminology.hl7.org/CodeSystem/measure-data-usage","code":"supplemental-data"}]}],"description":"SDE Ethnicity","criteria":{"language":"text/cql-identifier","expression":"SDE Ethnicity"}},{"id":"sde-payer","usage":[{"coding":[{"system":"http://terminology.hl7.org/CodeSystem/measure-data-usage","code":"supplemental-data"}]}],"description":"SDE Payer","criteria":{"language":"text/cql-identifier","expression":"SDE Payer"}},{"id":"sde-race","usage":[{"coding":[{"system":"http://terminology.hl7.org/CodeSystem/measure-data-usage","code":"supplemental-data"}]}],"description":"SDE Race","criteria":{"language":"text/cql-identifier","expression":"SDE Race"}},{"id":"sde-sex","usage":[{"coding":[{"system":"http://terminology.hl7.org/CodeSystem/measure-data-usage","code":"supplemental-data"}]}],"description":"SDE Sex","criteria":{"language":"text/cql-identifier","expression":"SDE Sex"}}]},"request":{"method":"PUT","url":"Measure/CMS128FHIRAntidepressantMedManagement"}}]}