{
  "resourceType": "Bundle",
  "id": "612e6aec02c62a011f2ebc65",
  "type": "transaction",
  "entry": [ {
    "fullUrl": "https://madie.cms.gov/Patient/ea49dc35-7378-4436-aa37-53ec9f13b05d",
    "resource": {
      "resourceType": "Patient",
      "id": "ea49dc35-7378-4436-aa37-53ec9f13b05d",
      "meta": {
        "profile": [ "http://hl7.org/fhir/us/qicore/StructureDefinition/qicore-patient" ]
      },
      "text": {
        "status": "generated",
        "div": "<div xmlns=\"http://www.w3.org/1999/xhtml\"><div class=\"hapiHeaderText\">TestMultipleOccur_2inNum <b>NUMERPASS </b></div><table class=\"hapiPropertyTable\"><tbody><tr><td>Identifier</td><td>a426534591df58c75882b8cd079c574a27466a15aa34f3b521510f2fa1bc133b</td></tr><tr><td>Date of birth</td><td><span>02 January 1974</span></td></tr></tbody></table></div>"
      },
      "extension": [ {
        "url": "http://hl7.org/fhir/us/core/StructureDefinition/us-core-race",
        "extension": [ {
          "url": "ombCategory",
          "valueCoding": {
            "system": "urn:oid:2.16.840.1.113883.6.238",
            "code": "1002-5",
            "display": "American Indian or Alaska Native",
            "userSelected": true
          }
        }, {
          "url": "text",
          "valueString": "American Indian or Alaska Native"
        } ]
      }, {
        "url": "http://hl7.org/fhir/us/core/StructureDefinition/us-core-ethnicity",
        "extension": [ {
          "url": "ombCategory",
          "valueCoding": {
            "system": "urn:oid:2.16.840.1.113883.6.238",
            "code": "2135-2",
            "display": "Hispanic or Latino",
            "userSelected": true
          }
        }, {
          "url": "text",
          "valueString": "Hispanic or Latino"
        } ]
      } ],
      "identifier": [ {
        "type": {
          "coding": [ {
            "system": "http://terminology.hl7.org/CodeSystem/v2-0203",
            "code": "MR"
          } ]
        },
        "system": "https://bonnie-fhir.healthit.gov/",
        "value": "612e6aec02c62a011f2ebc65"
      } ],
      "active": true,
      "name": [ {
        "use": "usual",
        "family": "NUMERPass",
        "given": [ "TestMultipleOccur2inNum" ]
      } ],
      "gender": "male",
      "birthDate": "1975-01-02"
    },
    "request": {
      "method": "PUT",
      "url": "Patient/ea49dc35-7378-4436-aa37-53ec9f13b05d"
    }
  }, {
    "fullUrl": "https://madie.cms.gov/Encounter/766be60b-c095-48ef-9cdc-0a4e2790f268",
    "resource": {
      "resourceType": "Encounter",
      "id": "766be60b-c095-48ef-9cdc-0a4e2790f268",
      "meta": {
        "profile": [ "http://hl7.org/fhir/us/qicore/StructureDefinition/qicore-encounter" ]
      },
      "status": "finished",
      "class": {
        "system": "http://terminology.hl7.org/CodeSystem/v3-ActCode",
        "code": "IMP",
        "display": "inpatient encounter"
      },
      "type": [ {
        "coding": [ {
          "system": "http://snomed.info/sct",
          "code": "183452005"
        } ]
      } ],
      "subject": {
        "reference": "Patient/ea49dc35-7378-4436-aa37-53ec9f13b05d"
      },
      "period": {
        "start": "2026-04-01T08:00:00.000+00:00",
        "end": "2026-04-05T08:15:00.000+00:00"
      },
      "length": {
        "value": 4,
        "unit": "days"
      }
    },
    "request": {
      "method": "PUT",
      "url": "Encounter/766be60b-c095-48ef-9cdc-0a4e2790f268"
    }
  }, {
    "fullUrl": "https://madie.cms.gov/Encounter/b3662d90-d4f8-4b5b-a962-67da603fe29c",
    "resource": {
      "resourceType": "Encounter",
      "id": "b3662d90-d4f8-4b5b-a962-67da603fe29c",
      "meta": {
        "profile": [ "http://hl7.org/fhir/us/qicore/StructureDefinition/qicore-encounter" ]
      },
      "status": "finished",
      "class": {
        "system": "http://terminology.hl7.org/CodeSystem/v3-ActCode",
        "code": "IMP",
        "display": "inpatient encounter"
      },
      "type": [ {
        "coding": [ {
          "system": "http://snomed.info/sct",
          "code": "8715000"
        } ]
      } ],
      "subject": {
        "reference": "Patient/ea49dc35-7378-4436-aa37-53ec9f13b05d"
      },
      "period": {
        "start": "2026-11-01T08:00:00.000+00:00",
        "end": "2026-11-26T08:15:00.000+00:00"
      },
      "length": {
        "value": 25,
        "unit": "days"
      }
    },
    "request": {
      "method": "PUT",
      "url": "Encounter/b3662d90-d4f8-4b5b-a962-67da603fe29c"
    }
  }, {
    "fullUrl": "https://madie.cms.gov/Coverage/3a4d2385-f983-4f9e-bcda-c0732e0ddc01",
    "resource": {
      "resourceType": "Coverage",
      "id": "3a4d2385-f983-4f9e-bcda-c0732e0ddc01",
      "status": "active",
      "beneficiary": {
        "reference": "Patient/ea49dc35-7378-4436-aa37-53ec9f13b05d"
      },
      "period": {
        "start": "1975-01-02T08:00:00.000+00:00"
      },
      "payor": [ {
        "reference": "Organization/2df65c44-714f-496a-aa11-4c808fb75e23"
      } ]
    },
    "request": {
      "method": "PUT",
      "url": "Coverage/3a4d2385-f983-4f9e-bcda-c0732e0ddc01"
    }
  }, {
    "fullUrl": "https://madie.cms.gov/MedicationAdministration/9bf908f2-a21f-464b-a99e-28167aa4f6d6",
    "resource": {
      "resourceType": "MedicationAdministration",
      "id": "9bf908f2-a21f-464b-a99e-28167aa4f6d6",
      "meta": {
        "profile": [ "http://hl7.org/fhir/us/qicore/StructureDefinition/qicore-medicationadministration" ]
      },
      "status": "completed",
      "medicationCodeableConcept": {
        "coding": [ {
          "system": "http://www.nlm.nih.gov/research/umls/rxnorm",
          "code": "200349"
        } ]
      },
      "subject": {
        "reference": "Patient/ea49dc35-7378-4436-aa37-53ec9f13b05d"
      },
      "effectivePeriod": {
        "start": "2026-11-01T07:00:00.000+00:00"
      }
    },
    "request": {
      "method": "PUT",
      "url": "MedicationAdministration/9bf908f2-a21f-464b-a99e-28167aa4f6d6"
    }
  }, {
    "fullUrl": "https://madie.cms.gov/Procedure/02b514ad-c457-42d8-ac59-48ee8e72c9ff",
    "resource": {
      "resourceType": "Procedure",
      "id": "02b514ad-c457-42d8-ac59-48ee8e72c9ff",
      "meta": {
        "profile": [ "http://hl7.org/fhir/us/qicore/StructureDefinition/qicore-procedure" ]
      },
      "extension": [ {
        "url": "http://hl7.org/fhir/us/qicore/StructureDefinition/qicore-recorded",
        "valueDateTime": "2013-11-01T13:35:00.000+00:00"
      } ],
      "status": "completed",
      "code": {
        "coding": [ {
          "system": "http://snomed.info/sct",
          "code": "442410008",
          "display": "Application of venous foot pump (procedure)"
        } ]
      },
      "subject": {
        "reference": "Patient/ea49dc35-7378-4436-aa37-53ec9f13b05d"
      },
      "performedPeriod": {
        "start": "2026-04-01T08:00:00.000+00:00",
        "end": "2026-04-01T08:15:00.000+00:00"
      }
    },
    "request": {
      "method": "PUT",
      "url": "Procedure/02b514ad-c457-42d8-ac59-48ee8e72c9ff"
    }
  }, {
    "fullUrl": "https://madie.cms.gov/Organization/2df65c44-714f-496a-aa11-4c808fb75e23",
    "resource": {
      "resourceType": "Organization",
      "id": "2df65c44-714f-496a-aa11-4c808fb75e23",
      "meta": {
        "profile": [ "http://hl7.org/fhir/us/qicore/StructureDefinition/qicore-organization" ]
      },
      "identifier": [ {
        "use": "temp",
        "system": "urn:oid:2.16.840.1.113883.4.4",
        "value": "21-3259825"
      } ],
      "active": true,
      "type": [ {
        "coding": [ {
          "system": "http://terminology.hl7.org/CodeSystem/organization-type",
          "code": "pay",
          "display": "Payer"
        } ]
      } ],
      "name": "Blue Cross Blue Shield of Texas",
      "telecom": [ {
        "system": "phone",
        "value": "(+1) 972-766-6900"
      } ],
      "address": [ {
        "use": "billing",
        "type": "postal",
        "line": [ "P.O. Box 660044" ],
        "city": "Dallas",
        "state": "TX",
        "postalCode": "75266-0044",
        "country": "USA"
      } ]
    },
    "request": {
      "method": "PUT",
      "url": "Organization/2df65c44-714f-496a-aa11-4c808fb75e23"
    }
  }, {
    "fullUrl": "https://madie.cms.gov/Practitioner/d2100712-8171-4e0a-a211-ef4b9f93951c",
    "resource": {
      "resourceType": "Practitioner",
      "id": "d2100712-8171-4e0a-a211-ef4b9f93951c",
      "identifier": [ {
        "system": "http://hl7.org/fhir/sid/us-npi",
        "value": "123456"
      } ],
      "name": [ {
        "family": "Evil",
        "prefix": [ "Dr" ]
      } ]
    },
    "request": {
      "method": "PUT",
      "url": "Practitioner/d2100712-8171-4e0a-a211-ef4b9f93951c"
    }
  }, {
    "fullUrl": "https://madie.cms.gov/MeasureReport/793e1f54-8b25-4d8a-8b2d-dbf16fb389e3",
    "resource": {
      "resourceType": "MeasureReport",
      "id": "793e1f54-8b25-4d8a-8b2d-dbf16fb389e3",
      "meta": {
        "profile": [ "http://hl7.org/fhir/us/cqfmeasures/StructureDefinition/test-case-cqfm" ]
      },
      "contained": [ {
        "resourceType": "Parameters",
        "id": "80a440a5-64c6-46c6-af4f-f0ceaf103fae-parameters",
        "parameter": [ {
          "name": "subject",
          "valueString": "ea49dc35-7378-4436-aa37-53ec9f13b05d"
        } ]
      } ],
      "extension": [ {
        "url": "http://hl7.org/fhir/StructureDefinition/cqf-inputParameters",
        "valueReference": {
          "reference": "#80a440a5-64c6-46c6-af4f-f0ceaf103fae-parameters"
        }
      }, {
        "url": "http://hl7.org/fhir/us/cqfmeasures/StructureDefinition/cqfm-testCaseDescription",
        "valueMarkdown": "TestMultipleOccur - 2 occurrences both pass NUMERATOR - even 2nd one Medication: Administered: Glycoprotein IIb/IIIa Inhibitors was prior to Adm but it still passes due to on the day of adm\n"
      } ],
      "modifierExtension": [ {
        "url": "http://hl7.org/fhir/us/cqfmeasures/StructureDefinition/cqfm-isTestCase",
        "valueBoolean": true
      } ],
      "status": "complete",
      "type": "individual",
      "measure": "https://madie.cms.gov/Measure/CMS108FHIRVTEProphylaxis",
      "period": {
        "start": "2026-01-01",
        "end": "2026-12-31"
      },
      "group": [ {
        "id": "Group_1",
        "population": [ {
          "id": "InitialPopulation_1",
          "code": {
            "coding": [ {
              "system": "http://terminology.hl7.org/CodeSystem/measure-population",
              "code": "initial-population",
              "display": "Initial Population"
            } ]
          },
          "count": 2
        }, {
          "id": "Denominator_1",
          "code": {
            "coding": [ {
              "system": "http://terminology.hl7.org/CodeSystem/measure-population",
              "code": "denominator",
              "display": "Denominator"
            } ]
          },
          "count": 2
        }, {
          "id": "DenominatorExclusion_1",
          "code": {
            "coding": [ {
              "system": "http://terminology.hl7.org/CodeSystem/measure-population",
              "code": "denominator-exclusion",
              "display": "Denominator Exclusion"
            } ]
          },
          "count": 0
        }, {
          "id": "Numerator_1",
          "code": {
            "coding": [ {
              "system": "http://terminology.hl7.org/CodeSystem/measure-population",
              "code": "numerator",
              "display": "Numerator"
            } ]
          },
          "count": 2
        } ],
        "measureScore": {
          "value": 0.0
        }
      } ],
      "evaluatedResource": [ {
        "reference": "Patient/ea49dc35-7378-4436-aa37-53ec9f13b05d"
      }, {
        "reference": "Encounter/766be60b-c095-48ef-9cdc-0a4e2790f268"
      }, {
        "reference": "Encounter/b3662d90-d4f8-4b5b-a962-67da603fe29c"
      }, {
        "reference": "Coverage/3a4d2385-f983-4f9e-bcda-c0732e0ddc01"
      }, {
        "reference": "MedicationAdministration/9bf908f2-a21f-464b-a99e-28167aa4f6d6"
      }, {
        "reference": "Procedure/02b514ad-c457-42d8-ac59-48ee8e72c9ff"
      }, {
        "reference": "Organization/2df65c44-714f-496a-aa11-4c808fb75e23"
      }, {
        "reference": "Practitioner/d2100712-8171-4e0a-a211-ef4b9f93951c"
      } ]
    },
    "request": {
      "method": "PUT",
      "url": "MeasureReport/793e1f54-8b25-4d8a-8b2d-dbf16fb389e3"
    }
  } ]
}