{
  "resourceType": "Bundle",
  "id": "617bf8d41289f5673c8ceff5",
  "type": "transaction",
  "entry": [ {
    "fullUrl": "https://madie.cms.gov/Patient/1c7fd739-8997-4262-b790-f9d97dde370a",
    "resource": {
      "resourceType": "Patient",
      "id": "1c7fd739-8997-4262-b790-f9d97dde370a",
      "meta": {
        "profile": [ "http://hl7.org/fhir/us/qicore/StructureDefinition/qicore-patient" ]
      },
      "extension": [ {
        "url": "http://hl7.org/fhir/us/core/StructureDefinition/us-core-race",
        "extension": [ {
          "url": "ombCategory",
          "valueCoding": {
            "system": "urn:oid:2.16.840.1.113883.6.238",
            "code": "2028-9",
            "display": "Asian",
            "userSelected": true
          }
        }, {
          "url": "text",
          "valueString": "Asian"
        } ]
      }, {
        "url": "http://hl7.org/fhir/us/core/StructureDefinition/us-core-ethnicity",
        "extension": [ {
          "url": "ombCategory",
          "valueCoding": {
            "system": "urn:oid:2.16.840.1.113883.6.238",
            "code": "2135-2",
            "display": "Hispanic or Latino",
            "userSelected": true
          }
        }, {
          "url": "text",
          "valueString": "Hispanic or Latino"
        } ]
      }, {
        "url": "http://hl7.org/fhir/us/core/StructureDefinition/us-core-sex",
        "valueCode": "248153007"
      } ],
      "identifier": [ {
        "type": {
          "coding": [ {
            "system": "http://terminology.hl7.org/CodeSystem/v2-0203",
            "code": "MR"
          } ]
        },
        "system": "https://bonnie-fhir.healthit.gov/",
        "value": "617bf8d41289f5673c8ceff5"
      } ],
      "name": [ {
        "family": "DenExcl8Pass",
        "given": [ "AllergyStartsBeforeEndsAfterED" ]
      } ],
      "gender": "male",
      "birthDate": "1985-12-02"
    },
    "request": {
      "method": "PUT",
      "url": "Patient/1c7fd739-8997-4262-b790-f9d97dde370a"
    }
  }, {
    "fullUrl": "https://madie.cms.gov/Encounter/680de912-5218-4559-9518-c79e7039782b",
    "resource": {
      "resourceType": "Encounter",
      "id": "680de912-5218-4559-9518-c79e7039782b",
      "meta": {
        "profile": [ "http://hl7.org/fhir/us/qicore/StructureDefinition/qicore-encounter" ]
      },
      "status": "finished",
      "class": {
        "system": "http://terminology.hl7.org/CodeSystem/v3-ActCode",
        "code": "EMER",
        "display": "emergency",
        "userSelected": true
      },
      "type": [ {
        "coding": [ {
          "system": "http://snomed.info/sct",
          "version": "2020-09",
          "code": "4525004",
          "display": "Emergency department patient visit (procedure)",
          "userSelected": true
        } ]
      } ],
      "subject": {
        "reference": "Patient/1c7fd739-8997-4262-b790-f9d97dde370a"
      },
      "period": {
        "start": "2026-10-09T08:05:00.000+00:00",
        "end": "2026-10-10T07:15:00.000+00:00"
      },
      "reasonCode": [ {
        "coding": [ {
          "system": "http://snomed.info/sct",
          "version": "2020-09",
          "code": "703211006",
          "display": "Subsequent ST segment elevation myocardial infarction (disorder)",
          "userSelected": true
        } ]
      } ]
    },
    "request": {
      "method": "PUT",
      "url": "Encounter/680de912-5218-4559-9518-c79e7039782b"
    }
  }, {
    "fullUrl": "https://madie.cms.gov/AllergyIntolerance/05c60150-6dde-4456-baf4-3a6a8ea94c74",
    "resource": {
      "resourceType": "AllergyIntolerance",
      "id": "05c60150-6dde-4456-baf4-3a6a8ea94c74",
      "meta": {
        "profile": [ "http://hl7.org/fhir/us/qicore/StructureDefinition/qicore-allergyintolerance" ]
      },
      "clinicalStatus": {
        "coding": [ {
          "system": "http://terminology.hl7.org/CodeSystem/allergyintolerance-clinical",
          "code": "active",
          "display": "Active",
          "userSelected": true
        } ]
      },
      "code": {
        "coding": [ {
          "system": "http://www.nlm.nih.gov/research/umls/rxnorm",
          "version": "2021-01",
          "code": "10106",
          "display": "streptokinase",
          "userSelected": true
        } ]
      },
      "patient": {
        "reference": "Patient/1c7fd739-8997-4262-b790-f9d97dde370a"
      },
      "onsetPeriod": {
        "start": "2021-01-10T08:00:00.000+00:00",
        "end": "2026-12-02T08:15:00.000+00:00"
      }
    },
    "request": {
      "method": "PUT",
      "url": "AllergyIntolerance/05c60150-6dde-4456-baf4-3a6a8ea94c74"
    }
  }, {
    "fullUrl": "https://madie.cms.gov/MeasureReport/0f9f9d63-3cd8-4976-ab93-bbf24cdc47b6",
    "resource": {
      "resourceType": "MeasureReport",
      "id": "0f9f9d63-3cd8-4976-ab93-bbf24cdc47b6",
      "meta": {
        "profile": [ "http://hl7.org/fhir/us/cqfmeasures/StructureDefinition/test-case-cqfm" ]
      },
      "contained": [ {
        "resourceType": "Parameters",
        "id": "3918a333-999e-41e2-8cb7-74d1476ab602-parameters",
        "parameter": [ {
          "name": "subject",
          "valueString": "1c7fd739-8997-4262-b790-f9d97dde370a"
        } ]
      } ],
      "extension": [ {
        "url": "http://hl7.org/fhir/StructureDefinition/cqf-inputParameters",
        "valueReference": {
          "reference": "#3918a333-999e-41e2-8cb7-74d1476ab602-parameters"
        }
      }, {
        "url": "http://hl7.org/fhir/us/cqfmeasures/StructureDefinition/cqfm-testCaseDescription",
        "valueMarkdown": "Patient has allergy to medication ingredient starts before and ends after ED"
      } ],
      "modifierExtension": [ {
        "url": "http://hl7.org/fhir/us/cqfmeasures/StructureDefinition/cqfm-isTestCase",
        "valueBoolean": true
      } ],
      "status": "complete",
      "type": "individual",
      "measure": "https://madie.cms.gov/Measure/CMS996FHIRAptTxforSTEMI",
      "period": {
        "start": "2026-01-01",
        "end": "2026-12-31"
      },
      "group": [ {
        "id": "Group_1",
        "population": [ {
          "id": "InitialPopulation_1",
          "code": {
            "coding": [ {
              "system": "http://terminology.hl7.org/CodeSystem/measure-population",
              "code": "initial-population",
              "display": "Initial Population"
            } ]
          },
          "count": 1
        }, {
          "id": "Denominator_1",
          "code": {
            "coding": [ {
              "system": "http://terminology.hl7.org/CodeSystem/measure-population",
              "code": "denominator",
              "display": "Denominator"
            } ]
          },
          "count": 1
        }, {
          "id": "DenominatorExclusion_1",
          "code": {
            "coding": [ {
              "system": "http://terminology.hl7.org/CodeSystem/measure-population",
              "code": "denominator-exclusion",
              "display": "Denominator Exclusion"
            } ]
          },
          "count": 1
        }, {
          "id": "Numerator_1",
          "code": {
            "coding": [ {
              "system": "http://terminology.hl7.org/CodeSystem/measure-population",
              "code": "numerator",
              "display": "Numerator"
            } ]
          },
          "count": 0
        }, {
          "id": "DenominatorException_1",
          "code": {
            "coding": [ {
              "system": "http://terminology.hl7.org/CodeSystem/measure-population",
              "code": "denominator-exception",
              "display": "Denominator Exception"
            } ]
          },
          "count": 0
        } ],
        "measureScore": {
          "value": 0.0
        }
      } ],
      "evaluatedResource": [ {
        "reference": "Patient/1c7fd739-8997-4262-b790-f9d97dde370a"
      }, {
        "reference": "Encounter/680de912-5218-4559-9518-c79e7039782b"
      }, {
        "reference": "AllergyIntolerance/05c60150-6dde-4456-baf4-3a6a8ea94c74"
      } ]
    },
    "request": {
      "method": "PUT",
      "url": "MeasureReport/0f9f9d63-3cd8-4976-ab93-bbf24cdc47b6"
    }
  } ]
}