{
  "resourceType": "Bundle",
  "id": "n1f044ef3e654daa2599",
  "type": "transaction",
  "entry": [ {
    "fullUrl": "https://madie.cms.gov/Patient/2343b3b5-019c-4fce-9e7c-efa024e0e408",
    "resource": {
      "resourceType": "Patient",
      "id": "2343b3b5-019c-4fce-9e7c-efa024e0e408",
      "meta": {
        "profile": [ "http://hl7.org/fhir/us/qicore/StructureDefinition/qicore-patient" ]
      },
      "extension": [ {
        "url": "http://hl7.org/fhir/us/core/StructureDefinition/us-core-race",
        "extension": [ {
          "url": "ombCategory",
          "valueCoding": {
            "system": "urn:oid:2.16.840.1.113883.6.238",
            "code": "1002-5",
            "display": "American Indian or Alaska Native",
            "userSelected": true
          }
        }, {
          "url": "text",
          "valueString": "American Indian or Alaska Native"
        } ]
      }, {
        "url": "http://hl7.org/fhir/us/core/StructureDefinition/us-core-ethnicity",
        "extension": [ {
          "url": "ombCategory",
          "valueCoding": {
            "system": "urn:oid:2.16.840.1.113883.6.238",
            "code": "2135-2",
            "display": "Hispanic or Latino",
            "userSelected": true
          }
        }, {
          "url": "text",
          "valueString": "Hispanic or Latino"
        } ]
      }, {
        "url": "http://hl7.org/fhir/us/core/StructureDefinition/us-core-sex",
        "valueCode": "248153007"
      } ],
      "identifier": [ {
        "type": {
          "coding": [ {
            "system": "http://terminology.hl7.org/CodeSystem/v2-0203",
            "code": "MR"
          } ]
        },
        "system": "https://bonnie-fhir.healthit.gov/",
        "value": "n1f044ef3e654daa2599"
      } ],
      "name": [ {
        "family": "DENEXCL11PASS",
        "given": [ "HospiceInterventionOrderedBeforeED" ]
      } ],
      "gender": "male",
      "birthDate": "1981-06-25"
    },
    "request": {
      "method": "PUT",
      "url": "Patient/2343b3b5-019c-4fce-9e7c-efa024e0e408"
    }
  }, {
    "fullUrl": "https://madie.cms.gov/Encounter/3443f830-a11a-4ef5-936d-3df70f04bbeb",
    "resource": {
      "resourceType": "Encounter",
      "id": "3443f830-a11a-4ef5-936d-3df70f04bbeb",
      "meta": {
        "profile": [ "http://hl7.org/fhir/us/qicore/StructureDefinition/qicore-encounter" ]
      },
      "status": "finished",
      "class": {
        "system": "http://terminology.hl7.org/CodeSystem/v3-ActCode",
        "code": "EMER",
        "display": "emergency",
        "userSelected": true
      },
      "type": [ {
        "coding": [ {
          "system": "http://snomed.info/sct",
          "version": "2020-09",
          "code": "4525004",
          "display": "Emergency department patient visit",
          "userSelected": true
        } ]
      } ],
      "subject": {
        "reference": "Patient/2343b3b5-019c-4fce-9e7c-efa024e0e408"
      },
      "period": {
        "start": "2026-10-09T05:00:00.000+00:00",
        "end": "2026-10-13T17:00:00.000+00:00"
      },
      "reasonCode": [ {
        "coding": [ {
          "system": "http://hl7.org/fhir/sid/icd-10-cm",
          "code": "I21.21",
          "display": "ST elevation (STEMI) myocardial infarction involving left circumflex coronary artery",
          "userSelected": true
        } ]
      } ]
    },
    "request": {
      "method": "PUT",
      "url": "Encounter/3443f830-a11a-4ef5-936d-3df70f04bbeb"
    }
  }, {
    "fullUrl": "https://madie.cms.gov/ServiceRequest/e1b052e4-6ed6-4194-b7ea-82da4ed86d24",
    "resource": {
      "resourceType": "ServiceRequest",
      "id": "e1b052e4-6ed6-4194-b7ea-82da4ed86d24",
      "meta": {
        "profile": [ "http://hl7.org/fhir/us/qicore/StructureDefinition/qicore-servicerequest" ]
      },
      "status": "completed",
      "intent": "order",
      "code": {
        "coding": [ {
          "system": "http://snomed.info/sct",
          "code": "385763009",
          "display": "Hospice care (regime/therapy)",
          "userSelected": true
        } ]
      },
      "subject": {
        "reference": "Patient/2343b3b5-019c-4fce-9e7c-efa024e0e408"
      },
      "authoredOn": "2026-10-01T12:00:00.000+00:00"
    },
    "request": {
      "method": "PUT",
      "url": "ServiceRequest/e1b052e4-6ed6-4194-b7ea-82da4ed86d24"
    }
  }, {
    "fullUrl": "https://madie.cms.gov/MeasureReport/06594d01-51a0-42bc-b48b-626f3c18e416",
    "resource": {
      "resourceType": "MeasureReport",
      "id": "06594d01-51a0-42bc-b48b-626f3c18e416",
      "meta": {
        "profile": [ "http://hl7.org/fhir/us/cqfmeasures/StructureDefinition/test-case-cqfm" ]
      },
      "contained": [ {
        "resourceType": "Parameters",
        "id": "ea5da39e-8969-49e2-ab74-e0672676cae9-parameters",
        "parameter": [ {
          "name": "subject",
          "valueString": "2343b3b5-019c-4fce-9e7c-efa024e0e408"
        } ]
      } ],
      "extension": [ {
        "url": "http://hl7.org/fhir/StructureDefinition/cqf-inputParameters",
        "valueReference": {
          "reference": "#ea5da39e-8969-49e2-ab74-e0672676cae9-parameters"
        }
      }, {
        "url": "http://hl7.org/fhir/us/cqfmeasures/StructureDefinition/cqfm-testCaseDescription",
        "valueMarkdown": "Patients has hospice services (intervention, Service Request) before ED"
      } ],
      "modifierExtension": [ {
        "url": "http://hl7.org/fhir/us/cqfmeasures/StructureDefinition/cqfm-isTestCase",
        "valueBoolean": true
      } ],
      "status": "complete",
      "type": "individual",
      "measure": "https://madie.cms.gov/Measure/CMS996FHIRAptTxforSTEMI",
      "period": {
        "start": "2026-01-01",
        "end": "2026-12-31"
      },
      "group": [ {
        "id": "Group_1",
        "population": [ {
          "id": "InitialPopulation_1",
          "code": {
            "coding": [ {
              "system": "http://terminology.hl7.org/CodeSystem/measure-population",
              "code": "initial-population",
              "display": "Initial Population"
            } ]
          },
          "count": 1
        }, {
          "id": "Denominator_1",
          "code": {
            "coding": [ {
              "system": "http://terminology.hl7.org/CodeSystem/measure-population",
              "code": "denominator",
              "display": "Denominator"
            } ]
          },
          "count": 1
        }, {
          "id": "DenominatorExclusion_1",
          "code": {
            "coding": [ {
              "system": "http://terminology.hl7.org/CodeSystem/measure-population",
              "code": "denominator-exclusion",
              "display": "Denominator Exclusion"
            } ]
          },
          "count": 1
        }, {
          "id": "Numerator_1",
          "code": {
            "coding": [ {
              "system": "http://terminology.hl7.org/CodeSystem/measure-population",
              "code": "numerator",
              "display": "Numerator"
            } ]
          },
          "count": 0
        }, {
          "id": "DenominatorException_1",
          "code": {
            "coding": [ {
              "system": "http://terminology.hl7.org/CodeSystem/measure-population",
              "code": "denominator-exception",
              "display": "Denominator Exception"
            } ]
          },
          "count": 0
        } ],
        "measureScore": {
          "value": 0.0
        }
      } ],
      "evaluatedResource": [ {
        "reference": "Patient/2343b3b5-019c-4fce-9e7c-efa024e0e408"
      }, {
        "reference": "Encounter/3443f830-a11a-4ef5-936d-3df70f04bbeb"
      }, {
        "reference": "ServiceRequest/e1b052e4-6ed6-4194-b7ea-82da4ed86d24"
      } ]
    },
    "request": {
      "method": "PUT",
      "url": "MeasureReport/06594d01-51a0-42bc-b48b-626f3c18e416"
    }
  } ]
}