{
  "resourceType": "Bundle",
  "id": "k1f044ef3e654daa9108",
  "type": "transaction",
  "entry": [ {
    "fullUrl": "https://madie.cms.gov/Patient/31cd9edb-02a8-4208-956a-baac147ed8d8",
    "resource": {
      "resourceType": "Patient",
      "id": "31cd9edb-02a8-4208-956a-baac147ed8d8",
      "meta": {
        "profile": [ "http://hl7.org/fhir/us/qicore/StructureDefinition/qicore-patient" ]
      },
      "extension": [ {
        "url": "http://hl7.org/fhir/us/core/StructureDefinition/us-core-race",
        "extension": [ {
          "url": "ombCategory",
          "valueCoding": {
            "system": "urn:oid:2.16.840.1.113883.6.238",
            "code": "2028-9",
            "display": "Asian",
            "userSelected": true
          }
        }, {
          "url": "text",
          "valueString": "Asian"
        } ]
      }, {
        "url": "http://hl7.org/fhir/us/core/StructureDefinition/us-core-ethnicity",
        "extension": [ {
          "url": "ombCategory",
          "valueCoding": {
            "system": "urn:oid:2.16.840.1.113883.6.238",
            "code": "2186-5",
            "display": "Not Hispanic or Latino",
            "userSelected": true
          }
        }, {
          "url": "text",
          "valueString": "Not Hispanic or Latino"
        } ]
      }, {
        "url": "http://hl7.org/fhir/us/core/StructureDefinition/us-core-sex",
        "valueCode": "248153007"
      } ],
      "identifier": [ {
        "type": {
          "coding": [ {
            "system": "http://terminology.hl7.org/CodeSystem/v2-0203",
            "code": "MR"
          } ]
        },
        "system": "https://bonnie-fhir.healthit.gov/",
        "value": "k1f044ef3e654daa9108"
      } ],
      "name": [ {
        "family": "DENEXCL11PASS",
        "given": [ "HospiceFacilityDischargeDispositionOverlapsED" ]
      } ],
      "gender": "male",
      "birthDate": "1995-01-10"
    },
    "request": {
      "method": "PUT",
      "url": "Patient/31cd9edb-02a8-4208-956a-baac147ed8d8"
    }
  }, {
    "fullUrl": "https://madie.cms.gov/Encounter/45c8571f-1532-49d3-a3ac-563f159735b9",
    "resource": {
      "resourceType": "Encounter",
      "id": "45c8571f-1532-49d3-a3ac-563f159735b9",
      "meta": {
        "profile": [ "http://hl7.org/fhir/us/qicore/StructureDefinition/qicore-encounter" ]
      },
      "status": "finished",
      "class": {
        "system": "http://terminology.hl7.org/CodeSystem/v3-ActCode",
        "code": "EMER",
        "display": "emergency",
        "userSelected": true
      },
      "type": [ {
        "coding": [ {
          "system": "http://snomed.info/sct",
          "version": "2020-09",
          "code": "4525004",
          "display": "Emergency department patient visit",
          "userSelected": true
        } ]
      } ],
      "subject": {
        "reference": "Patient/31cd9edb-02a8-4208-956a-baac147ed8d8"
      },
      "period": {
        "start": "2026-10-09T05:00:00.000+00:00",
        "end": "2026-10-13T17:00:00.000+00:00"
      },
      "reasonReference": [ {
        "reference": "Condition/d0dc3ad9-1559-473c-aee5-b8054201a440"
      } ]
    },
    "request": {
      "method": "PUT",
      "url": "Encounter/45c8571f-1532-49d3-a3ac-563f159735b9"
    }
  }, {
    "fullUrl": "https://madie.cms.gov/Encounter/6dc8400b-f0c7-4327-b929-01f308232111",
    "resource": {
      "resourceType": "Encounter",
      "id": "6dc8400b-f0c7-4327-b929-01f308232111",
      "meta": {
        "profile": [ "http://hl7.org/fhir/us/qicore/StructureDefinition/qicore-encounter" ]
      },
      "status": "finished",
      "class": {
        "system": "http://terminology.hl7.org/CodeSystem/v3-ActCode",
        "code": "EMER",
        "display": "emergency",
        "userSelected": true
      },
      "type": [ {
        "coding": [ {
          "system": "http://snomed.info/sct",
          "code": "32485007",
          "display": "Hospital admission (procedure)",
          "userSelected": true
        } ]
      } ],
      "subject": {
        "reference": "Patient/31cd9edb-02a8-4208-956a-baac147ed8d8"
      },
      "period": {
        "start": "2026-10-08T05:00:00.000+00:00"
      },
      "hospitalization": {
        "dischargeDisposition": {
          "coding": [ {
            "system": "http://snomed.info/sct",
            "code": "428371000124100",
            "display": "Discharge to healthcare facility for hospice care (procedure)",
            "userSelected": true
          } ]
        }
      }
    },
    "request": {
      "method": "PUT",
      "url": "Encounter/6dc8400b-f0c7-4327-b929-01f308232111"
    }
  }, {
    "fullUrl": "https://madie.cms.gov/Condition/d0dc3ad9-1559-473c-aee5-b8054201a440",
    "resource": {
      "resourceType": "Condition",
      "id": "d0dc3ad9-1559-473c-aee5-b8054201a440",
      "meta": {
        "profile": [ "http://hl7.org/fhir/us/qicore/StructureDefinition/qicore-condition-encounter-diagnosis" ]
      },
      "clinicalStatus": {
        "coding": [ {
          "system": "http://terminology.hl7.org/CodeSystem/condition-clinical",
          "code": "active",
          "display": "Active",
          "userSelected": true
        } ]
      },
      "category": [ {
        "coding": [ {
          "system": "http://terminology.hl7.org/CodeSystem/condition-category",
          "code": "encounter-diagnosis",
          "display": "Encounter Diagnosis",
          "userSelected": true
        } ]
      } ],
      "code": {
        "coding": [ {
          "system": "http://hl7.org/fhir/sid/icd-10-cm",
          "code": "I21.21",
          "display": "ST elevation (STEMI) myocardial infarction involving left circumflex coronary artery",
          "userSelected": true
        } ]
      },
      "subject": {
        "reference": "Patient/31cd9edb-02a8-4208-956a-baac147ed8d8"
      },
      "encounter": {
        "reference": "Encounter/45c8571f-1532-49d3-a3ac-563f159735b9"
      },
      "onsetPeriod": {
        "start": "2026-10-09T05:00:00.000+00:00",
        "end": "2026-10-09T17:00:00.000+00:00"
      }
    },
    "request": {
      "method": "PUT",
      "url": "Condition/d0dc3ad9-1559-473c-aee5-b8054201a440"
    }
  }, {
    "fullUrl": "https://madie.cms.gov/MeasureReport/e802e45e-d63d-4eaa-be6c-ab49806862f8",
    "resource": {
      "resourceType": "MeasureReport",
      "id": "e802e45e-d63d-4eaa-be6c-ab49806862f8",
      "meta": {
        "profile": [ "http://hl7.org/fhir/us/cqfmeasures/StructureDefinition/test-case-cqfm" ]
      },
      "contained": [ {
        "resourceType": "Parameters",
        "id": "2d68e938-f236-49c3-9d17-5e75a4a781e3-parameters",
        "parameter": [ {
          "name": "subject",
          "valueString": "31cd9edb-02a8-4208-956a-baac147ed8d8"
        } ]
      } ],
      "extension": [ {
        "url": "http://hl7.org/fhir/StructureDefinition/cqf-inputParameters",
        "valueReference": {
          "reference": "#2d68e938-f236-49c3-9d17-5e75a4a781e3-parameters"
        }
      }, {
        "url": "http://hl7.org/fhir/us/cqfmeasures/StructureDefinition/cqfm-testCaseDescription",
        "valueMarkdown": "Patients has hospice discharge disposition (HCF) overlaps ED (missing IP end date)"
      } ],
      "modifierExtension": [ {
        "url": "http://hl7.org/fhir/us/cqfmeasures/StructureDefinition/cqfm-isTestCase",
        "valueBoolean": true
      } ],
      "status": "complete",
      "type": "individual",
      "measure": "https://madie.cms.gov/Measure/CMS996FHIRAptTxforSTEMI",
      "period": {
        "start": "2026-01-01",
        "end": "2026-12-31"
      },
      "group": [ {
        "id": "Group_1",
        "population": [ {
          "id": "InitialPopulation_1",
          "code": {
            "coding": [ {
              "system": "http://terminology.hl7.org/CodeSystem/measure-population",
              "code": "initial-population",
              "display": "Initial Population"
            } ]
          },
          "count": 1
        }, {
          "id": "Denominator_1",
          "code": {
            "coding": [ {
              "system": "http://terminology.hl7.org/CodeSystem/measure-population",
              "code": "denominator",
              "display": "Denominator"
            } ]
          },
          "count": 1
        }, {
          "id": "DenominatorExclusion_1",
          "code": {
            "coding": [ {
              "system": "http://terminology.hl7.org/CodeSystem/measure-population",
              "code": "denominator-exclusion",
              "display": "Denominator Exclusion"
            } ]
          },
          "count": 1
        }, {
          "id": "Numerator_1",
          "code": {
            "coding": [ {
              "system": "http://terminology.hl7.org/CodeSystem/measure-population",
              "code": "numerator",
              "display": "Numerator"
            } ]
          },
          "count": 0
        }, {
          "id": "DenominatorException_1",
          "code": {
            "coding": [ {
              "system": "http://terminology.hl7.org/CodeSystem/measure-population",
              "code": "denominator-exception",
              "display": "Denominator Exception"
            } ]
          },
          "count": 0
        } ],
        "measureScore": {
          "value": 0.0
        }
      } ],
      "evaluatedResource": [ {
        "reference": "Patient/31cd9edb-02a8-4208-956a-baac147ed8d8"
      }, {
        "reference": "Encounter/45c8571f-1532-49d3-a3ac-563f159735b9"
      }, {
        "reference": "Encounter/6dc8400b-f0c7-4327-b929-01f308232111"
      }, {
        "reference": "Condition/d0dc3ad9-1559-473c-aee5-b8054201a440"
      } ]
    },
    "request": {
      "method": "PUT",
      "url": "MeasureReport/e802e45e-d63d-4eaa-be6c-ab49806862f8"
    }
  } ]
}