{
  "resourceType": "Bundle",
  "id": "6179e951ad1a790b7af7524e",
  "type": "transaction",
  "entry": [ {
    "fullUrl": "https://madie.cms.gov/Patient/baa3f56c-d4df-4922-96a1-603c234b6db4",
    "resource": {
      "resourceType": "Patient",
      "id": "baa3f56c-d4df-4922-96a1-603c234b6db4",
      "meta": {
        "profile": [ "http://hl7.org/fhir/us/qicore/StructureDefinition/qicore-patient" ]
      },
      "extension": [ {
        "url": "http://hl7.org/fhir/us/core/StructureDefinition/us-core-race",
        "extension": [ {
          "url": "ombCategory",
          "valueCoding": {
            "system": "urn:oid:2.16.840.1.113883.6.238",
            "code": "2076-8",
            "display": "Native Hawaiian or Other Pacific Islander",
            "userSelected": true
          }
        }, {
          "url": "text",
          "valueString": "Native Hawaiian or Other Pacific Islander"
        } ]
      }, {
        "url": "http://hl7.org/fhir/us/core/StructureDefinition/us-core-ethnicity",
        "extension": [ {
          "url": "ombCategory",
          "valueCoding": {
            "system": "urn:oid:2.16.840.1.113883.6.238",
            "code": "2186-5",
            "display": "Not Hispanic or Latino",
            "userSelected": true
          }
        }, {
          "url": "text",
          "valueString": "Not Hispanic or Latino"
        } ]
      }, {
        "url": "http://hl7.org/fhir/us/core/StructureDefinition/us-core-sex",
        "valueCode": "248152002"
      } ],
      "identifier": [ {
        "type": {
          "coding": [ {
            "system": "http://terminology.hl7.org/CodeSystem/v2-0203",
            "code": "MR"
          } ]
        },
        "system": "https://bonnie-fhir.healthit.gov/",
        "value": "6179e951ad1a790b7af7524e"
      } ],
      "name": [ {
        "family": "DenExcl2Fail",
        "given": [ "PxExclStartsBeforeEDNoEnd" ]
      } ],
      "gender": "female",
      "birthDate": "1985-12-02"
    },
    "request": {
      "method": "PUT",
      "url": "Patient/baa3f56c-d4df-4922-96a1-603c234b6db4"
    }
  }, {
    "fullUrl": "https://madie.cms.gov/Encounter/70785d5e-04d4-4b13-93bd-396e3bd119b1",
    "resource": {
      "resourceType": "Encounter",
      "id": "70785d5e-04d4-4b13-93bd-396e3bd119b1",
      "meta": {
        "profile": [ "http://hl7.org/fhir/us/qicore/StructureDefinition/qicore-encounter" ]
      },
      "status": "finished",
      "class": {
        "system": "http://terminology.hl7.org/CodeSystem/v3-ActCode",
        "code": "EMER",
        "display": "emergency",
        "userSelected": true
      },
      "type": [ {
        "coding": [ {
          "system": "http://snomed.info/sct",
          "version": "2020-09",
          "code": "4525004",
          "display": "Emergency department patient visit (procedure)",
          "userSelected": true
        } ]
      } ],
      "subject": {
        "reference": "Patient/baa3f56c-d4df-4922-96a1-603c234b6db4"
      },
      "period": {
        "start": "2026-10-09T08:05:00.000+00:00",
        "end": "2026-10-10T07:15:00.000+00:00"
      },
      "reasonReference": [ {
        "reference": "Condition/e8b50811-5c55-4249-bead-1e2b09864551"
      } ]
    },
    "request": {
      "method": "PUT",
      "url": "Encounter/70785d5e-04d4-4b13-93bd-396e3bd119b1"
    }
  }, {
    "fullUrl": "https://madie.cms.gov/Condition/e8b50811-5c55-4249-bead-1e2b09864551",
    "resource": {
      "resourceType": "Condition",
      "id": "e8b50811-5c55-4249-bead-1e2b09864551",
      "meta": {
        "profile": [ "http://hl7.org/fhir/us/qicore/StructureDefinition/qicore-condition-problems-health-concerns" ]
      },
      "clinicalStatus": {
        "coding": [ {
          "system": "http://terminology.hl7.org/CodeSystem/condition-clinical",
          "code": "active",
          "display": "active",
          "userSelected": true
        } ]
      },
      "category": [ {
        "coding": [ {
          "system": "http://terminology.hl7.org/CodeSystem/condition-category",
          "code": "problem-list-item",
          "display": "Problem List Item",
          "userSelected": true
        } ]
      } ],
      "code": {
        "coding": [ {
          "system": "http://snomed.info/sct",
          "version": "2020-09",
          "code": "401303003",
          "display": "Acute ST segment elevation myocardial infarction (disorder)",
          "userSelected": true
        } ]
      },
      "subject": {
        "reference": "Patient/baa3f56c-d4df-4922-96a1-603c234b6db4"
      },
      "onsetDateTime": "2026-10-09T08:30:00.000+00:00"
    },
    "request": {
      "method": "PUT",
      "url": "Condition/e8b50811-5c55-4249-bead-1e2b09864551"
    }
  }, {
    "fullUrl": "https://madie.cms.gov/Procedure/8f9e7929-9ab6-459d-884e-37be44aea19b",
    "resource": {
      "resourceType": "Procedure",
      "id": "8f9e7929-9ab6-459d-884e-37be44aea19b",
      "meta": {
        "profile": [ "http://hl7.org/fhir/us/qicore/StructureDefinition/qicore-procedure" ]
      },
      "extension": [ {
        "url": "http://hl7.org/fhir/us/qicore/StructureDefinition/qicore-recorded",
        "valueDateTime": "2026-10-01T13:15:00.000+00:00"
      } ],
      "status": "completed",
      "category": {
        "coding": [ {
          "system": "http://snomed.info/sct",
          "code": "387713003",
          "display": "Surgical procedure",
          "userSelected": true
        } ]
      },
      "code": {
        "coding": [ {
          "system": "http://www.cms.gov/Medicare/Coding/ICD10",
          "code": "0B110F4",
          "display": "Bypass Trachea to Cutaneous with Tracheostomy Device, Open Approach",
          "userSelected": true
        } ]
      },
      "subject": {
        "reference": "Patient/baa3f56c-d4df-4922-96a1-603c234b6db4"
      },
      "performedDateTime": "2026-10-01T13:15:00.000+00:00"
    },
    "request": {
      "method": "PUT",
      "url": "Procedure/8f9e7929-9ab6-459d-884e-37be44aea19b"
    }
  }, {
    "fullUrl": "https://madie.cms.gov/MeasureReport/269ee686-e28e-4234-a7d7-3e14c8a23055",
    "resource": {
      "resourceType": "MeasureReport",
      "id": "269ee686-e28e-4234-a7d7-3e14c8a23055",
      "meta": {
        "profile": [ "http://hl7.org/fhir/us/cqfmeasures/StructureDefinition/test-case-cqfm" ]
      },
      "contained": [ {
        "resourceType": "Parameters",
        "id": "4333af1a-f1ba-4b50-9aed-c2c5fe6521e5-parameters",
        "parameter": [ {
          "name": "subject",
          "valueString": "baa3f56c-d4df-4922-96a1-603c234b6db4"
        } ]
      } ],
      "extension": [ {
        "url": "http://hl7.org/fhir/StructureDefinition/cqf-inputParameters",
        "valueReference": {
          "reference": "#4333af1a-f1ba-4b50-9aed-c2c5fe6521e5-parameters"
        }
      }, {
        "url": "http://hl7.org/fhir/us/cqfmeasures/StructureDefinition/cqfm-testCaseDescription",
        "valueMarkdown": "Patient has endotracheal intubation (exclusion procedure) that starts before the ED encounter and no end"
      } ],
      "modifierExtension": [ {
        "url": "http://hl7.org/fhir/us/cqfmeasures/StructureDefinition/cqfm-isTestCase",
        "valueBoolean": true
      } ],
      "status": "complete",
      "type": "individual",
      "measure": "https://madie.cms.gov/Measure/CMS996FHIRAptTxforSTEMI",
      "period": {
        "start": "2026-01-01",
        "end": "2026-12-31"
      },
      "group": [ {
        "id": "Group_1",
        "population": [ {
          "id": "InitialPopulation_1",
          "code": {
            "coding": [ {
              "system": "http://terminology.hl7.org/CodeSystem/measure-population",
              "code": "initial-population",
              "display": "Initial Population"
            } ]
          },
          "count": 1
        }, {
          "id": "Denominator_1",
          "code": {
            "coding": [ {
              "system": "http://terminology.hl7.org/CodeSystem/measure-population",
              "code": "denominator",
              "display": "Denominator"
            } ]
          },
          "count": 1
        }, {
          "id": "DenominatorExclusion_1",
          "code": {
            "coding": [ {
              "system": "http://terminology.hl7.org/CodeSystem/measure-population",
              "code": "denominator-exclusion",
              "display": "Denominator Exclusion"
            } ]
          },
          "count": 0
        }, {
          "id": "Numerator_1",
          "code": {
            "coding": [ {
              "system": "http://terminology.hl7.org/CodeSystem/measure-population",
              "code": "numerator",
              "display": "Numerator"
            } ]
          },
          "count": 0
        }, {
          "id": "DenominatorException_1",
          "code": {
            "coding": [ {
              "system": "http://terminology.hl7.org/CodeSystem/measure-population",
              "code": "denominator-exception",
              "display": "Denominator Exception"
            } ]
          },
          "count": 0
        } ],
        "measureScore": {
          "value": 0.0
        }
      } ],
      "evaluatedResource": [ {
        "reference": "Patient/baa3f56c-d4df-4922-96a1-603c234b6db4"
      }, {
        "reference": "Encounter/70785d5e-04d4-4b13-93bd-396e3bd119b1"
      }, {
        "reference": "Condition/e8b50811-5c55-4249-bead-1e2b09864551"
      }, {
        "reference": "Procedure/8f9e7929-9ab6-459d-884e-37be44aea19b"
      } ]
    },
    "request": {
      "method": "PUT",
      "url": "MeasureReport/269ee686-e28e-4234-a7d7-3e14c8a23055"
    }
  } ]
}