{"resourceType":"Bundle","id":"tests-9f17f3e9-55eb-4c67-a4e0-1cc85961330d-bundle","type":"transaction","entry":[{"resource":{"resourceType":"Encounter","id":"76e06b53-5b67-4ed1-a4a1-9a810da53efd","meta":{"profile":["http://hl7.org/fhir/us/qicore/StructureDefinition/qicore-encounter"]},"status":"finished","class":{"system":"http://terminology.hl7.org/CodeSystem/v3-ActCode","code":"EMER","display":"emergency","userSelected":true},"type":[{"coding":[{"system":"http://snomed.info/sct","version":"2020-09","code":"4525004","display":"Emergency department patient visit (procedure)","userSelected":true}]}],"subject":{"reference":"Patient/9f17f3e9-55eb-4c67-a4e0-1cc85961330d"},"period":{"start":"2026-10-09T08:05:00.000+00:00","end":"2026-10-10T07:15:00.000+00:00"},"reasonReference":[{"reference":"Condition/51afd110-03d0-487d-8fc2-5f21dc941091"}]},"request":{"method":"PUT","url":"Encounter/76e06b53-5b67-4ed1-a4a1-9a810da53efd"}},{"resource":{"resourceType":"Condition","id":"e27fd6db-e68b-406e-8ed0-219e3e5894b8","meta":{"profile":["http://hl7.org/fhir/us/qicore/StructureDefinition/qicore-condition-problems-health-concerns"]},"clinicalStatus":{"coding":[{"system":"http://terminology.hl7.org/CodeSystem/condition-clinical","version":"4.0.1","code":"inactive","display":"Inactive","userSelected":true}]},"category":[{"coding":[{"system":"http://terminology.hl7.org/CodeSystem/condition-category","code":"problem-list-item","display":"Problem List Item","userSelected":true}]}],"code":{"coding":[{"system":"http://snomed.info/sct","version":"2020-09","code":"105604006","display":"Deficiency of naturally occurring coagulation factor inhibitor (disorder)","userSelected":true}]},"subject":{"reference":"Patient/9f17f3e9-55eb-4c67-a4e0-1cc85961330d"},"onsetDateTime":"2026-10-01T08:00:00.000+00:00","abatementDateTime":"2026-10-08T08:15:00.000+00:00"},"request":{"method":"PUT","url":"Condition/e27fd6db-e68b-406e-8ed0-219e3e5894b8"}},{"resource":{"resourceType":"Patient","id":"9f17f3e9-55eb-4c67-a4e0-1cc85961330d","meta":{"profile":["http://hl7.org/fhir/us/qicore/StructureDefinition/qicore-patient"]},"extension":[{"url":"http://hl7.org/fhir/us/core/StructureDefinition/us-core-race","extension":[{"url":"ombCategory","valueCoding":{"system":"urn:oid:2.16.840.1.113883.6.238","code":"2076-8","display":"Native Hawaiian or Other Pacific Islander","userSelected":true}},{"url":"text","valueString":"Native Hawaiian or Other Pacific Islander"}]},{"url":"http://hl7.org/fhir/us/core/StructureDefinition/us-core-ethnicity","extension":[{"url":"ombCategory","valueCoding":{"system":"urn:oid:2.16.840.1.113883.6.238","code":"2186-5","display":"Not Hispanic or Latino","userSelected":true}},{"url":"text","valueString":"Not Hispanic or Latino"}]},{"url":"http://hl7.org/fhir/us/core/StructureDefinition/us-core-sex","valueCode":"248152002"}],"identifier":[{"type":{"coding":[{"system":"http://terminology.hl7.org/CodeSystem/v2-0203","code":"MR"}]},"system":"https://bonnie-fhir.healthit.gov/","value":"617b0d8f513b5d1ee28b7572"}],"name":[{"family":"DenExcl4Fail","given":["DxStartsBeforeEndsBeforeED"]}],"gender":"female","birthDate":"1985-12-02"},"request":{"method":"PUT","url":"Patient/9f17f3e9-55eb-4c67-a4e0-1cc85961330d"}},{"resource":{"resourceType":"Condition","id":"51afd110-03d0-487d-8fc2-5f21dc941091","meta":{"profile":["http://hl7.org/fhir/us/qicore/StructureDefinition/qicore-condition-problems-health-concerns"]},"clinicalStatus":{"coding":[{"system":"http://terminology.hl7.org/CodeSystem/condition-clinical","code":"active","display":"active","userSelected":true}]},"category":[{"coding":[{"system":"http://terminology.hl7.org/CodeSystem/condition-category","code":"problem-list-item","display":"Problem List Item","userSelected":true}]}],"code":{"coding":[{"system":"http://snomed.info/sct","version":"2020-09","code":"401303003","display":"Acute ST segment elevation myocardial infarction (disorder)","userSelected":true}]},"subject":{"reference":"Patient/9f17f3e9-55eb-4c67-a4e0-1cc85961330d"},"onsetDateTime":"2026-10-09T08:30:00.000+00:00"},"request":{"method":"PUT","url":"Condition/51afd110-03d0-487d-8fc2-5f21dc941091"}},{"resource":{"resourceType":"Bundle","id":"617b0d8f513b5d1ee28b7572","type":"transaction","entry":[{"fullUrl":"https://madie.cms.gov/Patient/9f17f3e9-55eb-4c67-a4e0-1cc85961330d","resource":{"resourceType":"Patient","id":"9f17f3e9-55eb-4c67-a4e0-1cc85961330d","meta":{"profile":["http://hl7.org/fhir/us/qicore/StructureDefinition/qicore-patient"]},"extension":[{"url":"http://hl7.org/fhir/us/core/StructureDefinition/us-core-race","extension":[{"url":"ombCategory","valueCoding":{"system":"urn:oid:2.16.840.1.113883.6.238","code":"2076-8","display":"Native Hawaiian or Other Pacific Islander","userSelected":true}},{"url":"text","valueString":"Native Hawaiian or Other Pacific Islander"}]},{"url":"http://hl7.org/fhir/us/core/StructureDefinition/us-core-ethnicity","extension":[{"url":"ombCategory","valueCoding":{"system":"urn:oid:2.16.840.1.113883.6.238","code":"2186-5","display":"Not Hispanic or Latino","userSelected":true}},{"url":"text","valueString":"Not Hispanic or Latino"}]},{"url":"http://hl7.org/fhir/us/core/StructureDefinition/us-core-sex","valueCode":"248152002"}],"identifier":[{"type":{"coding":[{"system":"http://terminology.hl7.org/CodeSystem/v2-0203","code":"MR"}]},"system":"https://bonnie-fhir.healthit.gov/","value":"617b0d8f513b5d1ee28b7572"}],"name":[{"family":"DenExcl4Fail","given":["DxStartsBeforeEndsBeforeED"]}],"gender":"female","birthDate":"1985-12-02"},"request":{"method":"PUT","url":"Patient/9f17f3e9-55eb-4c67-a4e0-1cc85961330d"}},{"fullUrl":"https://madie.cms.gov/Encounter/76e06b53-5b67-4ed1-a4a1-9a810da53efd","resource":{"resourceType":"Encounter","id":"76e06b53-5b67-4ed1-a4a1-9a810da53efd","meta":{"profile":["http://hl7.org/fhir/us/qicore/StructureDefinition/qicore-encounter"]},"status":"finished","class":{"system":"http://terminology.hl7.org/CodeSystem/v3-ActCode","code":"EMER","display":"emergency","userSelected":true},"type":[{"coding":[{"system":"http://snomed.info/sct","version":"2020-09","code":"4525004","display":"Emergency department patient visit (procedure)","userSelected":true}]}],"subject":{"reference":"Patient/9f17f3e9-55eb-4c67-a4e0-1cc85961330d"},"period":{"start":"2026-10-09T08:05:00.000+00:00","end":"2026-10-10T07:15:00.000+00:00"},"reasonReference":[{"reference":"Condition/51afd110-03d0-487d-8fc2-5f21dc941091"}]},"request":{"method":"PUT","url":"Encounter/76e06b53-5b67-4ed1-a4a1-9a810da53efd"}},{"fullUrl":"https://madie.cms.gov/Condition/51afd110-03d0-487d-8fc2-5f21dc941091","resource":{"resourceType":"Condition","id":"51afd110-03d0-487d-8fc2-5f21dc941091","meta":{"profile":["http://hl7.org/fhir/us/qicore/StructureDefinition/qicore-condition-problems-health-concerns"]},"clinicalStatus":{"coding":[{"system":"http://terminology.hl7.org/CodeSystem/condition-clinical","code":"active","display":"active","userSelected":true}]},"category":[{"coding":[{"system":"http://terminology.hl7.org/CodeSystem/condition-category","code":"problem-list-item","display":"Problem List Item","userSelected":true}]}],"code":{"coding":[{"system":"http://snomed.info/sct","version":"2020-09","code":"401303003","display":"Acute ST segment elevation myocardial infarction (disorder)","userSelected":true}]},"subject":{"reference":"Patient/9f17f3e9-55eb-4c67-a4e0-1cc85961330d"},"onsetDateTime":"2026-10-09T08:30:00.000+00:00"},"request":{"method":"PUT","url":"Condition/51afd110-03d0-487d-8fc2-5f21dc941091"}},{"fullUrl":"https://madie.cms.gov/Condition/e27fd6db-e68b-406e-8ed0-219e3e5894b8","resource":{"resourceType":"Condition","id":"e27fd6db-e68b-406e-8ed0-219e3e5894b8","meta":{"profile":["http://hl7.org/fhir/us/qicore/StructureDefinition/qicore-condition-problems-health-concerns"]},"clinicalStatus":{"coding":[{"system":"http://terminology.hl7.org/CodeSystem/condition-clinical","version":"4.0.1","code":"inactive","display":"Inactive","userSelected":true}]},"category":[{"coding":[{"system":"http://terminology.hl7.org/CodeSystem/condition-category","code":"problem-list-item","display":"Problem List Item","userSelected":true}]}],"code":{"coding":[{"system":"http://snomed.info/sct","version":"2020-09","code":"105604006","display":"Deficiency of naturally occurring coagulation factor inhibitor (disorder)","userSelected":true}]},"subject":{"reference":"Patient/9f17f3e9-55eb-4c67-a4e0-1cc85961330d"},"onsetDateTime":"2026-10-01T08:00:00.000+00:00","abatementDateTime":"2026-10-08T08:15:00.000+00:00"},"request":{"method":"PUT","url":"Condition/e27fd6db-e68b-406e-8ed0-219e3e5894b8"}},{"fullUrl":"https://madie.cms.gov/MeasureReport/878ff000-9556-4a9e-b773-eed3f7166475","resource":{"resourceType":"MeasureReport","id":"878ff000-9556-4a9e-b773-eed3f7166475","meta":{"profile":["http://hl7.org/fhir/us/cqfmeasures/StructureDefinition/test-case-cqfm"]},"contained":[{"resourceType":"Parameters","id":"625a3ca7-c39d-414d-86b2-3d31dfe39b80-parameters","parameter":[{"name":"subject","valueString":"9f17f3e9-55eb-4c67-a4e0-1cc85961330d"}]}],"extension":[{"url":"http://hl7.org/fhir/StructureDefinition/cqf-inputParameters","valueReference":{"reference":"#625a3ca7-c39d-414d-86b2-3d31dfe39b80-parameters"}},{"url":"http://hl7.org/fhir/us/cqfmeasures/StructureDefinition/cqfm-testCaseDescription","valueMarkdown":"Patient has active bleeding (exclusion dx) starts before ED and ends before ED"}],"modifierExtension":[{"url":"http://hl7.org/fhir/us/cqfmeasures/StructureDefinition/cqfm-isTestCase","valueBoolean":true}],"status":"complete","type":"individual","measure":"https://madie.cms.gov/Measure/CMS996FHIRAptTxforSTEMI","period":{"start":"2026-01-01","end":"2026-12-31"},"group":[{"id":"Group_1","population":[{"id":"InitialPopulation_1","code":{"coding":[{"system":"http://terminology.hl7.org/CodeSystem/measure-population","code":"initial-population","display":"Initial Population"}]},"count":1},{"id":"Denominator_1","code":{"coding":[{"system":"http://terminology.hl7.org/CodeSystem/measure-population","code":"denominator","display":"Denominator"}]},"count":1},{"id":"DenominatorExclusion_1","code":{"coding":[{"system":"http://terminology.hl7.org/CodeSystem/measure-population","code":"denominator-exclusion","display":"Denominator Exclusion"}]},"count":0},{"id":"Numerator_1","code":{"coding":[{"system":"http://terminology.hl7.org/CodeSystem/measure-population","code":"numerator","display":"Numerator"}]},"count":0},{"id":"DenominatorException_1","code":{"coding":[{"system":"http://terminology.hl7.org/CodeSystem/measure-population","code":"denominator-exception","display":"Denominator Exception"}]},"count":0}],"measureScore":{"value":0.0}}],"evaluatedResource":[{"reference":"Patient/9f17f3e9-55eb-4c67-a4e0-1cc85961330d"},{"reference":"Encounter/76e06b53-5b67-4ed1-a4a1-9a810da53efd"},{"reference":"Condition/51afd110-03d0-487d-8fc2-5f21dc941091"},{"reference":"Condition/e27fd6db-e68b-406e-8ed0-219e3e5894b8"}]},"request":{"method":"PUT","url":"MeasureReport/878ff000-9556-4a9e-b773-eed3f7166475"}}]},"request":{"method":"PUT","url":"Bundle/617b0d8f513b5d1ee28b7572"}},{"resource":{"resourceType":"MeasureReport","id":"878ff000-9556-4a9e-b773-eed3f7166475","meta":{"profile":["http://hl7.org/fhir/us/cqfmeasures/StructureDefinition/test-case-cqfm"]},"contained":[{"resourceType":"Parameters","id":"625a3ca7-c39d-414d-86b2-3d31dfe39b80-parameters","parameter":[{"name":"subject","valueString":"9f17f3e9-55eb-4c67-a4e0-1cc85961330d"}]}],"extension":[{"url":"http://hl7.org/fhir/StructureDefinition/cqf-inputParameters","valueReference":{"reference":"#625a3ca7-c39d-414d-86b2-3d31dfe39b80-parameters"}},{"url":"http://hl7.org/fhir/us/cqfmeasures/StructureDefinition/cqfm-testCaseDescription","valueMarkdown":"Patient has active bleeding (exclusion dx) starts before ED and ends before ED"}],"modifierExtension":[{"url":"http://hl7.org/fhir/us/cqfmeasures/StructureDefinition/cqfm-isTestCase","valueBoolean":true}],"status":"complete","type":"individual","measure":"https://madie.cms.gov/Measure/CMS996FHIRAptTxforSTEMI","period":{"start":"2026-01-01","end":"2026-12-31"},"group":[{"id":"Group_1","population":[{"id":"InitialPopulation_1","code":{"coding":[{"system":"http://terminology.hl7.org/CodeSystem/measure-population","code":"initial-population","display":"Initial Population"}]},"count":1},{"id":"Denominator_1","code":{"coding":[{"system":"http://terminology.hl7.org/CodeSystem/measure-population","code":"denominator","display":"Denominator"}]},"count":1},{"id":"DenominatorExclusion_1","code":{"coding":[{"system":"http://terminology.hl7.org/CodeSystem/measure-population","code":"denominator-exclusion","display":"Denominator Exclusion"}]},"count":0},{"id":"Numerator_1","code":{"coding":[{"system":"http://terminology.hl7.org/CodeSystem/measure-population","code":"numerator","display":"Numerator"}]},"count":0},{"id":"DenominatorException_1","code":{"coding":[{"system":"http://terminology.hl7.org/CodeSystem/measure-population","code":"denominator-exception","display":"Denominator Exception"}]},"count":0}],"measureScore":{"value":0.0}}],"evaluatedResource":[{"reference":"Patient/9f17f3e9-55eb-4c67-a4e0-1cc85961330d"},{"reference":"Encounter/76e06b53-5b67-4ed1-a4a1-9a810da53efd"},{"reference":"Condition/51afd110-03d0-487d-8fc2-5f21dc941091"},{"reference":"Condition/e27fd6db-e68b-406e-8ed0-219e3e5894b8"}]},"request":{"method":"PUT","url":"MeasureReport/878ff000-9556-4a9e-b773-eed3f7166475"}}]}