{"resourceType":"Bundle","id":"tests-e3562b40-b797-480d-973d-33fdecf55673-bundle","type":"transaction","entry":[{"resource":{"resourceType":"Condition","id":"f5a435ea-6c3a-4d4c-8cb5-1808c5740255","meta":{"profile":["http://hl7.org/fhir/us/qicore/StructureDefinition/qicore-condition-problems-health-concerns"]},"clinicalStatus":{"coding":[{"system":"http://terminology.hl7.org/CodeSystem/condition-clinical","code":"active","display":"Active","userSelected":true}]},"category":[{"coding":[{"system":"http://terminology.hl7.org/CodeSystem/condition-category","code":"problem-list-item","display":"Problem List Item","userSelected":true}]}],"code":{"coding":[{"system":"http://snomed.info/sct","code":"170936009","display":"Shared care - hospice and general practitioner (finding)","userSelected":true}]},"subject":{"reference":"Patient/e3562b40-b797-480d-973d-33fdecf55673"},"onsetDateTime":"2026-08-03T12:00:00.000+00:00"},"request":{"method":"PUT","url":"Condition/f5a435ea-6c3a-4d4c-8cb5-1808c5740255"}},{"resource":{"resourceType":"Patient","id":"e3562b40-b797-480d-973d-33fdecf55673","meta":{"profile":["http://hl7.org/fhir/us/qicore/StructureDefinition/qicore-patient"]},"extension":[{"url":"http://hl7.org/fhir/us/core/StructureDefinition/us-core-race","extension":[{"url":"ombCategory","valueCoding":{"system":"urn:oid:2.16.840.1.113883.6.238","code":"1002-5","display":"American Indian or Alaska Native","userSelected":true}},{"url":"text","valueString":"American Indian or Alaska Native"}]},{"url":"http://hl7.org/fhir/us/core/StructureDefinition/us-core-ethnicity","extension":[{"url":"ombCategory","valueCoding":{"system":"urn:oid:2.16.840.1.113883.6.238","code":"2135-2","display":"Hispanic or Latino","userSelected":true}},{"url":"text","valueString":"Hispanic or Latino"}]},{"url":"http://hl7.org/fhir/us/core/StructureDefinition/us-core-sex","valueCode":"248152002"}],"identifier":[{"type":{"coding":[{"system":"http://terminology.hl7.org/CodeSystem/v2-0203","code":"MR"}]},"system":"https://bonnie-fhir.healthit.gov/","value":"s1f044ef3e654daa2662"}],"name":[{"family":"DENEXCL11PASS","given":["HospiceDiagnosisOverlapEDStartNoEnd"]}],"gender":"female","birthDate":"1985-08-07"},"request":{"method":"PUT","url":"Patient/e3562b40-b797-480d-973d-33fdecf55673"}},{"resource":{"resourceType":"Bundle","id":"s1f044ef3e654daa2662","type":"transaction","entry":[{"fullUrl":"https://madie.cms.gov/Patient/e3562b40-b797-480d-973d-33fdecf55673","resource":{"resourceType":"Patient","id":"e3562b40-b797-480d-973d-33fdecf55673","meta":{"profile":["http://hl7.org/fhir/us/qicore/StructureDefinition/qicore-patient"]},"extension":[{"url":"http://hl7.org/fhir/us/core/StructureDefinition/us-core-race","extension":[{"url":"ombCategory","valueCoding":{"system":"urn:oid:2.16.840.1.113883.6.238","code":"1002-5","display":"American Indian or Alaska Native","userSelected":true}},{"url":"text","valueString":"American Indian or Alaska Native"}]},{"url":"http://hl7.org/fhir/us/core/StructureDefinition/us-core-ethnicity","extension":[{"url":"ombCategory","valueCoding":{"system":"urn:oid:2.16.840.1.113883.6.238","code":"2135-2","display":"Hispanic or Latino","userSelected":true}},{"url":"text","valueString":"Hispanic or Latino"}]},{"url":"http://hl7.org/fhir/us/core/StructureDefinition/us-core-sex","valueCode":"248152002"}],"identifier":[{"type":{"coding":[{"system":"http://terminology.hl7.org/CodeSystem/v2-0203","code":"MR"}]},"system":"https://bonnie-fhir.healthit.gov/","value":"s1f044ef3e654daa2662"}],"name":[{"family":"DENEXCL11PASS","given":["HospiceDiagnosisOverlapEDStartNoEnd"]}],"gender":"female","birthDate":"1985-08-07"},"request":{"method":"PUT","url":"Patient/e3562b40-b797-480d-973d-33fdecf55673"}},{"fullUrl":"https://madie.cms.gov/Encounter/eb6c11c4-18aa-4138-9604-eab2850b4c5e","resource":{"resourceType":"Encounter","id":"eb6c11c4-18aa-4138-9604-eab2850b4c5e","meta":{"profile":["http://hl7.org/fhir/us/qicore/StructureDefinition/qicore-encounter"]},"status":"finished","class":{"system":"http://terminology.hl7.org/CodeSystem/v3-ActCode","code":"EMER","display":"emergency","userSelected":true},"type":[{"coding":[{"system":"http://snomed.info/sct","version":"2020-09","code":"4525004","display":"Emergency department patient visit","userSelected":true}]}],"subject":{"reference":"Patient/e3562b40-b797-480d-973d-33fdecf55673"},"period":{"start":"2026-10-09T05:00:00.000+00:00","end":"2026-10-13T17:00:00.000+00:00"},"reasonCode":[{"coding":[{"system":"http://hl7.org/fhir/sid/icd-10-cm","code":"I21.21","display":"ST elevation (STEMI) myocardial infarction involving left circumflex coronary artery","userSelected":true}]}]},"request":{"method":"PUT","url":"Encounter/eb6c11c4-18aa-4138-9604-eab2850b4c5e"}},{"fullUrl":"https://madie.cms.gov/Condition/f5a435ea-6c3a-4d4c-8cb5-1808c5740255","resource":{"resourceType":"Condition","id":"f5a435ea-6c3a-4d4c-8cb5-1808c5740255","meta":{"profile":["http://hl7.org/fhir/us/qicore/StructureDefinition/qicore-condition-problems-health-concerns"]},"clinicalStatus":{"coding":[{"system":"http://terminology.hl7.org/CodeSystem/condition-clinical","code":"active","display":"Active","userSelected":true}]},"category":[{"coding":[{"system":"http://terminology.hl7.org/CodeSystem/condition-category","code":"problem-list-item","display":"Problem List Item","userSelected":true}]}],"code":{"coding":[{"system":"http://snomed.info/sct","code":"170936009","display":"Shared care - hospice and general practitioner (finding)","userSelected":true}]},"subject":{"reference":"Patient/e3562b40-b797-480d-973d-33fdecf55673"},"onsetDateTime":"2026-08-03T12:00:00.000+00:00"},"request":{"method":"PUT","url":"Condition/f5a435ea-6c3a-4d4c-8cb5-1808c5740255"}},{"fullUrl":"https://madie.cms.gov/MeasureReport/a1c2aecd-9e4e-4109-8ab7-30e4b40a30fd","resource":{"resourceType":"MeasureReport","id":"a1c2aecd-9e4e-4109-8ab7-30e4b40a30fd","meta":{"profile":["http://hl7.org/fhir/us/cqfmeasures/StructureDefinition/test-case-cqfm"]},"contained":[{"resourceType":"Parameters","id":"3bd58f08-a57d-484f-91c6-9bc9813a0fb5-parameters","parameter":[{"name":"subject","valueString":"e3562b40-b797-480d-973d-33fdecf55673"}]}],"extension":[{"url":"http://hl7.org/fhir/StructureDefinition/cqf-inputParameters","valueReference":{"reference":"#3bd58f08-a57d-484f-91c6-9bc9813a0fb5-parameters"}},{"url":"http://hl7.org/fhir/us/cqfmeasures/StructureDefinition/cqfm-testCaseDescription","valueMarkdown":"Patients has hospice diagnosis that overlaps ED start (with no end date)"}],"modifierExtension":[{"url":"http://hl7.org/fhir/us/cqfmeasures/StructureDefinition/cqfm-isTestCase","valueBoolean":true}],"status":"complete","type":"individual","measure":"https://madie.cms.gov/Measure/CMS996FHIRAptTxforSTEMI","period":{"start":"2026-01-01","end":"2026-12-31"},"group":[{"id":"Group_1","population":[{"id":"InitialPopulation_1","code":{"coding":[{"system":"http://terminology.hl7.org/CodeSystem/measure-population","code":"initial-population","display":"Initial Population"}]},"count":1},{"id":"Denominator_1","code":{"coding":[{"system":"http://terminology.hl7.org/CodeSystem/measure-population","code":"denominator","display":"Denominator"}]},"count":1},{"id":"DenominatorExclusion_1","code":{"coding":[{"system":"http://terminology.hl7.org/CodeSystem/measure-population","code":"denominator-exclusion","display":"Denominator Exclusion"}]},"count":1},{"id":"Numerator_1","code":{"coding":[{"system":"http://terminology.hl7.org/CodeSystem/measure-population","code":"numerator","display":"Numerator"}]},"count":0},{"id":"DenominatorException_1","code":{"coding":[{"system":"http://terminology.hl7.org/CodeSystem/measure-population","code":"denominator-exception","display":"Denominator Exception"}]},"count":0}],"measureScore":{"value":0.0}}],"evaluatedResource":[{"reference":"Patient/e3562b40-b797-480d-973d-33fdecf55673"},{"reference":"Encounter/eb6c11c4-18aa-4138-9604-eab2850b4c5e"},{"reference":"Condition/f5a435ea-6c3a-4d4c-8cb5-1808c5740255"}]},"request":{"method":"PUT","url":"MeasureReport/a1c2aecd-9e4e-4109-8ab7-30e4b40a30fd"}}]},"request":{"method":"PUT","url":"Bundle/s1f044ef3e654daa2662"}},{"resource":{"resourceType":"MeasureReport","id":"a1c2aecd-9e4e-4109-8ab7-30e4b40a30fd","meta":{"profile":["http://hl7.org/fhir/us/cqfmeasures/StructureDefinition/test-case-cqfm"]},"contained":[{"resourceType":"Parameters","id":"3bd58f08-a57d-484f-91c6-9bc9813a0fb5-parameters","parameter":[{"name":"subject","valueString":"e3562b40-b797-480d-973d-33fdecf55673"}]}],"extension":[{"url":"http://hl7.org/fhir/StructureDefinition/cqf-inputParameters","valueReference":{"reference":"#3bd58f08-a57d-484f-91c6-9bc9813a0fb5-parameters"}},{"url":"http://hl7.org/fhir/us/cqfmeasures/StructureDefinition/cqfm-testCaseDescription","valueMarkdown":"Patients has hospice diagnosis that overlaps ED start (with no end date)"}],"modifierExtension":[{"url":"http://hl7.org/fhir/us/cqfmeasures/StructureDefinition/cqfm-isTestCase","valueBoolean":true}],"status":"complete","type":"individual","measure":"https://madie.cms.gov/Measure/CMS996FHIRAptTxforSTEMI","period":{"start":"2026-01-01","end":"2026-12-31"},"group":[{"id":"Group_1","population":[{"id":"InitialPopulation_1","code":{"coding":[{"system":"http://terminology.hl7.org/CodeSystem/measure-population","code":"initial-population","display":"Initial Population"}]},"count":1},{"id":"Denominator_1","code":{"coding":[{"system":"http://terminology.hl7.org/CodeSystem/measure-population","code":"denominator","display":"Denominator"}]},"count":1},{"id":"DenominatorExclusion_1","code":{"coding":[{"system":"http://terminology.hl7.org/CodeSystem/measure-population","code":"denominator-exclusion","display":"Denominator Exclusion"}]},"count":1},{"id":"Numerator_1","code":{"coding":[{"system":"http://terminology.hl7.org/CodeSystem/measure-population","code":"numerator","display":"Numerator"}]},"count":0},{"id":"DenominatorException_1","code":{"coding":[{"system":"http://terminology.hl7.org/CodeSystem/measure-population","code":"denominator-exception","display":"Denominator Exception"}]},"count":0}],"measureScore":{"value":0.0}}],"evaluatedResource":[{"reference":"Patient/e3562b40-b797-480d-973d-33fdecf55673"},{"reference":"Encounter/eb6c11c4-18aa-4138-9604-eab2850b4c5e"},{"reference":"Condition/f5a435ea-6c3a-4d4c-8cb5-1808c5740255"}]},"request":{"method":"PUT","url":"MeasureReport/a1c2aecd-9e4e-4109-8ab7-30e4b40a30fd"}},{"resource":{"resourceType":"Encounter","id":"eb6c11c4-18aa-4138-9604-eab2850b4c5e","meta":{"profile":["http://hl7.org/fhir/us/qicore/StructureDefinition/qicore-encounter"]},"status":"finished","class":{"system":"http://terminology.hl7.org/CodeSystem/v3-ActCode","code":"EMER","display":"emergency","userSelected":true},"type":[{"coding":[{"system":"http://snomed.info/sct","version":"2020-09","code":"4525004","display":"Emergency department patient visit","userSelected":true}]}],"subject":{"reference":"Patient/e3562b40-b797-480d-973d-33fdecf55673"},"period":{"start":"2026-10-09T05:00:00.000+00:00","end":"2026-10-13T17:00:00.000+00:00"},"reasonCode":[{"coding":[{"system":"http://hl7.org/fhir/sid/icd-10-cm","code":"I21.21","display":"ST elevation (STEMI) myocardial infarction involving left circumflex coronary artery","userSelected":true}]}]},"request":{"method":"PUT","url":"Encounter/eb6c11c4-18aa-4138-9604-eab2850b4c5e"}}]}