{"resourceType":"Bundle","id":"tests-ae7150fa-283f-4689-abff-ca7f29101609-bundle","type":"transaction","entry":[{"resource":{"resourceType":"Encounter","id":"1260d7ac-8763-413b-b69e-c315e061f17e","meta":{"profile":["http://hl7.org/fhir/us/qicore/StructureDefinition/qicore-encounter"]},"status":"finished","class":{"system":"http://terminology.hl7.org/CodeSystem/v3-ActCode","code":"EMER","display":"emergency","userSelected":true},"type":[{"coding":[{"system":"http://snomed.info/sct","code":"32485007","display":"Hospital admission (procedure)","userSelected":true}]}],"subject":{"reference":"Patient/ae7150fa-283f-4689-abff-ca7f29101609"},"period":{"start":"2026-08-12T05:00:00.000+00:00","end":"2026-08-19T12:00:00.000+00:00"},"hospitalization":{"dischargeDisposition":{"coding":[{"system":"http://snomed.info/sct","code":"428361000124107","display":"Discharge to home for hospice care (procedure)","userSelected":true}]}}},"request":{"method":"PUT","url":"Encounter/1260d7ac-8763-413b-b69e-c315e061f17e"}},{"resource":{"resourceType":"Bundle","id":"h1f044ef3e654daa9122","type":"transaction","entry":[{"fullUrl":"https://madie.cms.gov/Patient/ae7150fa-283f-4689-abff-ca7f29101609","resource":{"resourceType":"Patient","id":"ae7150fa-283f-4689-abff-ca7f29101609","meta":{"profile":["http://hl7.org/fhir/us/qicore/StructureDefinition/qicore-patient"]},"extension":[{"url":"http://hl7.org/fhir/us/core/StructureDefinition/us-core-race","extension":[{"url":"ombCategory","valueCoding":{"system":"urn:oid:2.16.840.1.113883.6.238","code":"2028-9","display":"Asian","userSelected":true}},{"url":"text","valueString":"Asian"}]},{"url":"http://hl7.org/fhir/us/core/StructureDefinition/us-core-ethnicity","extension":[{"url":"ombCategory","valueCoding":{"system":"urn:oid:2.16.840.1.113883.6.238","code":"2186-5","display":"Not Hispanic or Latino","userSelected":true}},{"url":"text","valueString":"Not Hispanic or Latino"}]},{"url":"http://hl7.org/fhir/us/core/StructureDefinition/us-core-sex","valueCode":"248152002"}],"identifier":[{"type":{"coding":[{"system":"http://terminology.hl7.org/CodeSystem/v2-0203","code":"MR"}]},"system":"https://bonnie-fhir.healthit.gov/","value":"h1f044ef3e654daa9122"}],"name":[{"family":"DENEXCL11PASS","given":["HospiceHomeDischargeDispositionBeforeED"]}],"gender":"female","birthDate":"1960-10-09"},"request":{"method":"PUT","url":"Patient/ae7150fa-283f-4689-abff-ca7f29101609"}},{"fullUrl":"https://madie.cms.gov/Encounter/d452e31b-f0eb-4832-beee-ff49910fbb41","resource":{"resourceType":"Encounter","id":"d452e31b-f0eb-4832-beee-ff49910fbb41","meta":{"profile":["http://hl7.org/fhir/us/qicore/StructureDefinition/qicore-encounter"]},"status":"finished","class":{"system":"http://terminology.hl7.org/CodeSystem/v3-ActCode","code":"EMER","display":"emergency","userSelected":true},"type":[{"coding":[{"system":"http://snomed.info/sct","version":"2020-09","code":"4525004","display":"Emergency department patient visit","userSelected":true}]}],"subject":{"reference":"Patient/ae7150fa-283f-4689-abff-ca7f29101609"},"period":{"start":"2026-10-09T05:00:00.000+00:00","end":"2026-10-13T17:00:00.000+00:00"},"reasonReference":[{"reference":"Condition/9ea09f3d-00e6-4f60-8136-ed529de475de"}]},"request":{"method":"PUT","url":"Encounter/d452e31b-f0eb-4832-beee-ff49910fbb41"}},{"fullUrl":"https://madie.cms.gov/Encounter/1260d7ac-8763-413b-b69e-c315e061f17e","resource":{"resourceType":"Encounter","id":"1260d7ac-8763-413b-b69e-c315e061f17e","meta":{"profile":["http://hl7.org/fhir/us/qicore/StructureDefinition/qicore-encounter"]},"status":"finished","class":{"system":"http://terminology.hl7.org/CodeSystem/v3-ActCode","code":"EMER","display":"emergency","userSelected":true},"type":[{"coding":[{"system":"http://snomed.info/sct","code":"32485007","display":"Hospital admission (procedure)","userSelected":true}]}],"subject":{"reference":"Patient/ae7150fa-283f-4689-abff-ca7f29101609"},"period":{"start":"2026-08-12T05:00:00.000+00:00","end":"2026-08-19T12:00:00.000+00:00"},"hospitalization":{"dischargeDisposition":{"coding":[{"system":"http://snomed.info/sct","code":"428361000124107","display":"Discharge to home for hospice care (procedure)","userSelected":true}]}}},"request":{"method":"PUT","url":"Encounter/1260d7ac-8763-413b-b69e-c315e061f17e"}},{"fullUrl":"https://madie.cms.gov/Condition/9ea09f3d-00e6-4f60-8136-ed529de475de","resource":{"resourceType":"Condition","id":"9ea09f3d-00e6-4f60-8136-ed529de475de","meta":{"profile":["http://hl7.org/fhir/us/qicore/StructureDefinition/qicore-condition-encounter-diagnosis"]},"clinicalStatus":{"coding":[{"system":"http://terminology.hl7.org/CodeSystem/condition-clinical","code":"active","display":"Active","userSelected":true}]},"category":[{"coding":[{"system":"http://terminology.hl7.org/CodeSystem/condition-category","code":"encounter-diagnosis","display":"Encounter Diagnosis","userSelected":true}]}],"code":{"coding":[{"system":"http://hl7.org/fhir/sid/icd-10-cm","code":"I21.21","display":"ST elevation (STEMI) myocardial infarction involving left circumflex coronary artery","userSelected":true}]},"subject":{"reference":"Patient/ae7150fa-283f-4689-abff-ca7f29101609"},"encounter":{"reference":"Encounter/d452e31b-f0eb-4832-beee-ff49910fbb41"},"onsetPeriod":{"start":"2026-10-09T05:00:00.000+00:00","end":"2026-10-09T17:00:00.000+00:00"}},"request":{"method":"PUT","url":"Condition/9ea09f3d-00e6-4f60-8136-ed529de475de"}},{"fullUrl":"https://madie.cms.gov/MeasureReport/dcc05e1c-19cb-48ba-a54e-6f143b5be247","resource":{"resourceType":"MeasureReport","id":"dcc05e1c-19cb-48ba-a54e-6f143b5be247","meta":{"profile":["http://hl7.org/fhir/us/cqfmeasures/StructureDefinition/test-case-cqfm"]},"contained":[{"resourceType":"Parameters","id":"c1c6b32f-1402-42c9-a63d-27799662a556-parameters","parameter":[{"name":"subject","valueString":"ae7150fa-283f-4689-abff-ca7f29101609"}]}],"extension":[{"url":"http://hl7.org/fhir/StructureDefinition/cqf-inputParameters","valueReference":{"reference":"#c1c6b32f-1402-42c9-a63d-27799662a556-parameters"}},{"url":"http://hl7.org/fhir/us/cqfmeasures/StructureDefinition/cqfm-testCaseDescription","valueMarkdown":"Patients has hospice discharge disposition (home) before ED"}],"modifierExtension":[{"url":"http://hl7.org/fhir/us/cqfmeasures/StructureDefinition/cqfm-isTestCase","valueBoolean":true}],"status":"complete","type":"individual","measure":"https://madie.cms.gov/Measure/CMS996FHIRAptTxforSTEMI","period":{"start":"2026-01-01","end":"2026-12-31"},"group":[{"id":"Group_1","population":[{"id":"InitialPopulation_1","code":{"coding":[{"system":"http://terminology.hl7.org/CodeSystem/measure-population","code":"initial-population","display":"Initial Population"}]},"count":1},{"id":"Denominator_1","code":{"coding":[{"system":"http://terminology.hl7.org/CodeSystem/measure-population","code":"denominator","display":"Denominator"}]},"count":1},{"id":"DenominatorExclusion_1","code":{"coding":[{"system":"http://terminology.hl7.org/CodeSystem/measure-population","code":"denominator-exclusion","display":"Denominator Exclusion"}]},"count":1},{"id":"Numerator_1","code":{"coding":[{"system":"http://terminology.hl7.org/CodeSystem/measure-population","code":"numerator","display":"Numerator"}]},"count":0},{"id":"DenominatorException_1","code":{"coding":[{"system":"http://terminology.hl7.org/CodeSystem/measure-population","code":"denominator-exception","display":"Denominator Exception"}]},"count":0}],"measureScore":{"value":0.0}}],"evaluatedResource":[{"reference":"Patient/ae7150fa-283f-4689-abff-ca7f29101609"},{"reference":"Encounter/d452e31b-f0eb-4832-beee-ff49910fbb41"},{"reference":"Encounter/1260d7ac-8763-413b-b69e-c315e061f17e"},{"reference":"Condition/9ea09f3d-00e6-4f60-8136-ed529de475de"}]},"request":{"method":"PUT","url":"MeasureReport/dcc05e1c-19cb-48ba-a54e-6f143b5be247"}}]},"request":{"method":"PUT","url":"Bundle/h1f044ef3e654daa9122"}},{"resource":{"resourceType":"Patient","id":"ae7150fa-283f-4689-abff-ca7f29101609","meta":{"profile":["http://hl7.org/fhir/us/qicore/StructureDefinition/qicore-patient"]},"extension":[{"url":"http://hl7.org/fhir/us/core/StructureDefinition/us-core-race","extension":[{"url":"ombCategory","valueCoding":{"system":"urn:oid:2.16.840.1.113883.6.238","code":"2028-9","display":"Asian","userSelected":true}},{"url":"text","valueString":"Asian"}]},{"url":"http://hl7.org/fhir/us/core/StructureDefinition/us-core-ethnicity","extension":[{"url":"ombCategory","valueCoding":{"system":"urn:oid:2.16.840.1.113883.6.238","code":"2186-5","display":"Not Hispanic or Latino","userSelected":true}},{"url":"text","valueString":"Not Hispanic or Latino"}]},{"url":"http://hl7.org/fhir/us/core/StructureDefinition/us-core-sex","valueCode":"248152002"}],"identifier":[{"type":{"coding":[{"system":"http://terminology.hl7.org/CodeSystem/v2-0203","code":"MR"}]},"system":"https://bonnie-fhir.healthit.gov/","value":"h1f044ef3e654daa9122"}],"name":[{"family":"DENEXCL11PASS","given":["HospiceHomeDischargeDispositionBeforeED"]}],"gender":"female","birthDate":"1960-10-09"},"request":{"method":"PUT","url":"Patient/ae7150fa-283f-4689-abff-ca7f29101609"}},{"resource":{"resourceType":"Condition","id":"9ea09f3d-00e6-4f60-8136-ed529de475de","meta":{"profile":["http://hl7.org/fhir/us/qicore/StructureDefinition/qicore-condition-encounter-diagnosis"]},"clinicalStatus":{"coding":[{"system":"http://terminology.hl7.org/CodeSystem/condition-clinical","code":"active","display":"Active","userSelected":true}]},"category":[{"coding":[{"system":"http://terminology.hl7.org/CodeSystem/condition-category","code":"encounter-diagnosis","display":"Encounter Diagnosis","userSelected":true}]}],"code":{"coding":[{"system":"http://hl7.org/fhir/sid/icd-10-cm","code":"I21.21","display":"ST elevation (STEMI) myocardial infarction involving left circumflex coronary artery","userSelected":true}]},"subject":{"reference":"Patient/ae7150fa-283f-4689-abff-ca7f29101609"},"encounter":{"reference":"Encounter/d452e31b-f0eb-4832-beee-ff49910fbb41"},"onsetPeriod":{"start":"2026-10-09T05:00:00.000+00:00","end":"2026-10-09T17:00:00.000+00:00"}},"request":{"method":"PUT","url":"Condition/9ea09f3d-00e6-4f60-8136-ed529de475de"}},{"resource":{"resourceType":"Encounter","id":"d452e31b-f0eb-4832-beee-ff49910fbb41","meta":{"profile":["http://hl7.org/fhir/us/qicore/StructureDefinition/qicore-encounter"]},"status":"finished","class":{"system":"http://terminology.hl7.org/CodeSystem/v3-ActCode","code":"EMER","display":"emergency","userSelected":true},"type":[{"coding":[{"system":"http://snomed.info/sct","version":"2020-09","code":"4525004","display":"Emergency department patient visit","userSelected":true}]}],"subject":{"reference":"Patient/ae7150fa-283f-4689-abff-ca7f29101609"},"period":{"start":"2026-10-09T05:00:00.000+00:00","end":"2026-10-13T17:00:00.000+00:00"},"reasonReference":[{"reference":"Condition/9ea09f3d-00e6-4f60-8136-ed529de475de"}]},"request":{"method":"PUT","url":"Encounter/d452e31b-f0eb-4832-beee-ff49910fbb41"}},{"resource":{"resourceType":"MeasureReport","id":"dcc05e1c-19cb-48ba-a54e-6f143b5be247","meta":{"profile":["http://hl7.org/fhir/us/cqfmeasures/StructureDefinition/test-case-cqfm"]},"contained":[{"resourceType":"Parameters","id":"c1c6b32f-1402-42c9-a63d-27799662a556-parameters","parameter":[{"name":"subject","valueString":"ae7150fa-283f-4689-abff-ca7f29101609"}]}],"extension":[{"url":"http://hl7.org/fhir/StructureDefinition/cqf-inputParameters","valueReference":{"reference":"#c1c6b32f-1402-42c9-a63d-27799662a556-parameters"}},{"url":"http://hl7.org/fhir/us/cqfmeasures/StructureDefinition/cqfm-testCaseDescription","valueMarkdown":"Patients has hospice discharge disposition (home) before ED"}],"modifierExtension":[{"url":"http://hl7.org/fhir/us/cqfmeasures/StructureDefinition/cqfm-isTestCase","valueBoolean":true}],"status":"complete","type":"individual","measure":"https://madie.cms.gov/Measure/CMS996FHIRAptTxforSTEMI","period":{"start":"2026-01-01","end":"2026-12-31"},"group":[{"id":"Group_1","population":[{"id":"InitialPopulation_1","code":{"coding":[{"system":"http://terminology.hl7.org/CodeSystem/measure-population","code":"initial-population","display":"Initial Population"}]},"count":1},{"id":"Denominator_1","code":{"coding":[{"system":"http://terminology.hl7.org/CodeSystem/measure-population","code":"denominator","display":"Denominator"}]},"count":1},{"id":"DenominatorExclusion_1","code":{"coding":[{"system":"http://terminology.hl7.org/CodeSystem/measure-population","code":"denominator-exclusion","display":"Denominator Exclusion"}]},"count":1},{"id":"Numerator_1","code":{"coding":[{"system":"http://terminology.hl7.org/CodeSystem/measure-population","code":"numerator","display":"Numerator"}]},"count":0},{"id":"DenominatorException_1","code":{"coding":[{"system":"http://terminology.hl7.org/CodeSystem/measure-population","code":"denominator-exception","display":"Denominator Exception"}]},"count":0}],"measureScore":{"value":0.0}}],"evaluatedResource":[{"reference":"Patient/ae7150fa-283f-4689-abff-ca7f29101609"},{"reference":"Encounter/d452e31b-f0eb-4832-beee-ff49910fbb41"},{"reference":"Encounter/1260d7ac-8763-413b-b69e-c315e061f17e"},{"reference":"Condition/9ea09f3d-00e6-4f60-8136-ed529de475de"}]},"request":{"method":"PUT","url":"MeasureReport/dcc05e1c-19cb-48ba-a54e-6f143b5be247"}}]}