{"resourceType":"Bundle","id":"tests-2aeedd2a-4d15-4bb8-bf8d-58ba8371a988-bundle","type":"transaction","entry":[{"resource":{"resourceType":"Encounter","id":"da6c647e-3931-44cf-948e-2cec3977bb85","meta":{"profile":["http://hl7.org/fhir/us/qicore/StructureDefinition/qicore-encounter"]},"status":"finished","class":{"system":"http://terminology.hl7.org/CodeSystem/v3-ActCode","code":"EMER","display":"emergency","userSelected":true},"type":[{"coding":[{"system":"http://snomed.info/sct","version":"2020-09","code":"4525004","display":"Emergency department patient visit","userSelected":true}]}],"subject":{"reference":"Patient/2aeedd2a-4d15-4bb8-bf8d-58ba8371a988"},"period":{"start":"2026-10-09T05:00:00.000+00:00","end":"2026-10-13T17:00:00.000+00:00"},"reasonCode":[{"coding":[{"system":"http://hl7.org/fhir/sid/icd-10-cm","code":"I21.21","display":"ST elevation (STEMI) myocardial infarction involving left circumflex coronary artery","userSelected":true}]}]},"request":{"method":"PUT","url":"Encounter/da6c647e-3931-44cf-948e-2cec3977bb85"}},{"resource":{"resourceType":"Bundle","id":"s1f044ef3e654daa2662","type":"transaction","entry":[{"fullUrl":"https://madie.cms.gov/Patient/2aeedd2a-4d15-4bb8-bf8d-58ba8371a988","resource":{"resourceType":"Patient","id":"2aeedd2a-4d15-4bb8-bf8d-58ba8371a988","meta":{"profile":["http://hl7.org/fhir/us/qicore/StructureDefinition/qicore-patient"]},"extension":[{"url":"http://hl7.org/fhir/us/core/StructureDefinition/us-core-race","extension":[{"url":"ombCategory","valueCoding":{"system":"urn:oid:2.16.840.1.113883.6.238","code":"1002-5","display":"American Indian or Alaska Native","userSelected":true}},{"url":"text","valueString":"American Indian or Alaska Native"}]},{"url":"http://hl7.org/fhir/us/core/StructureDefinition/us-core-ethnicity","extension":[{"url":"ombCategory","valueCoding":{"system":"urn:oid:2.16.840.1.113883.6.238","code":"2135-2","display":"Hispanic or Latino","userSelected":true}},{"url":"text","valueString":"Hispanic or Latino"}]},{"url":"http://hl7.org/fhir/us/core/StructureDefinition/us-core-sex","valueCode":"248153007"}],"identifier":[{"type":{"coding":[{"system":"http://terminology.hl7.org/CodeSystem/v2-0203","code":"MR"}]},"system":"https://bonnie-fhir.healthit.gov/","value":"s1f044ef3e654daa2662"}],"name":[{"family":"DENEXCL11PASS","given":["HospiceInterventionPerformedRelevantDateTimePerformedBeforeED"]}],"gender":"male","birthDate":"1978-05-03"},"request":{"method":"PUT","url":"Patient/2aeedd2a-4d15-4bb8-bf8d-58ba8371a988"}},{"fullUrl":"https://madie.cms.gov/Encounter/da6c647e-3931-44cf-948e-2cec3977bb85","resource":{"resourceType":"Encounter","id":"da6c647e-3931-44cf-948e-2cec3977bb85","meta":{"profile":["http://hl7.org/fhir/us/qicore/StructureDefinition/qicore-encounter"]},"status":"finished","class":{"system":"http://terminology.hl7.org/CodeSystem/v3-ActCode","code":"EMER","display":"emergency","userSelected":true},"type":[{"coding":[{"system":"http://snomed.info/sct","version":"2020-09","code":"4525004","display":"Emergency department patient visit","userSelected":true}]}],"subject":{"reference":"Patient/2aeedd2a-4d15-4bb8-bf8d-58ba8371a988"},"period":{"start":"2026-10-09T05:00:00.000+00:00","end":"2026-10-13T17:00:00.000+00:00"},"reasonCode":[{"coding":[{"system":"http://hl7.org/fhir/sid/icd-10-cm","code":"I21.21","display":"ST elevation (STEMI) myocardial infarction involving left circumflex coronary artery","userSelected":true}]}]},"request":{"method":"PUT","url":"Encounter/da6c647e-3931-44cf-948e-2cec3977bb85"}},{"fullUrl":"https://madie.cms.gov/Procedure/f51fee20-5083-4a86-bf9d-5f1db6b3cede","resource":{"resourceType":"Procedure","id":"f51fee20-5083-4a86-bf9d-5f1db6b3cede","meta":{"profile":["http://hl7.org/fhir/us/qicore/StructureDefinition/qicore-procedure"]},"extension":[{"url":"http://hl7.org/fhir/us/qicore/StructureDefinition/qicore-recorded","valueDateTime":"2026-10-09T12:15:00.000+00:00"}],"status":"completed","code":{"coding":[{"system":"http://snomed.info/sct","code":"385763009","display":"Hospice care (regime/therapy)","userSelected":true}]},"subject":{"reference":"Patient/2aeedd2a-4d15-4bb8-bf8d-58ba8371a988"},"performedDateTime":"2026-07-08T12:00:00.000+00:00"},"request":{"method":"PUT","url":"Procedure/f51fee20-5083-4a86-bf9d-5f1db6b3cede"}},{"fullUrl":"https://madie.cms.gov/MeasureReport/e6a3d662-9557-42a7-85cb-3373f247b98f","resource":{"resourceType":"MeasureReport","id":"e6a3d662-9557-42a7-85cb-3373f247b98f","meta":{"profile":["http://hl7.org/fhir/us/cqfmeasures/StructureDefinition/test-case-cqfm"]},"contained":[{"resourceType":"Parameters","id":"74e1a580-7a7c-49a3-b003-728da96bf834-parameters","parameter":[{"name":"subject","valueString":"2aeedd2a-4d15-4bb8-bf8d-58ba8371a988"}]}],"extension":[{"url":"http://hl7.org/fhir/StructureDefinition/cqf-inputParameters","valueReference":{"reference":"#74e1a580-7a7c-49a3-b003-728da96bf834-parameters"}},{"url":"http://hl7.org/fhir/us/cqfmeasures/StructureDefinition/cqfm-testCaseDescription","valueMarkdown":"Patients has hospice services (intervention, procedure| relevant date time) before ED"}],"modifierExtension":[{"url":"http://hl7.org/fhir/us/cqfmeasures/StructureDefinition/cqfm-isTestCase","valueBoolean":true}],"status":"complete","type":"individual","measure":"https://madie.cms.gov/Measure/CMS996FHIRAptTxforSTEMI","period":{"start":"2026-01-01","end":"2026-12-31"},"group":[{"id":"Group_1","population":[{"id":"InitialPopulation_1","code":{"coding":[{"system":"http://terminology.hl7.org/CodeSystem/measure-population","code":"initial-population","display":"Initial Population"}]},"count":1},{"id":"Denominator_1","code":{"coding":[{"system":"http://terminology.hl7.org/CodeSystem/measure-population","code":"denominator","display":"Denominator"}]},"count":1},{"id":"DenominatorExclusion_1","code":{"coding":[{"system":"http://terminology.hl7.org/CodeSystem/measure-population","code":"denominator-exclusion","display":"Denominator Exclusion"}]},"count":1},{"id":"Numerator_1","code":{"coding":[{"system":"http://terminology.hl7.org/CodeSystem/measure-population","code":"numerator","display":"Numerator"}]},"count":0},{"id":"DenominatorException_1","code":{"coding":[{"system":"http://terminology.hl7.org/CodeSystem/measure-population","code":"denominator-exception","display":"Denominator Exception"}]},"count":0}],"measureScore":{"value":0.0}}],"evaluatedResource":[{"reference":"Patient/2aeedd2a-4d15-4bb8-bf8d-58ba8371a988"},{"reference":"Encounter/da6c647e-3931-44cf-948e-2cec3977bb85"},{"reference":"Procedure/f51fee20-5083-4a86-bf9d-5f1db6b3cede"}]},"request":{"method":"PUT","url":"MeasureReport/e6a3d662-9557-42a7-85cb-3373f247b98f"}}]},"request":{"method":"PUT","url":"Bundle/s1f044ef3e654daa2662"}},{"resource":{"resourceType":"MeasureReport","id":"e6a3d662-9557-42a7-85cb-3373f247b98f","meta":{"profile":["http://hl7.org/fhir/us/cqfmeasures/StructureDefinition/test-case-cqfm"]},"contained":[{"resourceType":"Parameters","id":"74e1a580-7a7c-49a3-b003-728da96bf834-parameters","parameter":[{"name":"subject","valueString":"2aeedd2a-4d15-4bb8-bf8d-58ba8371a988"}]}],"extension":[{"url":"http://hl7.org/fhir/StructureDefinition/cqf-inputParameters","valueReference":{"reference":"#74e1a580-7a7c-49a3-b003-728da96bf834-parameters"}},{"url":"http://hl7.org/fhir/us/cqfmeasures/StructureDefinition/cqfm-testCaseDescription","valueMarkdown":"Patients has hospice services (intervention, procedure| relevant date time) before ED"}],"modifierExtension":[{"url":"http://hl7.org/fhir/us/cqfmeasures/StructureDefinition/cqfm-isTestCase","valueBoolean":true}],"status":"complete","type":"individual","measure":"https://madie.cms.gov/Measure/CMS996FHIRAptTxforSTEMI","period":{"start":"2026-01-01","end":"2026-12-31"},"group":[{"id":"Group_1","population":[{"id":"InitialPopulation_1","code":{"coding":[{"system":"http://terminology.hl7.org/CodeSystem/measure-population","code":"initial-population","display":"Initial Population"}]},"count":1},{"id":"Denominator_1","code":{"coding":[{"system":"http://terminology.hl7.org/CodeSystem/measure-population","code":"denominator","display":"Denominator"}]},"count":1},{"id":"DenominatorExclusion_1","code":{"coding":[{"system":"http://terminology.hl7.org/CodeSystem/measure-population","code":"denominator-exclusion","display":"Denominator Exclusion"}]},"count":1},{"id":"Numerator_1","code":{"coding":[{"system":"http://terminology.hl7.org/CodeSystem/measure-population","code":"numerator","display":"Numerator"}]},"count":0},{"id":"DenominatorException_1","code":{"coding":[{"system":"http://terminology.hl7.org/CodeSystem/measure-population","code":"denominator-exception","display":"Denominator Exception"}]},"count":0}],"measureScore":{"value":0.0}}],"evaluatedResource":[{"reference":"Patient/2aeedd2a-4d15-4bb8-bf8d-58ba8371a988"},{"reference":"Encounter/da6c647e-3931-44cf-948e-2cec3977bb85"},{"reference":"Procedure/f51fee20-5083-4a86-bf9d-5f1db6b3cede"}]},"request":{"method":"PUT","url":"MeasureReport/e6a3d662-9557-42a7-85cb-3373f247b98f"}},{"resource":{"resourceType":"Patient","id":"2aeedd2a-4d15-4bb8-bf8d-58ba8371a988","meta":{"profile":["http://hl7.org/fhir/us/qicore/StructureDefinition/qicore-patient"]},"extension":[{"url":"http://hl7.org/fhir/us/core/StructureDefinition/us-core-race","extension":[{"url":"ombCategory","valueCoding":{"system":"urn:oid:2.16.840.1.113883.6.238","code":"1002-5","display":"American Indian or Alaska Native","userSelected":true}},{"url":"text","valueString":"American Indian or Alaska Native"}]},{"url":"http://hl7.org/fhir/us/core/StructureDefinition/us-core-ethnicity","extension":[{"url":"ombCategory","valueCoding":{"system":"urn:oid:2.16.840.1.113883.6.238","code":"2135-2","display":"Hispanic or Latino","userSelected":true}},{"url":"text","valueString":"Hispanic or Latino"}]},{"url":"http://hl7.org/fhir/us/core/StructureDefinition/us-core-sex","valueCode":"248153007"}],"identifier":[{"type":{"coding":[{"system":"http://terminology.hl7.org/CodeSystem/v2-0203","code":"MR"}]},"system":"https://bonnie-fhir.healthit.gov/","value":"s1f044ef3e654daa2662"}],"name":[{"family":"DENEXCL11PASS","given":["HospiceInterventionPerformedRelevantDateTimePerformedBeforeED"]}],"gender":"male","birthDate":"1978-05-03"},"request":{"method":"PUT","url":"Patient/2aeedd2a-4d15-4bb8-bf8d-58ba8371a988"}},{"resource":{"resourceType":"Procedure","id":"f51fee20-5083-4a86-bf9d-5f1db6b3cede","meta":{"profile":["http://hl7.org/fhir/us/qicore/StructureDefinition/qicore-procedure"]},"extension":[{"url":"http://hl7.org/fhir/us/qicore/StructureDefinition/qicore-recorded","valueDateTime":"2026-10-09T12:15:00.000+00:00"}],"status":"completed","code":{"coding":[{"system":"http://snomed.info/sct","code":"385763009","display":"Hospice care (regime/therapy)","userSelected":true}]},"subject":{"reference":"Patient/2aeedd2a-4d15-4bb8-bf8d-58ba8371a988"},"performedDateTime":"2026-07-08T12:00:00.000+00:00"},"request":{"method":"PUT","url":"Procedure/f51fee20-5083-4a86-bf9d-5f1db6b3cede"}}]}