{"resourceType":"Bundle","id":"tests-3acd8622-beff-4663-8fb9-5804e6a4313c-bundle","type":"transaction","entry":[{"resource":{"resourceType":"Location","id":"04cd8eae-72e0-4426-9b24-274a0f014cd0","meta":{"profile":["http://hl7.org/fhir/us/qicore/StructureDefinition/qicore-location"]},"identifier":[{"use":"usual","system":"http://exampleoflocation.com","value":"ED-1.R3"}],"name":"Emergency Department, first floor","type":[{"coding":[{"system":"http://snomed.info/sct","version":"20210611","code":"4525004","display":"Emergency department patient visit (procedure)","userSelected":true}]},{"coding":[{"system":"http://terminology.hl7.org/CodeSystem/v3-RoleCode","version":"2019","code":"ER","display":"Emergency room","userSelected":true}]}]},"request":{"method":"PUT","url":"Location/04cd8eae-72e0-4426-9b24-274a0f014cd0"}},{"resource":{"resourceType":"MeasureReport","id":"6635ee5b-8fb0-49ac-9037-a44a5de6f8e8","meta":{"profile":["http://hl7.org/fhir/us/cqfmeasures/StructureDefinition/test-case-cqfm"]},"contained":[{"resourceType":"Parameters","id":"639c7ebb-7b5f-4792-ad27-767f8dc91029-parameters","parameter":[{"name":"subject","valueString":"3acd8622-beff-4663-8fb9-5804e6a4313c"}]}],"extension":[{"url":"http://hl7.org/fhir/StructureDefinition/cqf-inputParameters","valueReference":{"reference":"#639c7ebb-7b5f-4792-ad27-767f8dc91029-parameters"}},{"url":"http://hl7.org/fhir/us/cqfmeasures/StructureDefinition/cqfm-testCaseDescription","valueMarkdown":"ED ends 46 minutes after start time to be transferred to acute care facility. Multiple locations"}],"modifierExtension":[{"url":"http://hl7.org/fhir/us/cqfmeasures/StructureDefinition/cqfm-isTestCase","valueBoolean":true}],"status":"complete","type":"individual","measure":"https://madie.cms.gov/Measure/CMS996FHIRAptTxforSTEMI","period":{"start":"2026-01-01","end":"2026-12-31"},"group":[{"id":"Group_1","population":[{"id":"InitialPopulation_1","code":{"coding":[{"system":"http://terminology.hl7.org/CodeSystem/measure-population","code":"initial-population","display":"Initial Population"}]},"count":1},{"id":"Denominator_1","code":{"coding":[{"system":"http://terminology.hl7.org/CodeSystem/measure-population","code":"denominator","display":"Denominator"}]},"count":1},{"id":"DenominatorExclusion_1","code":{"coding":[{"system":"http://terminology.hl7.org/CodeSystem/measure-population","code":"denominator-exclusion","display":"Denominator Exclusion"}]},"count":0},{"id":"Numerator_1","code":{"coding":[{"system":"http://terminology.hl7.org/CodeSystem/measure-population","code":"numerator","display":"Numerator"}]},"count":0},{"id":"DenominatorException_1","code":{"coding":[{"system":"http://terminology.hl7.org/CodeSystem/measure-population","code":"denominator-exception","display":"Denominator Exception"}]},"count":0}],"measureScore":{"value":0.0}}],"evaluatedResource":[{"reference":"Patient/3acd8622-beff-4663-8fb9-5804e6a4313c"},{"reference":"Encounter/adc26607-7fb5-4088-8a3c-9b2ae33a1e74"},{"reference":"Location/1be1151e-f60a-41c3-bde6-da728c7dcb9a"},{"reference":"Location/04cd8eae-72e0-4426-9b24-274a0f014cd0"},{"reference":"Condition/f664afee-57ba-41d1-b23f-5d1ad65d51a3"}]},"request":{"method":"PUT","url":"MeasureReport/6635ee5b-8fb0-49ac-9037-a44a5de6f8e8"}},{"resource":{"resourceType":"Condition","id":"f664afee-57ba-41d1-b23f-5d1ad65d51a3","meta":{"profile":["http://hl7.org/fhir/us/qicore/StructureDefinition/qicore-condition-encounter-diagnosis"]},"clinicalStatus":{"coding":[{"system":"http://terminology.hl7.org/CodeSystem/condition-clinical","code":"active","display":"active","userSelected":true}]},"category":[{"coding":[{"system":"http://terminology.hl7.org/CodeSystem/condition-category","code":"encounter-diagnosis","display":"Encounter Diagnosis","userSelected":true}]}],"code":{"coding":[{"system":"http://hl7.org/fhir/sid/icd-10-cm","code":"I21.3","userSelected":true}]},"subject":{"reference":"Patient/3acd8622-beff-4663-8fb9-5804e6a4313c"},"onsetDateTime":"2026-10-09T08:11:00.000+00:00"},"request":{"method":"PUT","url":"Condition/f664afee-57ba-41d1-b23f-5d1ad65d51a3"}},{"resource":{"resourceType":"Location","id":"1be1151e-f60a-41c3-bde6-da728c7dcb9a","meta":{"profile":["http://hl7.org/fhir/us/qicore/StructureDefinition/qicore-location"]},"identifier":[{"use":"usual","system":"http://exampleoflocation.com","value":"ED-1.R3"}],"name":"Emergency Department, first floor","type":[{"coding":[{"system":"http://snomed.info/sct","version":"20210611","code":"4525004","display":"Emergency department patient visit (procedure)","userSelected":true}]},{"coding":[{"system":"http://terminology.hl7.org/CodeSystem/v3-RoleCode","version":"2019","code":"ER","display":"Emergency room","userSelected":true}]}]},"request":{"method":"PUT","url":"Location/1be1151e-f60a-41c3-bde6-da728c7dcb9a"}},{"resource":{"resourceType":"Patient","id":"3acd8622-beff-4663-8fb9-5804e6a4313c","meta":{"profile":["http://hl7.org/fhir/us/qicore/StructureDefinition/qicore-patient"]},"extension":[{"url":"http://hl7.org/fhir/us/core/StructureDefinition/us-core-race","extension":[{"url":"ombCategory","valueCoding":{"system":"urn:oid:2.16.840.1.113883.6.238","code":"2076-8","display":"Native Hawaiian or Other Pacific Islander","userSelected":true}},{"url":"text","valueString":"Native Hawaiian or Other Pacific Islander"}]},{"url":"http://hl7.org/fhir/us/core/StructureDefinition/us-core-ethnicity","extension":[{"url":"ombCategory","valueCoding":{"system":"urn:oid:2.16.840.1.113883.6.238","code":"2186-5","display":"Not Hispanic or Latino","userSelected":true}},{"url":"text","valueString":"Not Hispanic or Latino"}]},{"url":"http://hl7.org/fhir/us/core/StructureDefinition/us-core-sex","valueCode":"248153007"}],"identifier":[{"type":{"coding":[{"system":"http://terminology.hl7.org/CodeSystem/v2-0203","code":"MR"}]},"system":"https://bonnie-fhir.healthit.gov/","value":"617835c74bf8e25b8f204e27"}],"name":[{"family":"NumFail","given":["Depart46minsfromEDstartMultLocation"]}],"gender":"female","birthDate":"1985-12-02"},"request":{"method":"PUT","url":"Patient/3acd8622-beff-4663-8fb9-5804e6a4313c"}},{"resource":{"resourceType":"Encounter","id":"adc26607-7fb5-4088-8a3c-9b2ae33a1e74","meta":{"profile":["http://hl7.org/fhir/us/qicore/StructureDefinition/qicore-encounter"]},"status":"finished","class":{"system":"http://terminology.hl7.org/CodeSystem/v3-ActCode","code":"EMER","display":"emergency","userSelected":true},"type":[{"coding":[{"system":"http://snomed.info/sct","version":"2020-09","code":"4525004","display":"Emergency department patient visit (procedure)","userSelected":true}]}],"subject":{"reference":"Patient/3acd8622-beff-4663-8fb9-5804e6a4313c"},"period":{"start":"2026-10-09T08:00:00.000+00:00","end":"2026-10-09T08:50:00.000+00:00"},"reasonReference":[{"reference":"Condition/f664afee-57ba-41d1-b23f-5d1ad65d51a3"}],"hospitalization":{"dischargeDisposition":{"coding":[{"system":"http://snomed.info/sct","version":"2020-09","code":"306703003","display":"Discharge to tertiary referral hospital (procedure)","userSelected":true}]}},"location":[{"location":{"reference":"Location/1be1151e-f60a-41c3-bde6-da728c7dcb9a"},"period":{"start":"2026-10-09T08:05:00.000+00:00","end":"2026-10-09T08:10:00.000+00:00"}},{"location":{"reference":"Location/04cd8eae-72e0-4426-9b24-274a0f014cd0"},"period":{"start":"2026-10-09T08:11:00.000+00:00","end":"2026-10-09T08:51:00.000+00:00"}}]},"request":{"method":"PUT","url":"Encounter/adc26607-7fb5-4088-8a3c-9b2ae33a1e74"}},{"resource":{"resourceType":"Bundle","id":"617835c74bf8e25b8f204e27","type":"transaction","entry":[{"fullUrl":"https://madie.cms.gov/Patient/3acd8622-beff-4663-8fb9-5804e6a4313c","resource":{"resourceType":"Patient","id":"3acd8622-beff-4663-8fb9-5804e6a4313c","meta":{"profile":["http://hl7.org/fhir/us/qicore/StructureDefinition/qicore-patient"]},"extension":[{"url":"http://hl7.org/fhir/us/core/StructureDefinition/us-core-race","extension":[{"url":"ombCategory","valueCoding":{"system":"urn:oid:2.16.840.1.113883.6.238","code":"2076-8","display":"Native Hawaiian or Other Pacific Islander","userSelected":true}},{"url":"text","valueString":"Native Hawaiian or Other Pacific Islander"}]},{"url":"http://hl7.org/fhir/us/core/StructureDefinition/us-core-ethnicity","extension":[{"url":"ombCategory","valueCoding":{"system":"urn:oid:2.16.840.1.113883.6.238","code":"2186-5","display":"Not Hispanic or Latino","userSelected":true}},{"url":"text","valueString":"Not Hispanic or Latino"}]},{"url":"http://hl7.org/fhir/us/core/StructureDefinition/us-core-sex","valueCode":"248153007"}],"identifier":[{"type":{"coding":[{"system":"http://terminology.hl7.org/CodeSystem/v2-0203","code":"MR"}]},"system":"https://bonnie-fhir.healthit.gov/","value":"617835c74bf8e25b8f204e27"}],"name":[{"family":"NumFail","given":["Depart46minsfromEDstartMultLocation"]}],"gender":"female","birthDate":"1985-12-02"},"request":{"method":"PUT","url":"Patient/3acd8622-beff-4663-8fb9-5804e6a4313c"}},{"fullUrl":"https://madie.cms.gov/Encounter/adc26607-7fb5-4088-8a3c-9b2ae33a1e74","resource":{"resourceType":"Encounter","id":"adc26607-7fb5-4088-8a3c-9b2ae33a1e74","meta":{"profile":["http://hl7.org/fhir/us/qicore/StructureDefinition/qicore-encounter"]},"status":"finished","class":{"system":"http://terminology.hl7.org/CodeSystem/v3-ActCode","code":"EMER","display":"emergency","userSelected":true},"type":[{"coding":[{"system":"http://snomed.info/sct","version":"2020-09","code":"4525004","display":"Emergency department patient visit (procedure)","userSelected":true}]}],"subject":{"reference":"Patient/3acd8622-beff-4663-8fb9-5804e6a4313c"},"period":{"start":"2026-10-09T08:00:00.000+00:00","end":"2026-10-09T08:50:00.000+00:00"},"reasonReference":[{"reference":"Condition/f664afee-57ba-41d1-b23f-5d1ad65d51a3"}],"hospitalization":{"dischargeDisposition":{"coding":[{"system":"http://snomed.info/sct","version":"2020-09","code":"306703003","display":"Discharge to tertiary referral hospital (procedure)","userSelected":true}]}},"location":[{"location":{"reference":"Location/1be1151e-f60a-41c3-bde6-da728c7dcb9a"},"period":{"start":"2026-10-09T08:05:00.000+00:00","end":"2026-10-09T08:10:00.000+00:00"}},{"location":{"reference":"Location/04cd8eae-72e0-4426-9b24-274a0f014cd0"},"period":{"start":"2026-10-09T08:11:00.000+00:00","end":"2026-10-09T08:51:00.000+00:00"}}]},"request":{"method":"PUT","url":"Encounter/adc26607-7fb5-4088-8a3c-9b2ae33a1e74"}},{"fullUrl":"https://madie.cms.gov/Location/1be1151e-f60a-41c3-bde6-da728c7dcb9a","resource":{"resourceType":"Location","id":"1be1151e-f60a-41c3-bde6-da728c7dcb9a","meta":{"profile":["http://hl7.org/fhir/us/qicore/StructureDefinition/qicore-location"]},"identifier":[{"use":"usual","system":"http://exampleoflocation.com","value":"ED-1.R3"}],"name":"Emergency Department, first floor","type":[{"coding":[{"system":"http://snomed.info/sct","version":"20210611","code":"4525004","display":"Emergency department patient visit (procedure)","userSelected":true}]},{"coding":[{"system":"http://terminology.hl7.org/CodeSystem/v3-RoleCode","version":"2019","code":"ER","display":"Emergency room","userSelected":true}]}]},"request":{"method":"PUT","url":"Location/1be1151e-f60a-41c3-bde6-da728c7dcb9a"}},{"fullUrl":"https://madie.cms.gov/Location/04cd8eae-72e0-4426-9b24-274a0f014cd0","resource":{"resourceType":"Location","id":"04cd8eae-72e0-4426-9b24-274a0f014cd0","meta":{"profile":["http://hl7.org/fhir/us/qicore/StructureDefinition/qicore-location"]},"identifier":[{"use":"usual","system":"http://exampleoflocation.com","value":"ED-1.R3"}],"name":"Emergency Department, first floor","type":[{"coding":[{"system":"http://snomed.info/sct","version":"20210611","code":"4525004","display":"Emergency department patient visit (procedure)","userSelected":true}]},{"coding":[{"system":"http://terminology.hl7.org/CodeSystem/v3-RoleCode","version":"2019","code":"ER","display":"Emergency room","userSelected":true}]}]},"request":{"method":"PUT","url":"Location/04cd8eae-72e0-4426-9b24-274a0f014cd0"}},{"fullUrl":"https://madie.cms.gov/Condition/f664afee-57ba-41d1-b23f-5d1ad65d51a3","resource":{"resourceType":"Condition","id":"f664afee-57ba-41d1-b23f-5d1ad65d51a3","meta":{"profile":["http://hl7.org/fhir/us/qicore/StructureDefinition/qicore-condition-encounter-diagnosis"]},"clinicalStatus":{"coding":[{"system":"http://terminology.hl7.org/CodeSystem/condition-clinical","code":"active","display":"active","userSelected":true}]},"category":[{"coding":[{"system":"http://terminology.hl7.org/CodeSystem/condition-category","code":"encounter-diagnosis","display":"Encounter Diagnosis","userSelected":true}]}],"code":{"coding":[{"system":"http://hl7.org/fhir/sid/icd-10-cm","code":"I21.3","userSelected":true}]},"subject":{"reference":"Patient/3acd8622-beff-4663-8fb9-5804e6a4313c"},"onsetDateTime":"2026-10-09T08:11:00.000+00:00"},"request":{"method":"PUT","url":"Condition/f664afee-57ba-41d1-b23f-5d1ad65d51a3"}},{"fullUrl":"https://madie.cms.gov/MeasureReport/6635ee5b-8fb0-49ac-9037-a44a5de6f8e8","resource":{"resourceType":"MeasureReport","id":"6635ee5b-8fb0-49ac-9037-a44a5de6f8e8","meta":{"profile":["http://hl7.org/fhir/us/cqfmeasures/StructureDefinition/test-case-cqfm"]},"contained":[{"resourceType":"Parameters","id":"639c7ebb-7b5f-4792-ad27-767f8dc91029-parameters","parameter":[{"name":"subject","valueString":"3acd8622-beff-4663-8fb9-5804e6a4313c"}]}],"extension":[{"url":"http://hl7.org/fhir/StructureDefinition/cqf-inputParameters","valueReference":{"reference":"#639c7ebb-7b5f-4792-ad27-767f8dc91029-parameters"}},{"url":"http://hl7.org/fhir/us/cqfmeasures/StructureDefinition/cqfm-testCaseDescription","valueMarkdown":"ED ends 46 minutes after start time to be transferred to acute care facility. Multiple locations"}],"modifierExtension":[{"url":"http://hl7.org/fhir/us/cqfmeasures/StructureDefinition/cqfm-isTestCase","valueBoolean":true}],"status":"complete","type":"individual","measure":"https://madie.cms.gov/Measure/CMS996FHIRAptTxforSTEMI","period":{"start":"2026-01-01","end":"2026-12-31"},"group":[{"id":"Group_1","population":[{"id":"InitialPopulation_1","code":{"coding":[{"system":"http://terminology.hl7.org/CodeSystem/measure-population","code":"initial-population","display":"Initial Population"}]},"count":1},{"id":"Denominator_1","code":{"coding":[{"system":"http://terminology.hl7.org/CodeSystem/measure-population","code":"denominator","display":"Denominator"}]},"count":1},{"id":"DenominatorExclusion_1","code":{"coding":[{"system":"http://terminology.hl7.org/CodeSystem/measure-population","code":"denominator-exclusion","display":"Denominator Exclusion"}]},"count":0},{"id":"Numerator_1","code":{"coding":[{"system":"http://terminology.hl7.org/CodeSystem/measure-population","code":"numerator","display":"Numerator"}]},"count":0},{"id":"DenominatorException_1","code":{"coding":[{"system":"http://terminology.hl7.org/CodeSystem/measure-population","code":"denominator-exception","display":"Denominator Exception"}]},"count":0}],"measureScore":{"value":0.0}}],"evaluatedResource":[{"reference":"Patient/3acd8622-beff-4663-8fb9-5804e6a4313c"},{"reference":"Encounter/adc26607-7fb5-4088-8a3c-9b2ae33a1e74"},{"reference":"Location/1be1151e-f60a-41c3-bde6-da728c7dcb9a"},{"reference":"Location/04cd8eae-72e0-4426-9b24-274a0f014cd0"},{"reference":"Condition/f664afee-57ba-41d1-b23f-5d1ad65d51a3"}]},"request":{"method":"PUT","url":"MeasureReport/6635ee5b-8fb0-49ac-9037-a44a5de6f8e8"}}]},"request":{"method":"PUT","url":"Bundle/617835c74bf8e25b8f204e27"}}]}