{"resourceType":"Bundle","id":"tests-1e4bf1ad-f3bf-42ef-a6c5-e31f53f3b1ac-bundle","type":"transaction","entry":[{"resource":{"resourceType":"Encounter","id":"547b6c4a-1240-45eb-bb44-06e0c9b75e11","meta":{"profile":["http://hl7.org/fhir/us/qicore/StructureDefinition/qicore-encounter"]},"status":"finished","class":{"system":"http://terminology.hl7.org/CodeSystem/v3-ActCode","code":"EMER","display":"emergency","userSelected":true},"type":[{"coding":[{"system":"http://snomed.info/sct","code":"183921001","display":"Admission to hospice for respite (procedure)","userSelected":true}]}],"subject":{"reference":"Patient/1e4bf1ad-f3bf-42ef-a6c5-e31f53f3b1ac"},"period":{"start":"2026-09-16T02:00:00.000+00:00","end":"2026-09-16T06:00:00.000+00:00"}},"request":{"method":"PUT","url":"Encounter/547b6c4a-1240-45eb-bb44-06e0c9b75e11"}},{"resource":{"resourceType":"Bundle","id":"k1f044ef3e654daa2251","type":"transaction","entry":[{"fullUrl":"https://madie.cms.gov/Patient/1e4bf1ad-f3bf-42ef-a6c5-e31f53f3b1ac","resource":{"resourceType":"Patient","id":"1e4bf1ad-f3bf-42ef-a6c5-e31f53f3b1ac","meta":{"profile":["http://hl7.org/fhir/us/qicore/StructureDefinition/qicore-patient"]},"extension":[{"url":"http://hl7.org/fhir/us/core/StructureDefinition/us-core-race","extension":[{"url":"ombCategory","valueCoding":{"system":"urn:oid:2.16.840.1.113883.6.238","code":"1002-5","display":"American Indian or Alaska Native","userSelected":true}},{"url":"text","valueString":"American Indian or Alaska Native"}]},{"url":"http://hl7.org/fhir/us/core/StructureDefinition/us-core-ethnicity","extension":[{"url":"ombCategory","valueCoding":{"system":"urn:oid:2.16.840.1.113883.6.238","code":"2135-2","display":"Hispanic or Latino","userSelected":true}},{"url":"text","valueString":"Hispanic or Latino"}]},{"url":"http://hl7.org/fhir/us/core/StructureDefinition/us-core-sex","valueCode":"248153007"}],"identifier":[{"type":{"coding":[{"system":"http://terminology.hl7.org/CodeSystem/v2-0203","code":"MR"}]},"system":"https://bonnie-fhir.healthit.gov/","value":"k1f044ef3e654daa2251"}],"name":[{"family":"DENEXCL11PASS","given":["HospiceEncounterPeformedBeforeED"]}],"gender":"male","birthDate":"1979-05-05"},"request":{"method":"PUT","url":"Patient/1e4bf1ad-f3bf-42ef-a6c5-e31f53f3b1ac"}},{"fullUrl":"https://madie.cms.gov/Encounter/50580246-6b5d-4a75-b903-4ef8dfbec7e2","resource":{"resourceType":"Encounter","id":"50580246-6b5d-4a75-b903-4ef8dfbec7e2","meta":{"profile":["http://hl7.org/fhir/us/qicore/StructureDefinition/qicore-encounter"]},"status":"finished","class":{"system":"http://terminology.hl7.org/CodeSystem/v3-ActCode","code":"EMER","display":"emergency","userSelected":true},"type":[{"coding":[{"system":"http://snomed.info/sct","version":"2020-09","code":"4525004","display":"Emergency department patient visit","userSelected":true}]}],"subject":{"reference":"Patient/1e4bf1ad-f3bf-42ef-a6c5-e31f53f3b1ac"},"period":{"start":"2026-10-09T05:00:00.000+00:00","end":"2026-10-13T17:00:00.000+00:00"},"reasonCode":[{"coding":[{"system":"http://hl7.org/fhir/sid/icd-10-cm","code":"I21.21","display":"ST elevation (STEMI) myocardial infarction involving left circumflex coronary artery","userSelected":true}]}]},"request":{"method":"PUT","url":"Encounter/50580246-6b5d-4a75-b903-4ef8dfbec7e2"}},{"fullUrl":"https://madie.cms.gov/Encounter/547b6c4a-1240-45eb-bb44-06e0c9b75e11","resource":{"resourceType":"Encounter","id":"547b6c4a-1240-45eb-bb44-06e0c9b75e11","meta":{"profile":["http://hl7.org/fhir/us/qicore/StructureDefinition/qicore-encounter"]},"status":"finished","class":{"system":"http://terminology.hl7.org/CodeSystem/v3-ActCode","code":"EMER","display":"emergency","userSelected":true},"type":[{"coding":[{"system":"http://snomed.info/sct","code":"183921001","display":"Admission to hospice for respite (procedure)","userSelected":true}]}],"subject":{"reference":"Patient/1e4bf1ad-f3bf-42ef-a6c5-e31f53f3b1ac"},"period":{"start":"2026-09-16T02:00:00.000+00:00","end":"2026-09-16T06:00:00.000+00:00"}},"request":{"method":"PUT","url":"Encounter/547b6c4a-1240-45eb-bb44-06e0c9b75e11"}},{"fullUrl":"https://madie.cms.gov/MeasureReport/93bdb8fe-4efe-4fca-8eea-7eb85905ec84","resource":{"resourceType":"MeasureReport","id":"93bdb8fe-4efe-4fca-8eea-7eb85905ec84","meta":{"profile":["http://hl7.org/fhir/us/cqfmeasures/StructureDefinition/test-case-cqfm"]},"contained":[{"resourceType":"Parameters","id":"5d51fd86-b91b-475c-8184-493dbf44ab98-parameters","parameter":[{"name":"subject","valueString":"1e4bf1ad-f3bf-42ef-a6c5-e31f53f3b1ac"}]}],"extension":[{"url":"http://hl7.org/fhir/StructureDefinition/cqf-inputParameters","valueReference":{"reference":"#5d51fd86-b91b-475c-8184-493dbf44ab98-parameters"}},{"url":"http://hl7.org/fhir/us/cqfmeasures/StructureDefinition/cqfm-testCaseDescription","valueMarkdown":"Patients has hospice encounter performed before ED"}],"modifierExtension":[{"url":"http://hl7.org/fhir/us/cqfmeasures/StructureDefinition/cqfm-isTestCase","valueBoolean":true}],"status":"complete","type":"individual","measure":"https://madie.cms.gov/Measure/CMS996FHIRAptTxforSTEMI","period":{"start":"2026-01-01","end":"2026-12-31"},"group":[{"id":"Group_1","population":[{"id":"InitialPopulation_1","code":{"coding":[{"system":"http://terminology.hl7.org/CodeSystem/measure-population","code":"initial-population","display":"Initial Population"}]},"count":1},{"id":"Denominator_1","code":{"coding":[{"system":"http://terminology.hl7.org/CodeSystem/measure-population","code":"denominator","display":"Denominator"}]},"count":1},{"id":"DenominatorExclusion_1","code":{"coding":[{"system":"http://terminology.hl7.org/CodeSystem/measure-population","code":"denominator-exclusion","display":"Denominator Exclusion"}]},"count":1},{"id":"Numerator_1","code":{"coding":[{"system":"http://terminology.hl7.org/CodeSystem/measure-population","code":"numerator","display":"Numerator"}]},"count":0},{"id":"DenominatorException_1","code":{"coding":[{"system":"http://terminology.hl7.org/CodeSystem/measure-population","code":"denominator-exception","display":"Denominator Exception"}]},"count":0}],"measureScore":{"value":0.0}}],"evaluatedResource":[{"reference":"Patient/1e4bf1ad-f3bf-42ef-a6c5-e31f53f3b1ac"},{"reference":"Encounter/50580246-6b5d-4a75-b903-4ef8dfbec7e2"},{"reference":"Encounter/547b6c4a-1240-45eb-bb44-06e0c9b75e11"}]},"request":{"method":"PUT","url":"MeasureReport/93bdb8fe-4efe-4fca-8eea-7eb85905ec84"}}]},"request":{"method":"PUT","url":"Bundle/k1f044ef3e654daa2251"}},{"resource":{"resourceType":"Patient","id":"1e4bf1ad-f3bf-42ef-a6c5-e31f53f3b1ac","meta":{"profile":["http://hl7.org/fhir/us/qicore/StructureDefinition/qicore-patient"]},"extension":[{"url":"http://hl7.org/fhir/us/core/StructureDefinition/us-core-race","extension":[{"url":"ombCategory","valueCoding":{"system":"urn:oid:2.16.840.1.113883.6.238","code":"1002-5","display":"American Indian or Alaska Native","userSelected":true}},{"url":"text","valueString":"American Indian or Alaska Native"}]},{"url":"http://hl7.org/fhir/us/core/StructureDefinition/us-core-ethnicity","extension":[{"url":"ombCategory","valueCoding":{"system":"urn:oid:2.16.840.1.113883.6.238","code":"2135-2","display":"Hispanic or Latino","userSelected":true}},{"url":"text","valueString":"Hispanic or Latino"}]},{"url":"http://hl7.org/fhir/us/core/StructureDefinition/us-core-sex","valueCode":"248153007"}],"identifier":[{"type":{"coding":[{"system":"http://terminology.hl7.org/CodeSystem/v2-0203","code":"MR"}]},"system":"https://bonnie-fhir.healthit.gov/","value":"k1f044ef3e654daa2251"}],"name":[{"family":"DENEXCL11PASS","given":["HospiceEncounterPeformedBeforeED"]}],"gender":"male","birthDate":"1979-05-05"},"request":{"method":"PUT","url":"Patient/1e4bf1ad-f3bf-42ef-a6c5-e31f53f3b1ac"}},{"resource":{"resourceType":"MeasureReport","id":"93bdb8fe-4efe-4fca-8eea-7eb85905ec84","meta":{"profile":["http://hl7.org/fhir/us/cqfmeasures/StructureDefinition/test-case-cqfm"]},"contained":[{"resourceType":"Parameters","id":"5d51fd86-b91b-475c-8184-493dbf44ab98-parameters","parameter":[{"name":"subject","valueString":"1e4bf1ad-f3bf-42ef-a6c5-e31f53f3b1ac"}]}],"extension":[{"url":"http://hl7.org/fhir/StructureDefinition/cqf-inputParameters","valueReference":{"reference":"#5d51fd86-b91b-475c-8184-493dbf44ab98-parameters"}},{"url":"http://hl7.org/fhir/us/cqfmeasures/StructureDefinition/cqfm-testCaseDescription","valueMarkdown":"Patients has hospice encounter performed before ED"}],"modifierExtension":[{"url":"http://hl7.org/fhir/us/cqfmeasures/StructureDefinition/cqfm-isTestCase","valueBoolean":true}],"status":"complete","type":"individual","measure":"https://madie.cms.gov/Measure/CMS996FHIRAptTxforSTEMI","period":{"start":"2026-01-01","end":"2026-12-31"},"group":[{"id":"Group_1","population":[{"id":"InitialPopulation_1","code":{"coding":[{"system":"http://terminology.hl7.org/CodeSystem/measure-population","code":"initial-population","display":"Initial Population"}]},"count":1},{"id":"Denominator_1","code":{"coding":[{"system":"http://terminology.hl7.org/CodeSystem/measure-population","code":"denominator","display":"Denominator"}]},"count":1},{"id":"DenominatorExclusion_1","code":{"coding":[{"system":"http://terminology.hl7.org/CodeSystem/measure-population","code":"denominator-exclusion","display":"Denominator Exclusion"}]},"count":1},{"id":"Numerator_1","code":{"coding":[{"system":"http://terminology.hl7.org/CodeSystem/measure-population","code":"numerator","display":"Numerator"}]},"count":0},{"id":"DenominatorException_1","code":{"coding":[{"system":"http://terminology.hl7.org/CodeSystem/measure-population","code":"denominator-exception","display":"Denominator Exception"}]},"count":0}],"measureScore":{"value":0.0}}],"evaluatedResource":[{"reference":"Patient/1e4bf1ad-f3bf-42ef-a6c5-e31f53f3b1ac"},{"reference":"Encounter/50580246-6b5d-4a75-b903-4ef8dfbec7e2"},{"reference":"Encounter/547b6c4a-1240-45eb-bb44-06e0c9b75e11"}]},"request":{"method":"PUT","url":"MeasureReport/93bdb8fe-4efe-4fca-8eea-7eb85905ec84"}},{"resource":{"resourceType":"Encounter","id":"50580246-6b5d-4a75-b903-4ef8dfbec7e2","meta":{"profile":["http://hl7.org/fhir/us/qicore/StructureDefinition/qicore-encounter"]},"status":"finished","class":{"system":"http://terminology.hl7.org/CodeSystem/v3-ActCode","code":"EMER","display":"emergency","userSelected":true},"type":[{"coding":[{"system":"http://snomed.info/sct","version":"2020-09","code":"4525004","display":"Emergency department patient visit","userSelected":true}]}],"subject":{"reference":"Patient/1e4bf1ad-f3bf-42ef-a6c5-e31f53f3b1ac"},"period":{"start":"2026-10-09T05:00:00.000+00:00","end":"2026-10-13T17:00:00.000+00:00"},"reasonCode":[{"coding":[{"system":"http://hl7.org/fhir/sid/icd-10-cm","code":"I21.21","display":"ST elevation (STEMI) myocardial infarction involving left circumflex coronary artery","userSelected":true}]}]},"request":{"method":"PUT","url":"Encounter/50580246-6b5d-4a75-b903-4ef8dfbec7e2"}}]}