{"resourceType":"Bundle","id":"tests-6dcaa0a8-25f9-404e-ab0a-41c66f92732f-bundle","type":"transaction","entry":[{"resource":{"resourceType":"Encounter","id":"3f615dd5-0898-4012-823e-3ef9f917ac67","meta":{"profile":["http://hl7.org/fhir/us/qicore/StructureDefinition/qicore-encounter"]},"status":"finished","class":{"system":"http://terminology.hl7.org/CodeSystem/v3-ActCode","code":"EMER","display":"emergency","userSelected":true},"type":[{"coding":[{"system":"http://snomed.info/sct","version":"2020-09","code":"4525004","display":"Emergency department patient visit","userSelected":true}]}],"subject":{"reference":"Patient/6dcaa0a8-25f9-404e-ab0a-41c66f92732f"},"period":{"start":"2026-10-09T05:00:00.000+00:00","end":"2026-10-13T17:00:00.000+00:00"},"reasonCode":[{"coding":[{"system":"http://hl7.org/fhir/sid/icd-10-cm","code":"I21.21","display":"ST elevation (STEMI) myocardial infarction involving left circumflex coronary artery","userSelected":true}]}],"reasonReference":[{"reference":"Condition/441acc5f-b11e-4181-95c5-0e6e7e25d227"}]},"request":{"method":"PUT","url":"Encounter/3f615dd5-0898-4012-823e-3ef9f917ac67"}},{"resource":{"resourceType":"Patient","id":"6dcaa0a8-25f9-404e-ab0a-41c66f92732f","meta":{"profile":["http://hl7.org/fhir/us/qicore/StructureDefinition/qicore-patient"]},"extension":[{"url":"http://hl7.org/fhir/us/core/StructureDefinition/us-core-race","extension":[{"url":"ombCategory","valueCoding":{"system":"urn:oid:2.16.840.1.113883.6.238","code":"1002-5","display":"American Indian or Alaska Native","userSelected":true}},{"url":"text","valueString":"American Indian or Alaska Native"}]},{"url":"http://hl7.org/fhir/us/core/StructureDefinition/us-core-ethnicity","extension":[{"url":"ombCategory","valueCoding":{"system":"urn:oid:2.16.840.1.113883.6.238","code":"2135-2","display":"Hispanic or Latino","userSelected":true}},{"url":"text","valueString":"Hispanic or Latino"}]},{"url":"http://hl7.org/fhir/us/core/StructureDefinition/us-core-sex","valueCode":"999999999"}],"identifier":[{"type":{"coding":[{"system":"http://terminology.hl7.org/CodeSystem/v2-0203","code":"MR"}]},"system":"https://bonnie-fhir.healthit.gov/","value":"m1f044ef3e654daa2559"}],"name":[{"family":"DENEXCL11PASS","given":["HospiceEncDiagnosisOverlapEDStart"]}],"gender":"unknown","birthDate":"1986-09-15"},"request":{"method":"PUT","url":"Patient/6dcaa0a8-25f9-404e-ab0a-41c66f92732f"}},{"resource":{"resourceType":"MeasureReport","id":"bfbe3cdc-026d-49b0-8631-73967f8da259","meta":{"profile":["http://hl7.org/fhir/us/cqfmeasures/StructureDefinition/test-case-cqfm"]},"contained":[{"resourceType":"Parameters","id":"cc2e1dbc-eb56-4092-99a8-d22e71dbbb3c-parameters","parameter":[{"name":"subject","valueString":"6dcaa0a8-25f9-404e-ab0a-41c66f92732f"}]}],"extension":[{"url":"http://hl7.org/fhir/StructureDefinition/cqf-inputParameters","valueReference":{"reference":"#cc2e1dbc-eb56-4092-99a8-d22e71dbbb3c-parameters"}},{"url":"http://hl7.org/fhir/us/cqfmeasures/StructureDefinition/cqfm-testCaseDescription","valueMarkdown":"Patients has hospice problem diagnosis that overlaps ED start"}],"modifierExtension":[{"url":"http://hl7.org/fhir/us/cqfmeasures/StructureDefinition/cqfm-isTestCase","valueBoolean":true}],"status":"complete","type":"individual","measure":"https://madie.cms.gov/Measure/CMS996FHIRAptTxforSTEMI","period":{"start":"2026-01-01","end":"2026-12-31"},"group":[{"id":"Group_1","population":[{"id":"InitialPopulation_1","code":{"coding":[{"system":"http://terminology.hl7.org/CodeSystem/measure-population","code":"initial-population","display":"Initial Population"}]},"count":1},{"id":"Denominator_1","code":{"coding":[{"system":"http://terminology.hl7.org/CodeSystem/measure-population","code":"denominator","display":"Denominator"}]},"count":1},{"id":"DenominatorExclusion_1","code":{"coding":[{"system":"http://terminology.hl7.org/CodeSystem/measure-population","code":"denominator-exclusion","display":"Denominator Exclusion"}]},"count":1},{"id":"Numerator_1","code":{"coding":[{"system":"http://terminology.hl7.org/CodeSystem/measure-population","code":"numerator","display":"Numerator"}]},"count":0},{"id":"DenominatorException_1","code":{"coding":[{"system":"http://terminology.hl7.org/CodeSystem/measure-population","code":"denominator-exception","display":"Denominator Exception"}]},"count":0}],"measureScore":{"value":0.0}}],"evaluatedResource":[{"reference":"Patient/6dcaa0a8-25f9-404e-ab0a-41c66f92732f"},{"reference":"Encounter/3f615dd5-0898-4012-823e-3ef9f917ac67"},{"reference":"Condition/441acc5f-b11e-4181-95c5-0e6e7e25d227"}]},"request":{"method":"PUT","url":"MeasureReport/bfbe3cdc-026d-49b0-8631-73967f8da259"}},{"resource":{"resourceType":"Condition","id":"441acc5f-b11e-4181-95c5-0e6e7e25d227","meta":{"profile":["http://hl7.org/fhir/us/qicore/StructureDefinition/qicore-condition-problems-health-concerns"]},"clinicalStatus":{"coding":[{"system":"http://terminology.hl7.org/CodeSystem/condition-clinical","code":"inactive","display":"Inactive","userSelected":true}]},"verificationStatus":{"coding":[{"system":"http://terminology.hl7.org/CodeSystem/condition-ver-status","code":"confirmed"}]},"category":[{"coding":[{"system":"http://terminology.hl7.org/CodeSystem/condition-category","code":"problem-list-item","display":"Problem List Item","userSelected":true}]}],"code":{"coding":[{"system":"http://snomed.info/sct","code":"170936009","display":"Shared care - hospice and general practitioner (finding)","userSelected":true}]},"subject":{"reference":"Patient/6dcaa0a8-25f9-404e-ab0a-41c66f92732f"},"onsetDateTime":"2026-10-08T12:00:00.000+00:00","abatementDateTime":"2026-11-30T02:00:00.000+00:00"},"request":{"method":"PUT","url":"Condition/441acc5f-b11e-4181-95c5-0e6e7e25d227"}},{"resource":{"resourceType":"Bundle","id":"m1f044ef3e654daa2559","type":"transaction","entry":[{"fullUrl":"https://madie.cms.gov/Patient/6dcaa0a8-25f9-404e-ab0a-41c66f92732f","resource":{"resourceType":"Patient","id":"6dcaa0a8-25f9-404e-ab0a-41c66f92732f","meta":{"profile":["http://hl7.org/fhir/us/qicore/StructureDefinition/qicore-patient"]},"extension":[{"url":"http://hl7.org/fhir/us/core/StructureDefinition/us-core-race","extension":[{"url":"ombCategory","valueCoding":{"system":"urn:oid:2.16.840.1.113883.6.238","code":"1002-5","display":"American Indian or Alaska Native","userSelected":true}},{"url":"text","valueString":"American Indian or Alaska Native"}]},{"url":"http://hl7.org/fhir/us/core/StructureDefinition/us-core-ethnicity","extension":[{"url":"ombCategory","valueCoding":{"system":"urn:oid:2.16.840.1.113883.6.238","code":"2135-2","display":"Hispanic or Latino","userSelected":true}},{"url":"text","valueString":"Hispanic or Latino"}]},{"url":"http://hl7.org/fhir/us/core/StructureDefinition/us-core-sex","valueCode":"999999999"}],"identifier":[{"type":{"coding":[{"system":"http://terminology.hl7.org/CodeSystem/v2-0203","code":"MR"}]},"system":"https://bonnie-fhir.healthit.gov/","value":"m1f044ef3e654daa2559"}],"name":[{"family":"DENEXCL11PASS","given":["HospiceEncDiagnosisOverlapEDStart"]}],"gender":"unknown","birthDate":"1986-09-15"},"request":{"method":"PUT","url":"Patient/6dcaa0a8-25f9-404e-ab0a-41c66f92732f"}},{"fullUrl":"https://madie.cms.gov/Encounter/3f615dd5-0898-4012-823e-3ef9f917ac67","resource":{"resourceType":"Encounter","id":"3f615dd5-0898-4012-823e-3ef9f917ac67","meta":{"profile":["http://hl7.org/fhir/us/qicore/StructureDefinition/qicore-encounter"]},"status":"finished","class":{"system":"http://terminology.hl7.org/CodeSystem/v3-ActCode","code":"EMER","display":"emergency","userSelected":true},"type":[{"coding":[{"system":"http://snomed.info/sct","version":"2020-09","code":"4525004","display":"Emergency department patient visit","userSelected":true}]}],"subject":{"reference":"Patient/6dcaa0a8-25f9-404e-ab0a-41c66f92732f"},"period":{"start":"2026-10-09T05:00:00.000+00:00","end":"2026-10-13T17:00:00.000+00:00"},"reasonCode":[{"coding":[{"system":"http://hl7.org/fhir/sid/icd-10-cm","code":"I21.21","display":"ST elevation (STEMI) myocardial infarction involving left circumflex coronary artery","userSelected":true}]}],"reasonReference":[{"reference":"Condition/441acc5f-b11e-4181-95c5-0e6e7e25d227"}]},"request":{"method":"PUT","url":"Encounter/3f615dd5-0898-4012-823e-3ef9f917ac67"}},{"fullUrl":"https://madie.cms.gov/Condition/441acc5f-b11e-4181-95c5-0e6e7e25d227","resource":{"resourceType":"Condition","id":"441acc5f-b11e-4181-95c5-0e6e7e25d227","meta":{"profile":["http://hl7.org/fhir/us/qicore/StructureDefinition/qicore-condition-problems-health-concerns"]},"clinicalStatus":{"coding":[{"system":"http://terminology.hl7.org/CodeSystem/condition-clinical","code":"inactive","display":"Inactive","userSelected":true}]},"verificationStatus":{"coding":[{"system":"http://terminology.hl7.org/CodeSystem/condition-ver-status","code":"confirmed"}]},"category":[{"coding":[{"system":"http://terminology.hl7.org/CodeSystem/condition-category","code":"problem-list-item","display":"Problem List Item","userSelected":true}]}],"code":{"coding":[{"system":"http://snomed.info/sct","code":"170936009","display":"Shared care - hospice and general practitioner (finding)","userSelected":true}]},"subject":{"reference":"Patient/6dcaa0a8-25f9-404e-ab0a-41c66f92732f"},"onsetDateTime":"2026-10-08T12:00:00.000+00:00","abatementDateTime":"2026-11-30T02:00:00.000+00:00"},"request":{"method":"PUT","url":"Condition/441acc5f-b11e-4181-95c5-0e6e7e25d227"}},{"fullUrl":"https://madie.cms.gov/MeasureReport/bfbe3cdc-026d-49b0-8631-73967f8da259","resource":{"resourceType":"MeasureReport","id":"bfbe3cdc-026d-49b0-8631-73967f8da259","meta":{"profile":["http://hl7.org/fhir/us/cqfmeasures/StructureDefinition/test-case-cqfm"]},"contained":[{"resourceType":"Parameters","id":"cc2e1dbc-eb56-4092-99a8-d22e71dbbb3c-parameters","parameter":[{"name":"subject","valueString":"6dcaa0a8-25f9-404e-ab0a-41c66f92732f"}]}],"extension":[{"url":"http://hl7.org/fhir/StructureDefinition/cqf-inputParameters","valueReference":{"reference":"#cc2e1dbc-eb56-4092-99a8-d22e71dbbb3c-parameters"}},{"url":"http://hl7.org/fhir/us/cqfmeasures/StructureDefinition/cqfm-testCaseDescription","valueMarkdown":"Patients has hospice problem diagnosis that overlaps ED start"}],"modifierExtension":[{"url":"http://hl7.org/fhir/us/cqfmeasures/StructureDefinition/cqfm-isTestCase","valueBoolean":true}],"status":"complete","type":"individual","measure":"https://madie.cms.gov/Measure/CMS996FHIRAptTxforSTEMI","period":{"start":"2026-01-01","end":"2026-12-31"},"group":[{"id":"Group_1","population":[{"id":"InitialPopulation_1","code":{"coding":[{"system":"http://terminology.hl7.org/CodeSystem/measure-population","code":"initial-population","display":"Initial Population"}]},"count":1},{"id":"Denominator_1","code":{"coding":[{"system":"http://terminology.hl7.org/CodeSystem/measure-population","code":"denominator","display":"Denominator"}]},"count":1},{"id":"DenominatorExclusion_1","code":{"coding":[{"system":"http://terminology.hl7.org/CodeSystem/measure-population","code":"denominator-exclusion","display":"Denominator Exclusion"}]},"count":1},{"id":"Numerator_1","code":{"coding":[{"system":"http://terminology.hl7.org/CodeSystem/measure-population","code":"numerator","display":"Numerator"}]},"count":0},{"id":"DenominatorException_1","code":{"coding":[{"system":"http://terminology.hl7.org/CodeSystem/measure-population","code":"denominator-exception","display":"Denominator Exception"}]},"count":0}],"measureScore":{"value":0.0}}],"evaluatedResource":[{"reference":"Patient/6dcaa0a8-25f9-404e-ab0a-41c66f92732f"},{"reference":"Encounter/3f615dd5-0898-4012-823e-3ef9f917ac67"},{"reference":"Condition/441acc5f-b11e-4181-95c5-0e6e7e25d227"}]},"request":{"method":"PUT","url":"MeasureReport/bfbe3cdc-026d-49b0-8631-73967f8da259"}}]},"request":{"method":"PUT","url":"Bundle/m1f044ef3e654daa2559"}}]}