{"resourceType":"Bundle","id":"tests-c786ef91-8830-4877-a007-934c97d8ac8d-bundle","type":"transaction","entry":[{"resource":{"resourceType":"Encounter","id":"19d8e6e5-9deb-4871-b6b4-0b0c781ab410","meta":{"profile":["http://hl7.org/fhir/us/qicore/StructureDefinition/qicore-encounter"]},"status":"finished","class":{"system":"http://terminology.hl7.org/CodeSystem/v3-ActCode","code":"EMER","display":"emergency","userSelected":true},"type":[{"coding":[{"system":"http://snomed.info/sct","version":"2020-09","code":"4525004","display":"Emergency department patient visit (procedure)","userSelected":true}]}],"subject":{"reference":"Patient/c786ef91-8830-4877-a007-934c97d8ac8d"},"period":{"start":"2026-10-09T08:05:00.000+00:00","end":"2026-10-10T07:15:00.000+00:00"},"reasonCode":[{"coding":[{"system":"http://snomed.info/sct","version":"2020-09","code":"703211006","display":"Subsequent ST segment elevation myocardial infarction (disorder)","userSelected":true}]}]},"request":{"method":"PUT","url":"Encounter/19d8e6e5-9deb-4871-b6b4-0b0c781ab410"}},{"resource":{"resourceType":"Patient","id":"c786ef91-8830-4877-a007-934c97d8ac8d","meta":{"profile":["http://hl7.org/fhir/us/qicore/StructureDefinition/qicore-patient"]},"extension":[{"url":"http://hl7.org/fhir/us/core/StructureDefinition/us-core-race","extension":[{"url":"ombCategory","valueCoding":{"system":"urn:oid:2.16.840.1.113883.6.238","code":"2028-9","display":"Asian","userSelected":true}},{"url":"text","valueString":"Asian"}]},{"url":"http://hl7.org/fhir/us/core/StructureDefinition/us-core-ethnicity","extension":[{"url":"ombCategory","valueCoding":{"system":"urn:oid:2.16.840.1.113883.6.238","code":"2135-2","display":"Hispanic or Latino","userSelected":true}},{"url":"text","valueString":"Hispanic or Latino"}]},{"url":"http://hl7.org/fhir/us/core/StructureDefinition/us-core-sex","valueCode":"248153007"}],"identifier":[{"type":{"coding":[{"system":"http://terminology.hl7.org/CodeSystem/v2-0203","code":"MR"}]},"system":"https://bonnie-fhir.healthit.gov/","value":"617bf2761619a529957d62c7"}],"name":[{"family":"DenExcl8Fail","given":["AllergyStartsAfterEndsAfterED"]}],"gender":"male","birthDate":"1985-12-02"},"request":{"method":"PUT","url":"Patient/c786ef91-8830-4877-a007-934c97d8ac8d"}},{"resource":{"resourceType":"AllergyIntolerance","id":"80940419-d89a-4483-b777-c99b54910c45","meta":{"profile":["http://hl7.org/fhir/us/qicore/StructureDefinition/qicore-allergyintolerance"]},"clinicalStatus":{"coding":[{"system":"http://terminology.hl7.org/CodeSystem/allergyintolerance-clinical","code":"active","display":"Active","userSelected":true}]},"code":{"coding":[{"system":"http://www.nlm.nih.gov/research/umls/rxnorm","version":"2021-01","code":"10106","display":"streptokinase","userSelected":true}]},"patient":{"reference":"Patient/c786ef91-8830-4877-a007-934c97d8ac8d"},"onsetPeriod":{"start":"2026-10-12T08:00:00.000+00:00","end":"2026-12-02T10:15:00.000+00:00"}},"request":{"method":"PUT","url":"AllergyIntolerance/80940419-d89a-4483-b777-c99b54910c45"}},{"resource":{"resourceType":"Bundle","id":"617bf2761619a529957d62c7","type":"transaction","entry":[{"fullUrl":"https://madie.cms.gov/Patient/c786ef91-8830-4877-a007-934c97d8ac8d","resource":{"resourceType":"Patient","id":"c786ef91-8830-4877-a007-934c97d8ac8d","meta":{"profile":["http://hl7.org/fhir/us/qicore/StructureDefinition/qicore-patient"]},"extension":[{"url":"http://hl7.org/fhir/us/core/StructureDefinition/us-core-race","extension":[{"url":"ombCategory","valueCoding":{"system":"urn:oid:2.16.840.1.113883.6.238","code":"2028-9","display":"Asian","userSelected":true}},{"url":"text","valueString":"Asian"}]},{"url":"http://hl7.org/fhir/us/core/StructureDefinition/us-core-ethnicity","extension":[{"url":"ombCategory","valueCoding":{"system":"urn:oid:2.16.840.1.113883.6.238","code":"2135-2","display":"Hispanic or Latino","userSelected":true}},{"url":"text","valueString":"Hispanic or Latino"}]},{"url":"http://hl7.org/fhir/us/core/StructureDefinition/us-core-sex","valueCode":"248153007"}],"identifier":[{"type":{"coding":[{"system":"http://terminology.hl7.org/CodeSystem/v2-0203","code":"MR"}]},"system":"https://bonnie-fhir.healthit.gov/","value":"617bf2761619a529957d62c7"}],"name":[{"family":"DenExcl8Fail","given":["AllergyStartsAfterEndsAfterED"]}],"gender":"male","birthDate":"1985-12-02"},"request":{"method":"PUT","url":"Patient/c786ef91-8830-4877-a007-934c97d8ac8d"}},{"fullUrl":"https://madie.cms.gov/Encounter/19d8e6e5-9deb-4871-b6b4-0b0c781ab410","resource":{"resourceType":"Encounter","id":"19d8e6e5-9deb-4871-b6b4-0b0c781ab410","meta":{"profile":["http://hl7.org/fhir/us/qicore/StructureDefinition/qicore-encounter"]},"status":"finished","class":{"system":"http://terminology.hl7.org/CodeSystem/v3-ActCode","code":"EMER","display":"emergency","userSelected":true},"type":[{"coding":[{"system":"http://snomed.info/sct","version":"2020-09","code":"4525004","display":"Emergency department patient visit (procedure)","userSelected":true}]}],"subject":{"reference":"Patient/c786ef91-8830-4877-a007-934c97d8ac8d"},"period":{"start":"2026-10-09T08:05:00.000+00:00","end":"2026-10-10T07:15:00.000+00:00"},"reasonCode":[{"coding":[{"system":"http://snomed.info/sct","version":"2020-09","code":"703211006","display":"Subsequent ST segment elevation myocardial infarction (disorder)","userSelected":true}]}]},"request":{"method":"PUT","url":"Encounter/19d8e6e5-9deb-4871-b6b4-0b0c781ab410"}},{"fullUrl":"https://madie.cms.gov/AllergyIntolerance/80940419-d89a-4483-b777-c99b54910c45","resource":{"resourceType":"AllergyIntolerance","id":"80940419-d89a-4483-b777-c99b54910c45","meta":{"profile":["http://hl7.org/fhir/us/qicore/StructureDefinition/qicore-allergyintolerance"]},"clinicalStatus":{"coding":[{"system":"http://terminology.hl7.org/CodeSystem/allergyintolerance-clinical","code":"active","display":"Active","userSelected":true}]},"code":{"coding":[{"system":"http://www.nlm.nih.gov/research/umls/rxnorm","version":"2021-01","code":"10106","display":"streptokinase","userSelected":true}]},"patient":{"reference":"Patient/c786ef91-8830-4877-a007-934c97d8ac8d"},"onsetPeriod":{"start":"2026-10-12T08:00:00.000+00:00","end":"2026-12-02T10:15:00.000+00:00"}},"request":{"method":"PUT","url":"AllergyIntolerance/80940419-d89a-4483-b777-c99b54910c45"}},{"fullUrl":"https://madie.cms.gov/MeasureReport/e6a2ae9e-129e-4445-8bd9-a190029142eb","resource":{"resourceType":"MeasureReport","id":"e6a2ae9e-129e-4445-8bd9-a190029142eb","meta":{"profile":["http://hl7.org/fhir/us/cqfmeasures/StructureDefinition/test-case-cqfm"]},"contained":[{"resourceType":"Parameters","id":"7a9e3d10-3c37-4867-9409-9c46c3a2cfab-parameters","parameter":[{"name":"subject","valueString":"c786ef91-8830-4877-a007-934c97d8ac8d"}]}],"extension":[{"url":"http://hl7.org/fhir/StructureDefinition/cqf-inputParameters","valueReference":{"reference":"#7a9e3d10-3c37-4867-9409-9c46c3a2cfab-parameters"}},{"url":"http://hl7.org/fhir/us/cqfmeasures/StructureDefinition/cqfm-testCaseDescription","valueMarkdown":"Patient has allergy to medication ingredient starts after and ends after ED"}],"modifierExtension":[{"url":"http://hl7.org/fhir/us/cqfmeasures/StructureDefinition/cqfm-isTestCase","valueBoolean":true}],"status":"complete","type":"individual","measure":"https://madie.cms.gov/Measure/CMS996FHIRAptTxforSTEMI","period":{"start":"2026-01-01","end":"2026-12-31"},"group":[{"id":"Group_1","population":[{"id":"InitialPopulation_1","code":{"coding":[{"system":"http://terminology.hl7.org/CodeSystem/measure-population","code":"initial-population","display":"Initial Population"}]},"count":1},{"id":"Denominator_1","code":{"coding":[{"system":"http://terminology.hl7.org/CodeSystem/measure-population","code":"denominator","display":"Denominator"}]},"count":1},{"id":"DenominatorExclusion_1","code":{"coding":[{"system":"http://terminology.hl7.org/CodeSystem/measure-population","code":"denominator-exclusion","display":"Denominator Exclusion"}]},"count":0},{"id":"Numerator_1","code":{"coding":[{"system":"http://terminology.hl7.org/CodeSystem/measure-population","code":"numerator","display":"Numerator"}]},"count":0},{"id":"DenominatorException_1","code":{"coding":[{"system":"http://terminology.hl7.org/CodeSystem/measure-population","code":"denominator-exception","display":"Denominator Exception"}]},"count":0}],"measureScore":{"value":0.0}}],"evaluatedResource":[{"reference":"Patient/c786ef91-8830-4877-a007-934c97d8ac8d"},{"reference":"Encounter/19d8e6e5-9deb-4871-b6b4-0b0c781ab410"},{"reference":"AllergyIntolerance/80940419-d89a-4483-b777-c99b54910c45"}]},"request":{"method":"PUT","url":"MeasureReport/e6a2ae9e-129e-4445-8bd9-a190029142eb"}}]},"request":{"method":"PUT","url":"Bundle/617bf2761619a529957d62c7"}},{"resource":{"resourceType":"MeasureReport","id":"e6a2ae9e-129e-4445-8bd9-a190029142eb","meta":{"profile":["http://hl7.org/fhir/us/cqfmeasures/StructureDefinition/test-case-cqfm"]},"contained":[{"resourceType":"Parameters","id":"7a9e3d10-3c37-4867-9409-9c46c3a2cfab-parameters","parameter":[{"name":"subject","valueString":"c786ef91-8830-4877-a007-934c97d8ac8d"}]}],"extension":[{"url":"http://hl7.org/fhir/StructureDefinition/cqf-inputParameters","valueReference":{"reference":"#7a9e3d10-3c37-4867-9409-9c46c3a2cfab-parameters"}},{"url":"http://hl7.org/fhir/us/cqfmeasures/StructureDefinition/cqfm-testCaseDescription","valueMarkdown":"Patient has allergy to medication ingredient starts after and ends after ED"}],"modifierExtension":[{"url":"http://hl7.org/fhir/us/cqfmeasures/StructureDefinition/cqfm-isTestCase","valueBoolean":true}],"status":"complete","type":"individual","measure":"https://madie.cms.gov/Measure/CMS996FHIRAptTxforSTEMI","period":{"start":"2026-01-01","end":"2026-12-31"},"group":[{"id":"Group_1","population":[{"id":"InitialPopulation_1","code":{"coding":[{"system":"http://terminology.hl7.org/CodeSystem/measure-population","code":"initial-population","display":"Initial Population"}]},"count":1},{"id":"Denominator_1","code":{"coding":[{"system":"http://terminology.hl7.org/CodeSystem/measure-population","code":"denominator","display":"Denominator"}]},"count":1},{"id":"DenominatorExclusion_1","code":{"coding":[{"system":"http://terminology.hl7.org/CodeSystem/measure-population","code":"denominator-exclusion","display":"Denominator Exclusion"}]},"count":0},{"id":"Numerator_1","code":{"coding":[{"system":"http://terminology.hl7.org/CodeSystem/measure-population","code":"numerator","display":"Numerator"}]},"count":0},{"id":"DenominatorException_1","code":{"coding":[{"system":"http://terminology.hl7.org/CodeSystem/measure-population","code":"denominator-exception","display":"Denominator Exception"}]},"count":0}],"measureScore":{"value":0.0}}],"evaluatedResource":[{"reference":"Patient/c786ef91-8830-4877-a007-934c97d8ac8d"},{"reference":"Encounter/19d8e6e5-9deb-4871-b6b4-0b0c781ab410"},{"reference":"AllergyIntolerance/80940419-d89a-4483-b777-c99b54910c45"}]},"request":{"method":"PUT","url":"MeasureReport/e6a2ae9e-129e-4445-8bd9-a190029142eb"}}]}