{
  "resourceType": "Bundle",
  "id": "61095b0998086b53805591b5",
  "type": "transaction",
  "entry": [ {
    "fullUrl": "https://madie.cms.gov/Patient/8bab0696-02d1-4e8f-a719-a91621cce9e0",
    "resource": {
      "resourceType": "Patient",
      "id": "8bab0696-02d1-4e8f-a719-a91621cce9e0",
      "meta": {
        "profile": [ "http://hl7.org/fhir/us/qicore/StructureDefinition/qicore-patient" ]
      },
      "extension": [ {
        "url": "http://hl7.org/fhir/us/core/StructureDefinition/us-core-race",
        "extension": [ {
          "url": "ombCategory",
          "valueCoding": {
            "system": "urn:oid:2.16.840.1.113883.6.238",
            "code": "1002-5",
            "display": "American Indian or Alaska Native",
            "userSelected": true
          }
        }, {
          "url": "text",
          "valueString": "American Indian or Alaska Native"
        } ]
      }, {
        "url": "http://hl7.org/fhir/us/core/StructureDefinition/us-core-ethnicity",
        "extension": [ {
          "url": "ombCategory",
          "valueCoding": {
            "system": "urn:oid:2.16.840.1.113883.6.238",
            "code": "2135-2",
            "display": "Hispanic or Latino",
            "userSelected": true
          }
        }, {
          "url": "text",
          "valueString": "Hispanic or Latino"
        } ]
      } ],
      "identifier": [ {
        "type": {
          "coding": [ {
            "system": "http://terminology.hl7.org/CodeSystem/v2-0203",
            "code": "MR"
          } ]
        },
        "system": "https://bonnie-fhir.healthit.gov/",
        "value": "61095b0998086b53805591b5"
      } ],
      "active": true,
      "name": [ {
        "use": "usual",
        "family": "DENEXPASS",
        "given": [ "DisordersOverlapsCatSurg" ]
      } ],
      "gender": "female",
      "birthDate": "1996-01-01"
    },
    "request": {
      "method": "PUT",
      "url": "Patient/8bab0696-02d1-4e8f-a719-a91621cce9e0"
    }
  }, {
    "fullUrl": "https://madie.cms.gov/Observation/b27bdba6-c2dc-4633-9c77-afb76b8d0de6",
    "resource": {
      "resourceType": "Observation",
      "id": "b27bdba6-c2dc-4633-9c77-afb76b8d0de6",
      "meta": {
        "profile": [ "http://hl7.org/fhir/us/qicore/StructureDefinition/qicore-observation-clinical-result" ]
      },
      "status": "final",
      "category": [ {
        "coding": [ {
          "system": "http://terminology.hl7.org/CodeSystem/observation-category",
          "code": "exam",
          "display": "Exam"
        } ]
      } ],
      "code": {
        "coding": [ {
          "system": "http://snomed.info/sct",
          "code": "419775003"
        } ]
      },
      "subject": {
        "reference": "Patient/8bab0696-02d1-4e8f-a719-a91621cce9e0"
      },
      "effectivePeriod": {
        "start": "2026-03-13T09:00:00+00:00",
        "end": "2026-03-13T09:30:00+00:00"
      }
    },
    "request": {
      "method": "PUT",
      "url": "Observation/b27bdba6-c2dc-4633-9c77-afb76b8d0de6"
    }
  }, {
    "fullUrl": "https://madie.cms.gov/Procedure/acb0e5be-d97a-45ca-a55c-c47b470a12c0",
    "resource": {
      "resourceType": "Procedure",
      "id": "acb0e5be-d97a-45ca-a55c-c47b470a12c0",
      "meta": {
        "profile": [ "http://hl7.org/fhir/us/qicore/StructureDefinition/qicore-procedure" ]
      },
      "extension": [ {
        "url": "http://hl7.org/fhir/us/qicore/StructureDefinition/qicore-recorded",
        "valueDateTime": "2026-03-05T09:35:00-04:00"
      } ],
      "status": "completed",
      "code": {
        "coding": [ {
          "system": "http://snomed.info/sct",
          "code": "84149000"
        } ]
      },
      "subject": {
        "reference": "Patient/8bab0696-02d1-4e8f-a719-a91621cce9e0"
      },
      "performedPeriod": {
        "start": "2026-03-05T09:20:00-04:00",
        "end": "2026-04-05T10:30:00-04:00"
      }
    },
    "request": {
      "method": "PUT",
      "url": "Procedure/acb0e5be-d97a-45ca-a55c-c47b470a12c0"
    }
  }, {
    "fullUrl": "https://madie.cms.gov/Condition/214834b2-c17d-4545-baec-6580b92484a4",
    "resource": {
      "resourceType": "Condition",
      "id": "214834b2-c17d-4545-baec-6580b92484a4",
      "meta": {
        "profile": [ "http://hl7.org/fhir/us/qicore/StructureDefinition/qicore-condition-problems-health-concerns" ]
      },
      "clinicalStatus": {
        "coding": [ {
          "system": "http://terminology.hl7.org/CodeSystem/condition-clinical",
          "code": "active",
          "display": "active",
          "userSelected": true
        } ]
      },
      "category": [ {
        "coding": [ {
          "system": "http://terminology.hl7.org/CodeSystem/condition-clinical",
          "code": "active",
          "display": "active",
          "userSelected": true
        } ]
      } ],
      "code": {
        "coding": [ {
          "system": "http://hl7.org/fhir/sid/icd-10-cm",
          "code": "H31.301",
          "userSelected": true
        }, {
          "system": "http://hl7.org/fhir/sid/icd-10-cm",
          "code": "H55.00",
          "userSelected": true
        }, {
          "system": "http://hl7.org/fhir/sid/icd-10-cm",
          "code": "H47.20",
          "userSelected": true
        }, {
          "system": "http://hl7.org/fhir/sid/icd-10-cm",
          "code": "Q12.8",
          "userSelected": true
        }, {
          "system": "http://hl7.org/fhir/sid/icd-10-cm",
          "code": "H26.101",
          "userSelected": true
        }, {
          "system": "http://hl7.org/fhir/sid/icd-10-cm",
          "code": "H53.482",
          "userSelected": true
        }, {
          "system": "http://hl7.org/fhir/sid/icd-10-cm",
          "code": "H30.001",
          "userSelected": true
        }, {
          "system": "http://hl7.org/fhir/sid/icd-10-cm",
          "code": "H31.011",
          "userSelected": true
        }, {
          "system": "http://snomed.info/sct",
          "code": "128329001",
          "userSelected": true
        } ]
      },
      "subject": {
        "reference": "Patient/8bab0696-02d1-4e8f-a719-a91621cce9e0"
      },
      "onsetDateTime": "2024-11-01T08:00:00.000+00:00"
    },
    "request": {
      "method": "PUT",
      "url": "Condition/214834b2-c17d-4545-baec-6580b92484a4"
    }
  }, {
    "fullUrl": "https://madie.cms.gov/Coverage/adc6f7c6-a853-4a94-9d7a-0be971a0b2a3",
    "resource": {
      "resourceType": "Coverage",
      "id": "adc6f7c6-a853-4a94-9d7a-0be971a0b2a3",
      "meta": {
        "profile": [ "http://hl7.org/fhir/us/qicore/StructureDefinition/qicore-coverage" ]
      },
      "status": "active",
      "beneficiary": {
        "reference": "Patient/8bab0696-02d1-4e8f-a719-a91621cce9e0"
      },
      "payor": [ {
        "reference": "Organization/5a2d083b-5bf1-4806-aebc-803bd250d8b4"
      } ]
    },
    "request": {
      "method": "PUT",
      "url": "Coverage/adc6f7c6-a853-4a94-9d7a-0be971a0b2a3"
    }
  }, {
    "fullUrl": "https://madie.cms.gov/Organization/5a2d083b-5bf1-4806-aebc-803bd250d8b4",
    "resource": {
      "resourceType": "Organization",
      "id": "5a2d083b-5bf1-4806-aebc-803bd250d8b4",
      "meta": {
        "profile": [ "http://hl7.org/fhir/us/qicore/StructureDefinition/qicore-organization" ]
      },
      "identifier": [ {
        "use": "temp",
        "system": "urn:oid:2.16.840.1.113883.4.4",
        "value": "21-3259825"
      } ],
      "active": true,
      "type": [ {
        "coding": [ {
          "system": "http://terminology.hl7.org/CodeSystem/organization-type",
          "code": "pay",
          "display": "Payer"
        } ]
      } ],
      "name": "Blue Cross Blue Shield of Texas",
      "telecom": [ {
        "system": "phone",
        "value": "(+1) 972-766-6900"
      } ],
      "address": [ {
        "use": "billing",
        "type": "postal",
        "line": [ "P.O. Box 660044" ],
        "city": "Dallas",
        "state": "TX",
        "postalCode": "75266-0044",
        "country": "USA"
      } ]
    },
    "request": {
      "method": "PUT",
      "url": "Organization/5a2d083b-5bf1-4806-aebc-803bd250d8b4"
    }
  }, {
    "fullUrl": "https://madie.cms.gov/Practitioner/d1f59664-f327-4b1c-969f-3e93c7d9c3e0",
    "resource": {
      "resourceType": "Practitioner",
      "id": "d1f59664-f327-4b1c-969f-3e93c7d9c3e0",
      "meta": {
        "profile": [ "http://hl7.org/fhir/us/qicore/StructureDefinition/qicore-practitioner" ]
      },
      "identifier": [ {
        "system": "http://hl7.org/fhir/sid/us-npi",
        "value": "123456"
      } ],
      "name": [ {
        "family": "Evil",
        "prefix": [ "Dr" ]
      } ]
    },
    "request": {
      "method": "PUT",
      "url": "Practitioner/d1f59664-f327-4b1c-969f-3e93c7d9c3e0"
    }
  }, {
    "fullUrl": "https://madie.cms.gov/MeasureReport/005b6317-729f-43f1-a98d-2df55d9d94c1",
    "resource": {
      "resourceType": "MeasureReport",
      "id": "005b6317-729f-43f1-a98d-2df55d9d94c1",
      "meta": {
        "profile": [ "http://hl7.org/fhir/us/cqfmeasures/StructureDefinition/test-case-cqfm" ]
      },
      "contained": [ {
        "resourceType": "Parameters",
        "id": "215ff446-826b-4b09-be7a-a353546fe809-parameters",
        "parameter": [ {
          "name": "subject",
          "valueString": "8bab0696-02d1-4e8f-a719-a91621cce9e0"
        } ]
      } ],
      "extension": [ {
        "url": "http://hl7.org/fhir/StructureDefinition/cqf-inputParameters",
        "valueReference": {
          "reference": "#215ff446-826b-4b09-be7a-a353546fe809-parameters"
        }
      }, {
        "url": "http://hl7.org/fhir/us/cqfmeasures/StructureDefinition/cqfm-testCaseDescription",
        "valueMarkdown": "Patient with visual defects diagnosis overlapping cataract surgery"
      } ],
      "modifierExtension": [ {
        "url": "http://hl7.org/fhir/us/cqfmeasures/StructureDefinition/cqfm-isTestCase",
        "valueBoolean": true
      } ],
      "status": "complete",
      "type": "individual",
      "measure": "https://madie.cms.gov/Measure/CMS133FHIRCataracts2040BCVAwithin90Days",
      "period": {
        "start": "2026-01-01",
        "end": "2026-12-31"
      },
      "group": [ {
        "id": "Group_1",
        "population": [ {
          "id": "InitialPopulation_1",
          "code": {
            "coding": [ {
              "system": "http://terminology.hl7.org/CodeSystem/measure-population",
              "code": "initial-population",
              "display": "Initial Population"
            } ]
          },
          "count": 1
        }, {
          "id": "Denominator_1",
          "code": {
            "coding": [ {
              "system": "http://terminology.hl7.org/CodeSystem/measure-population",
              "code": "denominator",
              "display": "Denominator"
            } ]
          },
          "count": 1
        }, {
          "id": "DenominatorExclusion_1",
          "code": {
            "coding": [ {
              "system": "http://terminology.hl7.org/CodeSystem/measure-population",
              "code": "denominator-exclusion",
              "display": "Denominator Exclusion"
            } ]
          },
          "count": 1
        }, {
          "id": "Numerator_1",
          "code": {
            "coding": [ {
              "system": "http://terminology.hl7.org/CodeSystem/measure-population",
              "code": "numerator",
              "display": "Numerator"
            } ]
          },
          "count": 0
        } ],
        "measureScore": {
          "value": 0.0
        }
      } ],
      "evaluatedResource": [ {
        "reference": "Patient/8bab0696-02d1-4e8f-a719-a91621cce9e0"
      }, {
        "reference": "Observation/b27bdba6-c2dc-4633-9c77-afb76b8d0de6"
      }, {
        "reference": "Procedure/acb0e5be-d97a-45ca-a55c-c47b470a12c0"
      }, {
        "reference": "Condition/214834b2-c17d-4545-baec-6580b92484a4"
      }, {
        "reference": "Coverage/adc6f7c6-a853-4a94-9d7a-0be971a0b2a3"
      }, {
        "reference": "Organization/5a2d083b-5bf1-4806-aebc-803bd250d8b4"
      }, {
        "reference": "Practitioner/d1f59664-f327-4b1c-969f-3e93c7d9c3e0"
      } ]
    },
    "request": {
      "method": "PUT",
      "url": "MeasureReport/005b6317-729f-43f1-a98d-2df55d9d94c1"
    }
  } ]
}