{
  "resourceType": "Bundle",
  "id": "tests-RiskVarPassFirstBloodUreaNitrogen-bundle",
  "type": "transaction",
  "entry": [ {
    "fullUrl": "https://madie.cms.gov/Encounter/0c7e397b-f52f-4c28-ae61-12bfcb92e47f",
    "resource": {
      "resourceType": "Encounter",
      "id": "0c7e397b-f52f-4c28-ae61-12bfcb92e47f",
      "meta": {
        "profile": [ "http://hl7.org/fhir/us/qicore/StructureDefinition/qicore-encounter" ]
      },
      "status": "finished",
      "class": {
        "system": "http://terminology.hl7.org/CodeSystem/v3-ActCode",
        "code": "IMP",
        "display": "inpatient encounter"
      },
      "type": [ {
        "coding": [ {
          "system": "http://snomed.info/sct",
          "code": "112689000",
          "display": "Hospital admission, elective, with complete pre-admission work-up"
        } ],
        "text": "Hospital admission, elective, with complete pre-admission work-up"
      } ],
      "priority": {
        "coding": [ {
          "system": "http://snomed.info/sct",
          "code": "103390000"
        } ]
      },
      "subject": {
        "reference": "Patient/f9b65091-3a37-4f02-8e20-96f3d7b9f838"
      },
      "period": {
        "start": "2026-04-10T08:00:00.000+00:00",
        "end": "2026-04-14T08:15:00.000+00:00"
      },
      "diagnosis": [ {
        "condition": {
          "reference": "Procedure/967e440e-8766-4705-924b-00b4a61b0458"
        },
        "rank": 1
      } ]
    },
    "request": {
      "method": "PUT",
      "url": "Encounter/0c7e397b-f52f-4c28-ae61-12bfcb92e47f"
    }
  }, {
    "fullUrl": "https://madie.cms.gov/Patient/f9b65091-3a37-4f02-8e20-96f3d7b9f838",
    "resource": {
      "resourceType": "Patient",
      "id": "f9b65091-3a37-4f02-8e20-96f3d7b9f838",
      "meta": {
        "profile": [ "http://hl7.org/fhir/us/qicore/StructureDefinition/qicore-patient" ]
      },
      "extension": [ {
        "url": "http://hl7.org/fhir/us/core/StructureDefinition/us-core-race",
        "extension": [ {
          "url": "ombCategory",
          "valueCoding": {
            "system": "urn:oid:2.16.840.1.113883.6.238",
            "code": "2054-5",
            "display": "Black or African American",
            "userSelected": true
          }
        }, {
          "url": "text",
          "valueString": "Black or African American"
        } ]
      }, {
        "url": "http://hl7.org/fhir/us/core/StructureDefinition/us-core-ethnicity",
        "extension": [ {
          "url": "ombCategory",
          "valueCoding": {
            "system": "urn:oid:2.16.840.1.113883.6.238",
            "code": "2186-5",
            "display": "Not Hispanic or Latino",
            "userSelected": true
          }
        }, {
          "url": "text",
          "valueString": "Not Hispanic or Latino"
        } ]
      } ],
      "identifier": [ {
        "type": {
          "coding": [ {
            "system": "http://terminology.hl7.org/CodeSystem/v2-0203",
            "code": "MR"
          } ]
        },
        "system": "https://bonnie-fhir.healthit.gov/",
        "value": "61152a3b98086b7a79cbd7c1"
      } ],
      "active": true,
      "name": [ {
        "use": "usual",
        "family": "DENOMPass",
        "given": [ "RiskVariableASAClass" ]
      } ],
      "gender": "female",
      "birthDate": "1966-07-12"
    },
    "request": {
      "method": "PUT",
      "url": "Patient/f9b65091-3a37-4f02-8e20-96f3d7b9f838"
    }
  }, {
    "fullUrl": "https://madie.cms.gov/Observation/56dfbd45-940d-4d05-ae4a-2af477a8be3d",
    "resource": {
      "resourceType": "Observation",
      "id": "56dfbd45-940d-4d05-ae4a-2af477a8be3d",
      "meta": {
        "profile": [ "http://hl7.org/fhir/us/qicore/StructureDefinition/qicore-observation-lab" ]
      },
      "status": "final",
      "category": [ {
        "coding": [ {
          "system": "http://terminology.hl7.org/CodeSystem/observation-category",
          "code": "laboratory",
          "display": "Laboratory"
        } ],
        "text": "Laboratory"
      } ],
      "code": {
        "coding": [ {
          "system": "http://loinc.org",
          "version": "2.76",
          "code": "11065-0",
          "display": "Urea nitrogen [Mass/volume] in Serum or Plasma --pre dialysis"
        } ]
      },
      "subject": {
        "reference": "Patient/f9b65091-3a37-4f02-8e20-96f3d7b9f838"
      },
      "encounter": {
        "reference": "Encounter/0c7e397b-f52f-4c28-ae61-12bfcb92e47f"
      },
      "effectiveDateTime": "2026-04-11T08:00:00.000+00:00",
      "valueQuantity": {
        "value": 12,
        "unit": "mg/dL",
        "system": "http://unitsofmeasure.org",
        "code": "mg/dL"
      }
    },
    "request": {
      "method": "PUT",
      "url": "Observation/56dfbd45-940d-4d05-ae4a-2af477a8be3d"
    }
  }, {
    "fullUrl": "https://madie.cms.gov/Observation/4b7a05fb-2a05-4385-a201-12215285bd64",
    "resource": {
      "resourceType": "Observation",
      "id": "4b7a05fb-2a05-4385-a201-12215285bd64",
      "meta": {
        "profile": [ "http://hl7.org/fhir/us/qicore/StructureDefinition/qicore-observation-lab" ]
      },
      "status": "final",
      "category": [ {
        "coding": [ {
          "system": "http://terminology.hl7.org/CodeSystem/observation-category",
          "code": "laboratory",
          "display": "Laboratory"
        } ],
        "text": "Laboratory"
      } ],
      "code": {
        "coding": [ {
          "system": "http://loinc.org",
          "version": "2.76",
          "code": "11065-0",
          "display": "Urea nitrogen [Mass/volume] in Serum or Plasma --pre dialysis"
        } ]
      },
      "subject": {
        "reference": "Patient/f9b65091-3a37-4f02-8e20-96f3d7b9f838"
      },
      "encounter": {
        "reference": "Encounter/0c7e397b-f52f-4c28-ae61-12bfcb92e47f"
      },
      "effectiveDateTime": "2026-04-11T09:00:00.000+00:00",
      "valueQuantity": {
        "value": 10,
        "unit": "mg/dL",
        "system": "http://unitsofmeasure.org",
        "code": "mg/dL"
      }
    },
    "request": {
      "method": "PUT",
      "url": "Observation/4b7a05fb-2a05-4385-a201-12215285bd64"
    }
  }, {
    "fullUrl": "https://madie.cms.gov/Procedure/1f63b6d1-6478-41a6-9dd4-f4d23a8843c6",
    "resource": {
      "resourceType": "Procedure",
      "id": "1f63b6d1-6478-41a6-9dd4-f4d23a8843c6",
      "meta": {
        "profile": [ "http://hl7.org/fhir/us/qicore/StructureDefinition/qicore-procedure" ]
      },
      "extension": [ {
        "url": "http://hl7.org/fhir/us/qicore/StructureDefinition/qicore-recorded",
        "valueDateTime": "2026-04-11T10:30:00.000+00:00"
      } ],
      "status": "completed",
      "category": {
        "coding": [ {
          "system": "http://snomed.info/sct",
          "code": "18286008",
          "display": "General or neuraxial anesthesia"
        } ]
      },
      "code": {
        "coding": [ {
          "system": "http://snomed.info/sct",
          "code": "112943005",
          "display": "Epidural injection of anesthetic substance, diagnostic, caudal, continuous"
        } ]
      },
      "subject": {
        "reference": "Patient/f9b65091-3a37-4f02-8e20-96f3d7b9f838"
      },
      "performedPeriod": {
        "start": "2026-04-11T08:00:00.000+00:00",
        "end": "2026-04-11T10:15:00.000+00:00"
      }
    },
    "request": {
      "method": "PUT",
      "url": "Procedure/1f63b6d1-6478-41a6-9dd4-f4d23a8843c6"
    }
  }, {
    "fullUrl": "https://madie.cms.gov/MeasureReport/4cd20705-7e7a-49ee-a899-dad79d230adf",
    "resource": {
      "resourceType": "MeasureReport",
      "id": "4cd20705-7e7a-49ee-a899-dad79d230adf",
      "meta": {
        "profile": [ "http://hl7.org/fhir/us/cqfmeasures/StructureDefinition/test-case-cqfm" ]
      },
      "contained": [ {
        "resourceType": "Parameters",
        "id": "6b9c068c-1910-49d7-8cb9-4e1bcb25a438-parameters",
        "parameter": [ {
          "name": "subject",
          "valueString": "f9b65091-3a37-4f02-8e20-96f3d7b9f838"
        } ]
      } ],
      "extension": [ {
        "url": "http://hl7.org/fhir/StructureDefinition/cqf-inputParameters",
        "valueReference": {
          "reference": "#6b9c068c-1910-49d7-8cb9-4e1bcb25a438-parameters"
        }
      }, {
        "url": "http://hl7.org/fhir/us/cqfmeasures/StructureDefinition/cqfm-testCaseDescription",
        "valueMarkdown": "DENOMPass Satisfies First Blood Urea Nitrogen variable"
      } ],
      "modifierExtension": [ {
        "url": "http://hl7.org/fhir/us/cqfmeasures/StructureDefinition/cqfm-isTestCase",
        "valueBoolean": true
      } ],
      "status": "complete",
      "type": "individual",
      "measure": "https://madie.cms.gov/Measure/CMS1218FHIRHHRF",
      "period": {
        "start": "2026-01-01",
        "end": "2026-12-31"
      },
      "group": [ {
        "id": "Group_1",
        "population": [ {
          "id": "InitialPopulation_1",
          "code": {
            "coding": [ {
              "system": "http://terminology.hl7.org/CodeSystem/measure-population",
              "code": "initial-population",
              "display": "Initial Population"
            } ]
          },
          "count": 1
        }, {
          "id": "Denominator_1",
          "code": {
            "coding": [ {
              "system": "http://terminology.hl7.org/CodeSystem/measure-population",
              "code": "denominator",
              "display": "Denominator"
            } ]
          },
          "count": 1
        }, {
          "id": "DenominatorExclusion_1",
          "code": {
            "coding": [ {
              "system": "http://terminology.hl7.org/CodeSystem/measure-population",
              "code": "denominator-exclusion",
              "display": "Denominator Exclusion"
            } ]
          },
          "count": 0
        }, {
          "id": "Numerator_1",
          "code": {
            "coding": [ {
              "system": "http://terminology.hl7.org/CodeSystem/measure-population",
              "code": "numerator",
              "display": "Numerator"
            } ]
          },
          "count": 0
        } ],
        "measureScore": {
          "value": 0.0
        }
      } ],
      "evaluatedResource": [ {
        "reference": "Encounter/0c7e397b-f52f-4c28-ae61-12bfcb92e47f"
      }, {
        "reference": "Patient/f9b65091-3a37-4f02-8e20-96f3d7b9f838"
      }, {
        "reference": "Observation/56dfbd45-940d-4d05-ae4a-2af477a8be3d"
      }, {
        "reference": "Observation/4b7a05fb-2a05-4385-a201-12215285bd64"
      }, {
        "reference": "Procedure/1f63b6d1-6478-41a6-9dd4-f4d23a8843c6"
      } ]
    },
    "request": {
      "method": "PUT",
      "url": "MeasureReport/4cd20705-7e7a-49ee-a899-dad79d230adf"
    }
  } ]
}