{
  "resourceType": "Bundle",
  "id": "612e6b6c02c62a011f2edb06",
  "type": "transaction",
  "entry": [ {
    "fullUrl": "https://madie.cms.gov/Patient/0190ef4b-c22d-4177-b293-874f1a9030a6",
    "resource": {
      "resourceType": "Patient",
      "id": "0190ef4b-c22d-4177-b293-874f1a9030a6",
      "meta": {
        "profile": [ "http://hl7.org/fhir/us/qicore/StructureDefinition/qicore-patient" ]
      },
      "text": {
        "status": "generated",
        "div": "<div xmlns=\"http://www.w3.org/1999/xhtml\"><div class=\"hapiHeaderText\">Dx=VTEduringEDGT1hrB4Enc <b>IPPPASS </b></div><table class=\"hapiPropertyTable\"><tbody><tr><td>Identifier</td><td>af2986d42642f004962c32566bf64a58</td></tr><tr><td>Date of birth</td><td><span>02 September 2003</span></td></tr></tbody></table></div>"
      },
      "extension": [ {
        "url": "http://hl7.org/fhir/us/core/StructureDefinition/us-core-race",
        "extension": [ {
          "url": "ombCategory",
          "valueCoding": {
            "system": "urn:oid:2.16.840.1.113883.6.238",
            "code": "1002-5",
            "display": "American Indian or Alaska Native",
            "userSelected": true
          }
        }, {
          "url": "text",
          "valueString": "American Indian or Alaska Native"
        } ]
      }, {
        "url": "http://hl7.org/fhir/us/core/StructureDefinition/us-core-ethnicity",
        "extension": [ {
          "url": "ombCategory",
          "valueCoding": {
            "system": "urn:oid:2.16.840.1.113883.6.238",
            "code": "2135-2",
            "display": "Hispanic or Latino",
            "userSelected": true
          }
        }, {
          "url": "text",
          "valueString": "Hispanic or Latino"
        } ]
      } ],
      "identifier": [ {
        "type": {
          "coding": [ {
            "system": "http://terminology.hl7.org/CodeSystem/v2-0203",
            "code": "MR"
          } ]
        },
        "system": "https://bonnie-fhir.healthit.gov/",
        "value": "612e6b6c02c62a011f2edb06"
      } ],
      "active": true,
      "name": [ {
        "use": "usual",
        "family": "IPPPass",
        "given": [ "DxVTEduringEDGT1hrB4Enc" ]
      } ],
      "gender": "male",
      "birthDate": "2004-09-02"
    },
    "request": {
      "method": "PUT",
      "url": "Patient/0190ef4b-c22d-4177-b293-874f1a9030a6"
    }
  }, {
    "fullUrl": "https://madie.cms.gov/Encounter/64daedc7-802a-42e2-991d-05b7be60018b",
    "resource": {
      "resourceType": "Encounter",
      "id": "64daedc7-802a-42e2-991d-05b7be60018b",
      "meta": {
        "profile": [ "http://hl7.org/fhir/us/qicore/StructureDefinition/qicore-encounter" ]
      },
      "status": "finished",
      "class": {
        "system": "http://terminology.hl7.org/CodeSystem/v3-ActCode",
        "code": "EMER",
        "display": "emergency"
      },
      "type": [ {
        "coding": [ {
          "system": "http://snomed.info/sct",
          "code": "4525004"
        } ]
      } ],
      "subject": {
        "reference": "Patient/0190ef4b-c22d-4177-b293-874f1a9030a6"
      },
      "period": {
        "start": "2026-09-02T09:00:00.000+00:00",
        "end": "2026-09-02T10:59:00.000+00:00"
      },
      "length": {
        "value": 0,
        "unit": "days"
      }
    },
    "request": {
      "method": "PUT",
      "url": "Encounter/64daedc7-802a-42e2-991d-05b7be60018b"
    }
  }, {
    "fullUrl": "https://madie.cms.gov/Encounter/76b9d63d-3025-4207-b92e-14e959723012",
    "resource": {
      "resourceType": "Encounter",
      "id": "76b9d63d-3025-4207-b92e-14e959723012",
      "meta": {
        "profile": [ "http://hl7.org/fhir/us/qicore/StructureDefinition/qicore-encounter" ]
      },
      "status": "finished",
      "class": {
        "system": "http://terminology.hl7.org/CodeSystem/v3-ActCode",
        "code": "IMP",
        "display": "inpatient encounter"
      },
      "type": [ {
        "coding": [ {
          "system": "http://snomed.info/sct",
          "code": "183452005"
        } ]
      } ],
      "subject": {
        "reference": "Patient/0190ef4b-c22d-4177-b293-874f1a9030a6"
      },
      "period": {
        "start": "2026-09-02T12:01:00.000+00:00",
        "end": "2026-12-31T23:59:00.000+00:00"
      },
      "length": {
        "value": 120,
        "unit": "days"
      }
    },
    "request": {
      "method": "PUT",
      "url": "Encounter/76b9d63d-3025-4207-b92e-14e959723012"
    }
  }, {
    "fullUrl": "https://madie.cms.gov/Coverage/82bed193-a06d-457b-a18d-1b3802e86a9d",
    "resource": {
      "resourceType": "Coverage",
      "id": "82bed193-a06d-457b-a18d-1b3802e86a9d",
      "status": "active",
      "beneficiary": {
        "reference": "Patient/0190ef4b-c22d-4177-b293-874f1a9030a6"
      },
      "period": {
        "start": "2004-09-02T08:00:00.000+00:00"
      },
      "payor": [ {
        "reference": "Organization/be4dd80c-f2c8-41a4-8e2e-de3f33b86c9a"
      } ]
    },
    "request": {
      "method": "PUT",
      "url": "Coverage/82bed193-a06d-457b-a18d-1b3802e86a9d"
    }
  }, {
    "fullUrl": "https://madie.cms.gov/Condition/c507ee9e-090d-4f39-96e5-53ba514487fb",
    "resource": {
      "resourceType": "Condition",
      "id": "c507ee9e-090d-4f39-96e5-53ba514487fb",
      "meta": {
        "profile": [ "http://hl7.org/fhir/us/qicore/StructureDefinition/qicore-condition" ]
      },
      "clinicalStatus": {
        "coding": [ {
          "system": "http://terminology.hl7.org/CodeSystem/condition-clinical",
          "code": "active"
        } ]
      },
      "verificationStatus": {
        "coding": [ {
          "system": "http://terminology.hl7.org/CodeSystem/condition-ver-status",
          "code": "confirmed"
        } ]
      },
      "category": [ {
        "coding": [ {
          "system": "http://terminology.hl7.org/CodeSystem/condition-category",
          "code": "problem-list-item",
          "display": "Problem List Item"
        } ]
      } ],
      "code": {
        "coding": [ {
          "system": "http://snomed.info/sct",
          "code": "1001000119102"
        } ]
      },
      "subject": {
        "reference": "Patient/0190ef4b-c22d-4177-b293-874f1a9030a6"
      },
      "onsetPeriod": {
        "start": "2026-09-02T09:00:00.000+00:00",
        "end": "2026-09-02T10:00:00.000+00:00"
      }
    },
    "request": {
      "method": "PUT",
      "url": "Condition/c507ee9e-090d-4f39-96e5-53ba514487fb"
    }
  }, {
    "fullUrl": "https://madie.cms.gov/Organization/be4dd80c-f2c8-41a4-8e2e-de3f33b86c9a",
    "resource": {
      "resourceType": "Organization",
      "id": "be4dd80c-f2c8-41a4-8e2e-de3f33b86c9a",
      "meta": {
        "profile": [ "http://hl7.org/fhir/us/qicore/StructureDefinition/qicore-organization" ]
      },
      "identifier": [ {
        "use": "temp",
        "system": "urn:oid:2.16.840.1.113883.4.4",
        "value": "21-3259825"
      } ],
      "active": true,
      "type": [ {
        "coding": [ {
          "system": "http://terminology.hl7.org/CodeSystem/organization-type",
          "code": "pay",
          "display": "Payer"
        } ]
      } ],
      "name": "Blue Cross Blue Shield of Texas",
      "telecom": [ {
        "system": "phone",
        "value": "(+1) 972-766-6900"
      } ],
      "address": [ {
        "use": "billing",
        "type": "postal",
        "line": [ "P.O. Box 660044" ],
        "city": "Dallas",
        "state": "TX",
        "postalCode": "75266-0044",
        "country": "USA"
      } ]
    },
    "request": {
      "method": "PUT",
      "url": "Organization/be4dd80c-f2c8-41a4-8e2e-de3f33b86c9a"
    }
  }, {
    "fullUrl": "https://madie.cms.gov/Practitioner/d778f0c4-2e7b-4d49-ade6-f5d7d98784a4",
    "resource": {
      "resourceType": "Practitioner",
      "id": "d778f0c4-2e7b-4d49-ade6-f5d7d98784a4",
      "identifier": [ {
        "system": "http://hl7.org/fhir/sid/us-npi",
        "value": "123456"
      } ],
      "name": [ {
        "family": "Evil",
        "prefix": [ "Dr" ]
      } ]
    },
    "request": {
      "method": "PUT",
      "url": "Practitioner/d778f0c4-2e7b-4d49-ade6-f5d7d98784a4"
    }
  }, {
    "fullUrl": "https://madie.cms.gov/MeasureReport/b3842910-d833-4e67-8cf3-b6744b0218b2",
    "resource": {
      "resourceType": "MeasureReport",
      "id": "b3842910-d833-4e67-8cf3-b6744b0218b2",
      "meta": {
        "profile": [ "http://hl7.org/fhir/us/cqfmeasures/StructureDefinition/test-case-cqfm" ]
      },
      "contained": [ {
        "resourceType": "Parameters",
        "id": "d7afa4b5-9740-4829-9bfe-4b2163de53cd-parameters",
        "parameter": [ {
          "name": "subject",
          "valueString": "0190ef4b-c22d-4177-b293-874f1a9030a6"
        } ]
      } ],
      "extension": [ {
        "url": "http://hl7.org/fhir/StructureDefinition/cqf-inputParameters",
        "valueReference": {
          "reference": "#d7afa4b5-9740-4829-9bfe-4b2163de53cd-parameters"
        }
      }, {
        "url": "http://hl7.org/fhir/us/cqfmeasures/StructureDefinition/cqfm-testCaseDescription",
        "valueMarkdown": "DxVTE in the ED but ED.end > 1:59 min before Inp.start\n"
      } ],
      "modifierExtension": [ {
        "url": "http://hl7.org/fhir/us/cqfmeasures/StructureDefinition/cqfm-isTestCase",
        "valueBoolean": true
      } ],
      "status": "complete",
      "type": "individual",
      "measure": "https://madie.cms.gov/Measure/CMS108FHIRVTEProphylaxis",
      "period": {
        "start": "2026-01-01",
        "end": "2026-12-31"
      },
      "group": [ {
        "id": "Group_1",
        "population": [ {
          "id": "InitialPopulation_1",
          "code": {
            "coding": [ {
              "system": "http://terminology.hl7.org/CodeSystem/measure-population",
              "code": "initial-population",
              "display": "Initial Population"
            } ]
          },
          "count": 1
        }, {
          "id": "Denominator_1",
          "code": {
            "coding": [ {
              "system": "http://terminology.hl7.org/CodeSystem/measure-population",
              "code": "denominator",
              "display": "Denominator"
            } ]
          },
          "count": 1
        }, {
          "id": "DenominatorExclusion_1",
          "code": {
            "coding": [ {
              "system": "http://terminology.hl7.org/CodeSystem/measure-population",
              "code": "denominator-exclusion",
              "display": "Denominator Exclusion"
            } ]
          },
          "count": 0
        }, {
          "id": "Numerator_1",
          "code": {
            "coding": [ {
              "system": "http://terminology.hl7.org/CodeSystem/measure-population",
              "code": "numerator",
              "display": "Numerator"
            } ]
          },
          "count": 0
        } ],
        "measureScore": {
          "value": 0.0
        }
      } ],
      "evaluatedResource": [ {
        "reference": "Patient/0190ef4b-c22d-4177-b293-874f1a9030a6"
      }, {
        "reference": "Encounter/64daedc7-802a-42e2-991d-05b7be60018b"
      }, {
        "reference": "Encounter/76b9d63d-3025-4207-b92e-14e959723012"
      }, {
        "reference": "Coverage/82bed193-a06d-457b-a18d-1b3802e86a9d"
      }, {
        "reference": "Condition/c507ee9e-090d-4f39-96e5-53ba514487fb"
      }, {
        "reference": "Organization/be4dd80c-f2c8-41a4-8e2e-de3f33b86c9a"
      }, {
        "reference": "Practitioner/d778f0c4-2e7b-4d49-ade6-f5d7d98784a4"
      } ]
    },
    "request": {
      "method": "PUT",
      "url": "MeasureReport/b3842910-d833-4e67-8cf3-b6744b0218b2"
    }
  } ]
}