{
    "entry": [
        {
            "request": {
                "method": "PUT",
                "url": "Patient/12786a64-c20e-4542-a4c0-bf3129d6a9e0"
            },
            "resource": {
                "identifier": [{
                    "system": "https://bonnie-fhir.healthit.gov/",
                    "type": {"coding": [{
                        "system": "http://terminology.hl7.org/CodeSystem/v2-0203",
                        "code": "MR"
                    }]},
                    "value": "62bb0269a2aa708c99ded708"
                }],
                "extension": [
                    {
                        "extension": [
                            {
                                "valueCoding": {
                                    "system": "urn:oid:2.16.840.1.113883.6.238",
                                    "code": "1002-5",
                                    "userSelected": true,
                                    "display": "American Indian or Alaska Native"
                                },
                                "url": "ombCategory"
                            },
                            {
                                "valueString": "American Indian or Alaska Native",
                                "url": "text"
                            }
                        ],
                        "url": "http://hl7.org/fhir/us/core/StructureDefinition/us-core-race"
                    },
                    {
                        "extension": [
                            {
                                "valueCoding": {
                                    "system": "urn:oid:2.16.840.1.113883.6.238",
                                    "code": "2135-2",
                                    "userSelected": true,
                                    "display": "Hispanic or Latino"
                                },
                                "url": "ombCategory"
                            },
                            {
                                "valueString": "Hispanic or Latino",
                                "url": "text"
                            }
                        ],
                        "url": "http://hl7.org/fhir/us/core/StructureDefinition/us-core-ethnicity"
                    },
                    {
                        "valueCode": "248153007",
                        "url": "http://hl7.org/fhir/us/core/StructureDefinition/us-core-sex"
                    }
                ],
                "gender": "male",
                "meta": {"profile": ["http://hl7.org/fhir/us/qicore/StructureDefinition/qicore-patient"]},
                "name": [{
                    "given": ["AdultMedicalReasonForNoDepressionScreenAge18"],
                    "family": "DENEXCEPPass"
                }],
                "id": "12786a64-c20e-4542-a4c0-bf3129d6a9e0",
                "birthDate": "2008-01-01",
                "resourceType": "Patient"
            },
            "fullUrl": "https://madie.cms.gov/Patient/12786a64-c20e-4542-a4c0-bf3129d6a9e0"
        },
        {
            "request": {
                "method": "PUT",
                "url": "Encounter/ccea9eef-a334-4255-9966-781ad8462f79"
            },
            "resource": {
                "period": {
                    "start": "2026-06-28T08:00:00.000+00:00",
                    "end": "2026-06-28T08:15:00.000+00:00"
                },
                "meta": {"profile": ["http://hl7.org/fhir/us/qicore/StructureDefinition/qicore-encounter"]},
                "subject": {"reference": "Patient/12786a64-c20e-4542-a4c0-bf3129d6a9e0"},
                "id": "ccea9eef-a334-4255-9966-781ad8462f79",
                "type": [{"coding": [{
                    "system": "http://snomed.info/sct",
                    "code": "10197000",
                    "userSelected": true,
                    "display": "Psychiatric interview and evaluation (procedure)",
                    "version": "2021-09"
                }]}],
                "class": {
                    "system": "http://terminology.hl7.org/CodeSystem/v3-ActCode",
                    "code": "AMB",
                    "display": "ambulatory"
                },
                "resourceType": "Encounter",
                "status": "finished"
            },
            "fullUrl": "https://madie.cms.gov/Encounter/ccea9eef-a334-4255-9966-781ad8462f79"
        },
        {
            "request": {
                "method": "PUT",
                "url": "Observation/a19efbc5-53be-4c8b-9018-0f80ef38b630"
            },
            "resource": {
                "valueBoolean": true,
                "extension": [{
                    "valueCodeableConcept": {"coding": [{
                        "system": "http://snomed.info/sct",
                        "code": "183932001",
                        "userSelected": true,
                        "display": "Procedure contraindicated (situation)"
                    }]},
                    "url": "http://hl7.org/fhir/us/qicore/StructureDefinition/qicore-notDoneReason"
                }],
                "code": {"coding": [{
                    "system": "http://loinc.org",
                    "code": "73832-8",
                    "userSelected": true,
                    "display": "Adult depression screening assessment"
                }]},
                "meta": {"profile": ["http://hl7.org/fhir/us/qicore/StructureDefinition/qicore-observationcancelled"]},
                "subject": {"reference": "Patient/12786a64-c20e-4542-a4c0-bf3129d6a9e0"},
                "id": "a19efbc5-53be-4c8b-9018-0f80ef38b630",
                "category": [{"coding": [{
                    "system": "http://terminology.hl7.org/CodeSystem/observation-category",
                    "code": "procedure",
                    "display": "Procedure"
                }]}],
                "issued": "2026-06-28T08:00:00.000+00:00",
                "resourceType": "Observation",
                "status": "cancelled"
            },
            "fullUrl": "https://madie.cms.gov/Observation/a19efbc5-53be-4c8b-9018-0f80ef38b630"
        },
        {
            "request": {
                "method": "PUT",
                "url": "Coverage/333bd1c4-12a7-42c5-987f-5eeef6d0229c"
            },
            "resource": {
                "payor": [{"reference": "Organization/4ee29af9-382c-4632-82fc-9b676595f6b2"}],
                "beneficiary": {"reference": "Patient/12786a64-c20e-4542-a4c0-bf3129d6a9e0"},
                "meta": {"profile": ["http://hl7.org/fhir/us/qicore/StructureDefinition/qicore-coverage"]},
                "id": "333bd1c4-12a7-42c5-987f-5eeef6d0229c",
                "resourceType": "Coverage",
                "status": "active"
            },
            "fullUrl": "https://madie.cms.gov/Coverage/333bd1c4-12a7-42c5-987f-5eeef6d0229c"
        },
        {
            "request": {
                "method": "PUT",
                "url": "Organization/4ee29af9-382c-4632-82fc-9b676595f6b2"
            },
            "resource": {
                "identifier": [{
                    "system": "urn:oid:2.16.840.1.113883.4.4",
                    "use": "temp",
                    "value": "21-3259825"
                }],
                "address": [{
                    "country": "USA",
                    "city": "Dallas",
                    "use": "billing",
                    "line": ["P.O. Box 660044"],
                    "postalCode": "75266-0044",
                    "state": "TX",
                    "type": "postal"
                }],
                "meta": {"profile": ["http://hl7.org/fhir/us/qicore/StructureDefinition/qicore-organization"]},
                "name": "Blue Cross Blue Shield of Texas",
                "active": true,
                "telecom": [{
                    "system": "phone",
                    "value": "(+1) 972-766-6900"
                }],
                "id": "4ee29af9-382c-4632-82fc-9b676595f6b2",
                "type": [{"coding": [{
                    "system": "http://terminology.hl7.org/CodeSystem/organization-type",
                    "code": "pay",
                    "display": "Payer"
                }]}],
                "resourceType": "Organization"
            },
            "fullUrl": "https://madie.cms.gov/Organization/4ee29af9-382c-4632-82fc-9b676595f6b2"
        },
        {
            "request": {
                "method": "PUT",
                "url": "Practitioner/2f6c4666-b1d4-41d7-941c-26747de23c64"
            },
            "resource": {
                "identifier": [{
                    "system": "http://hl7.org/fhir/sid/us-npi",
                    "value": "123456"
                }],
                "meta": {"profile": ["http://hl7.org/fhir/us/qicore/StructureDefinition/qicore-practitioner"]},
                "name": [{
                    "prefix": ["Dr"],
                    "family": "Evil"
                }],
                "id": "2f6c4666-b1d4-41d7-941c-26747de23c64",
                "resourceType": "Practitioner"
            },
            "fullUrl": "https://madie.cms.gov/Practitioner/2f6c4666-b1d4-41d7-941c-26747de23c64"
        },
        {
            "request": {
                "method": "PUT",
                "url": "MeasureReport/c0d1bf5d-7b81-4261-86e1-3393b856822f"
            },
            "resource": {
                "contained": [{
                    "parameter": [{
                        "valueString": "12786a64-c20e-4542-a4c0-bf3129d6a9e0",
                        "name": "subject"
                    }],
                    "id": "8d25b6ff-36b6-452b-afe8-4300114b12ea-parameters",
                    "resourceType": "Parameters"
                }],
                "extension": [
                    {
                        "valueReference": {"reference": "#8d25b6ff-36b6-452b-afe8-4300114b12ea-parameters"},
                        "url": "http://hl7.org/fhir/StructureDefinition/cqf-inputParameters"
                    },
                    {
                        "valueMarkdown": "18 yo male with medical reason for not screening for depression - 18 on first day MP",
                        "url": "http://hl7.org/fhir/us/cqfmeasures/StructureDefinition/cqfm-testCaseDescription"
                    }
                ],
                "period": {
                    "start": "2026-01-01",
                    "end": "2026-12-31"
                },
                "measure": "https://madie.cms.gov/Measure/CMS2FHIRPCSDepressionScreenAndFollowUp",
                "meta": {"profile": ["http://hl7.org/fhir/us/cqfmeasures/StructureDefinition/test-case-cqfm"]},
                "modifierExtension": [{
                    "valueBoolean": true,
                    "url": "http://hl7.org/fhir/us/cqfmeasures/StructureDefinition/cqfm-isTestCase"
                }],
                "id": "c0d1bf5d-7b81-4261-86e1-3393b856822f",
                "evaluatedResource": [
                    {"reference": "Patient/12786a64-c20e-4542-a4c0-bf3129d6a9e0"},
                    {"reference": "Encounter/ccea9eef-a334-4255-9966-781ad8462f79"},
                    {"reference": "Observation/a19efbc5-53be-4c8b-9018-0f80ef38b630"},
                    {"reference": "Coverage/333bd1c4-12a7-42c5-987f-5eeef6d0229c"},
                    {"reference": "Organization/4ee29af9-382c-4632-82fc-9b676595f6b2"},
                    {"reference": "Practitioner/2f6c4666-b1d4-41d7-941c-26747de23c64"}
                ],
                "type": "individual",
                "resourceType": "MeasureReport",
                "status": "complete",
                "group": [{
                    "id": "Group_1",
                    "measureScore": {"value": 1},
                    "population": [
                        {
                            "code": {"coding": [{
                                "system": "http://terminology.hl7.org/CodeSystem/measure-population",
                                "code": "initial-population",
                                "display": "Initial Population"
                            }]},
                            "count": 1,
                            "id": "InitialPopulation_1"
                        },
                        {
                            "code": {"coding": [{
                                "system": "http://terminology.hl7.org/CodeSystem/measure-population",
                                "code": "denominator",
                                "display": "Denominator"
                            }]},
                            "count": 1,
                            "id": "Denominator_1"
                        },
                        {
                            "code": {"coding": [{
                                "system": "http://terminology.hl7.org/CodeSystem/measure-population",
                                "code": "denominator-exclusion",
                                "display": "Denominator Exclusion"
                            }]},
                            "count": 0,
                            "id": "DenominatorExclusion_1"
                        },
                        {
                            "code": {"coding": [{
                                "system": "http://terminology.hl7.org/CodeSystem/measure-population",
                                "code": "numerator",
                                "display": "Numerator"
                            }]},
                            "count": 0,
                            "id": "Numerator_1"
                        },
                        {
                            "code": {"coding": [{
                                "system": "http://terminology.hl7.org/CodeSystem/measure-population",
                                "code": "denominator-exception",
                                "display": "Denominator Exception"
                            }]},
                            "count": 1,
                            "id": "DenominatorException_1"
                        }
                    ]
                }]
            },
            "fullUrl": "https://madie.cms.gov/MeasureReport/c0d1bf5d-7b81-4261-86e1-3393b856822f"
        }
    ],
    "id": "62bb0269a2aa708c99ded708",
    "type": "transaction",
    "resourceType": "Bundle"
}