{
  "resourceType": "Bundle",
  "id": "62bb0269a2aa708c99ded708",
  "type": "transaction",
  "entry": [ {
    "fullUrl": "https://madie.cms.gov/Patient/12786a64-c20e-4542-a4c0-bf3129d6a9e0",
    "resource": {
      "resourceType": "Patient",
      "id": "12786a64-c20e-4542-a4c0-bf3129d6a9e0",
      "meta": {
        "profile": [ "http://hl7.org/fhir/us/qicore/StructureDefinition/qicore-patient" ]
      },
      "extension": [ {
        "url": "http://hl7.org/fhir/us/core/StructureDefinition/us-core-race",
        "extension": [ {
          "url": "ombCategory",
          "valueCoding": {
            "system": "urn:oid:2.16.840.1.113883.6.238",
            "code": "1002-5",
            "display": "American Indian or Alaska Native",
            "userSelected": true
          }
        }, {
          "url": "text",
          "valueString": "American Indian or Alaska Native"
        } ]
      }, {
        "url": "http://hl7.org/fhir/us/core/StructureDefinition/us-core-ethnicity",
        "extension": [ {
          "url": "ombCategory",
          "valueCoding": {
            "system": "urn:oid:2.16.840.1.113883.6.238",
            "code": "2135-2",
            "display": "Hispanic or Latino",
            "userSelected": true
          }
        }, {
          "url": "text",
          "valueString": "Hispanic or Latino"
        } ]
      }, {
        "url": "http://hl7.org/fhir/us/core/StructureDefinition/us-core-sex",
        "valueCode": "248153007"
      } ],
      "identifier": [ {
        "type": {
          "coding": [ {
            "system": "http://terminology.hl7.org/CodeSystem/v2-0203",
            "code": "MR"
          } ]
        },
        "system": "https://bonnie-fhir.healthit.gov/",
        "value": "62bb0269a2aa708c99ded708"
      } ],
      "name": [ {
        "family": "DENEXCEPPass",
        "given": [ "AdultMedicalReasonForNoDepressionScreenAge18" ]
      } ],
      "gender": "male",
      "birthDate": "2008-01-01"
    },
    "request": {
      "method": "PUT",
      "url": "Patient/12786a64-c20e-4542-a4c0-bf3129d6a9e0"
    }
  }, {
    "fullUrl": "https://madie.cms.gov/Encounter/b8ac5547-023e-4f59-ac4c-b137aa42f82d",
    "resource": {
      "resourceType": "Encounter",
      "id": "b8ac5547-023e-4f59-ac4c-b137aa42f82d",
      "meta": {
        "profile": [ "http://hl7.org/fhir/us/qicore/StructureDefinition/qicore-encounter" ]
      },
      "status": "finished",
      "class": {
        "system": "http://terminology.hl7.org/CodeSystem/v3-ActCode",
        "code": "AMB",
        "display": "ambulatory"
      },
      "type": [ {
        "coding": [ {
          "system": "http://snomed.info/sct",
          "code": "10197000",
          "display": "Psychiatric interview and evaluation (procedure)",
          "userSelected": true
        } ]
      } ],
      "subject": {
        "reference": "Patient/12786a64-c20e-4542-a4c0-bf3129d6a9e0"
      },
      "period": {
        "start": "2026-06-28T08:00:00.000+00:00",
        "end": "2026-06-28T08:15:00.000+00:00"
      }
    },
    "request": {
      "method": "PUT",
      "url": "Encounter/b8ac5547-023e-4f59-ac4c-b137aa42f82d"
    }
  }, {
    "fullUrl": "https://madie.cms.gov/Observation/ac0bc8f1-a955-4ffa-8027-1ebbf2c029f8",
    "resource": {
      "resourceType": "Observation",
      "id": "ac0bc8f1-a955-4ffa-8027-1ebbf2c029f8",
      "meta": {
        "profile": [ "http://hl7.org/fhir/us/qicore/StructureDefinition/qicore-observationcancelled" ]
      },
      "extension": [ {
        "url": "http://hl7.org/fhir/us/qicore/StructureDefinition/qicore-notDoneReason",
        "valueCodeableConcept": {
          "coding": [ {
            "system": "http://snomed.info/sct",
            "code": "183932001",
            "display": "Procedure contraindicated (situation)",
            "userSelected": true
          } ]
        }
      } ],
      "status": "cancelled",
      "category": [ {
        "coding": [ {
          "system": "http://terminology.hl7.org/CodeSystem/observation-category",
          "code": "procedure",
          "display": "Procedure"
        } ]
      } ],
      "code": {
        "coding": [ {
          "system": "http://loinc.org",
          "code": "73832-8",
          "display": "Adult depression screening assessment",
          "userSelected": true
        } ]
      },
      "subject": {
        "reference": "Patient/12786a64-c20e-4542-a4c0-bf3129d6a9e0"
      },
      "issued": "2026-06-28T08:00:00.000+00:00",
      "valueBoolean": true
    },
    "request": {
      "method": "PUT",
      "url": "Observation/ac0bc8f1-a955-4ffa-8027-1ebbf2c029f8"
    }
  }, {
    "fullUrl": "https://madie.cms.gov/Coverage/1d690b3e-480e-491f-8e62-80c9b107a71e",
    "resource": {
      "resourceType": "Coverage",
      "id": "1d690b3e-480e-491f-8e62-80c9b107a71e",
      "meta": {
        "profile": [ "http://hl7.org/fhir/us/qicore/StructureDefinition/qicore-coverage" ]
      },
      "status": "active",
      "subscriberId": "123456789",
      "beneficiary": {
        "reference": "Patient/12786a64-c20e-4542-a4c0-bf3129d6a9e0"
      },
      "relationship": {
        "coding": [ {
          "system": "http://terminology.hl7.org/CodeSystem/subscriber-relationship",
          "code": "self",
          "display": "Self",
          "userSelected": true
        } ]
      },
      "payor": [ {
        "reference": "Organization/8cdcc1ae-8054-49ee-bf3c-e01a8e123a62"
      } ]
    },
    "request": {
      "method": "PUT",
      "url": "Coverage/1d690b3e-480e-491f-8e62-80c9b107a71e"
    }
  }, {
    "fullUrl": "https://madie.cms.gov/Organization/8cdcc1ae-8054-49ee-bf3c-e01a8e123a62",
    "resource": {
      "resourceType": "Organization",
      "id": "8cdcc1ae-8054-49ee-bf3c-e01a8e123a62",
      "meta": {
        "profile": [ "http://hl7.org/fhir/us/qicore/StructureDefinition/qicore-organization" ]
      },
      "identifier": [ {
        "use": "temp",
        "system": "urn:oid:2.16.840.1.113883.4.4",
        "value": "21-3259825"
      } ],
      "active": true,
      "type": [ {
        "coding": [ {
          "system": "http://terminology.hl7.org/CodeSystem/organization-type",
          "code": "pay",
          "display": "Payer"
        } ]
      } ],
      "name": "Blue Cross Blue Shield of Texas",
      "telecom": [ {
        "system": "phone",
        "value": "(+1) 972-766-6900"
      } ],
      "address": [ {
        "use": "billing",
        "type": "postal",
        "line": [ "P.O. Box 660044" ],
        "city": "Dallas",
        "state": "TX",
        "postalCode": "75266-0044",
        "country": "USA"
      } ]
    },
    "request": {
      "method": "PUT",
      "url": "Organization/8cdcc1ae-8054-49ee-bf3c-e01a8e123a62"
    }
  }, {
    "fullUrl": "https://madie.cms.gov/Practitioner/e0fcb714-a141-4fbd-a922-2214deac7777",
    "resource": {
      "resourceType": "Practitioner",
      "id": "e0fcb714-a141-4fbd-a922-2214deac7777",
      "meta": {
        "profile": [ "http://hl7.org/fhir/us/qicore/StructureDefinition/qicore-practitioner" ]
      },
      "identifier": [ {
        "system": "http://hl7.org/fhir/sid/us-npi",
        "value": "1234567893"
      } ],
      "name": [ {
        "family": "Evil",
        "prefix": [ "Dr" ]
      } ]
    },
    "request": {
      "method": "PUT",
      "url": "Practitioner/e0fcb714-a141-4fbd-a922-2214deac7777"
    }
  }, {
    "fullUrl": "https://madie.cms.gov/MeasureReport/d11b5411-c5c1-4516-8f46-9b95a509901e",
    "resource": {
      "resourceType": "MeasureReport",
      "id": "d11b5411-c5c1-4516-8f46-9b95a509901e",
      "meta": {
        "profile": [ "http://hl7.org/fhir/us/cqfmeasures/StructureDefinition/test-case-cqfm" ]
      },
      "contained": [ {
        "resourceType": "Parameters",
        "id": "4b44d47c-e0b0-48c1-89e0-ec2e2285b2fa-parameters",
        "parameter": [ {
          "name": "subject",
          "valueString": "12786a64-c20e-4542-a4c0-bf3129d6a9e0"
        } ]
      } ],
      "extension": [ {
        "url": "http://hl7.org/fhir/StructureDefinition/cqf-inputParameters",
        "valueReference": {
          "reference": "#4b44d47c-e0b0-48c1-89e0-ec2e2285b2fa-parameters"
        }
      }, {
        "url": "http://hl7.org/fhir/us/cqfmeasures/StructureDefinition/cqfm-testCaseDescription",
        "valueMarkdown": "18 yo male with medical reason for not screening for depression - 18 on first day MP"
      } ],
      "modifierExtension": [ {
        "url": "http://hl7.org/fhir/us/cqfmeasures/StructureDefinition/cqfm-isTestCase",
        "valueBoolean": true
      } ],
      "status": "complete",
      "type": "individual",
      "measure": "https://madie.cms.gov/Measure/CMS2FHIRPCSDepressionScreenAndFollowUp",
      "period": {
        "start": "2026-01-01",
        "end": "2026-12-31"
      },
      "group": [ {
        "id": "Group_1",
        "population": [ {
          "id": "InitialPopulation_1",
          "code": {
            "coding": [ {
              "system": "http://terminology.hl7.org/CodeSystem/measure-population",
              "code": "initial-population",
              "display": "Initial Population"
            } ]
          },
          "count": 1
        }, {
          "id": "Denominator_1",
          "code": {
            "coding": [ {
              "system": "http://terminology.hl7.org/CodeSystem/measure-population",
              "code": "denominator",
              "display": "Denominator"
            } ]
          },
          "count": 1
        }, {
          "id": "DenominatorExclusion_1",
          "code": {
            "coding": [ {
              "system": "http://terminology.hl7.org/CodeSystem/measure-population",
              "code": "denominator-exclusion",
              "display": "Denominator Exclusion"
            } ]
          },
          "count": 0
        }, {
          "id": "Numerator_1",
          "code": {
            "coding": [ {
              "system": "http://terminology.hl7.org/CodeSystem/measure-population",
              "code": "numerator",
              "display": "Numerator"
            } ]
          },
          "count": 0
        }, {
          "id": "DenominatorException_1",
          "code": {
            "coding": [ {
              "system": "http://terminology.hl7.org/CodeSystem/measure-population",
              "code": "denominator-exception",
              "display": "Denominator Exception"
            } ]
          },
          "count": 1
        } ],
        "measureScore": {
          "value": 1.0
        }
      } ],
      "evaluatedResource": [ {
        "reference": "Patient/12786a64-c20e-4542-a4c0-bf3129d6a9e0"
      }, {
        "reference": "Encounter/b8ac5547-023e-4f59-ac4c-b137aa42f82d"
      }, {
        "reference": "Observation/ac0bc8f1-a955-4ffa-8027-1ebbf2c029f8"
      }, {
        "reference": "Coverage/1d690b3e-480e-491f-8e62-80c9b107a71e"
      }, {
        "reference": "Organization/8cdcc1ae-8054-49ee-bf3c-e01a8e123a62"
      }, {
        "reference": "Practitioner/e0fcb714-a141-4fbd-a922-2214deac7777"
      } ]
    },
    "request": {
      "method": "PUT",
      "url": "MeasureReport/d11b5411-c5c1-4516-8f46-9b95a509901e"
    }
  } ]
}