{
  "resourceType": "Bundle",
  "id": "63487c2e0968f80122540186",
  "type": "transaction",
  "entry": [ {
    "fullUrl": "https://madie.cms.gov/Patient/5580cb1d-0ac8-459b-9460-85ad6fe489dc",
    "resource": {
      "resourceType": "Patient",
      "id": "5580cb1d-0ac8-459b-9460-85ad6fe489dc",
      "meta": {
        "profile": [ "http://hl7.org/fhir/us/qicore/StructureDefinition/qicore-patient" ]
      },
      "text": {
        "status": "generated",
        "div": "<div xmlns=\"http://www.w3.org/1999/xhtml\"><div class=\"hapiHeaderText\">NonDelivProcHipreplacement<b>IPOPFail</b></div><table class=\"hapiPropertyTable\"><tbody><tr><td>Identifier</td><td>b959efd46f0d0c24423af538a038b110c6775f5c81efccdbf17ac9abefb49df4</td></tr><tr><td>Date of birth</td><td><span>14 February 1985</span></td></tr></tbody></table></div>"
      },
      "extension": [ {
        "url": "http://hl7.org/fhir/us/core/StructureDefinition/us-core-race",
        "extension": [ {
          "url": "ombCategory",
          "valueCoding": {
            "system": "urn:oid:2.16.840.1.113883.6.238",
            "code": "1002-5",
            "display": "American Indian or Alaska Native",
            "userSelected": true
          }
        }, {
          "url": "text",
          "valueString": "American Indian or Alaska Native"
        } ]
      }, {
        "url": "http://hl7.org/fhir/us/core/StructureDefinition/us-core-ethnicity",
        "extension": [ {
          "url": "ombCategory",
          "valueCoding": {
            "system": "urn:oid:2.16.840.1.113883.6.238",
            "code": "2135-2",
            "display": "Hispanic or Latino",
            "userSelected": true
          }
        }, {
          "url": "text",
          "valueString": "Hispanic or Latino"
        } ]
      } ],
      "identifier": [ {
        "type": {
          "coding": [ {
            "system": "http://terminology.hl7.org/CodeSystem/v2-0203",
            "code": "MR"
          } ]
        },
        "system": "https://bonnie-fhir.healthit.gov/",
        "value": "63487c2e0968f80122540186"
      } ],
      "active": true,
      "name": [ {
        "use": "usual",
        "family": "IPOPFail",
        "given": [ "NonDelivProcHipreplacement" ]
      } ],
      "gender": "female",
      "birthDate": "1986-02-14"
    },
    "request": {
      "method": "PUT",
      "url": "Patient/5580cb1d-0ac8-459b-9460-85ad6fe489dc"
    }
  }, {
    "fullUrl": "https://madie.cms.gov/Encounter/5e5bc4bb-d034-4081-bc5a-c607774d439d",
    "resource": {
      "resourceType": "Encounter",
      "id": "5e5bc4bb-d034-4081-bc5a-c607774d439d",
      "meta": {
        "profile": [ "http://hl7.org/fhir/us/qicore/StructureDefinition/qicore-encounter" ]
      },
      "status": "finished",
      "class": {
        "system": "http://terminology.hl7.org/CodeSystem/v3-ActCode",
        "code": "IMP",
        "display": "inpatient encounter"
      },
      "type": [ {
        "coding": [ {
          "system": "http://snomed.info/sct",
          "code": "8715000"
        } ]
      } ],
      "subject": {
        "reference": "Patient/5580cb1d-0ac8-459b-9460-85ad6fe489dc"
      },
      "period": {
        "start": "2026-11-28T08:00:00.000+00:00",
        "end": "2026-11-30T08:15:00.000+00:00"
      },
      "diagnosis": [ {
        "condition": {
          "reference": "Condition/Condition-2"
        },
        "use": {
          "coding": [ {
            "system": "http://snomed.info/sct",
            "code": "169826009",
            "display": "Single live birth from singleton pregnancy (finding)"
          } ]
        }
      } ]
    },
    "request": {
      "method": "PUT",
      "url": "Encounter/5e5bc4bb-d034-4081-bc5a-c607774d439d"
    }
  }, {
    "fullUrl": "https://madie.cms.gov/Procedure/cb2a1af5-8e0d-4a13-a4e1-a58e7f6cfdbe",
    "resource": {
      "resourceType": "Procedure",
      "id": "cb2a1af5-8e0d-4a13-a4e1-a58e7f6cfdbe",
      "meta": {
        "profile": [ "http://hl7.org/fhir/us/qicore/StructureDefinition/qicore-procedure" ]
      },
      "extension": [ {
        "url": "http://hl7.org/fhir/us/qicore/StructureDefinition/qicore-recorded",
        "valueDateTime": "2014-04-05T13:35:00.000+00:00"
      } ],
      "status": "completed",
      "code": {
        "coding": [ {
          "system": "http://www.cms.gov/Medicare/Coding/ICD10",
          "code": "OSR9019",
          "userSelected": true
        } ]
      },
      "subject": {
        "reference": "Patient/5580cb1d-0ac8-459b-9460-85ad6fe489dc"
      },
      "performedPeriod": {
        "start": "2026-11-28T08:00:00.000+00:00"
      }
    },
    "request": {
      "method": "PUT",
      "url": "Procedure/cb2a1af5-8e0d-4a13-a4e1-a58e7f6cfdbe"
    }
  }, {
    "fullUrl": "https://madie.cms.gov/Coverage/494fd0fd-c448-4c28-9215-14392d0a2bc9",
    "resource": {
      "resourceType": "Coverage",
      "id": "494fd0fd-c448-4c28-9215-14392d0a2bc9",
      "meta": {
        "profile": [ "http://hl7.org/fhir/us/qicore/StructureDefinition/qicore-coverage" ]
      },
      "status": "active",
      "subscriberId": "523435",
      "beneficiary": {
        "reference": "Patient/5580cb1d-0ac8-459b-9460-85ad6fe489dc"
      },
      "relationship": {
        "coding": [ {
          "system": "http://terminology.hl7.org/CodeSystem/subscriber-relationship",
          "code": "self"
        } ]
      },
      "payor": [ {
        "reference": "Organization/0054c7a1-6574-48e6-858d-19eb023857b4"
      } ]
    },
    "request": {
      "method": "PUT",
      "url": "Coverage/494fd0fd-c448-4c28-9215-14392d0a2bc9"
    }
  }, {
    "fullUrl": "https://madie.cms.gov/Organization/0054c7a1-6574-48e6-858d-19eb023857b4",
    "resource": {
      "resourceType": "Organization",
      "id": "0054c7a1-6574-48e6-858d-19eb023857b4",
      "meta": {
        "profile": [ "http://hl7.org/fhir/us/qicore/StructureDefinition/qicore-organization" ]
      },
      "identifier": [ {
        "use": "temp",
        "system": "urn:oid:2.16.840.1.113883.4.4",
        "value": "21-3259825"
      } ],
      "active": true,
      "type": [ {
        "coding": [ {
          "system": "http://terminology.hl7.org/CodeSystem/organization-type",
          "code": "pay",
          "display": "Payer"
        } ]
      } ],
      "name": "Blue Cross Blue Shield of Texas",
      "telecom": [ {
        "system": "phone",
        "value": "(+1) 972-766-6900"
      } ],
      "address": [ {
        "use": "billing",
        "type": "postal",
        "line": [ "P.O. Box 660044" ],
        "city": "Dallas",
        "state": "TX",
        "postalCode": "75266-0044",
        "country": "USA"
      } ]
    },
    "request": {
      "method": "PUT",
      "url": "Organization/0054c7a1-6574-48e6-858d-19eb023857b4"
    }
  }, {
    "fullUrl": "https://madie.cms.gov/Practitioner/82493ef5-82e8-49a1-a71b-becb3f4377df",
    "resource": {
      "resourceType": "Practitioner",
      "id": "82493ef5-82e8-49a1-a71b-becb3f4377df",
      "meta": {
        "profile": [ "http://hl7.org/fhir/us/qicore/StructureDefinition/qicore-practitioner" ]
      },
      "identifier": [ {
        "system": "http://hl7.org/fhir/sid/us-npi",
        "value": "1234567890"
      } ],
      "name": [ {
        "family": "Evil",
        "prefix": [ "Dr" ]
      } ]
    },
    "request": {
      "method": "PUT",
      "url": "Practitioner/82493ef5-82e8-49a1-a71b-becb3f4377df"
    }
  }, {
    "fullUrl": "https://madie.cms.gov/MeasureReport/a0b51489-25f3-412a-9121-fa021569fcb2",
    "resource": {
      "resourceType": "MeasureReport",
      "id": "a0b51489-25f3-412a-9121-fa021569fcb2",
      "meta": {
        "profile": [ "http://hl7.org/fhir/us/cqfmeasures/StructureDefinition/test-case-cqfm" ]
      },
      "contained": [ {
        "resourceType": "Parameters",
        "id": "2f27f594-94dc-4c3e-b0d9-3164c7b1ee1d-parameters",
        "parameter": [ {
          "name": "subject",
          "valueString": "5580cb1d-0ac8-459b-9460-85ad6fe489dc"
        } ]
      } ],
      "extension": [ {
        "url": "http://hl7.org/fhir/StructureDefinition/cqf-inputParameters",
        "valueReference": {
          "reference": "#2f27f594-94dc-4c3e-b0d9-3164c7b1ee1d-parameters"
        }
      }, {
        "url": "http://hl7.org/fhir/us/cqfmeasures/StructureDefinition/cqfm-testCaseDescription",
        "valueMarkdown": "Fail IP, Non-delivery procedure (hip replacement)\n"
      } ],
      "modifierExtension": [ {
        "url": "http://hl7.org/fhir/us/cqfmeasures/StructureDefinition/cqfm-isTestCase",
        "valueBoolean": true
      } ],
      "status": "complete",
      "type": "individual",
      "measure": "https://madie.cms.gov/Measure/CMS0334FHIRPCCesareanBirth",
      "period": {
        "start": "2026-01-01",
        "end": "2026-12-31"
      },
      "group": [ {
        "id": "Group_1",
        "population": [ {
          "id": "InitialPopulation_1",
          "code": {
            "coding": [ {
              "system": "http://terminology.hl7.org/CodeSystem/measure-population",
              "code": "initial-population",
              "display": "Initial Population"
            } ]
          },
          "count": 0
        }, {
          "id": "Denominator_1",
          "code": {
            "coding": [ {
              "system": "http://terminology.hl7.org/CodeSystem/measure-population",
              "code": "denominator",
              "display": "Denominator"
            } ]
          },
          "count": 0
        }, {
          "id": "DenominatorExclusion_1",
          "code": {
            "coding": [ {
              "system": "http://terminology.hl7.org/CodeSystem/measure-population",
              "code": "denominator-exclusion",
              "display": "Denominator Exclusion"
            } ]
          },
          "count": 0
        }, {
          "id": "Numerator_1",
          "code": {
            "coding": [ {
              "system": "http://terminology.hl7.org/CodeSystem/measure-population",
              "code": "numerator",
              "display": "Numerator"
            } ]
          },
          "count": 0
        } ],
        "measureScore": {
          "value": 0.0
        }
      } ],
      "evaluatedResource": [ {
        "reference": "Patient/5580cb1d-0ac8-459b-9460-85ad6fe489dc"
      }, {
        "reference": "Encounter/5e5bc4bb-d034-4081-bc5a-c607774d439d"
      }, {
        "reference": "Procedure/cb2a1af5-8e0d-4a13-a4e1-a58e7f6cfdbe"
      }, {
        "reference": "Coverage/494fd0fd-c448-4c28-9215-14392d0a2bc9"
      }, {
        "reference": "Organization/0054c7a1-6574-48e6-858d-19eb023857b4"
      }, {
        "reference": "Practitioner/82493ef5-82e8-49a1-a71b-becb3f4377df"
      } ]
    },
    "request": {
      "method": "PUT",
      "url": "MeasureReport/a0b51489-25f3-412a-9121-fa021569fcb2"
    }
  } ]
}