{
  "resourceType": "Bundle",
  "id": "6359776b6aee9629c8298235",
  "type": "transaction",
  "entry": [ {
    "fullUrl": "https://madie.cms.gov/Patient/0f081f1b-4577-418b-9bc7-6b06fc23b513",
    "resource": {
      "resourceType": "Patient",
      "id": "0f081f1b-4577-418b-9bc7-6b06fc23b513",
      "meta": {
        "profile": [ "http://hl7.org/fhir/us/qicore/StructureDefinition/qicore-patient" ]
      },
      "text": {
        "status": "generated",
        "div": "<div xmlns=\"http://www.w3.org/1999/xhtml\"><div class=\"hapiHeaderText\">RISKHctRsltDtTimeEQDelStart <b>RISKFail </b></div><table class=\"hapiPropertyTable\"><tbody><tr><td>Date of birth</td><td><span>01 February 2004</span></td></tr></tbody></table></div>"
      },
      "extension": [ {
        "url": "http://hl7.org/fhir/us/core/StructureDefinition/us-core-race",
        "extension": [ {
          "url": "ombCategory",
          "valueCoding": {
            "system": "urn:oid:2.16.840.1.113883.6.238",
            "code": "1002-5",
            "display": "American Indian or Alaska Native",
            "userSelected": true
          }
        }, {
          "url": "text",
          "valueString": "American Indian or Alaska Native"
        } ]
      }, {
        "url": "http://hl7.org/fhir/us/core/StructureDefinition/us-core-ethnicity",
        "extension": [ {
          "url": "ombCategory",
          "valueCoding": {
            "system": "urn:oid:2.16.840.1.113883.6.238",
            "code": "2135-2",
            "display": "Hispanic or Latino",
            "userSelected": true
          }
        }, {
          "url": "text",
          "valueString": "Hispanic or Latino"
        } ]
      } ],
      "identifier": [ {
        "type": {
          "coding": [ {
            "system": "http://terminology.hl7.org/CodeSystem/v2-0203",
            "code": "MR"
          } ]
        },
        "system": "https://bonnie-fhir.healthit.gov/",
        "value": "6359776b6aee9629c8298235"
      } ],
      "active": true,
      "name": [ {
        "use": "usual",
        "family": "RiskFail",
        "given": [ "RISKHctRsltDtTimeEQDelStart" ]
      } ],
      "gender": "female",
      "birthDate": "2005-02-01"
    },
    "request": {
      "method": "PUT",
      "url": "Patient/0f081f1b-4577-418b-9bc7-6b06fc23b513"
    }
  }, {
    "fullUrl": "https://madie.cms.gov/Observation/ac645fc9-6b8b-4b9d-8282-0e7f6cda986d",
    "resource": {
      "resourceType": "Observation",
      "id": "ac645fc9-6b8b-4b9d-8282-0e7f6cda986d",
      "meta": {
        "profile": [ "http://hl7.org/fhir/us/qicore/StructureDefinition/qicore-simple-observation" ]
      },
      "status": "final",
      "category": [ {
        "coding": [ {
          "system": "http://terminology.hl7.org/CodeSystem/observation-category",
          "code": "exam",
          "display": "exam",
          "userSelected": true
        } ]
      } ],
      "code": {
        "coding": [ {
          "system": "http://loinc.org",
          "code": "93857-1"
        } ]
      },
      "subject": {
        "reference": "Patient/0f081f1b-4577-418b-9bc7-6b06fc23b513"
      },
      "effectiveDateTime": "2026-02-01T08:00:00Z",
      "performer": [ {
        "reference": "Organization/example1",
        "display": "Hendricks Country Hospital"
      } ],
      "valueDateTime": "2026-02-01T08:00:00Z"
    },
    "request": {
      "method": "PUT",
      "url": "Observation/ac645fc9-6b8b-4b9d-8282-0e7f6cda986d"
    }
  }, {
    "fullUrl": "https://madie.cms.gov/Condition/2c959396-e34d-4bb9-b904-039373509000",
    "resource": {
      "resourceType": "Condition",
      "id": "2c959396-e34d-4bb9-b904-039373509000",
      "meta": {
        "profile": [ "http://hl7.org/fhir/us/qicore/StructureDefinition/qicore-condition-encounter-diagnosis" ]
      },
      "category": [ {
        "coding": [ {
          "system": "http://terminology.hl7.org/CodeSystem/condition-category",
          "code": "encounter-diagnosis",
          "display": "Encounter Diagnosis"
        } ]
      } ],
      "code": {
        "coding": [ {
          "system": "http://hl7.org/fhir/sid/icd-10-cm",
          "version": "2023",
          "code": "Z3A.21",
          "display": "21 weeks gestation",
          "userSelected": true
        } ]
      },
      "subject": {
        "reference": "Patient/0f081f1b-4577-418b-9bc7-6b06fc23b513"
      },
      "recordedDate": "2026-10-26T08:00:00Z"
    },
    "request": {
      "method": "PUT",
      "url": "Condition/2c959396-e34d-4bb9-b904-039373509000"
    }
  }, {
    "fullUrl": "https://madie.cms.gov/Encounter/a5bde49c-4225-48fa-a705-df4c23d4c706",
    "resource": {
      "resourceType": "Encounter",
      "id": "a5bde49c-4225-48fa-a705-df4c23d4c706",
      "meta": {
        "profile": [ "http://hl7.org/fhir/us/qicore/StructureDefinition/qicore-encounter" ]
      },
      "status": "finished",
      "class": {
        "system": "http://terminology.hl7.org/CodeSystem/v3-ActCode",
        "code": "IMP",
        "display": "inpatient encounter"
      },
      "type": [ {
        "coding": [ {
          "system": "http://snomed.info/sct",
          "code": "183452005"
        } ]
      } ],
      "subject": {
        "reference": "Patient/0f081f1b-4577-418b-9bc7-6b06fc23b513"
      },
      "period": {
        "start": "2026-02-01T08:00:00Z",
        "end": "2026-02-05T08:15:00Z"
      },
      "reasonReference": [ {
        "reference": "Condition/2c959396-e34d-4bb9-b904-039373509000"
      } ]
    },
    "request": {
      "method": "PUT",
      "url": "Encounter/a5bde49c-4225-48fa-a705-df4c23d4c706"
    }
  }, {
    "fullUrl": "https://madie.cms.gov/Encounter/b0858527-d648-4e1b-9d27-bfcb085e3b10",
    "resource": {
      "resourceType": "Encounter",
      "id": "b0858527-d648-4e1b-9d27-bfcb085e3b10",
      "meta": {
        "profile": [ "http://hl7.org/fhir/us/qicore/StructureDefinition/qicore-encounter" ]
      },
      "status": "finished",
      "class": {
        "system": "http://terminology.hl7.org/CodeSystem/v3-ActCode",
        "code": "EMER",
        "display": "emergency"
      },
      "type": [ {
        "coding": [ {
          "system": "http://snomed.info/sct",
          "code": "4525004"
        } ]
      } ],
      "subject": {
        "reference": "Patient/0f081f1b-4577-418b-9bc7-6b06fc23b513"
      },
      "period": {
        "start": "2026-02-01T07:00:00Z",
        "end": "2026-02-01T07:59:00Z"
      }
    },
    "request": {
      "method": "PUT",
      "url": "Encounter/b0858527-d648-4e1b-9d27-bfcb085e3b10"
    }
  }, {
    "fullUrl": "https://madie.cms.gov/Procedure/4c7beeeb-40bd-41fb-8cf1-d0830099d8d5",
    "resource": {
      "resourceType": "Procedure",
      "id": "4c7beeeb-40bd-41fb-8cf1-d0830099d8d5",
      "meta": {
        "profile": [ "http://hl7.org/fhir/us/qicore/StructureDefinition/qicore-procedure" ]
      },
      "extension": [ {
        "url": "http://hl7.org/fhir/us/qicore/StructureDefinition/qicore-recorded",
        "valueDateTime": "2026-02-04T13:35:00Z"
      } ],
      "status": "completed",
      "code": {
        "coding": [ {
          "system": "http://snomed.info/sct",
          "code": "10745001"
        } ]
      },
      "subject": {
        "reference": "Patient/0f081f1b-4577-418b-9bc7-6b06fc23b513"
      },
      "performedPeriod": {
        "start": "2026-02-01T08:00:00Z",
        "end": "2026-02-05T08:15:00Z"
      }
    },
    "request": {
      "method": "PUT",
      "url": "Procedure/4c7beeeb-40bd-41fb-8cf1-d0830099d8d5"
    }
  }, {
    "fullUrl": "https://madie.cms.gov/Observation/980cd655-8055-46b8-a80b-1316a4850b70",
    "resource": {
      "resourceType": "Observation",
      "id": "980cd655-8055-46b8-a80b-1316a4850b70",
      "meta": {
        "profile": [ "http://hl7.org/fhir/us/qicore/StructureDefinition/qicore-observation-lab" ]
      },
      "status": "final",
      "category": [ {
        "coding": [ {
          "system": "http://terminology.hl7.org/CodeSystem/observation-category",
          "code": "laboratory",
          "display": "laboratory",
          "userSelected": true
        } ]
      } ],
      "code": {
        "coding": [ {
          "system": "http://loinc.org",
          "version": "2.73",
          "code": "20570-8",
          "display": "Hematocrit [Volume Fraction] in Blood",
          "userSelected": true
        } ]
      },
      "subject": {
        "reference": "Patient/0f081f1b-4577-418b-9bc7-6b06fc23b513"
      },
      "effectiveDateTime": "2026-02-01T08:00:00Z",
      "issued": "2026-02-01T08:00:00Z",
      "valueQuantity": {
        "value": 20,
        "unit": "%"
      }
    },
    "request": {
      "method": "PUT",
      "url": "Observation/980cd655-8055-46b8-a80b-1316a4850b70"
    }
  }, {
    "fullUrl": "https://madie.cms.gov/MeasureReport/2eda6d9b-585a-4a59-a994-e8a94bb841ae",
    "resource": {
      "resourceType": "MeasureReport",
      "id": "2eda6d9b-585a-4a59-a994-e8a94bb841ae",
      "meta": {
        "profile": [ "http://hl7.org/fhir/us/cqfmeasures/StructureDefinition/test-case-cqfm" ]
      },
      "contained": [ {
        "resourceType": "Parameters",
        "id": "1f560eeb-93c6-4eb6-ad75-7be904663ff2-parameters",
        "parameter": [ {
          "name": "subject",
          "valueString": "0f081f1b-4577-418b-9bc7-6b06fc23b513"
        } ]
      } ],
      "extension": [ {
        "url": "http://hl7.org/fhir/StructureDefinition/cqf-inputParameters",
        "valueReference": {
          "reference": "#1f560eeb-93c6-4eb6-ad75-7be904663ff2-parameters"
        }
      }, {
        "url": "http://hl7.org/fhir/us/cqfmeasures/StructureDefinition/cqfm-testCaseDescription",
        "valueMarkdown": "Patient with hematocrit result date/time = delivery date/time \n"
      } ],
      "modifierExtension": [ {
        "url": "http://hl7.org/fhir/us/cqfmeasures/StructureDefinition/cqfm-isTestCase",
        "valueBoolean": true
      } ],
      "status": "complete",
      "type": "individual",
      "measure": "https://madie.cms.gov/Measure/CMS1028FHIRPCSevereOBComps",
      "period": {
        "start": "2026-01-01",
        "end": "2026-12-31"
      },
      "group": [ {
        "id": "Group_1",
        "population": [ {
          "id": "InitialPopulation_1",
          "code": {
            "coding": [ {
              "system": "http://terminology.hl7.org/CodeSystem/measure-population",
              "code": "initial-population",
              "display": "Initial Population"
            } ]
          },
          "count": 1
        }, {
          "id": "Denominator_1",
          "code": {
            "coding": [ {
              "system": "http://terminology.hl7.org/CodeSystem/measure-population",
              "code": "denominator",
              "display": "Denominator"
            } ]
          },
          "count": 1
        }, {
          "id": "Numerator_1",
          "code": {
            "coding": [ {
              "system": "http://terminology.hl7.org/CodeSystem/measure-population",
              "code": "numerator",
              "display": "Numerator"
            } ]
          },
          "count": 0
        }, {
          "id": "NumeratorExclusion_1",
          "code": {
            "coding": [ {
              "system": "http://terminology.hl7.org/CodeSystem/measure-population",
              "code": "numerator-exclusion",
              "display": "Numerator Exclusion"
            } ]
          },
          "count": 0
        } ],
        "measureScore": {
          "value": 0.0
        }
      }, {
        "id": "Group_2",
        "population": [ {
          "id": "InitialPopulation_2",
          "code": {
            "coding": [ {
              "system": "http://terminology.hl7.org/CodeSystem/measure-population",
              "code": "initial-population",
              "display": "Initial Population"
            } ]
          },
          "count": 1
        }, {
          "id": "Denominator_2",
          "code": {
            "coding": [ {
              "system": "http://terminology.hl7.org/CodeSystem/measure-population",
              "code": "denominator",
              "display": "Denominator"
            } ]
          },
          "count": 1
        }, {
          "id": "Numerator_2",
          "code": {
            "coding": [ {
              "system": "http://terminology.hl7.org/CodeSystem/measure-population",
              "code": "numerator",
              "display": "Numerator"
            } ]
          },
          "count": 0
        }, {
          "id": "NumeratorExclusion_2",
          "code": {
            "coding": [ {
              "system": "http://terminology.hl7.org/CodeSystem/measure-population",
              "code": "numerator-exclusion",
              "display": "Numerator Exclusion"
            } ]
          },
          "count": 0
        } ],
        "measureScore": {
          "value": 0.0
        }
      } ],
      "evaluatedResource": [ {
        "reference": "Patient/0f081f1b-4577-418b-9bc7-6b06fc23b513"
      }, {
        "reference": "Observation/ac645fc9-6b8b-4b9d-8282-0e7f6cda986d"
      }, {
        "reference": "Condition/2c959396-e34d-4bb9-b904-039373509000"
      }, {
        "reference": "Encounter/a5bde49c-4225-48fa-a705-df4c23d4c706"
      }, {
        "reference": "Encounter/b0858527-d648-4e1b-9d27-bfcb085e3b10"
      }, {
        "reference": "Procedure/4c7beeeb-40bd-41fb-8cf1-d0830099d8d5"
      }, {
        "reference": "Observation/980cd655-8055-46b8-a80b-1316a4850b70"
      } ]
    },
    "request": {
      "method": "PUT",
      "url": "MeasureReport/2eda6d9b-585a-4a59-a994-e8a94bb841ae"
    }
  } ]
}