{
  "resourceType": "Bundle",
  "id": "612e6ad702c62a011f2eb691",
  "type": "transaction",
  "entry": [ {
    "fullUrl": "https://madie.cms.gov/Patient/8bb999a1-696a-497b-a5f4-aa55e146a16e",
    "resource": {
      "resourceType": "Patient",
      "id": "8bb999a1-696a-497b-a5f4-aa55e146a16e",
      "meta": {
        "profile": [ "http://hl7.org/fhir/us/qicore/StructureDefinition/qicore-patient" ]
      },
      "text": {
        "status": "generated",
        "div": "<div xmlns=\"http://www.w3.org/1999/xhtml\"><div class=\"hapiHeaderText\">INR4_1DayAfterAnes_2DayAFAdm <b>NUMERPASS </b></div><table class=\"hapiPropertyTable\"><tbody><tr><td>Identifier</td><td>d60bf11ee63fd74306a1faa9c3f4d0e1</td></tr><tr><td>Date of birth</td><td><span>02 January 1974</span></td></tr></tbody></table></div>"
      },
      "extension": [ {
        "url": "http://hl7.org/fhir/us/core/StructureDefinition/us-core-race",
        "extension": [ {
          "url": "ombCategory",
          "valueCoding": {
            "system": "urn:oid:2.16.840.1.113883.6.238",
            "code": "1002-5",
            "display": "American Indian or Alaska Native",
            "userSelected": true
          }
        }, {
          "url": "text",
          "valueString": "American Indian or Alaska Native"
        } ]
      }, {
        "url": "http://hl7.org/fhir/us/core/StructureDefinition/us-core-ethnicity",
        "extension": [ {
          "url": "ombCategory",
          "valueCoding": {
            "system": "urn:oid:2.16.840.1.113883.6.238",
            "code": "2135-2",
            "display": "Hispanic or Latino",
            "userSelected": true
          }
        }, {
          "url": "text",
          "valueString": "Hispanic or Latino"
        } ]
      } ],
      "identifier": [ {
        "type": {
          "coding": [ {
            "system": "http://terminology.hl7.org/CodeSystem/v2-0203",
            "code": "MR"
          } ]
        },
        "system": "https://bonnie-fhir.healthit.gov/",
        "value": "612e6ad702c62a011f2eb691"
      } ],
      "active": true,
      "name": [ {
        "use": "usual",
        "family": "NUMERPass",
        "given": [ "INR41DayAfterAnes2DayAFAdm" ]
      } ],
      "gender": "male",
      "birthDate": "1975-01-02"
    },
    "request": {
      "method": "PUT",
      "url": "Patient/8bb999a1-696a-497b-a5f4-aa55e146a16e"
    }
  }, {
    "fullUrl": "https://madie.cms.gov/Encounter/773c5b47-fe82-4478-8a4b-5c49e4490805",
    "resource": {
      "resourceType": "Encounter",
      "id": "773c5b47-fe82-4478-8a4b-5c49e4490805",
      "meta": {
        "profile": [ "http://hl7.org/fhir/us/qicore/StructureDefinition/qicore-encounter" ]
      },
      "status": "finished",
      "class": {
        "system": "http://terminology.hl7.org/CodeSystem/v3-ActCode",
        "code": "IMP",
        "display": "inpatient encounter"
      },
      "type": [ {
        "coding": [ {
          "system": "http://snomed.info/sct",
          "code": "8715000"
        } ]
      } ],
      "subject": {
        "reference": "Patient/8bb999a1-696a-497b-a5f4-aa55e146a16e"
      },
      "period": {
        "start": "2026-11-01T08:00:00.000+00:00",
        "end": "2026-11-26T08:15:00.000+00:00"
      },
      "length": {
        "value": 25,
        "unit": "days"
      }
    },
    "request": {
      "method": "PUT",
      "url": "Encounter/773c5b47-fe82-4478-8a4b-5c49e4490805"
    }
  }, {
    "fullUrl": "https://madie.cms.gov/Coverage/9b67b970-1533-4884-81fa-ee4cdd14472e",
    "resource": {
      "resourceType": "Coverage",
      "id": "9b67b970-1533-4884-81fa-ee4cdd14472e",
      "status": "active",
      "beneficiary": {
        "reference": "Patient/8bb999a1-696a-497b-a5f4-aa55e146a16e"
      },
      "period": {
        "start": "1975-01-02T08:00:00.000+00:00"
      },
      "payor": [ {
        "reference": "Organization/bf3b6629-e2b3-473c-adaf-e4d41b177a9b"
      } ]
    },
    "request": {
      "method": "PUT",
      "url": "Coverage/9b67b970-1533-4884-81fa-ee4cdd14472e"
    }
  }, {
    "fullUrl": "https://madie.cms.gov/Observation/f119854f-ede8-490d-8783-c9b41f0051d7",
    "resource": {
      "resourceType": "Observation",
      "id": "f119854f-ede8-490d-8783-c9b41f0051d7",
      "meta": {
        "profile": [ "http://hl7.org/fhir/us/qicore/StructureDefinition/qicore-observation-lab" ]
      },
      "status": "final",
      "category": [ {
        "coding": [ {
          "system": "http://terminology.hl7.org/CodeSystem/observation-category",
          "code": "laboratory",
          "display": "Laboratory"
        } ]
      } ],
      "code": {
        "coding": [ {
          "system": "http://loinc.org",
          "code": "34714-6"
        } ]
      },
      "subject": {
        "reference": "Patient/8bb999a1-696a-497b-a5f4-aa55e146a16e"
      },
      "effectiveDateTime": "2026-11-03T09:00:00.000+00:00",
      "issued": "2026-11-03T09:00:00.000+00:00",
      "valueQuantity": {
        "value": 4,
        "unit": "{INR}"
      }
    },
    "request": {
      "method": "PUT",
      "url": "Observation/f119854f-ede8-490d-8783-c9b41f0051d7"
    }
  }, {
    "fullUrl": "https://madie.cms.gov/Procedure/982a7027-346e-4bf7-b306-b82426b802af",
    "resource": {
      "resourceType": "Procedure",
      "id": "982a7027-346e-4bf7-b306-b82426b802af",
      "meta": {
        "profile": [ "http://hl7.org/fhir/us/qicore/StructureDefinition/qicore-procedure" ]
      },
      "extension": [ {
        "url": "http://hl7.org/fhir/us/qicore/StructureDefinition/qicore-recorded",
        "valueDateTime": "2013-11-02T13:35:00.000+00:00"
      } ],
      "status": "completed",
      "code": {
        "coding": [ {
          "system": "http://www.icd10data.com/icd10pcs",
          "code": "3E030FZ"
        }, {
          "system": "http://snomed.info/sct",
          "code": "18946005"
        } ]
      },
      "subject": {
        "reference": "Patient/8bb999a1-696a-497b-a5f4-aa55e146a16e"
      },
      "performedPeriod": {
        "start": "2026-11-02T09:00:00.000+00:00",
        "end": "2026-11-02T09:15:00.000+00:00"
      }
    },
    "request": {
      "method": "PUT",
      "url": "Procedure/982a7027-346e-4bf7-b306-b82426b802af"
    }
  }, {
    "fullUrl": "https://madie.cms.gov/Organization/bf3b6629-e2b3-473c-adaf-e4d41b177a9b",
    "resource": {
      "resourceType": "Organization",
      "id": "bf3b6629-e2b3-473c-adaf-e4d41b177a9b",
      "meta": {
        "profile": [ "http://hl7.org/fhir/us/qicore/StructureDefinition/qicore-organization" ]
      },
      "identifier": [ {
        "use": "temp",
        "system": "urn:oid:2.16.840.1.113883.4.4",
        "value": "21-3259825"
      } ],
      "active": true,
      "type": [ {
        "coding": [ {
          "system": "http://terminology.hl7.org/CodeSystem/organization-type",
          "code": "pay",
          "display": "Payer"
        } ]
      } ],
      "name": "Blue Cross Blue Shield of Texas",
      "telecom": [ {
        "system": "phone",
        "value": "(+1) 972-766-6900"
      } ],
      "address": [ {
        "use": "billing",
        "type": "postal",
        "line": [ "P.O. Box 660044" ],
        "city": "Dallas",
        "state": "TX",
        "postalCode": "75266-0044",
        "country": "USA"
      } ]
    },
    "request": {
      "method": "PUT",
      "url": "Organization/bf3b6629-e2b3-473c-adaf-e4d41b177a9b"
    }
  }, {
    "fullUrl": "https://madie.cms.gov/Practitioner/aaa64829-2195-4186-92ec-d112f7aa1b6e",
    "resource": {
      "resourceType": "Practitioner",
      "id": "aaa64829-2195-4186-92ec-d112f7aa1b6e",
      "identifier": [ {
        "system": "http://hl7.org/fhir/sid/us-npi",
        "value": "123456"
      } ],
      "name": [ {
        "family": "Evil",
        "prefix": [ "Dr" ]
      } ]
    },
    "request": {
      "method": "PUT",
      "url": "Practitioner/aaa64829-2195-4186-92ec-d112f7aa1b6e"
    }
  }, {
    "fullUrl": "https://madie.cms.gov/MeasureReport/a4bd6ae4-22f2-4a81-9256-0b0e127fe68f",
    "resource": {
      "resourceType": "MeasureReport",
      "id": "a4bd6ae4-22f2-4a81-9256-0b0e127fe68f",
      "meta": {
        "profile": [ "http://hl7.org/fhir/us/cqfmeasures/StructureDefinition/test-case-cqfm" ]
      },
      "contained": [ {
        "resourceType": "Parameters",
        "id": "d98d53cd-81d1-4478-b7c0-9df3278812d2-parameters",
        "parameter": [ {
          "name": "subject",
          "valueString": "8bb999a1-696a-497b-a5f4-aa55e146a16e"
        } ]
      } ],
      "extension": [ {
        "url": "http://hl7.org/fhir/StructureDefinition/cqf-inputParameters",
        "valueReference": {
          "reference": "#d98d53cd-81d1-4478-b7c0-9df3278812d2-parameters"
        }
      }, {
        "url": "http://hl7.org/fhir/us/cqfmeasures/StructureDefinition/cqfm-testCaseDescription",
        "valueMarkdown": ">18, dx VTE, LOS<120 day,   LabResult INR>3 no decimal,  Day After surgery end datetime \n"
      } ],
      "modifierExtension": [ {
        "url": "http://hl7.org/fhir/us/cqfmeasures/StructureDefinition/cqfm-isTestCase",
        "valueBoolean": true
      } ],
      "status": "complete",
      "type": "individual",
      "measure": "https://madie.cms.gov/Measure/CMS108FHIRVTEProphylaxis",
      "period": {
        "start": "2026-01-01",
        "end": "2026-12-31"
      },
      "group": [ {
        "id": "Group_1",
        "population": [ {
          "id": "InitialPopulation_1",
          "code": {
            "coding": [ {
              "system": "http://terminology.hl7.org/CodeSystem/measure-population",
              "code": "initial-population",
              "display": "Initial Population"
            } ]
          },
          "count": 1
        }, {
          "id": "Denominator_1",
          "code": {
            "coding": [ {
              "system": "http://terminology.hl7.org/CodeSystem/measure-population",
              "code": "denominator",
              "display": "Denominator"
            } ]
          },
          "count": 1
        }, {
          "id": "DenominatorExclusion_1",
          "code": {
            "coding": [ {
              "system": "http://terminology.hl7.org/CodeSystem/measure-population",
              "code": "denominator-exclusion",
              "display": "Denominator Exclusion"
            } ]
          },
          "count": 0
        }, {
          "id": "Numerator_1",
          "code": {
            "coding": [ {
              "system": "http://terminology.hl7.org/CodeSystem/measure-population",
              "code": "numerator",
              "display": "Numerator"
            } ]
          },
          "count": 1
        } ],
        "measureScore": {
          "value": 0.0
        }
      } ],
      "evaluatedResource": [ {
        "reference": "Patient/8bb999a1-696a-497b-a5f4-aa55e146a16e"
      }, {
        "reference": "Encounter/773c5b47-fe82-4478-8a4b-5c49e4490805"
      }, {
        "reference": "Coverage/9b67b970-1533-4884-81fa-ee4cdd14472e"
      }, {
        "reference": "Observation/f119854f-ede8-490d-8783-c9b41f0051d7"
      }, {
        "reference": "Procedure/982a7027-346e-4bf7-b306-b82426b802af"
      }, {
        "reference": "Organization/bf3b6629-e2b3-473c-adaf-e4d41b177a9b"
      }, {
        "reference": "Practitioner/aaa64829-2195-4186-92ec-d112f7aa1b6e"
      } ]
    },
    "request": {
      "method": "PUT",
      "url": "MeasureReport/a4bd6ae4-22f2-4a81-9256-0b0e127fe68f"
    }
  } ]
}