{
  "resourceType": "Bundle",
  "id": "62fd4b660968f8012246b012",
  "type": "transaction",
  "entry": [ {
    "fullUrl": "https://madie.cms.gov/Patient/37605377-59e5-4f97-b12f-797753056b96",
    "resource": {
      "resourceType": "Patient",
      "id": "37605377-59e5-4f97-b12f-797753056b96",
      "meta": {
        "profile": [ "http://hl7.org/fhir/us/qicore/StructureDefinition/qicore-patient" ]
      },
      "extension": [ {
        "url": "http://hl7.org/fhir/us/core/StructureDefinition/us-core-race",
        "extension": [ {
          "url": "ombCategory",
          "valueCoding": {
            "system": "urn:oid:2.16.840.1.113883.6.238",
            "code": "2028-9",
            "display": "Asian",
            "userSelected": true
          }
        }, {
          "url": "text",
          "valueString": "Asian"
        } ]
      }, {
        "url": "http://hl7.org/fhir/us/core/StructureDefinition/us-core-ethnicity",
        "extension": [ {
          "url": "ombCategory",
          "valueCoding": {
            "system": "urn:oid:2.16.840.1.113883.6.238",
            "code": "2186-5",
            "display": "Not Hispanic or Latino",
            "userSelected": true
          }
        }, {
          "url": "text",
          "valueString": "Not Hispanic or Latino"
        } ]
      } ],
      "identifier": [ {
        "type": {
          "coding": [ {
            "system": "http://terminology.hl7.org/CodeSystem/v2-0203",
            "code": "MR"
          } ]
        },
        "system": "https://bonnie-fhir.healthit.gov/",
        "value": "62fd4b660968f8012246b012"
      } ],
      "name": [ {
        "family": "DenomPass",
        "given": [ "EncRefNewPsychDRC" ]
      } ],
      "gender": "female",
      "birthDate": "1989-11-29"
    },
    "request": {
      "method": "PUT",
      "url": "Patient/37605377-59e5-4f97-b12f-797753056b96"
    }
  }, {
    "fullUrl": "https://madie.cms.gov/ServiceRequest/dedf672e-8602-4e76-831a-5a6ff5596aea",
    "resource": {
      "resourceType": "ServiceRequest",
      "id": "dedf672e-8602-4e76-831a-5a6ff5596aea",
      "meta": {
        "profile": [ "http://hl7.org/fhir/us/qicore/StructureDefinition/qicore-servicerequest" ]
      },
      "status": "completed",
      "intent": "order",
      "code": {
        "coding": [ {
          "system": "http://snomed.info/sct",
          "version": "2022-03",
          "code": "103696004",
          "display": "Patient referral to specialist (procedure)",
          "userSelected": true
        } ]
      },
      "subject": {
        "reference": "Patient/37605377-59e5-4f97-b12f-797753056b96"
      },
      "authoredOn": "2026-01-01T00:00:00.000+00:00"
    },
    "request": {
      "method": "PUT",
      "url": "ServiceRequest/dedf672e-8602-4e76-831a-5a6ff5596aea"
    }
  }, {
    "fullUrl": "https://madie.cms.gov/Procedure/935833af-af72-44bf-9274-c5ab9c6d25d5",
    "resource": {
      "resourceType": "Procedure",
      "id": "935833af-af72-44bf-9274-c5ab9c6d25d5",
      "meta": {
        "profile": [ "http://hl7.org/fhir/us/qicore/StructureDefinition/qicore-procedure" ]
      },
      "extension": [ {
        "url": "http://hl7.org/fhir/us/qicore/StructureDefinition/qicore-recorded",
        "valueDateTime": "2026-01-01T00:00:00.000+00:00"
      } ],
      "status": "completed",
      "code": {
        "coding": [ {
          "system": "http://www.ama-assn.org/go/cpt",
          "version": "2021",
          "code": "96112",
          "display": "Developmental test administration (including assessment of fine and/or gross motor, language, cognitive level, social, memory and/or executive functions by standardized developmental instruments when performed), by physician or other qualified health care professional, with interpretation and report; first hour",
          "userSelected": true
        } ]
      },
      "subject": {
        "reference": "Patient/37605377-59e5-4f97-b12f-797753056b96"
      },
      "performedDateTime": "2026-01-01T00:00:00.000+00:00"
    },
    "request": {
      "method": "PUT",
      "url": "Procedure/935833af-af72-44bf-9274-c5ab9c6d25d5"
    }
  }, {
    "fullUrl": "https://madie.cms.gov/Coverage/c074cf88-7f33-4ea7-b3ca-1fb6b5cd6986",
    "resource": {
      "resourceType": "Coverage",
      "id": "c074cf88-7f33-4ea7-b3ca-1fb6b5cd6986",
      "meta": {
        "profile": [ "http://hl7.org/fhir/us/qicore/StructureDefinition/qicore-coverage" ]
      },
      "status": "active",
      "beneficiary": {
        "reference": "Patient/37605377-59e5-4f97-b12f-797753056b96"
      },
      "payor": [ {
        "reference": "Organization/8f016765-35e2-475a-880c-a5b91d2714d7"
      } ]
    },
    "request": {
      "method": "PUT",
      "url": "Coverage/c074cf88-7f33-4ea7-b3ca-1fb6b5cd6986"
    }
  }, {
    "fullUrl": "https://madie.cms.gov/Organization/8f016765-35e2-475a-880c-a5b91d2714d7",
    "resource": {
      "resourceType": "Organization",
      "id": "8f016765-35e2-475a-880c-a5b91d2714d7",
      "meta": {
        "profile": [ "http://hl7.org/fhir/us/qicore/StructureDefinition/qicore-organization" ]
      },
      "identifier": [ {
        "use": "temp",
        "system": "urn:oid:2.16.840.1.113883.4.4",
        "value": "21-3259825"
      } ],
      "active": true,
      "type": [ {
        "coding": [ {
          "system": "http://terminology.hl7.org/CodeSystem/organization-type",
          "code": "pay",
          "display": "Payer"
        } ]
      } ],
      "name": "Blue Cross Blue Shield of Texas",
      "telecom": [ {
        "system": "phone",
        "value": "(+1) 972-766-6900"
      } ],
      "address": [ {
        "use": "billing",
        "type": "postal",
        "line": [ "P.O. Box 660044" ],
        "city": "Dallas",
        "state": "TX",
        "postalCode": "75266-0044",
        "country": "USA"
      } ]
    },
    "request": {
      "method": "PUT",
      "url": "Organization/8f016765-35e2-475a-880c-a5b91d2714d7"
    }
  }, {
    "fullUrl": "https://madie.cms.gov/Practitioner/073ff56b-ec5c-4b02-b7df-2018ac2e32d4",
    "resource": {
      "resourceType": "Practitioner",
      "id": "073ff56b-ec5c-4b02-b7df-2018ac2e32d4",
      "meta": {
        "profile": [ "http://hl7.org/fhir/us/qicore/StructureDefinition/qicore-practitioner" ]
      },
      "identifier": [ {
        "system": "http://hl7.org/fhir/sid/us-npi",
        "value": "123456"
      } ],
      "name": [ {
        "family": "Evil",
        "prefix": [ "Dr" ]
      } ]
    },
    "request": {
      "method": "PUT",
      "url": "Practitioner/073ff56b-ec5c-4b02-b7df-2018ac2e32d4"
    }
  }, {
    "fullUrl": "https://madie.cms.gov/MeasureReport/2ad34823-a4ce-4bd0-8b85-150777ff6e7a",
    "resource": {
      "resourceType": "MeasureReport",
      "id": "2ad34823-a4ce-4bd0-8b85-150777ff6e7a",
      "meta": {
        "profile": [ "http://hl7.org/fhir/us/cqfmeasures/StructureDefinition/test-case-cqfm" ]
      },
      "contained": [ {
        "resourceType": "Parameters",
        "id": "2918c846-b219-4a16-bc10-a1c703348e3d-parameters",
        "parameter": [ {
          "name": "subject",
          "valueString": "37605377-59e5-4f97-b12f-797753056b96"
        } ]
      } ],
      "extension": [ {
        "url": "http://hl7.org/fhir/StructureDefinition/cqf-inputParameters",
        "valueReference": {
          "reference": "#2918c846-b219-4a16-bc10-a1c703348e3d-parameters"
        }
      }, {
        "url": "http://hl7.org/fhir/us/cqfmeasures/StructureDefinition/cqfm-testCaseDescription",
        "valueMarkdown": "Psychological-neuropsychological-test-admin-scoring-physician"
      } ],
      "modifierExtension": [ {
        "url": "http://hl7.org/fhir/us/cqfmeasures/StructureDefinition/cqfm-isTestCase",
        "valueBoolean": true
      } ],
      "status": "complete",
      "type": "individual",
      "measure": "https://madie.cms.gov/Measure/CMS50FHIRCRLReceiptofSpecialistReport",
      "period": {
        "start": "2026-01-01",
        "end": "2026-12-31"
      },
      "group": [ {
        "id": "Group_1",
        "population": [ {
          "id": "InitialPopulation_1",
          "code": {
            "coding": [ {
              "system": "http://terminology.hl7.org/CodeSystem/measure-population",
              "code": "initial-population",
              "display": "Initial Population"
            } ]
          },
          "count": 1
        }, {
          "id": "Denominator_1",
          "code": {
            "coding": [ {
              "system": "http://terminology.hl7.org/CodeSystem/measure-population",
              "code": "denominator",
              "display": "Denominator"
            } ]
          },
          "count": 1
        }, {
          "id": "Numerator_1",
          "code": {
            "coding": [ {
              "system": "http://terminology.hl7.org/CodeSystem/measure-population",
              "code": "numerator",
              "display": "Numerator"
            } ]
          },
          "count": 0
        } ],
        "measureScore": {
          "value": 1.0
        }
      } ],
      "evaluatedResource": [ {
        "reference": "Patient/37605377-59e5-4f97-b12f-797753056b96"
      }, {
        "reference": "ServiceRequest/dedf672e-8602-4e76-831a-5a6ff5596aea"
      }, {
        "reference": "Procedure/935833af-af72-44bf-9274-c5ab9c6d25d5"
      }, {
        "reference": "Coverage/c074cf88-7f33-4ea7-b3ca-1fb6b5cd6986"
      }, {
        "reference": "Organization/8f016765-35e2-475a-880c-a5b91d2714d7"
      }, {
        "reference": "Practitioner/073ff56b-ec5c-4b02-b7df-2018ac2e32d4"
      } ]
    },
    "request": {
      "method": "PUT",
      "url": "MeasureReport/2ad34823-a4ce-4bd0-8b85-150777ff6e7a"
    }
  } ]
}