{"resourceType":"Bundle","id":"tests-623a7f40-c265-4e42-a5c5-6f54e20b19df-bundle","type":"transaction","entry":[{"fullUrl":"Encounter/98ff9db4-322b-4776-929d-89365f7d9308","resource":{"resourceType":"Encounter","id":"98ff9db4-322b-4776-929d-89365f7d9308","meta":{"profile":["http://hl7.org/fhir/us/qicore/StructureDefinition/qicore-encounter"]},"status":"finished","class":{"system":"http://terminology.hl7.org/CodeSystem/v3-ActCode","code":"AMB","display":"ambulatory"},"type":[{"coding":[{"system":"http://snomed.info/sct","version":"http://snomed.info/sct/731000124108/version/20240301","code":"185464004","display":"Out of hours visit - not night visit (procedure)","userSelected":false}]}],"subject":{"reference":"Patient/623a7f40-c265-4e42-a5c5-6f54e20b19df"},"period":{"start":"2026-05-01T08:00:00.000+00:00","end":"2026-05-01T08:30:00.000+00:00"}},"request":{"method":"PUT","url":"Encounter/98ff9db4-322b-4776-929d-89365f7d9308"}},{"fullUrl":"Observation/da14892c-c6f0-46bc-84c1-6fbd6790bb03","resource":{"resourceType":"Observation","id":"da14892c-c6f0-46bc-84c1-6fbd6790bb03","meta":{"profile":["http://hl7.org/fhir/us/qicore/StructureDefinition/qicore-observation-screening-assessment"]},"status":"final","category":[{"coding":[{"system":"http://terminology.hl7.org/CodeSystem/observation-category","code":"survey","display":"Survey"}]}],"code":{"coding":[{"system":"http://loinc.org","version":"2.76","code":"80976-4","display":"International Prostate Symptom Score [IPSS]","userSelected":true}]},"subject":{"reference":"Patient/623a7f40-c265-4e42-a5c5-6f54e20b19df"},"effectiveDateTime":"2026-01-02T08:15:00.000+00:00","valueInteger":4},"request":{"method":"PUT","url":"Observation/da14892c-c6f0-46bc-84c1-6fbd6790bb03"}},{"fullUrl":"MeasureReport/6d8870cc-41ee-423f-b7a2-403ea17b0ce8","resource":{"resourceType":"MeasureReport","id":"6d8870cc-41ee-423f-b7a2-403ea17b0ce8","meta":{"profile":["http://hl7.org/fhir/us/cqfmeasures/StructureDefinition/test-case-cqfm"]},"contained":[{"resourceType":"Parameters","id":"d0d99bdc-09ed-4e2f-9478-f66ee5b4cc63-parameters","parameter":[{"name":"subject","valueString":"623a7f40-c265-4e42-a5c5-6f54e20b19df"}]}],"extension":[{"url":"http://hl7.org/fhir/StructureDefinition/cqf-inputParameters","valueReference":{"reference":"#d0d99bdc-09ed-4e2f-9478-f66ee5b4cc63-parameters"}},{"url":"http://hl7.org/fhir/us/cqfmeasures/StructureDefinition/cqfm-testCaseDescription","valueMarkdown":"Patient meeting initial population and denominator criteria fails denominator exclusion despite having Urinary Retention Diagnosis because it is of unconfirmed status"}],"modifierExtension":[{"url":"http://hl7.org/fhir/us/cqfmeasures/StructureDefinition/cqfm-isTestCase","valueBoolean":true}],"status":"complete","type":"individual","measure":"https://madie.cms.gov/Measure/CMS771FHIRUrinarySymptomScoreChangeBenignProstaticHyperplasia","period":{"start":"2026-01-01","end":"2026-12-31"},"group":[{"id":"Group_1","population":[{"id":"InitialPopulation_1","code":{"coding":[{"system":"http://terminology.hl7.org/CodeSystem/measure-population","code":"initial-population","display":"Initial Population"}]},"count":1},{"id":"Denominator_1","code":{"coding":[{"system":"http://terminology.hl7.org/CodeSystem/measure-population","code":"denominator","display":"Denominator"}]},"count":1},{"id":"DenominatorExclusion_1","code":{"coding":[{"system":"http://terminology.hl7.org/CodeSystem/measure-population","code":"denominator-exclusion","display":"Denominator Exclusion"}]},"count":0},{"id":"Numerator_1","code":{"coding":[{"system":"http://terminology.hl7.org/CodeSystem/measure-population","code":"numerator","display":"Numerator"}]},"count":0}],"measureScore":{"value":1.0}}],"evaluatedResource":[{"reference":"Patient/623a7f40-c265-4e42-a5c5-6f54e20b19df"},{"reference":"Encounter/98ff9db4-322b-4776-929d-89365f7d9308"},{"reference":"Condition/260869a1-870d-4dec-bfde-b9fa2aa38a3d"},{"reference":"Condition/de119c12-eb0b-4083-8842-5fe552aeaa64"},{"reference":"Observation/da14892c-c6f0-46bc-84c1-6fbd6790bb03"},{"reference":"Observation/b359f344-e933-4da2-82cc-f017dd0d3f19"}]},"request":{"method":"PUT","url":"MeasureReport/6d8870cc-41ee-423f-b7a2-403ea17b0ce8"}},{"fullUrl":"Observation/b359f344-e933-4da2-82cc-f017dd0d3f19","resource":{"resourceType":"Observation","id":"b359f344-e933-4da2-82cc-f017dd0d3f19","meta":{"profile":["http://hl7.org/fhir/us/qicore/StructureDefinition/qicore-observation-screening-assessment"]},"status":"final","category":[{"coding":[{"system":"http://terminology.hl7.org/CodeSystem/observation-category","code":"survey","display":"Survey"}]}],"code":{"coding":[{"system":"http://loinc.org","version":"2.76","code":"80976-4","display":"International Prostate Symptom Score [IPSS]","userSelected":true}]},"subject":{"reference":"Patient/623a7f40-c265-4e42-a5c5-6f54e20b19df"},"effectiveDateTime":"2026-12-01T08:15:00.000+00:00","valueInteger":2},"request":{"method":"PUT","url":"Observation/b359f344-e933-4da2-82cc-f017dd0d3f19"}},{"fullUrl":"Patient/623a7f40-c265-4e42-a5c5-6f54e20b19df","resource":{"resourceType":"Patient","id":"623a7f40-c265-4e42-a5c5-6f54e20b19df","meta":{"profile":["http://hl7.org/fhir/us/qicore/StructureDefinition/qicore-patient"]},"extension":[{"url":"http://hl7.org/fhir/us/core/StructureDefinition/us-core-race","extension":[{"url":"ombCategory","valueCoding":{"system":"urn:oid:2.16.840.1.113883.6.238","code":"2054-5","display":"Black or African American"}},{"url":"text","valueString":"Black or African American"}]},{"url":"http://hl7.org/fhir/us/core/StructureDefinition/us-core-ethnicity","extension":[{"url":"ombCategory","valueCoding":{"system":"urn:oid:2.16.840.1.113883.6.238","code":"2135-2","display":"Hispanic or Latino","userSelected":true}},{"url":"text","valueString":"Hispanic or Latino"}]}],"identifier":[{"type":{"coding":[{"system":"http://terminology.hl7.org/CodeSystem/v2-0203","code":"MR"}]},"system":"https://GoodHealthCare.com","value":"960082319426"}],"name":[{"family":"DENEXFail","given":["UrinaryRetentionDxUnconfirmed"]}],"gender":"male","birthDate":"1970-01-01"},"request":{"method":"PUT","url":"Patient/623a7f40-c265-4e42-a5c5-6f54e20b19df"}},{"fullUrl":"Condition/260869a1-870d-4dec-bfde-b9fa2aa38a3d","resource":{"resourceType":"Condition","id":"260869a1-870d-4dec-bfde-b9fa2aa38a3d","meta":{"profile":["http://hl7.org/fhir/us/qicore/StructureDefinition/qicore-condition-encounter-diagnosis"]},"clinicalStatus":{"coding":[{"system":"http://terminology.hl7.org/CodeSystem/condition-clinical","code":"active","display":"active","userSelected":true}]},"verificationStatus":{"coding":[{"system":"http://terminology.hl7.org/CodeSystem/condition-ver-status","code":"confirmed","display":"Confirmed","userSelected":true}]},"category":[{"coding":[{"system":"http://terminology.hl7.org/CodeSystem/condition-category","code":"encounter-diagnosis","display":"Encounter Diagnosis"}]}],"code":{"coding":[{"system":"http://hl7.org/fhir/sid/icd-10-cm","version":"2024","code":"N40.1","display":"Benign prostatic hyperplasia with lower urinary tract symptoms","userSelected":true}]},"subject":{"reference":"Patient/623a7f40-c265-4e42-a5c5-6f54e20b19df"},"onsetPeriod":{"start":"2025-12-14T15:00:00.000+00:00"}},"request":{"method":"PUT","url":"Condition/260869a1-870d-4dec-bfde-b9fa2aa38a3d"}},{"fullUrl":"Condition/de119c12-eb0b-4083-8842-5fe552aeaa64","resource":{"resourceType":"Condition","id":"de119c12-eb0b-4083-8842-5fe552aeaa64","meta":{"profile":["http://hl7.org/fhir/us/qicore/StructureDefinition/qicore-condition-encounter-diagnosis"]},"clinicalStatus":{"coding":[{"system":"http://terminology.hl7.org/CodeSystem/condition-clinical","code":"active","display":"active","userSelected":true}]},"verificationStatus":{"coding":[{"system":"http://terminology.hl7.org/CodeSystem/condition-ver-status","code":"unconfirmed","display":"Unconfirmed","userSelected":true}]},"category":[{"coding":[{"system":"http://terminology.hl7.org/CodeSystem/condition-category","code":"encounter-diagnosis","display":"Encounter Diagnosis"}]}],"code":{"coding":[{"system":"http://snomed.info/sct","version":"http://snomed.info/sct/731000124108/version/20240301","code":"267064002","display":"Retention of urine (disorder)","userSelected":false}]},"subject":{"reference":"Patient/623a7f40-c265-4e42-a5c5-6f54e20b19df"},"onsetPeriod":{"start":"2025-12-31T00:00:00.000+00:00"}},"request":{"method":"PUT","url":"Condition/de119c12-eb0b-4083-8842-5fe552aeaa64"}},{"fullUrl":"Bundle/c5b2c76c-cc6a-11ed-894b-325096b39f47","resource":{"resourceType":"Bundle","id":"c5b2c76c-cc6a-11ed-894b-325096b39f47","type":"transaction","entry":[{"fullUrl":"https://madie.cms.gov/Patient/623a7f40-c265-4e42-a5c5-6f54e20b19df","resource":{"resourceType":"Patient","id":"623a7f40-c265-4e42-a5c5-6f54e20b19df","meta":{"profile":["http://hl7.org/fhir/us/qicore/StructureDefinition/qicore-patient"]},"extension":[{"url":"http://hl7.org/fhir/us/core/StructureDefinition/us-core-race","extension":[{"url":"ombCategory","valueCoding":{"system":"urn:oid:2.16.840.1.113883.6.238","code":"2054-5","display":"Black or African American"}},{"url":"text","valueString":"Black or African American"}]},{"url":"http://hl7.org/fhir/us/core/StructureDefinition/us-core-ethnicity","extension":[{"url":"ombCategory","valueCoding":{"system":"urn:oid:2.16.840.1.113883.6.238","code":"2135-2","display":"Hispanic or Latino","userSelected":true}},{"url":"text","valueString":"Hispanic or Latino"}]}],"identifier":[{"type":{"coding":[{"system":"http://terminology.hl7.org/CodeSystem/v2-0203","code":"MR"}]},"system":"https://GoodHealthCare.com","value":"960082319426"}],"name":[{"family":"DENEXFail","given":["UrinaryRetentionDxUnconfirmed"]}],"gender":"male","birthDate":"1970-01-01"},"request":{"method":"PUT","url":"Patient/623a7f40-c265-4e42-a5c5-6f54e20b19df"}},{"fullUrl":"https://madie.cms.gov/Encounter/98ff9db4-322b-4776-929d-89365f7d9308","resource":{"resourceType":"Encounter","id":"98ff9db4-322b-4776-929d-89365f7d9308","meta":{"profile":["http://hl7.org/fhir/us/qicore/StructureDefinition/qicore-encounter"]},"status":"finished","class":{"system":"http://terminology.hl7.org/CodeSystem/v3-ActCode","code":"AMB","display":"ambulatory"},"type":[{"coding":[{"system":"http://snomed.info/sct","version":"http://snomed.info/sct/731000124108/version/20240301","code":"185464004","display":"Out of hours visit - not night visit (procedure)","userSelected":false}]}],"subject":{"reference":"Patient/623a7f40-c265-4e42-a5c5-6f54e20b19df"},"period":{"start":"2026-05-01T08:00:00.000+00:00","end":"2026-05-01T08:30:00.000+00:00"}},"request":{"method":"PUT","url":"Encounter/98ff9db4-322b-4776-929d-89365f7d9308"}},{"fullUrl":"https://madie.cms.gov/Condition/260869a1-870d-4dec-bfde-b9fa2aa38a3d","resource":{"resourceType":"Condition","id":"260869a1-870d-4dec-bfde-b9fa2aa38a3d","meta":{"profile":["http://hl7.org/fhir/us/qicore/StructureDefinition/qicore-condition-encounter-diagnosis"]},"clinicalStatus":{"coding":[{"system":"http://terminology.hl7.org/CodeSystem/condition-clinical","code":"active","display":"active","userSelected":true}]},"verificationStatus":{"coding":[{"system":"http://terminology.hl7.org/CodeSystem/condition-ver-status","code":"confirmed","display":"Confirmed","userSelected":true}]},"category":[{"coding":[{"system":"http://terminology.hl7.org/CodeSystem/condition-category","code":"encounter-diagnosis","display":"Encounter Diagnosis"}]}],"code":{"coding":[{"system":"http://hl7.org/fhir/sid/icd-10-cm","version":"2024","code":"N40.1","display":"Benign prostatic hyperplasia with lower urinary tract symptoms","userSelected":true}]},"subject":{"reference":"Patient/623a7f40-c265-4e42-a5c5-6f54e20b19df"},"onsetPeriod":{"start":"2025-12-14T15:00:00.000+00:00"}},"request":{"method":"PUT","url":"Condition/260869a1-870d-4dec-bfde-b9fa2aa38a3d"}},{"fullUrl":"https://madie.cms.gov/Condition/de119c12-eb0b-4083-8842-5fe552aeaa64","resource":{"resourceType":"Condition","id":"de119c12-eb0b-4083-8842-5fe552aeaa64","meta":{"profile":["http://hl7.org/fhir/us/qicore/StructureDefinition/qicore-condition-encounter-diagnosis"]},"clinicalStatus":{"coding":[{"system":"http://terminology.hl7.org/CodeSystem/condition-clinical","code":"active","display":"active","userSelected":true}]},"verificationStatus":{"coding":[{"system":"http://terminology.hl7.org/CodeSystem/condition-ver-status","code":"unconfirmed","display":"Unconfirmed","userSelected":true}]},"category":[{"coding":[{"system":"http://terminology.hl7.org/CodeSystem/condition-category","code":"encounter-diagnosis","display":"Encounter Diagnosis"}]}],"code":{"coding":[{"system":"http://snomed.info/sct","version":"http://snomed.info/sct/731000124108/version/20240301","code":"267064002","display":"Retention of urine (disorder)","userSelected":false}]},"subject":{"reference":"Patient/623a7f40-c265-4e42-a5c5-6f54e20b19df"},"onsetPeriod":{"start":"2025-12-31T00:00:00.000+00:00"}},"request":{"method":"PUT","url":"Condition/de119c12-eb0b-4083-8842-5fe552aeaa64"}},{"fullUrl":"https://madie.cms.gov/Observation/da14892c-c6f0-46bc-84c1-6fbd6790bb03","resource":{"resourceType":"Observation","id":"da14892c-c6f0-46bc-84c1-6fbd6790bb03","meta":{"profile":["http://hl7.org/fhir/us/qicore/StructureDefinition/qicore-observation-screening-assessment"]},"status":"final","category":[{"coding":[{"system":"http://terminology.hl7.org/CodeSystem/observation-category","code":"survey","display":"Survey"}]}],"code":{"coding":[{"system":"http://loinc.org","version":"2.76","code":"80976-4","display":"International Prostate Symptom Score [IPSS]","userSelected":true}]},"subject":{"reference":"Patient/623a7f40-c265-4e42-a5c5-6f54e20b19df"},"effectiveDateTime":"2026-01-02T08:15:00.000+00:00","valueInteger":4},"request":{"method":"PUT","url":"Observation/da14892c-c6f0-46bc-84c1-6fbd6790bb03"}},{"fullUrl":"https://madie.cms.gov/Observation/b359f344-e933-4da2-82cc-f017dd0d3f19","resource":{"resourceType":"Observation","id":"b359f344-e933-4da2-82cc-f017dd0d3f19","meta":{"profile":["http://hl7.org/fhir/us/qicore/StructureDefinition/qicore-observation-screening-assessment"]},"status":"final","category":[{"coding":[{"system":"http://terminology.hl7.org/CodeSystem/observation-category","code":"survey","display":"Survey"}]}],"code":{"coding":[{"system":"http://loinc.org","version":"2.76","code":"80976-4","display":"International Prostate Symptom Score [IPSS]","userSelected":true}]},"subject":{"reference":"Patient/623a7f40-c265-4e42-a5c5-6f54e20b19df"},"effectiveDateTime":"2026-12-01T08:15:00.000+00:00","valueInteger":2},"request":{"method":"PUT","url":"Observation/b359f344-e933-4da2-82cc-f017dd0d3f19"}},{"fullUrl":"https://madie.cms.gov/MeasureReport/6d8870cc-41ee-423f-b7a2-403ea17b0ce8","resource":{"resourceType":"MeasureReport","id":"6d8870cc-41ee-423f-b7a2-403ea17b0ce8","meta":{"profile":["http://hl7.org/fhir/us/cqfmeasures/StructureDefinition/test-case-cqfm"]},"contained":[{"resourceType":"Parameters","id":"d0d99bdc-09ed-4e2f-9478-f66ee5b4cc63-parameters","parameter":[{"name":"subject","valueString":"623a7f40-c265-4e42-a5c5-6f54e20b19df"}]}],"extension":[{"url":"http://hl7.org/fhir/StructureDefinition/cqf-inputParameters","valueReference":{"reference":"#d0d99bdc-09ed-4e2f-9478-f66ee5b4cc63-parameters"}},{"url":"http://hl7.org/fhir/us/cqfmeasures/StructureDefinition/cqfm-testCaseDescription","valueMarkdown":"Patient meeting initial population and denominator criteria fails denominator exclusion despite having Urinary Retention Diagnosis because it is of unconfirmed status"}],"modifierExtension":[{"url":"http://hl7.org/fhir/us/cqfmeasures/StructureDefinition/cqfm-isTestCase","valueBoolean":true}],"status":"complete","type":"individual","measure":"https://madie.cms.gov/Measure/CMS771FHIRUrinarySymptomScoreChangeBenignProstaticHyperplasia","period":{"start":"2026-01-01","end":"2026-12-31"},"group":[{"id":"Group_1","population":[{"id":"InitialPopulation_1","code":{"coding":[{"system":"http://terminology.hl7.org/CodeSystem/measure-population","code":"initial-population","display":"Initial Population"}]},"count":1},{"id":"Denominator_1","code":{"coding":[{"system":"http://terminology.hl7.org/CodeSystem/measure-population","code":"denominator","display":"Denominator"}]},"count":1},{"id":"DenominatorExclusion_1","code":{"coding":[{"system":"http://terminology.hl7.org/CodeSystem/measure-population","code":"denominator-exclusion","display":"Denominator Exclusion"}]},"count":0},{"id":"Numerator_1","code":{"coding":[{"system":"http://terminology.hl7.org/CodeSystem/measure-population","code":"numerator","display":"Numerator"}]},"count":0}],"measureScore":{"value":1.0}}],"evaluatedResource":[{"reference":"Patient/623a7f40-c265-4e42-a5c5-6f54e20b19df"},{"reference":"Encounter/98ff9db4-322b-4776-929d-89365f7d9308"},{"reference":"Condition/260869a1-870d-4dec-bfde-b9fa2aa38a3d"},{"reference":"Condition/de119c12-eb0b-4083-8842-5fe552aeaa64"},{"reference":"Observation/da14892c-c6f0-46bc-84c1-6fbd6790bb03"},{"reference":"Observation/b359f344-e933-4da2-82cc-f017dd0d3f19"}]},"request":{"method":"PUT","url":"MeasureReport/6d8870cc-41ee-423f-b7a2-403ea17b0ce8"}}]},"request":{"method":"PUT","url":"Bundle/c5b2c76c-cc6a-11ed-894b-325096b39f47"}}]}