{"resourceType":"Bundle","id":"tests-844dab9e-f34d-41dc-bd89-1440551471a6-bundle","type":"transaction","entry":[{"fullUrl":"Bundle/62a8967831a203bdc7237521","resource":{"resourceType":"Bundle","id":"62a8967831a203bdc7237521","type":"transaction","entry":[{"fullUrl":"https://madie.cms.gov/Patient/844dab9e-f34d-41dc-bd89-1440551471a6","resource":{"resourceType":"Patient","id":"844dab9e-f34d-41dc-bd89-1440551471a6","meta":{"profile":["http://hl7.org/fhir/us/qicore/StructureDefinition/qicore-patient"]},"extension":[{"url":"http://hl7.org/fhir/us/core/StructureDefinition/us-core-race","extension":[{"url":"ombCategory","valueCoding":{"system":"urn:oid:2.16.840.1.113883.6.238","code":"2106-3","display":"White"}},{"url":"text","valueString":"White"}]},{"url":"http://hl7.org/fhir/us/core/StructureDefinition/us-core-ethnicity","extension":[{"url":"ombCategory","valueCoding":{"system":"urn:oid:2.16.840.1.113883.6.238","code":"2186-5","display":"Non Hispanic or Latino"}},{"url":"text","valueString":"Non Hispanic or Latino"}]}],"identifier":[{"type":{"coding":[{"system":"http://terminology.hl7.org/CodeSystem/v2-0203","code":"MR"}]},"system":"https://myGoodHealthcare.com/","value":"4851351681610651"}],"name":[{"family":"IPPass","given":["BPHdxGT6MoB4StartofMP"]}],"gender":"male","birthDate":"1971-06-01"},"request":{"method":"PUT","url":"Patient/844dab9e-f34d-41dc-bd89-1440551471a6"}},{"fullUrl":"https://madie.cms.gov/Encounter/ed27e005-0c29-4b4d-9f2b-6b9acd774612","resource":{"resourceType":"Encounter","id":"ed27e005-0c29-4b4d-9f2b-6b9acd774612","meta":{"profile":["http://hl7.org/fhir/us/qicore/StructureDefinition/qicore-encounter"]},"status":"finished","class":{"system":"http://terminology.hl7.org/CodeSystem/v3-ActCode","code":"AMB","display":"ambulatory"},"type":[{"coding":[{"system":"http://snomed.info/sct","version":"http://snomed.info/sct/731000124108/version/20240301","code":"185463005","display":"Visit out of hours (procedure)"}]}],"subject":{"reference":"Patient/844dab9e-f34d-41dc-bd89-1440551471a6"},"period":{"start":"2026-02-12T08:00:00.000+00:00","end":"2026-02-12T08:15:00.000+00:00"}},"request":{"method":"PUT","url":"Encounter/ed27e005-0c29-4b4d-9f2b-6b9acd774612"}},{"fullUrl":"https://madie.cms.gov/Condition/7208d5c6-8254-4838-adf7-e69ac8571a99","resource":{"resourceType":"Condition","id":"7208d5c6-8254-4838-adf7-e69ac8571a99","meta":{"profile":["http://hl7.org/fhir/us/qicore/StructureDefinition/qicore-condition-encounter-diagnosis"]},"clinicalStatus":{"coding":[{"system":"http://terminology.hl7.org/CodeSystem/condition-clinical","code":"active","display":"active"}]},"verificationStatus":{"coding":[{"system":"http://terminology.hl7.org/CodeSystem/condition-ver-status","code":"confirmed","display":"Confirmed"}]},"category":[{"coding":[{"system":"http://terminology.hl7.org/CodeSystem/condition-category","code":"encounter-diagnosis","display":"Encounter Diagnosis"}]}],"code":{"coding":[{"system":"http://hl7.org/fhir/sid/icd-10-cm","version":"2024","code":"N40.1","display":"Benign prostatic hyperplasia with lower urinary tract symptoms"}]},"subject":{"reference":"Patient/844dab9e-f34d-41dc-bd89-1440551471a6"},"onsetPeriod":{"start":"2025-01-15T08:00:00.000+00:00"}},"request":{"method":"PUT","url":"Condition/7208d5c6-8254-4838-adf7-e69ac8571a99"}},{"fullUrl":"https://madie.cms.gov/Condition/faeaf645-176c-44ea-a311-21b89aec84e7","resource":{"resourceType":"Condition","id":"faeaf645-176c-44ea-a311-21b89aec84e7","meta":{"profile":["http://hl7.org/fhir/us/qicore/StructureDefinition/qicore-condition-encounter-diagnosis"]},"clinicalStatus":{"coding":[{"system":"http://terminology.hl7.org/CodeSystem/condition-clinical","code":"active","display":"active"}]},"verificationStatus":{"coding":[{"system":"http://terminology.hl7.org/CodeSystem/condition-ver-status","code":"confirmed","display":"Confirmed"}]},"category":[{"coding":[{"system":"http://terminology.hl7.org/CodeSystem/condition-category","code":"encounter-diagnosis","display":"Encounter Diagnosis"}]}],"code":{"coding":[{"system":"http://hl7.org/fhir/sid/icd-10-cm","version":"2024","code":"N40.1","display":"Benign prostatic hyperplasia with lower urinary tract symptoms"}]},"subject":{"reference":"Patient/844dab9e-f34d-41dc-bd89-1440551471a6"},"onsetPeriod":{"start":"2025-12-12T08:00:00.000+00:00"}},"request":{"method":"PUT","url":"Condition/faeaf645-176c-44ea-a311-21b89aec84e7"}},{"fullUrl":"https://madie.cms.gov/Observation/e7db2cb3-a803-48d3-afc8-e2da2e57732d","resource":{"resourceType":"Observation","id":"e7db2cb3-a803-48d3-afc8-e2da2e57732d","meta":{"profile":["http://hl7.org/fhir/us/qicore/StructureDefinition/qicore-observation-screening-assessment"]},"status":"final","category":[{"coding":[{"system":"http://terminology.hl7.org/CodeSystem/observation-category","code":"survey","display":"Survey"}]}],"code":{"coding":[{"system":"http://loinc.org","version":"2.76","code":"80976-4","display":"International Prostate Symptom Score [IPSS]"}]},"subject":{"reference":"Patient/844dab9e-f34d-41dc-bd89-1440551471a6"},"effectiveDateTime":"2026-12-11T08:00:00.000+00:00","valueInteger":5},"request":{"method":"PUT","url":"Observation/e7db2cb3-a803-48d3-afc8-e2da2e57732d"}},{"fullUrl":"https://madie.cms.gov/Observation/94f11a89-2910-416c-952d-a1ec5c298e16","resource":{"resourceType":"Observation","id":"94f11a89-2910-416c-952d-a1ec5c298e16","meta":{"profile":["http://hl7.org/fhir/us/qicore/StructureDefinition/qicore-observation-screening-assessment"]},"status":"final","category":[{"coding":[{"system":"http://terminology.hl7.org/CodeSystem/observation-category","code":"survey","display":"Survey"}]}],"code":{"coding":[{"system":"http://loinc.org","version":"2.76","code":"80976-4","display":"International Prostate Symptom Score [IPSS]"}]},"subject":{"reference":"Patient/844dab9e-f34d-41dc-bd89-1440551471a6"},"effectiveDateTime":"2025-12-13T23:59:00.000+00:00","valueInteger":2},"request":{"method":"PUT","url":"Observation/94f11a89-2910-416c-952d-a1ec5c298e16"}},{"fullUrl":"https://madie.cms.gov/MeasureReport/d39f430f-1b41-4c96-92e0-8ad966008d61","resource":{"resourceType":"MeasureReport","id":"d39f430f-1b41-4c96-92e0-8ad966008d61","meta":{"profile":["http://hl7.org/fhir/us/cqfmeasures/StructureDefinition/test-case-cqfm"]},"contained":[{"resourceType":"Parameters","id":"5df3c98c-d4ab-4d5e-a3ec-f2a8663ff665-parameters","parameter":[{"name":"subject","valueString":"844dab9e-f34d-41dc-bd89-1440551471a6"}]}],"extension":[{"url":"http://hl7.org/fhir/StructureDefinition/cqf-inputParameters","valueReference":{"reference":"#5df3c98c-d4ab-4d5e-a3ec-f2a8663ff665-parameters"}},{"url":"http://hl7.org/fhir/us/cqfmeasures/StructureDefinition/cqfm-testCaseDescription","valueMarkdown":"Male Patient with OV, Initial and Followup USS Assessment and 2 BPH of which earliest GT 6 months before start of MP and one which falls in the 6 month window around the start of the MP. "}],"modifierExtension":[{"url":"http://hl7.org/fhir/us/cqfmeasures/StructureDefinition/cqfm-isTestCase","valueBoolean":true}],"status":"complete","type":"individual","measure":"https://madie.cms.gov/Measure/CMS771FHIRUrinarySymptomScoreChangeBenignProstaticHyperplasia","period":{"start":"2026-01-01","end":"2026-12-31"},"group":[{"id":"Group_1","population":[{"id":"InitialPopulation_1","code":{"coding":[{"system":"http://terminology.hl7.org/CodeSystem/measure-population","code":"initial-population","display":"Initial Population"}]},"count":1},{"id":"Denominator_1","code":{"coding":[{"system":"http://terminology.hl7.org/CodeSystem/measure-population","code":"denominator","display":"Denominator"}]},"count":1},{"id":"DenominatorExclusion_1","code":{"coding":[{"system":"http://terminology.hl7.org/CodeSystem/measure-population","code":"denominator-exclusion","display":"Denominator Exclusion"}]},"count":0},{"id":"Numerator_1","code":{"coding":[{"system":"http://terminology.hl7.org/CodeSystem/measure-population","code":"numerator","display":"Numerator"}]},"count":0}],"measureScore":{"value":1.0}}],"evaluatedResource":[{"reference":"Patient/844dab9e-f34d-41dc-bd89-1440551471a6"},{"reference":"Encounter/ed27e005-0c29-4b4d-9f2b-6b9acd774612"},{"reference":"Condition/7208d5c6-8254-4838-adf7-e69ac8571a99"},{"reference":"Condition/faeaf645-176c-44ea-a311-21b89aec84e7"},{"reference":"Observation/e7db2cb3-a803-48d3-afc8-e2da2e57732d"},{"reference":"Observation/94f11a89-2910-416c-952d-a1ec5c298e16"}]},"request":{"method":"PUT","url":"MeasureReport/d39f430f-1b41-4c96-92e0-8ad966008d61"}}]},"request":{"method":"PUT","url":"Bundle/62a8967831a203bdc7237521"}},{"fullUrl":"Patient/844dab9e-f34d-41dc-bd89-1440551471a6","resource":{"resourceType":"Patient","id":"844dab9e-f34d-41dc-bd89-1440551471a6","meta":{"profile":["http://hl7.org/fhir/us/qicore/StructureDefinition/qicore-patient"]},"extension":[{"url":"http://hl7.org/fhir/us/core/StructureDefinition/us-core-race","extension":[{"url":"ombCategory","valueCoding":{"system":"urn:oid:2.16.840.1.113883.6.238","code":"2106-3","display":"White"}},{"url":"text","valueString":"White"}]},{"url":"http://hl7.org/fhir/us/core/StructureDefinition/us-core-ethnicity","extension":[{"url":"ombCategory","valueCoding":{"system":"urn:oid:2.16.840.1.113883.6.238","code":"2186-5","display":"Non Hispanic or Latino"}},{"url":"text","valueString":"Non Hispanic or Latino"}]}],"identifier":[{"type":{"coding":[{"system":"http://terminology.hl7.org/CodeSystem/v2-0203","code":"MR"}]},"system":"https://myGoodHealthcare.com/","value":"4851351681610651"}],"name":[{"family":"IPPass","given":["BPHdxGT6MoB4StartofMP"]}],"gender":"male","birthDate":"1971-06-01"},"request":{"method":"PUT","url":"Patient/844dab9e-f34d-41dc-bd89-1440551471a6"}},{"fullUrl":"MeasureReport/d39f430f-1b41-4c96-92e0-8ad966008d61","resource":{"resourceType":"MeasureReport","id":"d39f430f-1b41-4c96-92e0-8ad966008d61","meta":{"profile":["http://hl7.org/fhir/us/cqfmeasures/StructureDefinition/test-case-cqfm"]},"contained":[{"resourceType":"Parameters","id":"5df3c98c-d4ab-4d5e-a3ec-f2a8663ff665-parameters","parameter":[{"name":"subject","valueString":"844dab9e-f34d-41dc-bd89-1440551471a6"}]}],"extension":[{"url":"http://hl7.org/fhir/StructureDefinition/cqf-inputParameters","valueReference":{"reference":"#5df3c98c-d4ab-4d5e-a3ec-f2a8663ff665-parameters"}},{"url":"http://hl7.org/fhir/us/cqfmeasures/StructureDefinition/cqfm-testCaseDescription","valueMarkdown":"Male Patient with OV, Initial and Followup USS Assessment and 2 BPH of which earliest GT 6 months before start of MP and one which falls in the 6 month window around the start of the MP. "}],"modifierExtension":[{"url":"http://hl7.org/fhir/us/cqfmeasures/StructureDefinition/cqfm-isTestCase","valueBoolean":true}],"status":"complete","type":"individual","measure":"https://madie.cms.gov/Measure/CMS771FHIRUrinarySymptomScoreChangeBenignProstaticHyperplasia","period":{"start":"2026-01-01","end":"2026-12-31"},"group":[{"id":"Group_1","population":[{"id":"InitialPopulation_1","code":{"coding":[{"system":"http://terminology.hl7.org/CodeSystem/measure-population","code":"initial-population","display":"Initial Population"}]},"count":1},{"id":"Denominator_1","code":{"coding":[{"system":"http://terminology.hl7.org/CodeSystem/measure-population","code":"denominator","display":"Denominator"}]},"count":1},{"id":"DenominatorExclusion_1","code":{"coding":[{"system":"http://terminology.hl7.org/CodeSystem/measure-population","code":"denominator-exclusion","display":"Denominator Exclusion"}]},"count":0},{"id":"Numerator_1","code":{"coding":[{"system":"http://terminology.hl7.org/CodeSystem/measure-population","code":"numerator","display":"Numerator"}]},"count":0}],"measureScore":{"value":1.0}}],"evaluatedResource":[{"reference":"Patient/844dab9e-f34d-41dc-bd89-1440551471a6"},{"reference":"Encounter/ed27e005-0c29-4b4d-9f2b-6b9acd774612"},{"reference":"Condition/7208d5c6-8254-4838-adf7-e69ac8571a99"},{"reference":"Condition/faeaf645-176c-44ea-a311-21b89aec84e7"},{"reference":"Observation/e7db2cb3-a803-48d3-afc8-e2da2e57732d"},{"reference":"Observation/94f11a89-2910-416c-952d-a1ec5c298e16"}]},"request":{"method":"PUT","url":"MeasureReport/d39f430f-1b41-4c96-92e0-8ad966008d61"}},{"fullUrl":"Condition/faeaf645-176c-44ea-a311-21b89aec84e7","resource":{"resourceType":"Condition","id":"faeaf645-176c-44ea-a311-21b89aec84e7","meta":{"profile":["http://hl7.org/fhir/us/qicore/StructureDefinition/qicore-condition-encounter-diagnosis"]},"clinicalStatus":{"coding":[{"system":"http://terminology.hl7.org/CodeSystem/condition-clinical","code":"active","display":"active"}]},"verificationStatus":{"coding":[{"system":"http://terminology.hl7.org/CodeSystem/condition-ver-status","code":"confirmed","display":"Confirmed"}]},"category":[{"coding":[{"system":"http://terminology.hl7.org/CodeSystem/condition-category","code":"encounter-diagnosis","display":"Encounter Diagnosis"}]}],"code":{"coding":[{"system":"http://hl7.org/fhir/sid/icd-10-cm","version":"2024","code":"N40.1","display":"Benign prostatic hyperplasia with lower urinary tract symptoms"}]},"subject":{"reference":"Patient/844dab9e-f34d-41dc-bd89-1440551471a6"},"onsetPeriod":{"start":"2025-12-12T08:00:00.000+00:00"}},"request":{"method":"PUT","url":"Condition/faeaf645-176c-44ea-a311-21b89aec84e7"}},{"fullUrl":"Observation/e7db2cb3-a803-48d3-afc8-e2da2e57732d","resource":{"resourceType":"Observation","id":"e7db2cb3-a803-48d3-afc8-e2da2e57732d","meta":{"profile":["http://hl7.org/fhir/us/qicore/StructureDefinition/qicore-observation-screening-assessment"]},"status":"final","category":[{"coding":[{"system":"http://terminology.hl7.org/CodeSystem/observation-category","code":"survey","display":"Survey"}]}],"code":{"coding":[{"system":"http://loinc.org","version":"2.76","code":"80976-4","display":"International Prostate Symptom Score [IPSS]"}]},"subject":{"reference":"Patient/844dab9e-f34d-41dc-bd89-1440551471a6"},"effectiveDateTime":"2026-12-11T08:00:00.000+00:00","valueInteger":5},"request":{"method":"PUT","url":"Observation/e7db2cb3-a803-48d3-afc8-e2da2e57732d"}},{"fullUrl":"Encounter/ed27e005-0c29-4b4d-9f2b-6b9acd774612","resource":{"resourceType":"Encounter","id":"ed27e005-0c29-4b4d-9f2b-6b9acd774612","meta":{"profile":["http://hl7.org/fhir/us/qicore/StructureDefinition/qicore-encounter"]},"status":"finished","class":{"system":"http://terminology.hl7.org/CodeSystem/v3-ActCode","code":"AMB","display":"ambulatory"},"type":[{"coding":[{"system":"http://snomed.info/sct","version":"http://snomed.info/sct/731000124108/version/20240301","code":"185463005","display":"Visit out of hours (procedure)"}]}],"subject":{"reference":"Patient/844dab9e-f34d-41dc-bd89-1440551471a6"},"period":{"start":"2026-02-12T08:00:00.000+00:00","end":"2026-02-12T08:15:00.000+00:00"}},"request":{"method":"PUT","url":"Encounter/ed27e005-0c29-4b4d-9f2b-6b9acd774612"}},{"fullUrl":"Observation/94f11a89-2910-416c-952d-a1ec5c298e16","resource":{"resourceType":"Observation","id":"94f11a89-2910-416c-952d-a1ec5c298e16","meta":{"profile":["http://hl7.org/fhir/us/qicore/StructureDefinition/qicore-observation-screening-assessment"]},"status":"final","category":[{"coding":[{"system":"http://terminology.hl7.org/CodeSystem/observation-category","code":"survey","display":"Survey"}]}],"code":{"coding":[{"system":"http://loinc.org","version":"2.76","code":"80976-4","display":"International Prostate Symptom Score [IPSS]"}]},"subject":{"reference":"Patient/844dab9e-f34d-41dc-bd89-1440551471a6"},"effectiveDateTime":"2025-12-13T23:59:00.000+00:00","valueInteger":2},"request":{"method":"PUT","url":"Observation/94f11a89-2910-416c-952d-a1ec5c298e16"}},{"fullUrl":"Condition/7208d5c6-8254-4838-adf7-e69ac8571a99","resource":{"resourceType":"Condition","id":"7208d5c6-8254-4838-adf7-e69ac8571a99","meta":{"profile":["http://hl7.org/fhir/us/qicore/StructureDefinition/qicore-condition-encounter-diagnosis"]},"clinicalStatus":{"coding":[{"system":"http://terminology.hl7.org/CodeSystem/condition-clinical","code":"active","display":"active"}]},"verificationStatus":{"coding":[{"system":"http://terminology.hl7.org/CodeSystem/condition-ver-status","code":"confirmed","display":"Confirmed"}]},"category":[{"coding":[{"system":"http://terminology.hl7.org/CodeSystem/condition-category","code":"encounter-diagnosis","display":"Encounter Diagnosis"}]}],"code":{"coding":[{"system":"http://hl7.org/fhir/sid/icd-10-cm","version":"2024","code":"N40.1","display":"Benign prostatic hyperplasia with lower urinary tract symptoms"}]},"subject":{"reference":"Patient/844dab9e-f34d-41dc-bd89-1440551471a6"},"onsetPeriod":{"start":"2025-01-15T08:00:00.000+00:00"}},"request":{"method":"PUT","url":"Condition/7208d5c6-8254-4838-adf7-e69ac8571a99"}}]}