{"resourceType":"Bundle","id":"tests-e90d90a7-3071-44de-8089-ad7b6f5f3e5d-bundle","type":"transaction","entry":[{"resource":{"resourceType":"Condition","id":"fb8ce4ed-1733-4012-abd0-67d2b5d6654b","meta":{"profile":["http://hl7.org/fhir/us/qicore/StructureDefinition/qicore-condition-encounter-diagnosis"]},"clinicalStatus":{"coding":[{"system":"http://terminology.hl7.org/CodeSystem/condition-clinical","code":"active","display":"active","userSelected":true}]},"verificationStatus":{"coding":[{"system":"http://terminology.hl7.org/CodeSystem/condition-ver-status","code":"confirmed","display":"Confirmed","userSelected":true}]},"category":[{"coding":[{"system":"http://terminology.hl7.org/CodeSystem/condition-category","code":"encounter-diagnosis","display":"Encounter Diagnosis"}]}],"code":{"coding":[{"system":"http://snomed.info/sct","version":"http://snomed.info/sct/731000124108/version/20240301","code":"238136002","display":"Morbid obesity (disorder)"}]},"subject":{"reference":"Patient/e90d90a7-3071-44de-8089-ad7b6f5f3e5d"},"onsetPeriod":{"start":"2027-01-01T00:00:00.000+00:00"}},"request":{"method":"PUT","url":"Condition/fb8ce4ed-1733-4012-abd0-67d2b5d6654b"}},{"resource":{"resourceType":"Encounter","id":"3b4aab95-82b5-4602-ba28-602cf11cb1b6","meta":{"profile":["http://hl7.org/fhir/us/qicore/StructureDefinition/qicore-encounter"]},"status":"finished","class":{"system":"http://terminology.hl7.org/CodeSystem/v3-ActCode","code":"AMB","display":"ambulatory"},"type":[{"coding":[{"system":"http://snomed.info/sct","version":"http://snomed.info/sct/731000124108/version/20240301","code":"439740005","display":"Postoperative follow-up visit (procedure)","userSelected":true}]}],"subject":{"reference":"Patient/e90d90a7-3071-44de-8089-ad7b6f5f3e5d"},"period":{"start":"2026-05-01T08:00:00.000+00:00","end":"2026-05-01T08:30:00.000+00:00"}},"request":{"method":"PUT","url":"Encounter/3b4aab95-82b5-4602-ba28-602cf11cb1b6"}},{"resource":{"resourceType":"MeasureReport","id":"01091637-7157-4f52-91e1-b19144de4edd","meta":{"profile":["http://hl7.org/fhir/us/cqfmeasures/StructureDefinition/test-case-cqfm"]},"contained":[{"resourceType":"Parameters","id":"e259a3e3-823e-4317-a0b6-b1832cbec89e-parameters","parameter":[{"name":"subject","valueString":"e90d90a7-3071-44de-8089-ad7b6f5f3e5d"}]}],"extension":[{"url":"http://hl7.org/fhir/StructureDefinition/cqf-inputParameters","valueReference":{"reference":"#e259a3e3-823e-4317-a0b6-b1832cbec89e-parameters"}},{"url":"http://hl7.org/fhir/us/cqfmeasures/StructureDefinition/cqfm-testCaseDescription","valueMarkdown":"Patient with Morbid Obesity Dx which would qualify them for denominator exclusion except that the criteria that the diagnosis occur before the followup urinary assessment is not met."}],"modifierExtension":[{"url":"http://hl7.org/fhir/us/cqfmeasures/StructureDefinition/cqfm-isTestCase","valueBoolean":true}],"status":"complete","type":"individual","measure":"https://madie.cms.gov/Measure/CMS771FHIRUrinarySymptomScoreChangeBenignProstaticHyperplasia","period":{"start":"2026-01-01","end":"2026-12-31"},"group":[{"id":"Group_1","population":[{"id":"InitialPopulation_1","code":{"coding":[{"system":"http://terminology.hl7.org/CodeSystem/measure-population","code":"initial-population","display":"Initial Population"}]},"count":1},{"id":"Denominator_1","code":{"coding":[{"system":"http://terminology.hl7.org/CodeSystem/measure-population","code":"denominator","display":"Denominator"}]},"count":1},{"id":"DenominatorExclusion_1","code":{"coding":[{"system":"http://terminology.hl7.org/CodeSystem/measure-population","code":"denominator-exclusion","display":"Denominator Exclusion"}]},"count":0},{"id":"Numerator_1","code":{"coding":[{"system":"http://terminology.hl7.org/CodeSystem/measure-population","code":"numerator","display":"Numerator"}]},"count":1}],"measureScore":{"value":1.0}}],"evaluatedResource":[{"reference":"Patient/e90d90a7-3071-44de-8089-ad7b6f5f3e5d"},{"reference":"Encounter/3b4aab95-82b5-4602-ba28-602cf11cb1b6"},{"reference":"Condition/359682d7-36d5-4835-afb1-9779cb6f9a09"},{"reference":"Condition/fb8ce4ed-1733-4012-abd0-67d2b5d6654b"},{"reference":"Observation/a36f5073-7e2f-4e01-b120-82c4c00c6ecc"},{"reference":"Observation/9fb23a66-3f14-4c6b-b129-f303cc0404a2"}]},"request":{"method":"PUT","url":"MeasureReport/01091637-7157-4f52-91e1-b19144de4edd"}},{"resource":{"resourceType":"Condition","id":"359682d7-36d5-4835-afb1-9779cb6f9a09","meta":{"profile":["http://hl7.org/fhir/us/qicore/StructureDefinition/qicore-condition-encounter-diagnosis"]},"clinicalStatus":{"coding":[{"system":"http://terminology.hl7.org/CodeSystem/condition-clinical","code":"active","display":"active","userSelected":true}]},"verificationStatus":{"coding":[{"system":"http://terminology.hl7.org/CodeSystem/condition-ver-status","code":"confirmed","display":"Confirmed","userSelected":true}]},"category":[{"coding":[{"system":"http://terminology.hl7.org/CodeSystem/condition-category","code":"encounter-diagnosis","display":"Encounter Diagnosis"}]}],"code":{"coding":[{"system":"http://hl7.org/fhir/sid/icd-10-cm","version":"2024","code":"N40.1","display":"Benign prostatic hyperplasia with lower urinary tract symptoms","userSelected":true}]},"subject":{"reference":"Patient/e90d90a7-3071-44de-8089-ad7b6f5f3e5d"},"onsetPeriod":{"start":"2025-12-14T15:00:00.000+00:00"}},"request":{"method":"PUT","url":"Condition/359682d7-36d5-4835-afb1-9779cb6f9a09"}},{"resource":{"resourceType":"Patient","id":"e90d90a7-3071-44de-8089-ad7b6f5f3e5d","meta":{"profile":["http://hl7.org/fhir/us/qicore/StructureDefinition/qicore-patient"]},"extension":[{"url":"http://hl7.org/fhir/us/core/StructureDefinition/us-core-race","extension":[{"url":"ombCategory","valueCoding":{"system":"urn:oid:2.16.840.1.113883.6.238","code":"2106-3","display":"White"}},{"url":"text","valueString":"White"}]},{"url":"http://hl7.org/fhir/us/core/StructureDefinition/us-core-ethnicity","extension":[{"url":"ombCategory","valueCoding":{"system":"urn:oid:2.16.840.1.113883.6.238","code":"2135-2","display":"Hispanic or Latino","userSelected":true}},{"url":"text","valueString":"Hispanic or Latino"}]}],"identifier":[{"type":{"coding":[{"system":"http://terminology.hl7.org/CodeSystem/v2-0203","code":"MR"}]},"system":"https://smarthealth.com","value":"900082319426"}],"name":[{"family":"DENEXFail","given":["MorbidObesityDx1After2ndUSS"]}],"gender":"male","birthDate":"1966-01-02"},"request":{"method":"PUT","url":"Patient/e90d90a7-3071-44de-8089-ad7b6f5f3e5d"}},{"resource":{"resourceType":"Observation","id":"9fb23a66-3f14-4c6b-b129-f303cc0404a2","meta":{"profile":["http://hl7.org/fhir/us/qicore/StructureDefinition/qicore-observation-screening-assessment"]},"status":"final","category":[{"coding":[{"system":"http://terminology.hl7.org/CodeSystem/observation-category","code":"survey","display":"Survey"}]}],"code":{"coding":[{"system":"http://loinc.org","version":"2.76","code":"80976-4","display":"International Prostate Symptom Score [IPSS]","userSelected":true}]},"subject":{"reference":"Patient/e90d90a7-3071-44de-8089-ad7b6f5f3e5d"},"effectiveDateTime":"2026-12-01T08:15:00.000+00:00","valueInteger":2},"request":{"method":"PUT","url":"Observation/9fb23a66-3f14-4c6b-b129-f303cc0404a2"}},{"resource":{"resourceType":"Observation","id":"a36f5073-7e2f-4e01-b120-82c4c00c6ecc","meta":{"profile":["http://hl7.org/fhir/us/qicore/StructureDefinition/qicore-observation-screening-assessment"]},"status":"final","category":[{"coding":[{"system":"http://terminology.hl7.org/CodeSystem/observation-category","code":"survey","display":"Survey"}]}],"code":{"coding":[{"system":"http://loinc.org","version":"2.76","code":"80976-4","display":"International Prostate Symptom Score [IPSS]","userSelected":true}]},"subject":{"reference":"Patient/e90d90a7-3071-44de-8089-ad7b6f5f3e5d"},"effectiveDateTime":"2026-01-02T08:15:00.000+00:00","valueInteger":5},"request":{"method":"PUT","url":"Observation/a36f5073-7e2f-4e01-b120-82c4c00c6ecc"}},{"resource":{"resourceType":"Bundle","id":"c5b2c76c-cc6a-11ed-894b-325096b39f47","type":"transaction","entry":[{"fullUrl":"https://madie.cms.gov/Patient/e90d90a7-3071-44de-8089-ad7b6f5f3e5d","resource":{"resourceType":"Patient","id":"e90d90a7-3071-44de-8089-ad7b6f5f3e5d","meta":{"profile":["http://hl7.org/fhir/us/qicore/StructureDefinition/qicore-patient"]},"extension":[{"url":"http://hl7.org/fhir/us/core/StructureDefinition/us-core-race","extension":[{"url":"ombCategory","valueCoding":{"system":"urn:oid:2.16.840.1.113883.6.238","code":"2106-3","display":"White"}},{"url":"text","valueString":"White"}]},{"url":"http://hl7.org/fhir/us/core/StructureDefinition/us-core-ethnicity","extension":[{"url":"ombCategory","valueCoding":{"system":"urn:oid:2.16.840.1.113883.6.238","code":"2135-2","display":"Hispanic or Latino","userSelected":true}},{"url":"text","valueString":"Hispanic or Latino"}]}],"identifier":[{"type":{"coding":[{"system":"http://terminology.hl7.org/CodeSystem/v2-0203","code":"MR"}]},"system":"https://smarthealth.com","value":"900082319426"}],"name":[{"family":"DENEXFail","given":["MorbidObesityDx1After2ndUSS"]}],"gender":"male","birthDate":"1966-01-02"},"request":{"method":"PUT","url":"Patient/e90d90a7-3071-44de-8089-ad7b6f5f3e5d"}},{"fullUrl":"https://madie.cms.gov/Encounter/3b4aab95-82b5-4602-ba28-602cf11cb1b6","resource":{"resourceType":"Encounter","id":"3b4aab95-82b5-4602-ba28-602cf11cb1b6","meta":{"profile":["http://hl7.org/fhir/us/qicore/StructureDefinition/qicore-encounter"]},"status":"finished","class":{"system":"http://terminology.hl7.org/CodeSystem/v3-ActCode","code":"AMB","display":"ambulatory"},"type":[{"coding":[{"system":"http://snomed.info/sct","version":"http://snomed.info/sct/731000124108/version/20240301","code":"439740005","display":"Postoperative follow-up visit (procedure)","userSelected":true}]}],"subject":{"reference":"Patient/e90d90a7-3071-44de-8089-ad7b6f5f3e5d"},"period":{"start":"2026-05-01T08:00:00.000+00:00","end":"2026-05-01T08:30:00.000+00:00"}},"request":{"method":"PUT","url":"Encounter/3b4aab95-82b5-4602-ba28-602cf11cb1b6"}},{"fullUrl":"https://madie.cms.gov/Condition/359682d7-36d5-4835-afb1-9779cb6f9a09","resource":{"resourceType":"Condition","id":"359682d7-36d5-4835-afb1-9779cb6f9a09","meta":{"profile":["http://hl7.org/fhir/us/qicore/StructureDefinition/qicore-condition-encounter-diagnosis"]},"clinicalStatus":{"coding":[{"system":"http://terminology.hl7.org/CodeSystem/condition-clinical","code":"active","display":"active","userSelected":true}]},"verificationStatus":{"coding":[{"system":"http://terminology.hl7.org/CodeSystem/condition-ver-status","code":"confirmed","display":"Confirmed","userSelected":true}]},"category":[{"coding":[{"system":"http://terminology.hl7.org/CodeSystem/condition-category","code":"encounter-diagnosis","display":"Encounter Diagnosis"}]}],"code":{"coding":[{"system":"http://hl7.org/fhir/sid/icd-10-cm","version":"2024","code":"N40.1","display":"Benign prostatic hyperplasia with lower urinary tract symptoms","userSelected":true}]},"subject":{"reference":"Patient/e90d90a7-3071-44de-8089-ad7b6f5f3e5d"},"onsetPeriod":{"start":"2025-12-14T15:00:00.000+00:00"}},"request":{"method":"PUT","url":"Condition/359682d7-36d5-4835-afb1-9779cb6f9a09"}},{"fullUrl":"https://madie.cms.gov/Condition/fb8ce4ed-1733-4012-abd0-67d2b5d6654b","resource":{"resourceType":"Condition","id":"fb8ce4ed-1733-4012-abd0-67d2b5d6654b","meta":{"profile":["http://hl7.org/fhir/us/qicore/StructureDefinition/qicore-condition-encounter-diagnosis"]},"clinicalStatus":{"coding":[{"system":"http://terminology.hl7.org/CodeSystem/condition-clinical","code":"active","display":"active","userSelected":true}]},"verificationStatus":{"coding":[{"system":"http://terminology.hl7.org/CodeSystem/condition-ver-status","code":"confirmed","display":"Confirmed","userSelected":true}]},"category":[{"coding":[{"system":"http://terminology.hl7.org/CodeSystem/condition-category","code":"encounter-diagnosis","display":"Encounter Diagnosis"}]}],"code":{"coding":[{"system":"http://snomed.info/sct","version":"http://snomed.info/sct/731000124108/version/20240301","code":"238136002","display":"Morbid obesity (disorder)"}]},"subject":{"reference":"Patient/e90d90a7-3071-44de-8089-ad7b6f5f3e5d"},"onsetPeriod":{"start":"2027-01-01T00:00:00.000+00:00"}},"request":{"method":"PUT","url":"Condition/fb8ce4ed-1733-4012-abd0-67d2b5d6654b"}},{"fullUrl":"https://madie.cms.gov/Observation/a36f5073-7e2f-4e01-b120-82c4c00c6ecc","resource":{"resourceType":"Observation","id":"a36f5073-7e2f-4e01-b120-82c4c00c6ecc","meta":{"profile":["http://hl7.org/fhir/us/qicore/StructureDefinition/qicore-observation-screening-assessment"]},"status":"final","category":[{"coding":[{"system":"http://terminology.hl7.org/CodeSystem/observation-category","code":"survey","display":"Survey"}]}],"code":{"coding":[{"system":"http://loinc.org","version":"2.76","code":"80976-4","display":"International Prostate Symptom Score [IPSS]","userSelected":true}]},"subject":{"reference":"Patient/e90d90a7-3071-44de-8089-ad7b6f5f3e5d"},"effectiveDateTime":"2026-01-02T08:15:00.000+00:00","valueInteger":5},"request":{"method":"PUT","url":"Observation/a36f5073-7e2f-4e01-b120-82c4c00c6ecc"}},{"fullUrl":"https://madie.cms.gov/Observation/9fb23a66-3f14-4c6b-b129-f303cc0404a2","resource":{"resourceType":"Observation","id":"9fb23a66-3f14-4c6b-b129-f303cc0404a2","meta":{"profile":["http://hl7.org/fhir/us/qicore/StructureDefinition/qicore-observation-screening-assessment"]},"status":"final","category":[{"coding":[{"system":"http://terminology.hl7.org/CodeSystem/observation-category","code":"survey","display":"Survey"}]}],"code":{"coding":[{"system":"http://loinc.org","version":"2.76","code":"80976-4","display":"International Prostate Symptom Score [IPSS]","userSelected":true}]},"subject":{"reference":"Patient/e90d90a7-3071-44de-8089-ad7b6f5f3e5d"},"effectiveDateTime":"2026-12-01T08:15:00.000+00:00","valueInteger":2},"request":{"method":"PUT","url":"Observation/9fb23a66-3f14-4c6b-b129-f303cc0404a2"}},{"fullUrl":"https://madie.cms.gov/MeasureReport/01091637-7157-4f52-91e1-b19144de4edd","resource":{"resourceType":"MeasureReport","id":"01091637-7157-4f52-91e1-b19144de4edd","meta":{"profile":["http://hl7.org/fhir/us/cqfmeasures/StructureDefinition/test-case-cqfm"]},"contained":[{"resourceType":"Parameters","id":"e259a3e3-823e-4317-a0b6-b1832cbec89e-parameters","parameter":[{"name":"subject","valueString":"e90d90a7-3071-44de-8089-ad7b6f5f3e5d"}]}],"extension":[{"url":"http://hl7.org/fhir/StructureDefinition/cqf-inputParameters","valueReference":{"reference":"#e259a3e3-823e-4317-a0b6-b1832cbec89e-parameters"}},{"url":"http://hl7.org/fhir/us/cqfmeasures/StructureDefinition/cqfm-testCaseDescription","valueMarkdown":"Patient with Morbid Obesity Dx which would qualify them for denominator exclusion except that the criteria that the diagnosis occur before the followup urinary assessment is not met."}],"modifierExtension":[{"url":"http://hl7.org/fhir/us/cqfmeasures/StructureDefinition/cqfm-isTestCase","valueBoolean":true}],"status":"complete","type":"individual","measure":"https://madie.cms.gov/Measure/CMS771FHIRUrinarySymptomScoreChangeBenignProstaticHyperplasia","period":{"start":"2026-01-01","end":"2026-12-31"},"group":[{"id":"Group_1","population":[{"id":"InitialPopulation_1","code":{"coding":[{"system":"http://terminology.hl7.org/CodeSystem/measure-population","code":"initial-population","display":"Initial Population"}]},"count":1},{"id":"Denominator_1","code":{"coding":[{"system":"http://terminology.hl7.org/CodeSystem/measure-population","code":"denominator","display":"Denominator"}]},"count":1},{"id":"DenominatorExclusion_1","code":{"coding":[{"system":"http://terminology.hl7.org/CodeSystem/measure-population","code":"denominator-exclusion","display":"Denominator Exclusion"}]},"count":0},{"id":"Numerator_1","code":{"coding":[{"system":"http://terminology.hl7.org/CodeSystem/measure-population","code":"numerator","display":"Numerator"}]},"count":1}],"measureScore":{"value":1.0}}],"evaluatedResource":[{"reference":"Patient/e90d90a7-3071-44de-8089-ad7b6f5f3e5d"},{"reference":"Encounter/3b4aab95-82b5-4602-ba28-602cf11cb1b6"},{"reference":"Condition/359682d7-36d5-4835-afb1-9779cb6f9a09"},{"reference":"Condition/fb8ce4ed-1733-4012-abd0-67d2b5d6654b"},{"reference":"Observation/a36f5073-7e2f-4e01-b120-82c4c00c6ecc"},{"reference":"Observation/9fb23a66-3f14-4c6b-b129-f303cc0404a2"}]},"request":{"method":"PUT","url":"MeasureReport/01091637-7157-4f52-91e1-b19144de4edd"}}]},"request":{"method":"PUT","url":"Bundle/c5b2c76c-cc6a-11ed-894b-325096b39f47"}}]}