{"resourceType":"Bundle","id":"tests-7bdb16f0-8b33-4a95-b990-8a96f9d4ab53-bundle","type":"transaction","entry":[{"fullUrl":"MeasureReport/47fb8c13-8177-49cf-b928-ce066b15e89d","resource":{"resourceType":"MeasureReport","id":"47fb8c13-8177-49cf-b928-ce066b15e89d","meta":{"profile":["http://hl7.org/fhir/us/cqfmeasures/StructureDefinition/test-case-cqfm"]},"contained":[{"resourceType":"Parameters","id":"be100a52-d1d7-4612-9580-d35d3e56e4ba-parameters","parameter":[{"name":"subject","valueString":"7bdb16f0-8b33-4a95-b990-8a96f9d4ab53"}]}],"extension":[{"url":"http://hl7.org/fhir/StructureDefinition/cqf-inputParameters","valueReference":{"reference":"#be100a52-d1d7-4612-9580-d35d3e56e4ba-parameters"}},{"url":"http://hl7.org/fhir/us/cqfmeasures/StructureDefinition/cqfm-testCaseDescription","valueMarkdown":"Patient with BPH Dx, Initial and Followup USS and Office Visit with no End Date"}],"modifierExtension":[{"url":"http://hl7.org/fhir/us/cqfmeasures/StructureDefinition/cqfm-isTestCase","valueBoolean":true}],"status":"complete","type":"individual","measure":"https://madie.cms.gov/Measure/CMS771FHIRUrinarySymptomScoreChangeBenignProstaticHyperplasia","period":{"start":"2026-01-01","end":"2026-12-31"},"group":[{"id":"Group_1","population":[{"id":"InitialPopulation_1","code":{"coding":[{"system":"http://terminology.hl7.org/CodeSystem/measure-population","code":"initial-population","display":"Initial Population"}]},"count":0},{"id":"Denominator_1","code":{"coding":[{"system":"http://terminology.hl7.org/CodeSystem/measure-population","code":"denominator","display":"Denominator"}]},"count":0},{"id":"DenominatorExclusion_1","code":{"coding":[{"system":"http://terminology.hl7.org/CodeSystem/measure-population","code":"denominator-exclusion","display":"Denominator Exclusion"}]},"count":0},{"id":"Numerator_1","code":{"coding":[{"system":"http://terminology.hl7.org/CodeSystem/measure-population","code":"numerator","display":"Numerator"}]},"count":0}],"measureScore":{"value":1.0}}],"evaluatedResource":[{"reference":"Patient/7bdb16f0-8b33-4a95-b990-8a96f9d4ab53"},{"reference":"Encounter/4bd1d1ff-0eec-4035-83f5-066129bd256a"},{"reference":"Condition/3dcee558-2569-422c-a101-22e9b301cfa9"},{"reference":"Observation/4b7f12e1-d611-4efb-9efc-df93da31af45"},{"reference":"Observation/8202bfee-f489-4d66-9bd9-96a45870cee4"}]},"request":{"method":"PUT","url":"MeasureReport/47fb8c13-8177-49cf-b928-ce066b15e89d"}},{"fullUrl":"Encounter/4bd1d1ff-0eec-4035-83f5-066129bd256a","resource":{"resourceType":"Encounter","id":"4bd1d1ff-0eec-4035-83f5-066129bd256a","meta":{"profile":["http://hl7.org/fhir/us/qicore/StructureDefinition/qicore-encounter"]},"status":"finished","class":{"system":"http://terminology.hl7.org/CodeSystem/v3-ActCode","code":"AMB","display":"ambulatory"},"type":[{"coding":[{"system":"http://www.ama-assn.org/go/cpt","version":"2024","code":"99212"}]}],"subject":{"reference":"Patient/7bdb16f0-8b33-4a95-b990-8a96f9d4ab53"},"period":{"start":"2026-02-01T09:30:00.000+00:00"}},"request":{"method":"PUT","url":"Encounter/4bd1d1ff-0eec-4035-83f5-066129bd256a"}},{"fullUrl":"Condition/3dcee558-2569-422c-a101-22e9b301cfa9","resource":{"resourceType":"Condition","id":"3dcee558-2569-422c-a101-22e9b301cfa9","meta":{"profile":["http://hl7.org/fhir/us/qicore/StructureDefinition/qicore-condition-problems-health-concerns"]},"clinicalStatus":{"coding":[{"system":"http://terminology.hl7.org/CodeSystem/condition-clinical","code":"active","display":"active"}]},"verificationStatus":{"coding":[{"system":"http://terminology.hl7.org/CodeSystem/condition-ver-status","code":"confirmed","display":"Confirmed"}]},"category":[{"coding":[{"system":"http://terminology.hl7.org/CodeSystem/condition-category","code":"problem-list-item","display":"Problem List Item"}]}],"code":{"coding":[{"system":"http://hl7.org/fhir/sid/icd-10-cm","version":"2024","code":"N40.1","display":"Benign prostatic hyperplasia with lower urinary tract symptoms"}]},"subject":{"reference":"Patient/7bdb16f0-8b33-4a95-b990-8a96f9d4ab53"},"onsetPeriod":{"start":"2025-09-01T08:00:00.000+00:00"}},"request":{"method":"PUT","url":"Condition/3dcee558-2569-422c-a101-22e9b301cfa9"}},{"fullUrl":"Patient/7bdb16f0-8b33-4a95-b990-8a96f9d4ab53","resource":{"resourceType":"Patient","id":"7bdb16f0-8b33-4a95-b990-8a96f9d4ab53","meta":{"profile":["http://hl7.org/fhir/us/qicore/StructureDefinition/qicore-patient"]},"extension":[{"url":"http://hl7.org/fhir/us/core/StructureDefinition/us-core-race","extension":[{"url":"ombCategory","valueCoding":{"system":"urn:oid:2.16.840.1.113883.6.238","code":"2028-9","display":"Asian"}},{"url":"text","valueString":"Asian"}]},{"url":"http://hl7.org/fhir/us/core/StructureDefinition/us-core-ethnicity","extension":[{"url":"ombCategory","valueCoding":{"system":"urn:oid:2.16.840.1.113883.6.238","code":"2186-5","display":"Non Hispanic or Latino"}},{"url":"text","valueString":"Non Hispanic or Latino"}]}],"identifier":[{"type":{"coding":[{"system":"http://terminology.hl7.org/CodeSystem/v2-0203","code":"MR"}]},"system":"https://bonnie-fhir.healthit.gov/","value":"41654161684974312"}],"name":[{"family":"IPFail","given":["OVHasNoStartDt"]}],"gender":"male","birthDate":"1974-04-12"},"request":{"method":"PUT","url":"Patient/7bdb16f0-8b33-4a95-b990-8a96f9d4ab53"}},{"fullUrl":"Observation/8202bfee-f489-4d66-9bd9-96a45870cee4","resource":{"resourceType":"Observation","id":"8202bfee-f489-4d66-9bd9-96a45870cee4","meta":{"profile":["http://hl7.org/fhir/us/qicore/StructureDefinition/qicore-observation-screening-assessment"]},"status":"final","category":[{"coding":[{"system":"http://terminology.hl7.org/CodeSystem/observation-category","code":"survey","display":"Survey"}]}],"code":{"coding":[{"system":"http://loinc.org","version":"2.76","code":"80976-4","display":"International Prostate Symptom Score [IPSS]"}]},"subject":{"reference":"Patient/7bdb16f0-8b33-4a95-b990-8a96f9d4ab53"},"effectiveDateTime":"2026-07-01T08:00:00.000+00:00","valueInteger":2},"request":{"method":"PUT","url":"Observation/8202bfee-f489-4d66-9bd9-96a45870cee4"}},{"fullUrl":"Observation/4b7f12e1-d611-4efb-9efc-df93da31af45","resource":{"resourceType":"Observation","id":"4b7f12e1-d611-4efb-9efc-df93da31af45","meta":{"profile":["http://hl7.org/fhir/us/qicore/StructureDefinition/qicore-observation-screening-assessment"]},"status":"final","category":[{"coding":[{"system":"http://terminology.hl7.org/CodeSystem/observation-category","code":"survey","display":"Survey"}]}],"code":{"coding":[{"system":"http://loinc.org","version":"2.76","code":"80976-4","display":"International Prostate Symptom Score [IPSS]"}]},"subject":{"reference":"Patient/7bdb16f0-8b33-4a95-b990-8a96f9d4ab53"},"effectiveDateTime":"2025-10-01T08:00:00.000+00:00","valueInteger":2},"request":{"method":"PUT","url":"Observation/4b7f12e1-d611-4efb-9efc-df93da31af45"}},{"fullUrl":"Bundle/62a89f7131a203bdc723752b","resource":{"resourceType":"Bundle","id":"62a89f7131a203bdc723752b","type":"transaction","entry":[{"fullUrl":"https://madie.cms.gov/Patient/7bdb16f0-8b33-4a95-b990-8a96f9d4ab53","resource":{"resourceType":"Patient","id":"7bdb16f0-8b33-4a95-b990-8a96f9d4ab53","meta":{"profile":["http://hl7.org/fhir/us/qicore/StructureDefinition/qicore-patient"]},"extension":[{"url":"http://hl7.org/fhir/us/core/StructureDefinition/us-core-race","extension":[{"url":"ombCategory","valueCoding":{"system":"urn:oid:2.16.840.1.113883.6.238","code":"2028-9","display":"Asian"}},{"url":"text","valueString":"Asian"}]},{"url":"http://hl7.org/fhir/us/core/StructureDefinition/us-core-ethnicity","extension":[{"url":"ombCategory","valueCoding":{"system":"urn:oid:2.16.840.1.113883.6.238","code":"2186-5","display":"Non Hispanic or Latino"}},{"url":"text","valueString":"Non Hispanic or Latino"}]}],"identifier":[{"type":{"coding":[{"system":"http://terminology.hl7.org/CodeSystem/v2-0203","code":"MR"}]},"system":"https://bonnie-fhir.healthit.gov/","value":"41654161684974312"}],"name":[{"family":"IPFail","given":["OVHasNoStartDt"]}],"gender":"male","birthDate":"1974-04-12"},"request":{"method":"PUT","url":"Patient/7bdb16f0-8b33-4a95-b990-8a96f9d4ab53"}},{"fullUrl":"https://madie.cms.gov/Encounter/4bd1d1ff-0eec-4035-83f5-066129bd256a","resource":{"resourceType":"Encounter","id":"4bd1d1ff-0eec-4035-83f5-066129bd256a","meta":{"profile":["http://hl7.org/fhir/us/qicore/StructureDefinition/qicore-encounter"]},"status":"finished","class":{"system":"http://terminology.hl7.org/CodeSystem/v3-ActCode","code":"AMB","display":"ambulatory"},"type":[{"coding":[{"system":"http://www.ama-assn.org/go/cpt","version":"2024","code":"99212"}]}],"subject":{"reference":"Patient/7bdb16f0-8b33-4a95-b990-8a96f9d4ab53"},"period":{"start":"2026-02-01T09:30:00.000+00:00"}},"request":{"method":"PUT","url":"Encounter/4bd1d1ff-0eec-4035-83f5-066129bd256a"}},{"fullUrl":"https://madie.cms.gov/Condition/3dcee558-2569-422c-a101-22e9b301cfa9","resource":{"resourceType":"Condition","id":"3dcee558-2569-422c-a101-22e9b301cfa9","meta":{"profile":["http://hl7.org/fhir/us/qicore/StructureDefinition/qicore-condition-problems-health-concerns"]},"clinicalStatus":{"coding":[{"system":"http://terminology.hl7.org/CodeSystem/condition-clinical","code":"active","display":"active"}]},"verificationStatus":{"coding":[{"system":"http://terminology.hl7.org/CodeSystem/condition-ver-status","code":"confirmed","display":"Confirmed"}]},"category":[{"coding":[{"system":"http://terminology.hl7.org/CodeSystem/condition-category","code":"problem-list-item","display":"Problem List Item"}]}],"code":{"coding":[{"system":"http://hl7.org/fhir/sid/icd-10-cm","version":"2024","code":"N40.1","display":"Benign prostatic hyperplasia with lower urinary tract symptoms"}]},"subject":{"reference":"Patient/7bdb16f0-8b33-4a95-b990-8a96f9d4ab53"},"onsetPeriod":{"start":"2025-09-01T08:00:00.000+00:00"}},"request":{"method":"PUT","url":"Condition/3dcee558-2569-422c-a101-22e9b301cfa9"}},{"fullUrl":"https://madie.cms.gov/Observation/4b7f12e1-d611-4efb-9efc-df93da31af45","resource":{"resourceType":"Observation","id":"4b7f12e1-d611-4efb-9efc-df93da31af45","meta":{"profile":["http://hl7.org/fhir/us/qicore/StructureDefinition/qicore-observation-screening-assessment"]},"status":"final","category":[{"coding":[{"system":"http://terminology.hl7.org/CodeSystem/observation-category","code":"survey","display":"Survey"}]}],"code":{"coding":[{"system":"http://loinc.org","version":"2.76","code":"80976-4","display":"International Prostate Symptom Score [IPSS]"}]},"subject":{"reference":"Patient/7bdb16f0-8b33-4a95-b990-8a96f9d4ab53"},"effectiveDateTime":"2025-10-01T08:00:00.000+00:00","valueInteger":2},"request":{"method":"PUT","url":"Observation/4b7f12e1-d611-4efb-9efc-df93da31af45"}},{"fullUrl":"https://madie.cms.gov/Observation/8202bfee-f489-4d66-9bd9-96a45870cee4","resource":{"resourceType":"Observation","id":"8202bfee-f489-4d66-9bd9-96a45870cee4","meta":{"profile":["http://hl7.org/fhir/us/qicore/StructureDefinition/qicore-observation-screening-assessment"]},"status":"final","category":[{"coding":[{"system":"http://terminology.hl7.org/CodeSystem/observation-category","code":"survey","display":"Survey"}]}],"code":{"coding":[{"system":"http://loinc.org","version":"2.76","code":"80976-4","display":"International Prostate Symptom Score [IPSS]"}]},"subject":{"reference":"Patient/7bdb16f0-8b33-4a95-b990-8a96f9d4ab53"},"effectiveDateTime":"2026-07-01T08:00:00.000+00:00","valueInteger":2},"request":{"method":"PUT","url":"Observation/8202bfee-f489-4d66-9bd9-96a45870cee4"}},{"fullUrl":"https://madie.cms.gov/MeasureReport/47fb8c13-8177-49cf-b928-ce066b15e89d","resource":{"resourceType":"MeasureReport","id":"47fb8c13-8177-49cf-b928-ce066b15e89d","meta":{"profile":["http://hl7.org/fhir/us/cqfmeasures/StructureDefinition/test-case-cqfm"]},"contained":[{"resourceType":"Parameters","id":"be100a52-d1d7-4612-9580-d35d3e56e4ba-parameters","parameter":[{"name":"subject","valueString":"7bdb16f0-8b33-4a95-b990-8a96f9d4ab53"}]}],"extension":[{"url":"http://hl7.org/fhir/StructureDefinition/cqf-inputParameters","valueReference":{"reference":"#be100a52-d1d7-4612-9580-d35d3e56e4ba-parameters"}},{"url":"http://hl7.org/fhir/us/cqfmeasures/StructureDefinition/cqfm-testCaseDescription","valueMarkdown":"Patient with BPH Dx, Initial and Followup USS and Office Visit with no End Date"}],"modifierExtension":[{"url":"http://hl7.org/fhir/us/cqfmeasures/StructureDefinition/cqfm-isTestCase","valueBoolean":true}],"status":"complete","type":"individual","measure":"https://madie.cms.gov/Measure/CMS771FHIRUrinarySymptomScoreChangeBenignProstaticHyperplasia","period":{"start":"2026-01-01","end":"2026-12-31"},"group":[{"id":"Group_1","population":[{"id":"InitialPopulation_1","code":{"coding":[{"system":"http://terminology.hl7.org/CodeSystem/measure-population","code":"initial-population","display":"Initial Population"}]},"count":0},{"id":"Denominator_1","code":{"coding":[{"system":"http://terminology.hl7.org/CodeSystem/measure-population","code":"denominator","display":"Denominator"}]},"count":0},{"id":"DenominatorExclusion_1","code":{"coding":[{"system":"http://terminology.hl7.org/CodeSystem/measure-population","code":"denominator-exclusion","display":"Denominator Exclusion"}]},"count":0},{"id":"Numerator_1","code":{"coding":[{"system":"http://terminology.hl7.org/CodeSystem/measure-population","code":"numerator","display":"Numerator"}]},"count":0}],"measureScore":{"value":1.0}}],"evaluatedResource":[{"reference":"Patient/7bdb16f0-8b33-4a95-b990-8a96f9d4ab53"},{"reference":"Encounter/4bd1d1ff-0eec-4035-83f5-066129bd256a"},{"reference":"Condition/3dcee558-2569-422c-a101-22e9b301cfa9"},{"reference":"Observation/4b7f12e1-d611-4efb-9efc-df93da31af45"},{"reference":"Observation/8202bfee-f489-4d66-9bd9-96a45870cee4"}]},"request":{"method":"PUT","url":"MeasureReport/47fb8c13-8177-49cf-b928-ce066b15e89d"}}]},"request":{"method":"PUT","url":"Bundle/62a89f7131a203bdc723752b"}}]}