{"resourceType":"Bundle","id":"tests-d2b4a14a-a53d-44e8-aacf-baadd8865f63-bundle","type":"transaction","entry":[{"fullUrl":"Condition/dc2d4c7f-11b7-4ae5-977b-54b3ef916662","resource":{"resourceType":"Condition","id":"dc2d4c7f-11b7-4ae5-977b-54b3ef916662","meta":{"profile":["http://hl7.org/fhir/us/qicore/StructureDefinition/qicore-condition-problems-health-concerns"]},"clinicalStatus":{"coding":[{"system":"http://terminology.hl7.org/CodeSystem/condition-clinical","code":"active","display":"active"}]},"verificationStatus":{"coding":[{"system":"http://terminology.hl7.org/CodeSystem/condition-ver-status","code":"confirmed","display":"Confirmed"}]},"category":[{"coding":[{"system":"http://terminology.hl7.org/CodeSystem/condition-category","code":"problem-list-item","display":"Problem List Item"}]}],"code":{"coding":[{"system":"http://hl7.org/fhir/sid/icd-10-cm","version":"2024","code":"N40.1","display":"Benign prostatic hyperplasia with lower urinary tract symptoms"}]},"subject":{"reference":"Patient/d2b4a14a-a53d-44e8-aacf-baadd8865f63"},"onsetPeriod":{"start":"2025-07-01T08:00:00.000+00:00"}},"request":{"method":"PUT","url":"Condition/dc2d4c7f-11b7-4ae5-977b-54b3ef916662"}},{"fullUrl":"Bundle/62a89f7131a203bdc723752b","resource":{"resourceType":"Bundle","id":"62a89f7131a203bdc723752b","type":"transaction","entry":[{"fullUrl":"https://madie.cms.gov/Patient/d2b4a14a-a53d-44e8-aacf-baadd8865f63","resource":{"resourceType":"Patient","id":"d2b4a14a-a53d-44e8-aacf-baadd8865f63","meta":{"profile":["http://hl7.org/fhir/us/qicore/StructureDefinition/qicore-patient"]},"extension":[{"url":"http://hl7.org/fhir/us/core/StructureDefinition/us-core-race","extension":[{"url":"ombCategory","valueCoding":{"system":"urn:oid:2.16.840.1.113883.6.238","code":"2054-5","display":"Black or African American"}},{"url":"text","valueString":"Black or African American"}]},{"url":"http://hl7.org/fhir/us/core/StructureDefinition/us-core-ethnicity","extension":[{"url":"ombCategory","valueCoding":{"system":"urn:oid:2.16.840.1.113883.6.238","code":"2186-5","display":"Non Hispanic or Latino"}},{"url":"text","valueString":"Non Hispanic or Latino"}]}],"identifier":[{"type":{"coding":[{"system":"http://terminology.hl7.org/CodeSystem/v2-0203","code":"MR"}]},"system":"https://GoodHealthcare.com/","value":"41654161684974312"}],"name":[{"family":"IPFail","given":["OV1MinAfterMPEnd"]}],"gender":"male","birthDate":"1961-05-01"},"request":{"method":"PUT","url":"Patient/d2b4a14a-a53d-44e8-aacf-baadd8865f63"}},{"fullUrl":"https://madie.cms.gov/Encounter/5cc7a41c-d696-49f8-8c86-76c17e196375","resource":{"resourceType":"Encounter","id":"5cc7a41c-d696-49f8-8c86-76c17e196375","meta":{"profile":["http://hl7.org/fhir/us/qicore/StructureDefinition/qicore-encounter"]},"status":"finished","class":{"system":"http://terminology.hl7.org/CodeSystem/v3-ActCode","code":"AMB","display":"ambulatory"},"type":[{"coding":[{"system":"http://snomed.info/sct","version":"http://snomed.info/sct/731000124108/version/20240301","code":"439740005","display":"Postoperative follow-up visit (procedure)"}]}],"subject":{"reference":"Patient/d2b4a14a-a53d-44e8-aacf-baadd8865f63"},"period":{"start":"2027-01-01T00:00:00.000+00:00","end":"2027-01-01T00:35:00.000+00:00"}},"request":{"method":"PUT","url":"Encounter/5cc7a41c-d696-49f8-8c86-76c17e196375"}},{"fullUrl":"https://madie.cms.gov/Condition/dc2d4c7f-11b7-4ae5-977b-54b3ef916662","resource":{"resourceType":"Condition","id":"dc2d4c7f-11b7-4ae5-977b-54b3ef916662","meta":{"profile":["http://hl7.org/fhir/us/qicore/StructureDefinition/qicore-condition-problems-health-concerns"]},"clinicalStatus":{"coding":[{"system":"http://terminology.hl7.org/CodeSystem/condition-clinical","code":"active","display":"active"}]},"verificationStatus":{"coding":[{"system":"http://terminology.hl7.org/CodeSystem/condition-ver-status","code":"confirmed","display":"Confirmed"}]},"category":[{"coding":[{"system":"http://terminology.hl7.org/CodeSystem/condition-category","code":"problem-list-item","display":"Problem List Item"}]}],"code":{"coding":[{"system":"http://hl7.org/fhir/sid/icd-10-cm","version":"2024","code":"N40.1","display":"Benign prostatic hyperplasia with lower urinary tract symptoms"}]},"subject":{"reference":"Patient/d2b4a14a-a53d-44e8-aacf-baadd8865f63"},"onsetPeriod":{"start":"2025-07-01T08:00:00.000+00:00"}},"request":{"method":"PUT","url":"Condition/dc2d4c7f-11b7-4ae5-977b-54b3ef916662"}},{"fullUrl":"https://madie.cms.gov/Observation/16dbad57-c0b1-4e38-82d1-e9518b7ff9c7","resource":{"resourceType":"Observation","id":"16dbad57-c0b1-4e38-82d1-e9518b7ff9c7","meta":{"profile":["http://hl7.org/fhir/us/qicore/StructureDefinition/qicore-observation-screening-assessment"]},"status":"final","category":[{"coding":[{"system":"http://terminology.hl7.org/CodeSystem/observation-category","code":"survey","display":"Survey"}]}],"code":{"coding":[{"system":"http://loinc.org","version":"2.76","code":"80976-4","display":"International Prostate Symptom Score [IPSS]"}]},"subject":{"reference":"Patient/d2b4a14a-a53d-44e8-aacf-baadd8865f63"},"effectiveDateTime":"2025-08-01T08:00:00.000+00:00","valueInteger":2},"request":{"method":"PUT","url":"Observation/16dbad57-c0b1-4e38-82d1-e9518b7ff9c7"}},{"fullUrl":"https://madie.cms.gov/Observation/bb55f350-3eb1-427f-afd2-dd50469b7582","resource":{"resourceType":"Observation","id":"bb55f350-3eb1-427f-afd2-dd50469b7582","meta":{"profile":["http://hl7.org/fhir/us/qicore/StructureDefinition/qicore-observation-screening-assessment"]},"status":"final","category":[{"coding":[{"system":"http://terminology.hl7.org/CodeSystem/observation-category","code":"survey","display":"Survey"}]}],"code":{"coding":[{"system":"http://loinc.org","version":"2.76","code":"80976-4","display":"International Prostate Symptom Score [IPSS]"}]},"subject":{"reference":"Patient/d2b4a14a-a53d-44e8-aacf-baadd8865f63"},"effectiveDateTime":"2026-07-01T08:00:00.000+00:00","valueInteger":1},"request":{"method":"PUT","url":"Observation/bb55f350-3eb1-427f-afd2-dd50469b7582"}},{"fullUrl":"https://madie.cms.gov/MeasureReport/de14183f-65fc-4264-b0ec-f4de05b5e8a4","resource":{"resourceType":"MeasureReport","id":"de14183f-65fc-4264-b0ec-f4de05b5e8a4","meta":{"profile":["http://hl7.org/fhir/us/cqfmeasures/StructureDefinition/test-case-cqfm"]},"contained":[{"resourceType":"Parameters","id":"d6a52e74-9da4-4720-97d2-95126b1d493b-parameters","parameter":[{"name":"subject","valueString":"d2b4a14a-a53d-44e8-aacf-baadd8865f63"}]}],"extension":[{"url":"http://hl7.org/fhir/StructureDefinition/cqf-inputParameters","valueReference":{"reference":"#d6a52e74-9da4-4720-97d2-95126b1d493b-parameters"}},{"url":"http://hl7.org/fhir/us/cqfmeasures/StructureDefinition/cqfm-testCaseDescription","valueMarkdown":"Male Pt with BPH Dx, Initial and Followup USS, with OV starting 1 minute past MP end"}],"modifierExtension":[{"url":"http://hl7.org/fhir/us/cqfmeasures/StructureDefinition/cqfm-isTestCase","valueBoolean":true}],"status":"complete","type":"individual","measure":"https://madie.cms.gov/Measure/CMS771FHIRUrinarySymptomScoreChangeBenignProstaticHyperplasia","period":{"start":"2026-01-01","end":"2026-12-31"},"group":[{"id":"Group_1","population":[{"id":"InitialPopulation_1","code":{"coding":[{"system":"http://terminology.hl7.org/CodeSystem/measure-population","code":"initial-population","display":"Initial Population"}]},"count":0},{"id":"Denominator_1","code":{"coding":[{"system":"http://terminology.hl7.org/CodeSystem/measure-population","code":"denominator","display":"Denominator"}]},"count":0},{"id":"DenominatorExclusion_1","code":{"coding":[{"system":"http://terminology.hl7.org/CodeSystem/measure-population","code":"denominator-exclusion","display":"Denominator Exclusion"}]},"count":0},{"id":"Numerator_1","code":{"coding":[{"system":"http://terminology.hl7.org/CodeSystem/measure-population","code":"numerator","display":"Numerator"}]},"count":0}],"measureScore":{"value":1.0}}],"evaluatedResource":[{"reference":"Patient/d2b4a14a-a53d-44e8-aacf-baadd8865f63"},{"reference":"Encounter/5cc7a41c-d696-49f8-8c86-76c17e196375"},{"reference":"Condition/dc2d4c7f-11b7-4ae5-977b-54b3ef916662"},{"reference":"Observation/16dbad57-c0b1-4e38-82d1-e9518b7ff9c7"},{"reference":"Observation/bb55f350-3eb1-427f-afd2-dd50469b7582"}]},"request":{"method":"PUT","url":"MeasureReport/de14183f-65fc-4264-b0ec-f4de05b5e8a4"}}]},"request":{"method":"PUT","url":"Bundle/62a89f7131a203bdc723752b"}},{"fullUrl":"Observation/bb55f350-3eb1-427f-afd2-dd50469b7582","resource":{"resourceType":"Observation","id":"bb55f350-3eb1-427f-afd2-dd50469b7582","meta":{"profile":["http://hl7.org/fhir/us/qicore/StructureDefinition/qicore-observation-screening-assessment"]},"status":"final","category":[{"coding":[{"system":"http://terminology.hl7.org/CodeSystem/observation-category","code":"survey","display":"Survey"}]}],"code":{"coding":[{"system":"http://loinc.org","version":"2.76","code":"80976-4","display":"International Prostate Symptom Score [IPSS]"}]},"subject":{"reference":"Patient/d2b4a14a-a53d-44e8-aacf-baadd8865f63"},"effectiveDateTime":"2026-07-01T08:00:00.000+00:00","valueInteger":1},"request":{"method":"PUT","url":"Observation/bb55f350-3eb1-427f-afd2-dd50469b7582"}},{"fullUrl":"Observation/16dbad57-c0b1-4e38-82d1-e9518b7ff9c7","resource":{"resourceType":"Observation","id":"16dbad57-c0b1-4e38-82d1-e9518b7ff9c7","meta":{"profile":["http://hl7.org/fhir/us/qicore/StructureDefinition/qicore-observation-screening-assessment"]},"status":"final","category":[{"coding":[{"system":"http://terminology.hl7.org/CodeSystem/observation-category","code":"survey","display":"Survey"}]}],"code":{"coding":[{"system":"http://loinc.org","version":"2.76","code":"80976-4","display":"International Prostate Symptom Score [IPSS]"}]},"subject":{"reference":"Patient/d2b4a14a-a53d-44e8-aacf-baadd8865f63"},"effectiveDateTime":"2025-08-01T08:00:00.000+00:00","valueInteger":2},"request":{"method":"PUT","url":"Observation/16dbad57-c0b1-4e38-82d1-e9518b7ff9c7"}},{"fullUrl":"Encounter/5cc7a41c-d696-49f8-8c86-76c17e196375","resource":{"resourceType":"Encounter","id":"5cc7a41c-d696-49f8-8c86-76c17e196375","meta":{"profile":["http://hl7.org/fhir/us/qicore/StructureDefinition/qicore-encounter"]},"status":"finished","class":{"system":"http://terminology.hl7.org/CodeSystem/v3-ActCode","code":"AMB","display":"ambulatory"},"type":[{"coding":[{"system":"http://snomed.info/sct","version":"http://snomed.info/sct/731000124108/version/20240301","code":"439740005","display":"Postoperative follow-up visit (procedure)"}]}],"subject":{"reference":"Patient/d2b4a14a-a53d-44e8-aacf-baadd8865f63"},"period":{"start":"2027-01-01T00:00:00.000+00:00","end":"2027-01-01T00:35:00.000+00:00"}},"request":{"method":"PUT","url":"Encounter/5cc7a41c-d696-49f8-8c86-76c17e196375"}},{"fullUrl":"Patient/d2b4a14a-a53d-44e8-aacf-baadd8865f63","resource":{"resourceType":"Patient","id":"d2b4a14a-a53d-44e8-aacf-baadd8865f63","meta":{"profile":["http://hl7.org/fhir/us/qicore/StructureDefinition/qicore-patient"]},"extension":[{"url":"http://hl7.org/fhir/us/core/StructureDefinition/us-core-race","extension":[{"url":"ombCategory","valueCoding":{"system":"urn:oid:2.16.840.1.113883.6.238","code":"2054-5","display":"Black or African American"}},{"url":"text","valueString":"Black or African American"}]},{"url":"http://hl7.org/fhir/us/core/StructureDefinition/us-core-ethnicity","extension":[{"url":"ombCategory","valueCoding":{"system":"urn:oid:2.16.840.1.113883.6.238","code":"2186-5","display":"Non Hispanic or Latino"}},{"url":"text","valueString":"Non Hispanic or Latino"}]}],"identifier":[{"type":{"coding":[{"system":"http://terminology.hl7.org/CodeSystem/v2-0203","code":"MR"}]},"system":"https://GoodHealthcare.com/","value":"41654161684974312"}],"name":[{"family":"IPFail","given":["OV1MinAfterMPEnd"]}],"gender":"male","birthDate":"1961-05-01"},"request":{"method":"PUT","url":"Patient/d2b4a14a-a53d-44e8-aacf-baadd8865f63"}},{"fullUrl":"MeasureReport/de14183f-65fc-4264-b0ec-f4de05b5e8a4","resource":{"resourceType":"MeasureReport","id":"de14183f-65fc-4264-b0ec-f4de05b5e8a4","meta":{"profile":["http://hl7.org/fhir/us/cqfmeasures/StructureDefinition/test-case-cqfm"]},"contained":[{"resourceType":"Parameters","id":"d6a52e74-9da4-4720-97d2-95126b1d493b-parameters","parameter":[{"name":"subject","valueString":"d2b4a14a-a53d-44e8-aacf-baadd8865f63"}]}],"extension":[{"url":"http://hl7.org/fhir/StructureDefinition/cqf-inputParameters","valueReference":{"reference":"#d6a52e74-9da4-4720-97d2-95126b1d493b-parameters"}},{"url":"http://hl7.org/fhir/us/cqfmeasures/StructureDefinition/cqfm-testCaseDescription","valueMarkdown":"Male Pt with BPH Dx, Initial and Followup USS, with OV starting 1 minute past MP end"}],"modifierExtension":[{"url":"http://hl7.org/fhir/us/cqfmeasures/StructureDefinition/cqfm-isTestCase","valueBoolean":true}],"status":"complete","type":"individual","measure":"https://madie.cms.gov/Measure/CMS771FHIRUrinarySymptomScoreChangeBenignProstaticHyperplasia","period":{"start":"2026-01-01","end":"2026-12-31"},"group":[{"id":"Group_1","population":[{"id":"InitialPopulation_1","code":{"coding":[{"system":"http://terminology.hl7.org/CodeSystem/measure-population","code":"initial-population","display":"Initial Population"}]},"count":0},{"id":"Denominator_1","code":{"coding":[{"system":"http://terminology.hl7.org/CodeSystem/measure-population","code":"denominator","display":"Denominator"}]},"count":0},{"id":"DenominatorExclusion_1","code":{"coding":[{"system":"http://terminology.hl7.org/CodeSystem/measure-population","code":"denominator-exclusion","display":"Denominator Exclusion"}]},"count":0},{"id":"Numerator_1","code":{"coding":[{"system":"http://terminology.hl7.org/CodeSystem/measure-population","code":"numerator","display":"Numerator"}]},"count":0}],"measureScore":{"value":1.0}}],"evaluatedResource":[{"reference":"Patient/d2b4a14a-a53d-44e8-aacf-baadd8865f63"},{"reference":"Encounter/5cc7a41c-d696-49f8-8c86-76c17e196375"},{"reference":"Condition/dc2d4c7f-11b7-4ae5-977b-54b3ef916662"},{"reference":"Observation/16dbad57-c0b1-4e38-82d1-e9518b7ff9c7"},{"reference":"Observation/bb55f350-3eb1-427f-afd2-dd50469b7582"}]},"request":{"method":"PUT","url":"MeasureReport/de14183f-65fc-4264-b0ec-f4de05b5e8a4"}}]}