{
  "resourceType": "Bundle",
  "id": "63233350414ba67d4e1d1c2f",
  "type": "transaction",
  "entry": [ {
    "fullUrl": "https://madie.cms.gov/Patient/ab0bc2a3-9d3d-4c0a-88f4-5abc2b4499d6",
    "resource": {
      "resourceType": "Patient",
      "id": "ab0bc2a3-9d3d-4c0a-88f4-5abc2b4499d6",
      "meta": {
        "profile": [ "http://hl7.org/fhir/us/qicore/StructureDefinition/qicore-patient" ]
      },
      "extension": [ {
        "url": "http://hl7.org/fhir/us/core/StructureDefinition/us-core-race",
        "extension": [ {
          "url": "ombCategory",
          "valueCoding": {
            "system": "urn:oid:2.16.840.1.113883.6.238",
            "code": "2028-9",
            "display": "Asian",
            "userSelected": true
          }
        }, {
          "url": "text",
          "valueString": "Asian"
        } ]
      }, {
        "url": "http://hl7.org/fhir/us/core/StructureDefinition/us-core-ethnicity",
        "extension": [ {
          "url": "ombCategory",
          "valueCoding": {
            "system": "urn:oid:2.16.840.1.113883.6.238",
            "code": "2186-5",
            "display": "Not Hispanic or Latino",
            "userSelected": true
          }
        }, {
          "url": "text",
          "valueString": "Not Hispanic or Latino"
        } ]
      } ],
      "identifier": [ {
        "type": {
          "coding": [ {
            "system": "http://terminology.hl7.org/CodeSystem/v2-0203",
            "code": "MR"
          } ]
        },
        "system": "https://bonnie-fhir.healthit.gov/",
        "value": "63233350414ba67d4e1d1c2f"
      } ],
      "name": [ {
        "family": "DENEXFail",
        "given": [ "CancerOneDayAfterEnc" ]
      } ],
      "gender": "female",
      "birthDate": "1944-02-01"
    },
    "request": {
      "method": "PUT",
      "url": "Patient/ab0bc2a3-9d3d-4c0a-88f4-5abc2b4499d6"
    }
  }, {
    "fullUrl": "https://madie.cms.gov/Encounter/80a60c7c-74e4-4b9d-b813-e9eb4f19bdfb",
    "resource": {
      "resourceType": "Encounter",
      "id": "80a60c7c-74e4-4b9d-b813-e9eb4f19bdfb",
      "meta": {
        "profile": [ "http://hl7.org/fhir/us/qicore/StructureDefinition/qicore-encounter" ]
      },
      "status": "finished",
      "class": {
        "system": "http://terminology.hl7.org/CodeSystem/v3-ActCode",
        "code": "AMB",
        "display": "ambulatory"
      },
      "type": [ {
        "coding": [ {
          "system": "http://snomed.info/sct",
          "version": "2022-03",
          "code": "183452005",
          "display": "Emergency hospital admission (procedure)",
          "userSelected": true
        } ]
      } ],
      "subject": {
        "reference": "Patient/ab0bc2a3-9d3d-4c0a-88f4-5abc2b4499d6"
      },
      "period": {
        "start": "2026-01-01T11:45:00.000+00:00",
        "end": "2026-01-03T11:59:00.000+00:00"
      }
    },
    "request": {
      "method": "PUT",
      "url": "Encounter/80a60c7c-74e4-4b9d-b813-e9eb4f19bdfb"
    }
  }, {
    "fullUrl": "https://madie.cms.gov/MedicationRequest/fd72a967-e48f-4a8e-806b-bbbfdcbcf7ae",
    "resource": {
      "resourceType": "MedicationRequest",
      "id": "fd72a967-e48f-4a8e-806b-bbbfdcbcf7ae",
      "meta": {
        "profile": [ "http://hl7.org/fhir/us/qicore/StructureDefinition/qicore-medicationrequest" ]
      },
      "status": "active",
      "intent": "order",
      "category": [ {
        "coding": [ {
          "system": "http://terminology.hl7.org/CodeSystem/medicationrequest-category",
          "code": "discharge",
          "display": "Discharge",
          "userSelected": true
        } ]
      } ],
      "doNotPerform": false,
      "medicationCodeableConcept": {
        "coding": [ {
          "system": "http://www.nlm.nih.gov/research/umls/rxnorm",
          "code": "2103192",
          "display": "sufentanil 0.03 MG Sublingual Tablet",
          "userSelected": true
        } ]
      },
      "subject": {
        "reference": "Patient/ab0bc2a3-9d3d-4c0a-88f4-5abc2b4499d6"
      },
      "authoredOn": "2026-01-03T11:59:00.000+00:00",
      "requester": {
        "reference": "Practitioner/dcb92a18-3f6d-4db8-bf5e-bdc35bc5e1cd"
      }
    },
    "request": {
      "method": "PUT",
      "url": "MedicationRequest/fd72a967-e48f-4a8e-806b-bbbfdcbcf7ae"
    }
  }, {
    "fullUrl": "https://madie.cms.gov/Practitioner/dcb92a18-3f6d-4db8-bf5e-bdc35bc5e1cd",
    "resource": {
      "resourceType": "Practitioner",
      "id": "dcb92a18-3f6d-4db8-bf5e-bdc35bc5e1cd",
      "meta": {
        "profile": [ "http://hl7.org/fhir/us/qicore/StructureDefinition/qicore-practitioner" ]
      },
      "identifier": [ {
        "system": "http://hl7.org/fhir/sid/us-npi",
        "value": "9999999896"
      } ],
      "active": true,
      "name": [ {
        "family": "Ramires",
        "given": [ "Alma" ],
        "prefix": [ "Dr" ]
      } ],
      "address": [ {
        "use": "home",
        "line": [ "534 Erewhon St" ],
        "city": "Netherville",
        "state": "IN",
        "postalCode": "46131"
      } ],
      "qualification": [ {
        "identifier": [ {
          "system": "http://goodhealth.org/prIdentifier",
          "value": "12345"
        } ],
        "code": {
          "coding": [ {
            "system": "http://terminology.hl7.org/CodeSystem/v2-0360|2.7",
            "code": "BS",
            "display": "Bachelor of Science"
          } ],
          "text": "Bachelor of Science"
        },
        "period": {
          "start": "1995"
        },
        "issuer": {
          "display": "Example University"
        }
      } ]
    },
    "request": {
      "method": "PUT",
      "url": "Practitioner/dcb92a18-3f6d-4db8-bf5e-bdc35bc5e1cd"
    }
  }, {
    "fullUrl": "https://madie.cms.gov/Condition/6f616154-8ef2-4937-8a8b-dadfbf346c9c",
    "resource": {
      "resourceType": "Condition",
      "id": "6f616154-8ef2-4937-8a8b-dadfbf346c9c",
      "meta": {
        "profile": [ "http://hl7.org/fhir/us/qicore/StructureDefinition/qicore-condition-problems-health-concerns" ]
      },
      "clinicalStatus": {
        "coding": [ {
          "system": "http://terminology.hl7.org/CodeSystem/condition-clinical",
          "code": "active",
          "display": "active",
          "userSelected": true
        } ]
      },
      "category": [ {
        "coding": [ {
          "system": "http://hl7.org/fhir/us/core/CodeSystem/condition-category",
          "code": "health-concern",
          "display": "Health Concern"
        }, {
          "system": "http://snomed.info/sct",
          "code": "439401001",
          "display": "Diagnosis"
        } ]
      } ],
      "code": {
        "coding": [ {
          "system": "http://snomed.info/sct",
          "version": "2022-03",
          "code": "788891004",
          "display": "Chronic pain after cancer treatment (finding)",
          "userSelected": true
        } ]
      },
      "subject": {
        "reference": "Patient/ab0bc2a3-9d3d-4c0a-88f4-5abc2b4499d6"
      },
      "onsetPeriod": {
        "start": "2026-01-04T00:00:00.000+00:00"
      }
    },
    "request": {
      "method": "PUT",
      "url": "Condition/6f616154-8ef2-4937-8a8b-dadfbf346c9c"
    }
  }, {
    "fullUrl": "https://madie.cms.gov/Coverage/f88bd1f1-d7b1-4c5e-bcb8-d24585263530",
    "resource": {
      "resourceType": "Coverage",
      "id": "f88bd1f1-d7b1-4c5e-bcb8-d24585263530",
      "meta": {
        "profile": [ "http://hl7.org/fhir/us/qicore/StructureDefinition/qicore-coverage" ]
      },
      "status": "active",
      "subscriberId": "523435",
      "beneficiary": {
        "reference": "Patient/ab0bc2a3-9d3d-4c0a-88f4-5abc2b4499d6"
      },
      "relationship": {
        "coding": [ {
          "system": "http://terminology.hl7.org/CodeSystem/subscriber-relationship",
          "code": "self"
        } ]
      },
      "payor": [ {
        "reference": "Organization/ecdc63d3-9481-4c7b-a9b6-bec8b627e449"
      } ]
    },
    "request": {
      "method": "PUT",
      "url": "Coverage/f88bd1f1-d7b1-4c5e-bcb8-d24585263530"
    }
  }, {
    "fullUrl": "https://madie.cms.gov/Organization/ecdc63d3-9481-4c7b-a9b6-bec8b627e449",
    "resource": {
      "resourceType": "Organization",
      "id": "ecdc63d3-9481-4c7b-a9b6-bec8b627e449",
      "meta": {
        "profile": [ "http://hl7.org/fhir/us/qicore/StructureDefinition/qicore-organization" ]
      },
      "identifier": [ {
        "use": "temp",
        "system": "urn:oid:2.16.840.1.113883.4.4",
        "value": "21-3259825"
      } ],
      "active": true,
      "type": [ {
        "coding": [ {
          "system": "http://terminology.hl7.org/CodeSystem/organization-type",
          "code": "pay",
          "display": "Payer"
        } ]
      } ],
      "name": "Blue Cross Blue Shield of Texas",
      "telecom": [ {
        "system": "phone",
        "value": "(+1) 972-766-6900"
      } ],
      "address": [ {
        "use": "billing",
        "type": "postal",
        "line": [ "P.O. Box 660044" ],
        "city": "Dallas",
        "state": "TX",
        "postalCode": "75266-0044",
        "country": "USA"
      } ]
    },
    "request": {
      "method": "PUT",
      "url": "Organization/ecdc63d3-9481-4c7b-a9b6-bec8b627e449"
    }
  }, {
    "fullUrl": "https://madie.cms.gov/MeasureReport/19008427-59e2-4a45-bcfc-e9463fb7fddf",
    "resource": {
      "resourceType": "MeasureReport",
      "id": "19008427-59e2-4a45-bcfc-e9463fb7fddf",
      "meta": {
        "profile": [ "http://hl7.org/fhir/us/cqfmeasures/StructureDefinition/test-case-cqfm" ]
      },
      "contained": [ {
        "resourceType": "Parameters",
        "id": "0c03e07a-f2cf-43e5-b40d-fa230e0ad1ec-parameters",
        "parameter": [ {
          "name": "subject",
          "valueString": "ab0bc2a3-9d3d-4c0a-88f4-5abc2b4499d6"
        } ]
      } ],
      "extension": [ {
        "url": "http://hl7.org/fhir/StructureDefinition/cqf-inputParameters",
        "valueReference": {
          "reference": "#0c03e07a-f2cf-43e5-b40d-fa230e0ad1ec-parameters"
        }
      }, {
        "url": "http://hl7.org/fhir/us/cqfmeasures/StructureDefinition/cqfm-testCaseDescription",
        "valueMarkdown": "Encounter first 3 days of MP, Opioid prescribed at discharge but cancer was not diagnosed until day after encounter discharge  "
      } ],
      "modifierExtension": [ {
        "url": "http://hl7.org/fhir/us/cqfmeasures/StructureDefinition/cqfm-isTestCase",
        "valueBoolean": true
      } ],
      "status": "complete",
      "type": "individual",
      "measure": "https://madie.cms.gov/Measure/CMS506FHIRSafeUseofOpioids",
      "period": {
        "start": "2026-01-01",
        "end": "2026-12-31"
      },
      "group": [ {
        "id": "Group_1",
        "population": [ {
          "id": "InitialPopulation_1",
          "code": {
            "coding": [ {
              "system": "http://terminology.hl7.org/CodeSystem/measure-population",
              "code": "initial-population",
              "display": "Initial Population"
            } ]
          },
          "count": 1
        }, {
          "id": "Denominator_1",
          "code": {
            "coding": [ {
              "system": "http://terminology.hl7.org/CodeSystem/measure-population",
              "code": "denominator",
              "display": "Denominator"
            } ]
          },
          "count": 1
        }, {
          "id": "DenominatorExclusion_1",
          "code": {
            "coding": [ {
              "system": "http://terminology.hl7.org/CodeSystem/measure-population",
              "code": "denominator-exclusion",
              "display": "Denominator Exclusion"
            } ]
          },
          "count": 0
        }, {
          "id": "Numerator_1",
          "code": {
            "coding": [ {
              "system": "http://terminology.hl7.org/CodeSystem/measure-population",
              "code": "numerator",
              "display": "Numerator"
            } ]
          },
          "count": 0
        } ],
        "measureScore": {
          "value": 0.0
        }
      } ],
      "evaluatedResource": [ {
        "reference": "Patient/ab0bc2a3-9d3d-4c0a-88f4-5abc2b4499d6"
      }, {
        "reference": "Encounter/80a60c7c-74e4-4b9d-b813-e9eb4f19bdfb"
      }, {
        "reference": "MedicationRequest/fd72a967-e48f-4a8e-806b-bbbfdcbcf7ae"
      }, {
        "reference": "Practitioner/dcb92a18-3f6d-4db8-bf5e-bdc35bc5e1cd"
      }, {
        "reference": "Condition/6f616154-8ef2-4937-8a8b-dadfbf346c9c"
      }, {
        "reference": "Coverage/f88bd1f1-d7b1-4c5e-bcb8-d24585263530"
      }, {
        "reference": "Organization/ecdc63d3-9481-4c7b-a9b6-bec8b627e449"
      } ]
    },
    "request": {
      "method": "PUT",
      "url": "MeasureReport/19008427-59e2-4a45-bcfc-e9463fb7fddf"
    }
  } ]
}