{
  "resourceType": "Bundle",
  "id": "612e6b6502c62a011f2ed9a4",
  "type": "transaction",
  "entry": [ {
    "fullUrl": "https://madie.cms.gov/Patient/90914261-db25-4012-b8c8-f75aab8ec6c9",
    "resource": {
      "resourceType": "Patient",
      "id": "90914261-db25-4012-b8c8-f75aab8ec6c9",
      "meta": {
        "profile": [ "http://hl7.org/fhir/us/qicore/StructureDefinition/qicore-patient" ]
      },
      "text": {
        "status": "generated",
        "div": "<div xmlns=\"http://www.w3.org/1999/xhtml\"><div class=\"hapiHeaderText\">Age18DayAfterEncStart <b>IPPFAIL </b></div><table class=\"hapiPropertyTable\"><tbody><tr><td>Identifier</td><td>6b2b5cdc09eff49c605f5750bbfe2765</td></tr><tr><td>Date of birth</td><td><span>03 September 2003</span></td></tr></tbody></table></div>"
      },
      "extension": [ {
        "url": "http://hl7.org/fhir/us/core/StructureDefinition/us-core-race",
        "extension": [ {
          "url": "ombCategory",
          "valueCoding": {
            "system": "urn:oid:2.16.840.1.113883.6.238",
            "code": "1002-5",
            "display": "American Indian or Alaska Native",
            "userSelected": true
          }
        }, {
          "url": "text",
          "valueString": "American Indian or Alaska Native"
        } ]
      }, {
        "url": "http://hl7.org/fhir/us/core/StructureDefinition/us-core-ethnicity",
        "extension": [ {
          "url": "ombCategory",
          "valueCoding": {
            "system": "urn:oid:2.16.840.1.113883.6.238",
            "code": "2135-2",
            "display": "Hispanic or Latino",
            "userSelected": true
          }
        }, {
          "url": "text",
          "valueString": "Hispanic or Latino"
        } ]
      } ],
      "identifier": [ {
        "type": {
          "coding": [ {
            "system": "http://terminology.hl7.org/CodeSystem/v2-0203",
            "code": "MR"
          } ]
        },
        "system": "https://bonnie-fhir.healthit.gov/",
        "value": "612e6b6502c62a011f2ed9a4"
      } ],
      "active": true,
      "name": [ {
        "use": "usual",
        "family": "IPPFail",
        "given": [ "Age18DayAfterEncStart" ]
      } ],
      "gender": "unknown",
      "birthDate": "2008-09-03"
    },
    "request": {
      "method": "PUT",
      "url": "Patient/90914261-db25-4012-b8c8-f75aab8ec6c9"
    }
  }, {
    "fullUrl": "https://madie.cms.gov/Encounter/131404e4-c800-4369-ab45-10c81bb2add5",
    "resource": {
      "resourceType": "Encounter",
      "id": "131404e4-c800-4369-ab45-10c81bb2add5",
      "meta": {
        "profile": [ "http://hl7.org/fhir/us/qicore/StructureDefinition/qicore-encounter" ]
      },
      "status": "finished",
      "class": {
        "system": "http://terminology.hl7.org/CodeSystem/v3-ActCode",
        "code": "IMP",
        "display": "inpatient encounter"
      },
      "type": [ {
        "coding": [ {
          "system": "http://snomed.info/sct",
          "code": "183452005"
        } ]
      } ],
      "subject": {
        "reference": "Patient/90914261-db25-4012-b8c8-f75aab8ec6c9"
      },
      "period": {
        "start": "2026-09-02T12:59:00.000+00:00",
        "end": "2026-12-31T12:59:00.000+00:00"
      },
      "length": {
        "value": 120,
        "unit": "days"
      }
    },
    "request": {
      "method": "PUT",
      "url": "Encounter/131404e4-c800-4369-ab45-10c81bb2add5"
    }
  }, {
    "fullUrl": "https://madie.cms.gov/Coverage/a3a28ed2-de20-43e2-b424-e35b64758a2f",
    "resource": {
      "resourceType": "Coverage",
      "id": "a3a28ed2-de20-43e2-b424-e35b64758a2f",
      "status": "active",
      "beneficiary": {
        "reference": "Patient/90914261-db25-4012-b8c8-f75aab8ec6c9"
      },
      "period": {
        "start": "2007-09-03T08:00:00.000+00:00"
      },
      "payor": [ {
        "reference": "Organization/01738f9c-e7f1-4f49-aea2-60be7f93021a"
      } ]
    },
    "request": {
      "method": "PUT",
      "url": "Coverage/a3a28ed2-de20-43e2-b424-e35b64758a2f"
    }
  }, {
    "fullUrl": "https://madie.cms.gov/Organization/01738f9c-e7f1-4f49-aea2-60be7f93021a",
    "resource": {
      "resourceType": "Organization",
      "id": "01738f9c-e7f1-4f49-aea2-60be7f93021a",
      "meta": {
        "profile": [ "http://hl7.org/fhir/us/qicore/StructureDefinition/qicore-organization" ]
      },
      "identifier": [ {
        "use": "temp",
        "system": "urn:oid:2.16.840.1.113883.4.4",
        "value": "21-3259825"
      } ],
      "active": true,
      "type": [ {
        "coding": [ {
          "system": "http://terminology.hl7.org/CodeSystem/organization-type",
          "code": "pay",
          "display": "Payer"
        } ]
      } ],
      "name": "Blue Cross Blue Shield of Texas",
      "telecom": [ {
        "system": "phone",
        "value": "(+1) 972-766-6900"
      } ],
      "address": [ {
        "use": "billing",
        "type": "postal",
        "line": [ "P.O. Box 660044" ],
        "city": "Dallas",
        "state": "TX",
        "postalCode": "75266-0044",
        "country": "USA"
      } ]
    },
    "request": {
      "method": "PUT",
      "url": "Organization/01738f9c-e7f1-4f49-aea2-60be7f93021a"
    }
  }, {
    "fullUrl": "https://madie.cms.gov/Practitioner/38304be0-f259-4fcf-823b-d9b25abedf57",
    "resource": {
      "resourceType": "Practitioner",
      "id": "38304be0-f259-4fcf-823b-d9b25abedf57",
      "identifier": [ {
        "system": "http://hl7.org/fhir/sid/us-npi",
        "value": "123456"
      } ],
      "name": [ {
        "family": "Evil",
        "prefix": [ "Dr" ]
      } ]
    },
    "request": {
      "method": "PUT",
      "url": "Practitioner/38304be0-f259-4fcf-823b-d9b25abedf57"
    }
  }, {
    "fullUrl": "https://madie.cms.gov/MeasureReport/5eee7acc-c021-4438-9d83-a82659fc752f",
    "resource": {
      "resourceType": "MeasureReport",
      "id": "5eee7acc-c021-4438-9d83-a82659fc752f",
      "meta": {
        "profile": [ "http://hl7.org/fhir/us/cqfmeasures/StructureDefinition/test-case-cqfm" ]
      },
      "contained": [ {
        "resourceType": "Parameters",
        "id": "2019c543-1e54-4632-99fc-ce91ec2b7760-parameters",
        "parameter": [ {
          "name": "subject",
          "valueString": "90914261-db25-4012-b8c8-f75aab8ec6c9"
        } ]
      } ],
      "extension": [ {
        "url": "http://hl7.org/fhir/StructureDefinition/cqf-inputParameters",
        "valueReference": {
          "reference": "#2019c543-1e54-4632-99fc-ce91ec2b7760-parameters"
        }
      }, {
        "url": "http://hl7.org/fhir/us/cqfmeasures/StructureDefinition/cqfm-testCaseDescription",
        "valueMarkdown": "Patient turns 18 day after inpatient admission\n"
      } ],
      "modifierExtension": [ {
        "url": "http://hl7.org/fhir/us/cqfmeasures/StructureDefinition/cqfm-isTestCase",
        "valueBoolean": true
      } ],
      "status": "complete",
      "type": "individual",
      "measure": "https://madie.cms.gov/Measure/CMS108FHIRVTEProphylaxis",
      "period": {
        "start": "2026-01-01",
        "end": "2026-12-31"
      },
      "group": [ {
        "id": "Group_1",
        "population": [ {
          "id": "InitialPopulation_1",
          "code": {
            "coding": [ {
              "system": "http://terminology.hl7.org/CodeSystem/measure-population",
              "code": "initial-population",
              "display": "Initial Population"
            } ]
          },
          "count": 0
        }, {
          "id": "Denominator_1",
          "code": {
            "coding": [ {
              "system": "http://terminology.hl7.org/CodeSystem/measure-population",
              "code": "denominator",
              "display": "Denominator"
            } ]
          },
          "count": 0
        }, {
          "id": "DenominatorExclusion_1",
          "code": {
            "coding": [ {
              "system": "http://terminology.hl7.org/CodeSystem/measure-population",
              "code": "denominator-exclusion",
              "display": "Denominator Exclusion"
            } ]
          },
          "count": 0
        }, {
          "id": "Numerator_1",
          "code": {
            "coding": [ {
              "system": "http://terminology.hl7.org/CodeSystem/measure-population",
              "code": "numerator",
              "display": "Numerator"
            } ]
          },
          "count": 0
        } ],
        "measureScore": {
          "value": 0.0
        }
      } ],
      "evaluatedResource": [ {
        "reference": "Patient/90914261-db25-4012-b8c8-f75aab8ec6c9"
      }, {
        "reference": "Encounter/131404e4-c800-4369-ab45-10c81bb2add5"
      }, {
        "reference": "Coverage/a3a28ed2-de20-43e2-b424-e35b64758a2f"
      }, {
        "reference": "Organization/01738f9c-e7f1-4f49-aea2-60be7f93021a"
      }, {
        "reference": "Practitioner/38304be0-f259-4fcf-823b-d9b25abedf57"
      } ]
    },
    "request": {
      "method": "PUT",
      "url": "MeasureReport/5eee7acc-c021-4438-9d83-a82659fc752f"
    }
  } ]
}