{
    "entry": [
        {
            "request": {
                "method": "PUT",
                "url": "Patient/41df0dbe-ae84-4496-b355-320ff8707a85"
            },
            "resource": {
                "identifier": [{
                    "system": "https://bonnie-fhir.healthit.gov/",
                    "type": {"coding": [{
                        "system": "http://terminology.hl7.org/CodeSystem/v2-0203",
                        "code": "MR"
                    }]},
                    "value": "62f65a0f5efef5272905e705"
                }],
                "extension": [
                    {
                        "extension": [
                            {
                                "valueCoding": {
                                    "system": "urn:oid:2.16.840.1.113883.6.238",
                                    "code": "1002-5",
                                    "userSelected": true,
                                    "display": "American Indian or Alaska Native"
                                },
                                "url": "ombCategory"
                            },
                            {
                                "valueString": "American Indian or Alaska Native",
                                "url": "text"
                            }
                        ],
                        "url": "http://hl7.org/fhir/us/core/StructureDefinition/us-core-race"
                    },
                    {
                        "extension": [
                            {
                                "valueCoding": {
                                    "system": "urn:oid:2.16.840.1.113883.6.238",
                                    "code": "2135-2",
                                    "userSelected": true,
                                    "display": "Hispanic or Latino"
                                },
                                "url": "ombCategory"
                            },
                            {
                                "valueString": "Hispanic or Latino",
                                "url": "text"
                            }
                        ],
                        "url": "http://hl7.org/fhir/us/core/StructureDefinition/us-core-ethnicity"
                    }
                ],
                "gender": "male",
                "meta": {"profile": ["http://hl7.org/fhir/us/qicore/StructureDefinition/qicore-patient"]},
                "name": [{
                    "given": ["AdultPatientReasonForNoDepressionScreenAge17"],
                    "family": "DENEXCEPPass"
                }],
                "id": "41df0dbe-ae84-4496-b355-320ff8707a85",
                "birthDate": "2009-01-01",
                "resourceType": "Patient"
            },
            "fullUrl": "https://madie.cms.gov/Patient/41df0dbe-ae84-4496-b355-320ff8707a85"
        },
        {
            "request": {
                "method": "PUT",
                "url": "Encounter/407a5670-fc25-4483-83d7-1690ed47f639"
            },
            "resource": {
                "period": {
                    "start": "2026-01-01T08:00:00.000+00:00",
                    "end": "2026-01-01T08:15:00.000+00:00"
                },
                "meta": {"profile": ["http://hl7.org/fhir/us/qicore/StructureDefinition/qicore-encounter"]},
                "subject": {"reference": "Patient/41df0dbe-ae84-4496-b355-320ff8707a85"},
                "id": "407a5670-fc25-4483-83d7-1690ed47f639",
                "type": [{"coding": [{
                    "system": "http://snomed.info/sct",
                    "code": "10197000",
                    "userSelected": true,
                    "display": "Psychiatric interview and evaluation (procedure)",
                    "version": "2021-09"
                }]}],
                "class": {
                    "system": "http://terminology.hl7.org/CodeSystem/v3-ActCode",
                    "code": "AMB",
                    "display": "ambulatory"
                },
                "resourceType": "Encounter",
                "status": "finished"
            },
            "fullUrl": "https://madie.cms.gov/Encounter/407a5670-fc25-4483-83d7-1690ed47f639"
        },
        {
            "request": {
                "method": "PUT",
                "url": "Observation/ccc8e659-0ed5-4a5c-9c8e-a24bd7fb3e07"
            },
            "resource": {
                "valueBoolean": true,
                "extension": [{
                    "valueCodeableConcept": {"coding": [{
                        "system": "http://snomed.info/sct",
                        "code": "720834000",
                        "userSelected": true,
                        "display": "Depression screening declined (situation)"
                    }]},
                    "url": "http://hl7.org/fhir/us/qicore/StructureDefinition/qicore-notDoneReason"
                }],
                "code": {"coding": [{
                    "system": "http://loinc.org",
                    "code": "73832-8",
                    "userSelected": true,
                    "display": "Adult depression screening assessment"
                }]},
                "meta": {"profile": ["http://hl7.org/fhir/us/qicore/StructureDefinition/qicore-observationcancelled"]},
                "subject": {"reference": "Patient/41df0dbe-ae84-4496-b355-320ff8707a85"},
                "id": "ccc8e659-0ed5-4a5c-9c8e-a24bd7fb3e07",
                "category": [{"coding": [{
                    "system": "http://terminology.hl7.org/CodeSystem/observation-category",
                    "code": "procedure",
                    "display": "Procedure"
                }]}],
                "issued": "2026-01-01T08:00:00.000+00:00",
                "resourceType": "Observation",
                "status": "cancelled"
            },
            "fullUrl": "https://madie.cms.gov/Observation/ccc8e659-0ed5-4a5c-9c8e-a24bd7fb3e07"
        },
        {
            "request": {
                "method": "PUT",
                "url": "Coverage/1f3bb65b-b4ad-4357-8680-2fca8d9a95ac"
            },
            "resource": {
                "payor": [{"reference": "Organization/31da655a-1bf1-4504-b47c-a7c472a9a4c3"}],
                "beneficiary": {"reference": "Patient/41df0dbe-ae84-4496-b355-320ff8707a85"},
                "meta": {"profile": ["http://hl7.org/fhir/us/qicore/StructureDefinition/qicore-coverage"]},
                "id": "1f3bb65b-b4ad-4357-8680-2fca8d9a95ac",
                "resourceType": "Coverage",
                "status": "active"
            },
            "fullUrl": "https://madie.cms.gov/Coverage/1f3bb65b-b4ad-4357-8680-2fca8d9a95ac"
        },
        {
            "request": {
                "method": "PUT",
                "url": "Organization/31da655a-1bf1-4504-b47c-a7c472a9a4c3"
            },
            "resource": {
                "identifier": [{
                    "system": "urn:oid:2.16.840.1.113883.4.4",
                    "use": "temp",
                    "value": "21-3259825"
                }],
                "address": [{
                    "country": "USA",
                    "city": "Dallas",
                    "use": "billing",
                    "line": ["P.O. Box 660044"],
                    "postalCode": "75266-0044",
                    "state": "TX",
                    "type": "postal"
                }],
                "meta": {"profile": ["http://hl7.org/fhir/us/qicore/StructureDefinition/qicore-organization"]},
                "name": "Blue Cross Blue Shield of Texas",
                "active": true,
                "telecom": [{
                    "system": "phone",
                    "value": "(+1) 972-766-6900"
                }],
                "id": "31da655a-1bf1-4504-b47c-a7c472a9a4c3",
                "type": [{"coding": [{
                    "system": "http://terminology.hl7.org/CodeSystem/organization-type",
                    "code": "pay",
                    "display": "Payer"
                }]}],
                "resourceType": "Organization"
            },
            "fullUrl": "https://madie.cms.gov/Organization/31da655a-1bf1-4504-b47c-a7c472a9a4c3"
        },
        {
            "request": {
                "method": "PUT",
                "url": "Practitioner/a2f00746-d33c-4e15-90c0-e505dcb50f71"
            },
            "resource": {
                "identifier": [{
                    "system": "http://hl7.org/fhir/sid/us-npi",
                    "value": "123456"
                }],
                "meta": {"profile": ["http://hl7.org/fhir/us/qicore/StructureDefinition/qicore-practitioner"]},
                "name": [{
                    "prefix": ["Dr"],
                    "family": "Evil"
                }],
                "id": "a2f00746-d33c-4e15-90c0-e505dcb50f71",
                "resourceType": "Practitioner"
            },
            "fullUrl": "https://madie.cms.gov/Practitioner/a2f00746-d33c-4e15-90c0-e505dcb50f71"
        },
        {
            "request": {
                "method": "PUT",
                "url": "MeasureReport/09a1ec20-0ab1-4e31-9b0a-701ff538703e"
            },
            "resource": {
                "contained": [{
                    "parameter": [{
                        "valueString": "41df0dbe-ae84-4496-b355-320ff8707a85",
                        "name": "subject"
                    }],
                    "id": "c2eebeb2-0a45-47e0-ae01-83aeab7c8947-parameters",
                    "resourceType": "Parameters"
                }],
                "extension": [
                    {
                        "valueReference": {"reference": "#c2eebeb2-0a45-47e0-ae01-83aeab7c8947-parameters"},
                        "url": "http://hl7.org/fhir/StructureDefinition/cqf-inputParameters"
                    },
                    {
                        "valueMarkdown": "17 yo male with patient reason for not screening for depression - 17 on first day MP",
                        "url": "http://hl7.org/fhir/us/cqfmeasures/StructureDefinition/cqfm-testCaseDescription"
                    }
                ],
                "period": {
                    "start": "2026-01-01",
                    "end": "2026-12-31"
                },
                "measure": "https://madie.cms.gov/Measure/CMS2FHIRPCSDepressionScreenAndFollowUp",
                "meta": {"profile": ["http://hl7.org/fhir/us/cqfmeasures/StructureDefinition/test-case-cqfm"]},
                "modifierExtension": [{
                    "valueBoolean": true,
                    "url": "http://hl7.org/fhir/us/cqfmeasures/StructureDefinition/cqfm-isTestCase"
                }],
                "id": "09a1ec20-0ab1-4e31-9b0a-701ff538703e",
                "evaluatedResource": [
                    {"reference": "Patient/41df0dbe-ae84-4496-b355-320ff8707a85"},
                    {"reference": "Encounter/407a5670-fc25-4483-83d7-1690ed47f639"},
                    {"reference": "Observation/ccc8e659-0ed5-4a5c-9c8e-a24bd7fb3e07"},
                    {"reference": "Coverage/1f3bb65b-b4ad-4357-8680-2fca8d9a95ac"},
                    {"reference": "Organization/31da655a-1bf1-4504-b47c-a7c472a9a4c3"},
                    {"reference": "Practitioner/a2f00746-d33c-4e15-90c0-e505dcb50f71"}
                ],
                "type": "individual",
                "resourceType": "MeasureReport",
                "status": "complete",
                "group": [{
                    "id": "Group_1",
                    "measureScore": {"value": 1},
                    "population": [
                        {
                            "code": {"coding": [{
                                "system": "http://terminology.hl7.org/CodeSystem/measure-population",
                                "code": "initial-population",
                                "display": "Initial Population"
                            }]},
                            "count": 1,
                            "id": "InitialPopulation_1"
                        },
                        {
                            "code": {"coding": [{
                                "system": "http://terminology.hl7.org/CodeSystem/measure-population",
                                "code": "denominator",
                                "display": "Denominator"
                            }]},
                            "count": 1,
                            "id": "Denominator_1"
                        },
                        {
                            "code": {"coding": [{
                                "system": "http://terminology.hl7.org/CodeSystem/measure-population",
                                "code": "denominator-exclusion",
                                "display": "Denominator Exclusion"
                            }]},
                            "count": 0,
                            "id": "DenominatorExclusion_1"
                        },
                        {
                            "code": {"coding": [{
                                "system": "http://terminology.hl7.org/CodeSystem/measure-population",
                                "code": "numerator",
                                "display": "Numerator"
                            }]},
                            "count": 0,
                            "id": "Numerator_1"
                        },
                        {
                            "code": {"coding": [{
                                "system": "http://terminology.hl7.org/CodeSystem/measure-population",
                                "code": "denominator-exception",
                                "display": "Denominator Exception"
                            }]},
                            "count": 1,
                            "id": "DenominatorException_1"
                        }
                    ]
                }]
            },
            "fullUrl": "https://madie.cms.gov/MeasureReport/09a1ec20-0ab1-4e31-9b0a-701ff538703e"
        }
    ],
    "id": "62f65a0f5efef5272905e705",
    "type": "transaction",
    "resourceType": "Bundle"
}