{
    "entry": [
        {
            "request": {
                "method": "PUT",
                "url": "Patient/831a0ba9-8b96-4414-901c-70add57d2cc4"
            },
            "resource": {
                "identifier": [{
                    "system": "https://bonnie-fhir.healthit.gov/",
                    "type": {"coding": [{
                        "system": "http://terminology.hl7.org/CodeSystem/v2-0203",
                        "code": "MR"
                    }]},
                    "value": "62cdd64162b2323a168e975e"
                }],
                "extension": [
                    {
                        "extension": [
                            {
                                "valueCoding": {
                                    "system": "urn:oid:2.16.840.1.113883.6.238",
                                    "code": "1002-5",
                                    "userSelected": true,
                                    "display": "American Indian or Alaska Native"
                                },
                                "url": "ombCategory"
                            },
                            {
                                "valueString": "American Indian or Alaska Native",
                                "url": "text"
                            }
                        ],
                        "url": "http://hl7.org/fhir/us/core/StructureDefinition/us-core-race"
                    },
                    {
                        "extension": [
                            {
                                "valueCoding": {
                                    "system": "urn:oid:2.16.840.1.113883.6.238",
                                    "code": "2135-2",
                                    "userSelected": true,
                                    "display": "Hispanic or Latino"
                                },
                                "url": "ombCategory"
                            },
                            {
                                "valueString": "Hispanic or Latino",
                                "url": "text"
                            }
                        ],
                        "url": "http://hl7.org/fhir/us/core/StructureDefinition/us-core-ethnicity"
                    }
                ],
                "gender": "male",
                "meta": {"profile": ["http://hl7.org/fhir/us/qicore/StructureDefinition/qicore-patient"]},
                "name": [{
                    "given": ["SystolicNoDiastolic"],
                    "family": "NUMERFail"
                }],
                "id": "831a0ba9-8b96-4414-901c-70add57d2cc4",
                "birthDate": "1976-12-31",
                "resourceType": "Patient"
            },
            "fullUrl": "https://madie.cms.gov/Patient/831a0ba9-8b96-4414-901c-70add57d2cc4"
        },
        {
            "request": {
                "method": "PUT",
                "url": "Encounter/e57734f3-fad4-4b0f-9bc7-7e4f3f03ae6f"
            },
            "resource": {
                "period": {
                    "start": "2026-12-31T08:00:00.000+00:00",
                    "end": "2026-12-31T08:45:00.000+00:00"
                },
                "meta": {"profile": ["http://hl7.org/fhir/us/qicore/StructureDefinition/qicore-encounter"]},
                "subject": {"reference": "Patient/831a0ba9-8b96-4414-901c-70add57d2cc4"},
                "id": "e57734f3-fad4-4b0f-9bc7-7e4f3f03ae6f",
                "type": [{"coding": [{
                    "system": "http://snomed.info/sct",
                    "code": "103705002",
                    "userSelected": true,
                    "display": "Patient status observation (procedure)",
                    "version": "2022-03"
                }]}],
                "class": {
                    "system": "http://terminology.hl7.org/CodeSystem/v3-ActCode",
                    "code": "AMB",
                    "display": "ambulatory"
                },
                "resourceType": "Encounter",
                "status": "finished"
            },
            "fullUrl": "https://madie.cms.gov/Encounter/e57734f3-fad4-4b0f-9bc7-7e4f3f03ae6f"
        },
        {
            "request": {
                "method": "PUT",
                "url": "Observation/63521ac9-aa24-48a2-a692-9236610088f3"
            },
            "resource": {
                "code": {"coding": [{
                    "system": "http://loinc.org",
                    "code": "8480-6",
                    "userSelected": true,
                    "display": "Systolic blood pressure"
                }]},
                "effectiveDateTime": "2026-12-31T08:05:00.000+00:00",
                "meta": {"profile": ["http://hl7.org/fhir/us/qicore/StructureDefinition/qicore-simple-observation"]},
                "subject": {"reference": "Patient/831a0ba9-8b96-4414-901c-70add57d2cc4"},
                "id": "63521ac9-aa24-48a2-a692-9236610088f3",
                "category": [{"coding": [{
                    "system": "http://terminology.hl7.org/CodeSystem/observation-category",
                    "code": "procedure",
                    "display": "Procedure"
                }]}],
                "resourceType": "Observation",
                "status": "final",
                "valueQuantity": {
                    "unit": "mm[Hg]",
                    "value": 160
                }
            },
            "fullUrl": "https://madie.cms.gov/Observation/63521ac9-aa24-48a2-a692-9236610088f3"
        },
        {
            "request": {
                "method": "PUT",
                "url": "ServiceRequest/fad19d4f-015a-4cb4-9928-879254e1a5c6"
            },
            "resource": {
                "code": {"coding": [{
                    "system": "http://snomed.info/sct",
                    "code": "183617005",
                    "userSelected": true,
                    "display": "Follow-up 1 day (finding)",
                    "version": "2022-03"
                }]},
                "authoredOn": "2026-12-31T08:30:00.000+00:00",
                "meta": {"profile": ["http://hl7.org/fhir/us/qicore/StructureDefinition/qicore-servicerequest"]},
                "subject": {"reference": "Patient/831a0ba9-8b96-4414-901c-70add57d2cc4"},
                "id": "fad19d4f-015a-4cb4-9928-879254e1a5c6",
                "intent": "order",
                "resourceType": "ServiceRequest",
                "status": "active"
            },
            "fullUrl": "https://madie.cms.gov/ServiceRequest/fad19d4f-015a-4cb4-9928-879254e1a5c6"
        },
        {
            "request": {
                "method": "PUT",
                "url": "ServiceRequest/6bd76da6-a9e5-4f4b-bd29-11d9a18ff82c"
            },
            "resource": {
                "code": {"coding": [{
                    "system": "http://snomed.info/sct",
                    "code": "103699006",
                    "userSelected": true,
                    "display": "Patient referral to dietitian (procedure)",
                    "version": "2022-03"
                }]},
                "authoredOn": "2026-12-31T08:30:00.000+00:00",
                "meta": {"profile": ["http://hl7.org/fhir/us/qicore/StructureDefinition/qicore-servicerequest"]},
                "subject": {"reference": "Patient/831a0ba9-8b96-4414-901c-70add57d2cc4"},
                "id": "6bd76da6-a9e5-4f4b-bd29-11d9a18ff82c",
                "intent": "order",
                "resourceType": "ServiceRequest",
                "status": "active"
            },
            "fullUrl": "https://madie.cms.gov/ServiceRequest/6bd76da6-a9e5-4f4b-bd29-11d9a18ff82c"
        },
        {
            "request": {
                "method": "PUT",
                "url": "Coverage/6730aecf-0944-496b-b531-a200171835a2"
            },
            "resource": {
                "payor": [{"reference": "Organization/32b57f85-f95a-45fc-a2fb-f103875fe306"}],
                "beneficiary": {"reference": "Patient/831a0ba9-8b96-4414-901c-70add57d2cc4"},
                "meta": {"profile": ["http://hl7.org/fhir/us/qicore/StructureDefinition/qicore-coverage"]},
                "id": "6730aecf-0944-496b-b531-a200171835a2",
                "resourceType": "Coverage",
                "status": "active"
            },
            "fullUrl": "https://madie.cms.gov/Coverage/6730aecf-0944-496b-b531-a200171835a2"
        },
        {
            "request": {
                "method": "PUT",
                "url": "Organization/32b57f85-f95a-45fc-a2fb-f103875fe306"
            },
            "resource": {
                "identifier": [{
                    "system": "urn:oid:2.16.840.1.113883.4.4",
                    "use": "temp",
                    "value": "21-3259825"
                }],
                "address": [{
                    "country": "USA",
                    "city": "Dallas",
                    "use": "billing",
                    "line": ["P.O. Box 660044"],
                    "postalCode": "75266-0044",
                    "state": "TX",
                    "type": "postal"
                }],
                "meta": {"profile": ["http://hl7.org/fhir/us/qicore/StructureDefinition/qicore-organization"]},
                "name": "Blue Cross Blue Shield of Texas",
                "active": true,
                "telecom": [{
                    "system": "phone",
                    "value": "(+1) 972-766-6900"
                }],
                "id": "32b57f85-f95a-45fc-a2fb-f103875fe306",
                "type": [{"coding": [{
                    "system": "http://terminology.hl7.org/CodeSystem/organization-type",
                    "code": "pay",
                    "display": "Payer"
                }]}],
                "resourceType": "Organization"
            },
            "fullUrl": "https://madie.cms.gov/Organization/32b57f85-f95a-45fc-a2fb-f103875fe306"
        },
        {
            "request": {
                "method": "PUT",
                "url": "Practitioner/a4b4a8f4-b978-4be6-867a-98bdcca95094"
            },
            "resource": {
                "identifier": [{
                    "system": "http://hl7.org/fhir/sid/us-npi",
                    "value": "123456"
                }],
                "meta": {"profile": ["http://hl7.org/fhir/us/qicore/StructureDefinition/qicore-practitioner"]},
                "name": [{
                    "prefix": ["Dr"],
                    "family": "Evil"
                }],
                "id": "a4b4a8f4-b978-4be6-867a-98bdcca95094",
                "resourceType": "Practitioner"
            },
            "fullUrl": "https://madie.cms.gov/Practitioner/a4b4a8f4-b978-4be6-867a-98bdcca95094"
        },
        {
            "request": {
                "method": "PUT",
                "url": "MeasureReport/50b67193-9023-4f06-bef0-bcb3d22fd963"
            },
            "resource": {
                "contained": [{
                    "parameter": [{
                        "valueString": "831a0ba9-8b96-4414-901c-70add57d2cc4",
                        "name": "subject"
                    }],
                    "id": "898b366d-2e8a-4445-b42a-7cc5df96b877-parameters",
                    "resourceType": "Parameters"
                }],
                "extension": [
                    {
                        "valueReference": {"reference": "#898b366d-2e8a-4445-b42a-7cc5df96b877-parameters"},
                        "url": "http://hl7.org/fhir/StructureDefinition/cqf-inputParameters"
                    },
                    {
                        "valueMarkdown": "Age 18+, encounter last day of MP, systolic 160 mm[Hg], but no diastolic documented. Follow up within 4 wks recommended and referred to dietician ",
                        "url": "http://hl7.org/fhir/us/cqfmeasures/StructureDefinition/cqfm-testCaseDescription"
                    }
                ],
                "period": {
                    "start": "2026-01-01",
                    "end": "2026-12-31"
                },
                "measure": "https://madie.cms.gov/Measure/CMS22FHIRPCSBPScreeningFollowUp",
                "meta": {"profile": ["http://hl7.org/fhir/us/cqfmeasures/StructureDefinition/test-case-cqfm"]},
                "modifierExtension": [{
                    "valueBoolean": true,
                    "url": "http://hl7.org/fhir/us/cqfmeasures/StructureDefinition/cqfm-isTestCase"
                }],
                "id": "50b67193-9023-4f06-bef0-bcb3d22fd963",
                "evaluatedResource": [
                    {"reference": "Patient/831a0ba9-8b96-4414-901c-70add57d2cc4"},
                    {"reference": "Encounter/e57734f3-fad4-4b0f-9bc7-7e4f3f03ae6f"},
                    {"reference": "Observation/63521ac9-aa24-48a2-a692-9236610088f3"},
                    {"reference": "ServiceRequest/fad19d4f-015a-4cb4-9928-879254e1a5c6"},
                    {"reference": "ServiceRequest/6bd76da6-a9e5-4f4b-bd29-11d9a18ff82c"},
                    {"reference": "Coverage/6730aecf-0944-496b-b531-a200171835a2"},
                    {"reference": "Organization/32b57f85-f95a-45fc-a2fb-f103875fe306"},
                    {"reference": "Practitioner/a4b4a8f4-b978-4be6-867a-98bdcca95094"}
                ],
                "type": "individual",
                "resourceType": "MeasureReport",
                "status": "complete",
                "group": [{
                    "id": "Group_1",
                    "measureScore": {"value": 0},
                    "population": [
                        {
                            "code": {"coding": [{
                                "system": "http://terminology.hl7.org/CodeSystem/measure-population",
                                "code": "initial-population",
                                "display": "Initial Population"
                            }]},
                            "count": 1,
                            "id": "InitialPopulation_1"
                        },
                        {
                            "code": {"coding": [{
                                "system": "http://terminology.hl7.org/CodeSystem/measure-population",
                                "code": "denominator",
                                "display": "Denominator"
                            }]},
                            "count": 1,
                            "id": "Denominator_1"
                        },
                        {
                            "code": {"coding": [{
                                "system": "http://terminology.hl7.org/CodeSystem/measure-population",
                                "code": "denominator-exclusion",
                                "display": "Denominator Exclusion"
                            }]},
                            "count": 0,
                            "id": "DenominatorExclusion_1"
                        },
                        {
                            "code": {"coding": [{
                                "system": "http://terminology.hl7.org/CodeSystem/measure-population",
                                "code": "numerator",
                                "display": "Numerator"
                            }]},
                            "count": 0,
                            "id": "Numerator_1"
                        },
                        {
                            "code": {"coding": [{
                                "system": "http://terminology.hl7.org/CodeSystem/measure-population",
                                "code": "denominator-exception",
                                "display": "Denominator Exception"
                            }]},
                            "count": 0,
                            "id": "DenominatorException_1"
                        }
                    ]
                }]
            },
            "fullUrl": "https://madie.cms.gov/MeasureReport/50b67193-9023-4f06-bef0-bcb3d22fd963"
        }
    ],
    "id": "62cdd64162b2323a168e975e",
    "type": "transaction",
    "resourceType": "Bundle"
}