{
    "entry": [
        {
            "request": {
                "method": "PUT",
                "url": "Patient/efee27eb-af27-42d3-93a3-83371d134307"
            },
            "resource": {
                "identifier": [{
                    "system": "https://bonnie-fhir.healthit.gov/",
                    "type": {"coding": [{
                        "system": "http://terminology.hl7.org/CodeSystem/v2-0203",
                        "code": "MR"
                    }]},
                    "value": "62d96963f0347d1abcae6c0e"
                }],
                "extension": [
                    {
                        "extension": [
                            {
                                "valueCoding": {
                                    "system": "urn:oid:2.16.840.1.113883.6.238",
                                    "code": "1002-5",
                                    "userSelected": true,
                                    "display": "American Indian or Alaska Native"
                                },
                                "url": "ombCategory"
                            },
                            {
                                "valueString": "American Indian or Alaska Native",
                                "url": "text"
                            }
                        ],
                        "url": "http://hl7.org/fhir/us/core/StructureDefinition/us-core-race"
                    },
                    {
                        "extension": [
                            {
                                "valueCoding": {
                                    "system": "urn:oid:2.16.840.1.113883.6.238",
                                    "code": "2135-2",
                                    "userSelected": true,
                                    "display": "Hispanic or Latino"
                                },
                                "url": "ombCategory"
                            },
                            {
                                "valueString": "Hispanic or Latino",
                                "url": "text"
                            }
                        ],
                        "url": "http://hl7.org/fhir/us/core/StructureDefinition/us-core-ethnicity"
                    }
                ],
                "gender": "male",
                "meta": {"profile": ["http://hl7.org/fhir/us/qicore/StructureDefinition/qicore-patient"]},
                "name": [{
                    "given": ["NoBPMedicalReason"],
                    "family": "DENEXCEPPass"
                }],
                "id": "efee27eb-af27-42d3-93a3-83371d134307",
                "birthDate": "2007-12-31",
                "resourceType": "Patient"
            },
            "fullUrl": "https://madie.cms.gov/Patient/efee27eb-af27-42d3-93a3-83371d134307"
        },
        {
            "request": {
                "method": "PUT",
                "url": "Encounter/52d2e4e8-26fa-41d2-92f0-6a6129186d8e"
            },
            "resource": {
                "period": {
                    "start": "2026-01-01T08:00:00.000+00:00",
                    "end": "2026-01-01T08:30:00.000+00:00"
                },
                "meta": {"profile": ["http://hl7.org/fhir/us/qicore/StructureDefinition/qicore-encounter"]},
                "subject": {"reference": "Patient/efee27eb-af27-42d3-93a3-83371d134307"},
                "id": "52d2e4e8-26fa-41d2-92f0-6a6129186d8e",
                "type": [{"coding": [{
                    "system": "http://snomed.info/sct",
                    "code": "103705002",
                    "userSelected": true,
                    "display": "Patient status observation (procedure)",
                    "version": "2021-09"
                }]}],
                "class": {
                    "system": "http://terminology.hl7.org/CodeSystem/v3-ActCode",
                    "code": "AMB",
                    "display": "ambulatory"
                },
                "resourceType": "Encounter",
                "status": "finished"
            },
            "fullUrl": "https://madie.cms.gov/Encounter/52d2e4e8-26fa-41d2-92f0-6a6129186d8e"
        },
        {
            "request": {
                "method": "PUT",
                "url": "Observation/21efb0a2-45af-4908-898f-c4c49978e275"
            },
            "resource": {
                "valueBoolean": true,
                "extension": [{
                    "valueCodeableConcept": {"coding": [{
                        "system": "http://snomed.info/sct",
                        "code": "183932001",
                        "userSelected": true,
                        "display": "Procedure contraindicated (situation)"
                    }]},
                    "url": "http://hl7.org/fhir/us/qicore/StructureDefinition/qicore-notDoneReason"
                }],
                "code": {"coding": [{
                    "system": "http://loinc.org",
                    "code": "8480-6",
                    "userSelected": true,
                    "display": "Systolic blood pressure"
                }]},
                "effectiveDateTime": "2026-01-01T08:10:00.000+00:00",
                "meta": {"profile": ["http://hl7.org/fhir/us/qicore/StructureDefinition/qicore-observationcancelled"]},
                "subject": {"reference": "Patient/efee27eb-af27-42d3-93a3-83371d134307"},
                "id": "21efb0a2-45af-4908-898f-c4c49978e275",
                "category": [{"coding": [{
                    "system": "http://terminology.hl7.org/CodeSystem/observation-category",
                    "code": "procedure",
                    "display": "Procedure"
                }]}],
                "issued": "2026-01-01T08:05:00.000+00:00",
                "resourceType": "Observation",
                "status": "cancelled"
            },
            "fullUrl": "https://madie.cms.gov/Observation/21efb0a2-45af-4908-898f-c4c49978e275"
        },
        {
            "request": {
                "method": "PUT",
                "url": "Observation/cd1dfa4f-54a1-4b22-8f72-7a0a0de64528"
            },
            "resource": {
                "valueBoolean": true,
                "extension": [{
                    "valueCodeableConcept": {"coding": [{
                        "system": "http://snomed.info/sct",
                        "code": "59037007",
                        "userSelected": true,
                        "display": "Intolerance to drug (finding)",
                        "version": "2022-03"
                    }]},
                    "url": "http://hl7.org/fhir/us/qicore/StructureDefinition/qicore-notDoneReason"
                }],
                "code": {"coding": [{
                    "system": "http://loinc.org",
                    "code": "8462-4",
                    "userSelected": true,
                    "display": "Diastolic blood pressure"
                }]},
                "effectiveDateTime": "2026-01-01T08:10:00.000+00:00",
                "meta": {"profile": ["http://hl7.org/fhir/us/qicore/StructureDefinition/qicore-observationcancelled"]},
                "subject": {"reference": "Patient/efee27eb-af27-42d3-93a3-83371d134307"},
                "id": "cd1dfa4f-54a1-4b22-8f72-7a0a0de64528",
                "category": [{"coding": [{
                    "system": "http://terminology.hl7.org/CodeSystem/observation-category",
                    "code": "procedure",
                    "display": "Procedure"
                }]}],
                "issued": "2026-01-01T08:05:00.000+00:00",
                "resourceType": "Observation",
                "status": "cancelled"
            },
            "fullUrl": "https://madie.cms.gov/Observation/cd1dfa4f-54a1-4b22-8f72-7a0a0de64528"
        },
        {
            "request": {
                "method": "PUT",
                "url": "Coverage/3f39f270-a72a-4652-ab55-6adc2c0767f7"
            },
            "resource": {
                "payor": [{"reference": "Organization/fc223e8e-fb57-4aa2-a4ad-5efc6a391ec5"}],
                "beneficiary": {"reference": "Patient/efee27eb-af27-42d3-93a3-83371d134307"},
                "meta": {"profile": ["http://hl7.org/fhir/us/qicore/StructureDefinition/qicore-coverage"]},
                "id": "3f39f270-a72a-4652-ab55-6adc2c0767f7",
                "resourceType": "Coverage",
                "status": "active"
            },
            "fullUrl": "https://madie.cms.gov/Coverage/3f39f270-a72a-4652-ab55-6adc2c0767f7"
        },
        {
            "request": {
                "method": "PUT",
                "url": "Organization/fc223e8e-fb57-4aa2-a4ad-5efc6a391ec5"
            },
            "resource": {
                "identifier": [{
                    "system": "urn:oid:2.16.840.1.113883.4.4",
                    "use": "temp",
                    "value": "21-3259825"
                }],
                "address": [{
                    "country": "USA",
                    "city": "Dallas",
                    "use": "billing",
                    "line": ["P.O. Box 660044"],
                    "postalCode": "75266-0044",
                    "state": "TX",
                    "type": "postal"
                }],
                "meta": {"profile": ["http://hl7.org/fhir/us/qicore/StructureDefinition/qicore-organization"]},
                "name": "Blue Cross Blue Shield of Texas",
                "active": true,
                "telecom": [{
                    "system": "phone",
                    "value": "(+1) 972-766-6900"
                }],
                "id": "fc223e8e-fb57-4aa2-a4ad-5efc6a391ec5",
                "type": [{"coding": [{
                    "system": "http://terminology.hl7.org/CodeSystem/organization-type",
                    "code": "pay",
                    "display": "Payer"
                }]}],
                "resourceType": "Organization"
            },
            "fullUrl": "https://madie.cms.gov/Organization/fc223e8e-fb57-4aa2-a4ad-5efc6a391ec5"
        },
        {
            "request": {
                "method": "PUT",
                "url": "Practitioner/87eec81d-6590-493c-a121-cf698c6803e5"
            },
            "resource": {
                "identifier": [{
                    "system": "http://hl7.org/fhir/sid/us-npi",
                    "value": "123456"
                }],
                "meta": {"profile": ["http://hl7.org/fhir/us/qicore/StructureDefinition/qicore-practitioner"]},
                "name": [{
                    "prefix": ["Dr"],
                    "family": "Evil"
                }],
                "id": "87eec81d-6590-493c-a121-cf698c6803e5",
                "resourceType": "Practitioner"
            },
            "fullUrl": "https://madie.cms.gov/Practitioner/87eec81d-6590-493c-a121-cf698c6803e5"
        },
        {
            "request": {
                "method": "PUT",
                "url": "MeasureReport/d263da04-96ed-4ffd-8577-75f41810fad1"
            },
            "resource": {
                "contained": [{
                    "parameter": [{
                        "valueString": "efee27eb-af27-42d3-93a3-83371d134307",
                        "name": "subject"
                    }],
                    "id": "514371e2-730b-499c-a6c9-7b29207aa584-parameters",
                    "resourceType": "Parameters"
                }],
                "extension": [
                    {
                        "valueReference": {"reference": "#514371e2-730b-499c-a6c9-7b29207aa584-parameters"},
                        "url": "http://hl7.org/fhir/StructureDefinition/cqf-inputParameters"
                    },
                    {
                        "valueMarkdown": "Enc. first day MP, age 18 one day before start of MP, BP declined d/t contraindications ",
                        "url": "http://hl7.org/fhir/us/cqfmeasures/StructureDefinition/cqfm-testCaseDescription"
                    }
                ],
                "period": {
                    "start": "2026-01-01",
                    "end": "2026-12-31"
                },
                "measure": "https://madie.cms.gov/Measure/CMS22FHIRPCSBPScreeningFollowUp",
                "meta": {"profile": ["http://hl7.org/fhir/us/cqfmeasures/StructureDefinition/test-case-cqfm"]},
                "modifierExtension": [{
                    "valueBoolean": true,
                    "url": "http://hl7.org/fhir/us/cqfmeasures/StructureDefinition/cqfm-isTestCase"
                }],
                "id": "d263da04-96ed-4ffd-8577-75f41810fad1",
                "evaluatedResource": [
                    {"reference": "Patient/efee27eb-af27-42d3-93a3-83371d134307"},
                    {"reference": "Encounter/52d2e4e8-26fa-41d2-92f0-6a6129186d8e"},
                    {"reference": "Observation/21efb0a2-45af-4908-898f-c4c49978e275"},
                    {"reference": "Observation/cd1dfa4f-54a1-4b22-8f72-7a0a0de64528"},
                    {"reference": "Coverage/3f39f270-a72a-4652-ab55-6adc2c0767f7"},
                    {"reference": "Organization/fc223e8e-fb57-4aa2-a4ad-5efc6a391ec5"},
                    {"reference": "Practitioner/87eec81d-6590-493c-a121-cf698c6803e5"}
                ],
                "type": "individual",
                "resourceType": "MeasureReport",
                "status": "complete",
                "group": [{
                    "id": "Group_1",
                    "measureScore": {"value": 0},
                    "population": [
                        {
                            "code": {"coding": [{
                                "system": "http://terminology.hl7.org/CodeSystem/measure-population",
                                "code": "initial-population",
                                "display": "Initial Population"
                            }]},
                            "count": 1,
                            "id": "InitialPopulation_1"
                        },
                        {
                            "code": {"coding": [{
                                "system": "http://terminology.hl7.org/CodeSystem/measure-population",
                                "code": "denominator",
                                "display": "Denominator"
                            }]},
                            "count": 1,
                            "id": "Denominator_1"
                        },
                        {
                            "code": {"coding": [{
                                "system": "http://terminology.hl7.org/CodeSystem/measure-population",
                                "code": "denominator-exclusion",
                                "display": "Denominator Exclusion"
                            }]},
                            "count": 0,
                            "id": "DenominatorExclusion_1"
                        },
                        {
                            "code": {"coding": [{
                                "system": "http://terminology.hl7.org/CodeSystem/measure-population",
                                "code": "numerator",
                                "display": "Numerator"
                            }]},
                            "count": 0,
                            "id": "Numerator_1"
                        },
                        {
                            "code": {"coding": [{
                                "system": "http://terminology.hl7.org/CodeSystem/measure-population",
                                "code": "denominator-exception",
                                "display": "Denominator Exception"
                            }]},
                            "count": 1,
                            "id": "DenominatorException_1"
                        }
                    ]
                }]
            },
            "fullUrl": "https://madie.cms.gov/MeasureReport/d263da04-96ed-4ffd-8577-75f41810fad1"
        }
    ],
    "id": "62d96963f0347d1abcae6c0e",
    "type": "transaction",
    "resourceType": "Bundle"
}