{
    "entry": [
        {
            "request": {
                "method": "PUT",
                "url": "Patient/86618b52-e0cc-4e90-b48c-cd64bbae8973"
            },
            "resource": {
                "identifier": [{
                    "system": "https://bonnie-fhir.healthit.gov/",
                    "type": {"coding": [{
                        "system": "http://terminology.hl7.org/CodeSystem/v2-0203",
                        "code": "MR"
                    }]},
                    "value": "62d95451f0347d1abcae6c04"
                }],
                "extension": [
                    {
                        "extension": [
                            {
                                "valueCoding": {
                                    "system": "urn:oid:2.16.840.1.113883.6.238",
                                    "code": "2076-8",
                                    "userSelected": true,
                                    "display": "Native Hawaiian or Other Pacific Islander"
                                },
                                "url": "ombCategory"
                            },
                            {
                                "valueString": "Native Hawaiian or Other Pacific Islander",
                                "url": "text"
                            }
                        ],
                        "url": "http://hl7.org/fhir/us/core/StructureDefinition/us-core-race"
                    },
                    {
                        "extension": [
                            {
                                "valueCoding": {
                                    "system": "urn:oid:2.16.840.1.113883.6.238",
                                    "code": "2135-2",
                                    "userSelected": true,
                                    "display": "Hispanic or Latino"
                                },
                                "url": "ombCategory"
                            },
                            {
                                "valueString": "Hispanic or Latino",
                                "url": "text"
                            }
                        ],
                        "url": "http://hl7.org/fhir/us/core/StructureDefinition/us-core-ethnicity"
                    }
                ],
                "gender": "male",
                "meta": {"profile": ["http://hl7.org/fhir/us/qicore/StructureDefinition/qicore-patient"]},
                "name": [{
                    "given": ["2EncsSecondDeclined"],
                    "family": "NUMERandDENEXCEPPass"
                }],
                "id": "86618b52-e0cc-4e90-b48c-cd64bbae8973",
                "birthDate": "1977-01-01",
                "resourceType": "Patient"
            },
            "fullUrl": "https://madie.cms.gov/Patient/86618b52-e0cc-4e90-b48c-cd64bbae8973"
        },
        {
            "request": {
                "method": "PUT",
                "url": "Encounter/b10e0edd-7161-44a0-bce8-cca558be669b"
            },
            "resource": {
                "period": {
                    "start": "2026-01-01T08:00:00.000+00:00",
                    "end": "2026-01-01T08:45:00.000+00:00"
                },
                "meta": {"profile": ["http://hl7.org/fhir/us/qicore/StructureDefinition/qicore-encounter"]},
                "subject": {"reference": "Patient/86618b52-e0cc-4e90-b48c-cd64bbae8973"},
                "id": "b10e0edd-7161-44a0-bce8-cca558be669b",
                "type": [{"coding": [{
                    "system": "http://snomed.info/sct",
                    "code": "103705002",
                    "userSelected": true,
                    "display": "Patient status observation (procedure)",
                    "version": "2022-03"
                }]}],
                "class": {
                    "system": "http://terminology.hl7.org/CodeSystem/v3-ActCode",
                    "code": "AMB",
                    "display": "ambulatory"
                },
                "resourceType": "Encounter",
                "status": "finished"
            },
            "fullUrl": "https://madie.cms.gov/Encounter/b10e0edd-7161-44a0-bce8-cca558be669b"
        },
        {
            "request": {
                "method": "PUT",
                "url": "Observation/55d31c5d-d7de-4daf-ad04-e9f1725731ce"
            },
            "resource": {
                "component": [
                    {
                        "code": {"coding": [{
                            "system": "http://loinc.org",
                            "code": "8480-6",
                            "display": "Systolic blood pressure"
                        }]},
                        "valueQuantity": {
                            "unit": "mmHg",
                            "system": "http://unitsofmeasure.org",
                            "code": "mm[Hg]",
                            "value": 130
                        }
                    },
                    {
                        "code": {"coding": [{
                            "system": "http://loinc.org",
                            "code": "8462-4",
                            "display": "Diastolic blood pressure"
                        }]},
                        "valueQuantity": {
                            "unit": "mmHg",
                            "system": "http://unitsofmeasure.org",
                            "code": "mm[Hg]",
                            "value": 80
                        }
                    }
                ],
                "code": {"coding": [{
                    "system": "http://loinc.org",
                    "code": "85354-9",
                    "display": "Blood pressure panel"
                }]},
                "effectiveDateTime": "2026-01-01T08:01:00.000+00:00",
                "meta": {"profile": ["http://hl7.org/fhir/us/core/StructureDefinition/us-core-blood-pressure"]},
                "subject": {"reference": "Patient/86618b52-e0cc-4e90-b48c-cd64bbae8973"},
                "id": "55d31c5d-d7de-4daf-ad04-e9f1725731ce",
                "category": [{
                    "coding": [{
                        "system": "http://terminology.hl7.org/CodeSystem/observation-category",
                        "code": "vital-signs",
                        "display": "Vital Signs"
                    }],
                    "text": "Vital Signs"
                }],
                "resourceType": "Observation",
                "status": "final"
            },
            "fullUrl": "https://madie.cms.gov/Observation/55d31c5d-d7de-4daf-ad04-e9f1725731ce"
        },
        {
            "request": {
                "method": "PUT",
                "url": "ServiceRequest/cc21890c-4e39-4487-bd98-a5a86c7fc02c"
            },
            "resource": {
                "code": {"coding": [{
                    "system": "http://snomed.info/sct",
                    "code": "20093000",
                    "userSelected": true,
                    "display": "Alcohol rehabilitation and detoxification (regime/therapy)",
                    "version": "2022-03"
                }]},
                "authoredOn": "2026-01-01T08:30:00.000+00:00",
                "meta": {"profile": ["http://hl7.org/fhir/us/qicore/StructureDefinition/qicore-servicerequest"]},
                "subject": {"reference": "Patient/86618b52-e0cc-4e90-b48c-cd64bbae8973"},
                "id": "cc21890c-4e39-4487-bd98-a5a86c7fc02c",
                "doNotPerform": true,
                "intent": "order",
                "resourceType": "ServiceRequest",
                "status": "active"
            },
            "fullUrl": "https://madie.cms.gov/ServiceRequest/cc21890c-4e39-4487-bd98-a5a86c7fc02c"
        },
        {
            "request": {
                "method": "PUT",
                "url": "ServiceRequest/b5d0e548-7628-46dd-9100-3314908effa6"
            },
            "resource": {
                "code": {"coding": [{
                    "system": "http://snomed.info/sct",
                    "code": "183617005",
                    "userSelected": true,
                    "display": "Follow-up 1 day (finding)",
                    "version": "2022-03"
                }]},
                "authoredOn": "2026-01-01T08:30:00.000+00:00",
                "meta": {"profile": ["http://hl7.org/fhir/us/qicore/StructureDefinition/qicore-servicerequest"]},
                "subject": {"reference": "Patient/86618b52-e0cc-4e90-b48c-cd64bbae8973"},
                "id": "b5d0e548-7628-46dd-9100-3314908effa6",
                "doNotPerform": true,
                "intent": "order",
                "resourceType": "ServiceRequest",
                "status": "active"
            },
            "fullUrl": "https://madie.cms.gov/ServiceRequest/b5d0e548-7628-46dd-9100-3314908effa6"
        },
        {
            "request": {
                "method": "PUT",
                "url": "Encounter/998cfa49-46c5-4d4c-a404-ebd0cb7fb14d"
            },
            "resource": {
                "period": {
                    "start": "2026-12-31T10:00:00.000+00:00",
                    "end": "2026-12-31T10:45:00.000+00:00"
                },
                "meta": {"profile": ["http://hl7.org/fhir/us/qicore/StructureDefinition/qicore-encounter"]},
                "subject": {"reference": "Patient/86618b52-e0cc-4e90-b48c-cd64bbae8973"},
                "id": "998cfa49-46c5-4d4c-a404-ebd0cb7fb14d",
                "type": [{"coding": [{
                    "system": "http://snomed.info/sct",
                    "code": "103705002",
                    "userSelected": true,
                    "display": "Patient status observation (procedure)",
                    "version": "2022-03"
                }]}],
                "class": {
                    "system": "http://terminology.hl7.org/CodeSystem/v3-ActCode",
                    "code": "AMB",
                    "display": "ambulatory"
                },
                "resourceType": "Encounter",
                "status": "finished"
            },
            "fullUrl": "https://madie.cms.gov/Encounter/998cfa49-46c5-4d4c-a404-ebd0cb7fb14d"
        },
        {
            "request": {
                "method": "PUT",
                "url": "Observation/55792440-7275-4f2b-8da4-7c9c59cfd023"
            },
            "resource": {
                "component": [
                    {
                        "code": {"coding": [{
                            "system": "http://loinc.org",
                            "code": "8480-6",
                            "display": "Systolic blood pressure"
                        }]},
                        "valueQuantity": {
                            "unit": "mmHg",
                            "system": "http://unitsofmeasure.org",
                            "code": "mm[Hg]",
                            "value": 160
                        }
                    },
                    {
                        "code": {"coding": [{
                            "system": "http://loinc.org",
                            "code": "8462-4",
                            "display": "Diastolic blood pressure"
                        }]},
                        "valueQuantity": {
                            "unit": "mmHg",
                            "system": "http://unitsofmeasure.org",
                            "code": "mm[Hg]",
                            "value": 90
                        }
                    }
                ],
                "code": {"coding": [{
                    "system": "http://loinc.org",
                    "code": "85354-9",
                    "display": "Blood pressure panel"
                }]},
                "effectiveDateTime": "2026-12-31T10:01:00.000+00:00",
                "meta": {"profile": ["http://hl7.org/fhir/us/core/StructureDefinition/us-core-blood-pressure"]},
                "subject": {"reference": "Patient/86618b52-e0cc-4e90-b48c-cd64bbae8973"},
                "id": "55792440-7275-4f2b-8da4-7c9c59cfd023",
                "category": [{
                    "coding": [{
                        "system": "http://terminology.hl7.org/CodeSystem/observation-category",
                        "code": "vital-signs",
                        "display": "Vital Signs"
                    }],
                    "text": "Vital Signs"
                }],
                "resourceType": "Observation",
                "status": "final"
            },
            "fullUrl": "https://madie.cms.gov/Observation/55792440-7275-4f2b-8da4-7c9c59cfd023"
        },
        {
            "request": {
                "method": "PUT",
                "url": "ServiceRequest/7a98cf1f-63e6-452b-b9ea-c65cd4fc0188"
            },
            "resource": {
                "extension": [{
                    "valueCodeableConcept": {"coding": [{
                        "system": "http://snomed.info/sct",
                        "code": "183945002",
                        "userSelected": true,
                        "display": "Procedure declined for religious reason (situation)",
                        "version": "2022-03"
                    }]},
                    "url": "http://hl7.org/fhir/us/qicore/StructureDefinition/qicore-doNotPerformReason"
                }],
                "code": {"coding": [{
                    "system": "http://snomed.info/sct",
                    "code": "20093000",
                    "userSelected": true,
                    "display": "Alcohol rehabilitation and detoxification (regime/therapy)",
                    "version": "2022-03"
                }]},
                "authoredOn": "2026-12-31T10:44:00.000+00:00",
                "meta": {"profile": ["http://hl7.org/fhir/us/qicore/StructureDefinition/qicore-servicenotrequested"]},
                "subject": {"reference": "Patient/86618b52-e0cc-4e90-b48c-cd64bbae8973"},
                "id": "7a98cf1f-63e6-452b-b9ea-c65cd4fc0188",
                "doNotPerform": true,
                "intent": "order",
                "resourceType": "ServiceRequest",
                "status": "completed"
            },
            "fullUrl": "https://madie.cms.gov/ServiceRequest/7a98cf1f-63e6-452b-b9ea-c65cd4fc0188"
        },
        {
            "request": {
                "method": "PUT",
                "url": "ServiceRequest/a8668265-3c8e-4cdf-980c-578dd9e76b3f"
            },
            "resource": {
                "extension": [{
                    "valueCodeableConcept": {"coding": [{
                        "system": "http://snomed.info/sct",
                        "code": "105480006",
                        "userSelected": true,
                        "display": "Procedure declined by patient (situation)"
                    }]},
                    "url": "http://hl7.org/fhir/us/qicore/StructureDefinition/qicore-doNotPerformReason"
                }],
                "code": {"coding": [{
                    "system": "http://snomed.info/sct",
                    "code": "134403003",
                    "userSelected": true,
                    "display": "Urgent referral (procedure)",
                    "version": "2022-03"
                }]},
                "authoredOn": "2026-12-31T10:20:00.000+00:00",
                "meta": {"profile": ["http://hl7.org/fhir/us/qicore/StructureDefinition/qicore-servicenotrequested"]},
                "subject": {"reference": "Patient/86618b52-e0cc-4e90-b48c-cd64bbae8973"},
                "id": "a8668265-3c8e-4cdf-980c-578dd9e76b3f",
                "doNotPerform": true,
                "intent": "order",
                "resourceType": "ServiceRequest",
                "status": "completed"
            },
            "fullUrl": "https://madie.cms.gov/ServiceRequest/a8668265-3c8e-4cdf-980c-578dd9e76b3f"
        },
        {
            "request": {
                "method": "PUT",
                "url": "Coverage/5496078d-88ae-4a2b-b9f5-60e80f306ce7"
            },
            "resource": {
                "payor": [{"reference": "Organization/ab0804fb-8815-4bce-b5ec-cd75656ad4d5"}],
                "beneficiary": {"reference": "Patient/86618b52-e0cc-4e90-b48c-cd64bbae8973"},
                "meta": {"profile": ["http://hl7.org/fhir/us/qicore/StructureDefinition/qicore-coverage"]},
                "id": "5496078d-88ae-4a2b-b9f5-60e80f306ce7",
                "resourceType": "Coverage",
                "status": "active"
            },
            "fullUrl": "https://madie.cms.gov/Coverage/5496078d-88ae-4a2b-b9f5-60e80f306ce7"
        },
        {
            "request": {
                "method": "PUT",
                "url": "Organization/ab0804fb-8815-4bce-b5ec-cd75656ad4d5"
            },
            "resource": {
                "identifier": [{
                    "system": "urn:oid:2.16.840.1.113883.4.4",
                    "use": "temp",
                    "value": "21-3259825"
                }],
                "address": [{
                    "country": "USA",
                    "city": "Dallas",
                    "use": "billing",
                    "line": ["P.O. Box 660044"],
                    "postalCode": "75266-0044",
                    "state": "TX",
                    "type": "postal"
                }],
                "meta": {"profile": ["http://hl7.org/fhir/us/qicore/StructureDefinition/qicore-organization"]},
                "name": "Blue Cross Blue Shield of Texas",
                "active": true,
                "telecom": [{
                    "system": "phone",
                    "value": "(+1) 972-766-6900"
                }],
                "id": "ab0804fb-8815-4bce-b5ec-cd75656ad4d5",
                "type": [{"coding": [{
                    "system": "http://terminology.hl7.org/CodeSystem/organization-type",
                    "code": "pay",
                    "display": "Payer"
                }]}],
                "resourceType": "Organization"
            },
            "fullUrl": "https://madie.cms.gov/Organization/ab0804fb-8815-4bce-b5ec-cd75656ad4d5"
        },
        {
            "request": {
                "method": "PUT",
                "url": "Practitioner/5884b637-51f9-4685-81a9-8b4542f43e8f"
            },
            "resource": {
                "identifier": [{
                    "system": "http://hl7.org/fhir/sid/us-npi",
                    "value": "123456"
                }],
                "meta": {"profile": ["http://hl7.org/fhir/us/qicore/StructureDefinition/qicore-practitioner"]},
                "name": [{
                    "prefix": ["Dr"],
                    "family": "Evil"
                }],
                "id": "5884b637-51f9-4685-81a9-8b4542f43e8f",
                "resourceType": "Practitioner"
            },
            "fullUrl": "https://madie.cms.gov/Practitioner/5884b637-51f9-4685-81a9-8b4542f43e8f"
        },
        {
            "request": {
                "method": "PUT",
                "url": "MeasureReport/180850ae-9e9d-450e-92a9-23e06206a613"
            },
            "resource": {
                "contained": [{
                    "parameter": [{
                        "valueString": "86618b52-e0cc-4e90-b48c-cd64bbae8973",
                        "name": "subject"
                    }],
                    "id": "94611280-6ade-4f2b-8f03-eefa614002ca-parameters",
                    "resourceType": "Parameters"
                }],
                "extension": [
                    {
                        "valueReference": {"reference": "#94611280-6ade-4f2b-8f03-eefa614002ca-parameters"},
                        "url": "http://hl7.org/fhir/StructureDefinition/cqf-inputParameters"
                    },
                    {
                        "valueMarkdown": "1st Enc. 01/01 0800-0845 during MP with BP readings 130/80, follow up within 4 wks. referral to detox - passes numer\n2nd Enc. 12/31 1000-1045 during MP, BP 160/90, pt. declined referral and detox. pass denexcep",
                        "url": "http://hl7.org/fhir/us/cqfmeasures/StructureDefinition/cqfm-testCaseDescription"
                    }
                ],
                "period": {
                    "start": "2026-01-01",
                    "end": "2026-12-31"
                },
                "measure": "https://madie.cms.gov/Measure/CMS22FHIRPCSBPScreeningFollowUp",
                "meta": {"profile": ["http://hl7.org/fhir/us/cqfmeasures/StructureDefinition/test-case-cqfm"]},
                "modifierExtension": [{
                    "valueBoolean": true,
                    "url": "http://hl7.org/fhir/us/cqfmeasures/StructureDefinition/cqfm-isTestCase"
                }],
                "id": "180850ae-9e9d-450e-92a9-23e06206a613",
                "evaluatedResource": [
                    {"reference": "Patient/86618b52-e0cc-4e90-b48c-cd64bbae8973"},
                    {"reference": "Encounter/b10e0edd-7161-44a0-bce8-cca558be669b"},
                    {"reference": "Observation/55d31c5d-d7de-4daf-ad04-e9f1725731ce"},
                    {"reference": "ServiceRequest/cc21890c-4e39-4487-bd98-a5a86c7fc02c"},
                    {"reference": "ServiceRequest/b5d0e548-7628-46dd-9100-3314908effa6"},
                    {"reference": "Encounter/998cfa49-46c5-4d4c-a404-ebd0cb7fb14d"},
                    {"reference": "Observation/55792440-7275-4f2b-8da4-7c9c59cfd023"},
                    {"reference": "ServiceRequest/7a98cf1f-63e6-452b-b9ea-c65cd4fc0188"},
                    {"reference": "ServiceRequest/a8668265-3c8e-4cdf-980c-578dd9e76b3f"},
                    {"reference": "Coverage/5496078d-88ae-4a2b-b9f5-60e80f306ce7"},
                    {"reference": "Organization/ab0804fb-8815-4bce-b5ec-cd75656ad4d5"},
                    {"reference": "Practitioner/5884b637-51f9-4685-81a9-8b4542f43e8f"}
                ],
                "type": "individual",
                "resourceType": "MeasureReport",
                "status": "complete",
                "group": [{
                    "id": "Group_1",
                    "measureScore": {"value": 0},
                    "population": [
                        {
                            "code": {"coding": [{
                                "system": "http://terminology.hl7.org/CodeSystem/measure-population",
                                "code": "initial-population",
                                "display": "Initial Population"
                            }]},
                            "count": 2,
                            "id": "InitialPopulation_1"
                        },
                        {
                            "code": {"coding": [{
                                "system": "http://terminology.hl7.org/CodeSystem/measure-population",
                                "code": "denominator",
                                "display": "Denominator"
                            }]},
                            "count": 2,
                            "id": "Denominator_1"
                        },
                        {
                            "code": {"coding": [{
                                "system": "http://terminology.hl7.org/CodeSystem/measure-population",
                                "code": "denominator-exclusion",
                                "display": "Denominator Exclusion"
                            }]},
                            "count": 0,
                            "id": "DenominatorExclusion_1"
                        },
                        {
                            "code": {"coding": [{
                                "system": "http://terminology.hl7.org/CodeSystem/measure-population",
                                "code": "numerator",
                                "display": "Numerator"
                            }]},
                            "count": 1,
                            "id": "Numerator_1"
                        },
                        {
                            "code": {"coding": [{
                                "system": "http://terminology.hl7.org/CodeSystem/measure-population",
                                "code": "denominator-exception",
                                "display": "Denominator Exception"
                            }]},
                            "count": 1,
                            "id": "DenominatorException_1"
                        }
                    ]
                }]
            },
            "fullUrl": "https://madie.cms.gov/MeasureReport/180850ae-9e9d-450e-92a9-23e06206a613"
        }
    ],
    "id": "62d95451f0347d1abcae6c04",
    "type": "transaction",
    "resourceType": "Bundle"
}