{
  "resourceType": "Bundle",
  "id": "DENEXPass-FrailtySymptomOverlapsMP",
  "type": "transaction",
  "entry": [ {
    "fullUrl": "https://madie.cms.gov/Patient/686e2c47-b08f-465c-ab31-1712dd72028b",
    "resource": {
      "resourceType": "Patient",
      "id": "686e2c47-b08f-465c-ab31-1712dd72028b",
      "meta": {
        "profile": [ "http://hl7.org/fhir/us/qicore/StructureDefinition/qicore-patient" ]
      },
      "extension": [ {
        "url": "http://hl7.org/fhir/us/core/StructureDefinition/us-core-race",
        "extension": [ {
          "url": "ombCategory",
          "valueCoding": {
            "system": "urn:oid:2.16.840.1.113883.6.238",
            "code": "2028-9",
            "display": "Asian"
          }
        }, {
          "url": "text",
          "valueString": "Asian"
        } ]
      }, {
        "url": "http://hl7.org/fhir/us/core/StructureDefinition/us-core-ethnicity",
        "extension": [ {
          "url": "ombCategory",
          "valueCoding": {
            "system": "urn:oid:2.16.840.1.113883.6.238",
            "code": "2135-2",
            "display": "Hispanic or Latino"
          }
        }, {
          "url": "text",
          "valueString": "Hispanic or Latino"
        } ]
      } ],
      "identifier": [ {
        "system": "http://hospital.smarthealthit.org",
        "value": "999999995"
      } ],
      "name": [ {
        "family": "DENEXPass",
        "given": [ "FrailtySymptomOverlapsMP" ]
      } ],
      "gender": "female",
      "birthDate": "1959-12-31"
    },
    "request": {
      "method": "PUT",
      "url": "Patient/686e2c47-b08f-465c-ab31-1712dd72028b"
    }
  }, {
    "fullUrl": "https://madie.cms.gov/Encounter/c765a27c-947d-4514-8e0a-7caa854ba1b0",
    "resource": {
      "resourceType": "Encounter",
      "id": "c765a27c-947d-4514-8e0a-7caa854ba1b0",
      "meta": {
        "profile": [ "http://hl7.org/fhir/us/qicore/StructureDefinition/qicore-encounter" ]
      },
      "status": "finished",
      "class": {
        "system": "http://terminology.hl7.org/CodeSystem/v3-ActCode",
        "code": "AMB",
        "display": "ambulatory"
      },
      "type": [ {
        "coding": [ {
          "system": "http://snomed.info/sct",
          "code": "3391000175108",
          "display": "Office visit for pediatric care and assessment (procedure)"
        } ]
      } ],
      "subject": {
        "reference": "Patient/686e2c47-b08f-465c-ab31-1712dd72028b"
      },
      "period": {
        "start": "2026-01-01T00:00:00.000+00:00",
        "end": "2026-01-01T01:00:00.000+00:00"
      }
    },
    "request": {
      "method": "PUT",
      "url": "Encounter/c765a27c-947d-4514-8e0a-7caa854ba1b0"
    }
  }, {
    "fullUrl": "https://madie.cms.gov/Condition/3f2af8fe-0fa0-4ee9-96f2-3f257d454443",
    "resource": {
      "resourceType": "Condition",
      "id": "3f2af8fe-0fa0-4ee9-96f2-3f257d454443",
      "meta": {
        "profile": [ "http://hl7.org/fhir/us/qicore/StructureDefinition/qicore-condition-problems-health-concerns" ]
      },
      "clinicalStatus": {
        "coding": [ {
          "system": "http://terminology.hl7.org/CodeSystem/condition-clinical",
          "code": "active"
        } ]
      },
      "category": [ {
        "coding": [ {
          "system": "http://terminology.hl7.org/CodeSystem/condition-category",
          "code": "problem-list-item",
          "display": "Problem List Item"
        } ]
      } ],
      "code": {
        "coding": [ {
          "system": "http://snomed.info/sct",
          "code": "371125006",
          "display": "Labile essential hypertension (disorder)"
        } ]
      },
      "subject": {
        "reference": "Patient/686e2c47-b08f-465c-ab31-1712dd72028b"
      },
      "onsetDateTime": "2026-06-30T23:59:59.000+00:00"
    },
    "request": {
      "method": "PUT",
      "url": "Condition/3f2af8fe-0fa0-4ee9-96f2-3f257d454443"
    }
  }, {
    "fullUrl": "https://madie.cms.gov/MedicationRequest/2855c1be-b0dd-4d03-814c-969ff9e02718",
    "resource": {
      "resourceType": "MedicationRequest",
      "id": "2855c1be-b0dd-4d03-814c-969ff9e02718",
      "meta": {
        "profile": [ "http://hl7.org/fhir/us/qicore/StructureDefinition/qicore-medicationrequest" ]
      },
      "status": "active",
      "intent": "order",
      "doNotPerform": false,
      "medicationCodeableConcept": {
        "coding": [ {
          "system": "http://www.nlm.nih.gov/research/umls/rxnorm",
          "code": "312836",
          "display": "rivastigmine 6 MG Oral Capsule"
        } ]
      },
      "subject": {
        "reference": "Patient/686e2c47-b08f-465c-ab31-1712dd72028b"
      },
      "authoredOn": "2026-01-01T00:00:00.000+00:00",
      "requester": {
        "reference": "Practitioner/example"
      },
      "dispenseRequest": {
        "expectedSupplyDuration": {
          "value": 90,
          "system": "http://unitsofmeasure.org",
          "code": "days"
        }
      }
    },
    "request": {
      "method": "PUT",
      "url": "MedicationRequest/2855c1be-b0dd-4d03-814c-969ff9e02718"
    }
  }, {
    "fullUrl": "https://madie.cms.gov/Observation/e68f4064-1cda-4733-9ff7-21d26ca0228f",
    "resource": {
      "resourceType": "Observation",
      "id": "e68f4064-1cda-4733-9ff7-21d26ca0228f",
      "meta": {
        "profile": [ "http://hl7.org/fhir/us/qicore/StructureDefinition/qicore-simple-observation" ]
      },
      "status": "final",
      "category": [ {
        "coding": [ {
          "system": "http://terminology.hl7.org/CodeSystem/observation-category",
          "code": "survey"
        } ]
      } ],
      "code": {
        "coding": [ {
          "system": "http://hl7.org/fhir/sid/icd-10-cm",
          "code": "R26.89",
          "display": "Other abnormalities of gait and mobility"
        } ]
      },
      "subject": {
        "reference": "Patient/686e2c47-b08f-465c-ab31-1712dd72028b"
      },
      "effectivePeriod": {
        "start": "2026-01-01T00:00:00.000+00:00",
        "end": "2026-01-02T00:00:00.000+00:00"
      }
    },
    "request": {
      "method": "PUT",
      "url": "Observation/e68f4064-1cda-4733-9ff7-21d26ca0228f"
    }
  }, {
    "fullUrl": "https://madie.cms.gov/MeasureReport/9c617282-4754-4027-a23f-a20908dda4eb",
    "resource": {
      "resourceType": "MeasureReport",
      "id": "9c617282-4754-4027-a23f-a20908dda4eb",
      "meta": {
        "profile": [ "http://hl7.org/fhir/us/cqfmeasures/StructureDefinition/test-case-cqfm" ]
      },
      "contained": [ {
        "resourceType": "Parameters",
        "id": "dbf6b382-3676-4ce4-9f1b-11883386bb78-parameters",
        "parameter": [ {
          "name": "subject",
          "valueString": "686e2c47-b08f-465c-ab31-1712dd72028b"
        } ]
      } ],
      "extension": [ {
        "url": "http://hl7.org/fhir/StructureDefinition/cqf-inputParameters",
        "valueReference": {
          "reference": "#dbf6b382-3676-4ce4-9f1b-11883386bb78-parameters"
        }
      }, {
        "url": "http://hl7.org/fhir/us/cqfmeasures/StructureDefinition/cqfm-testCaseDescription",
        "valueMarkdown": "Frailty symptom overlaps MP"
      } ],
      "modifierExtension": [ {
        "url": "http://hl7.org/fhir/us/cqfmeasures/StructureDefinition/cqfm-isTestCase",
        "valueBoolean": true
      } ],
      "status": "complete",
      "type": "individual",
      "measure": "https://madie.cms.gov/Measure/CMS165FHIRControllingHighBloodPressure",
      "period": {
        "start": "2026-01-01",
        "end": "2026-12-31"
      },
      "group": [ {
        "id": "Group_1",
        "population": [ {
          "id": "InitialPopulation_1",
          "code": {
            "coding": [ {
              "system": "http://terminology.hl7.org/CodeSystem/measure-population",
              "code": "initial-population",
              "display": "Initial Population"
            } ]
          },
          "count": 1
        }, {
          "id": "Denominator_1",
          "code": {
            "coding": [ {
              "system": "http://terminology.hl7.org/CodeSystem/measure-population",
              "code": "denominator",
              "display": "Denominator"
            } ]
          },
          "count": 1
        }, {
          "id": "DenominatorExclusion_1",
          "code": {
            "coding": [ {
              "system": "http://terminology.hl7.org/CodeSystem/measure-population",
              "code": "denominator-exclusion",
              "display": "Denominator Exclusion"
            } ]
          },
          "count": 1
        }, {
          "id": "Numerator_1",
          "code": {
            "coding": [ {
              "system": "http://terminology.hl7.org/CodeSystem/measure-population",
              "code": "numerator",
              "display": "Numerator"
            } ]
          },
          "count": 0
        } ],
        "measureScore": {
          "value": 1.0
        }
      } ],
      "evaluatedResource": [ {
        "reference": "Patient/686e2c47-b08f-465c-ab31-1712dd72028b"
      }, {
        "reference": "Encounter/c765a27c-947d-4514-8e0a-7caa854ba1b0"
      }, {
        "reference": "Condition/3f2af8fe-0fa0-4ee9-96f2-3f257d454443"
      }, {
        "reference": "MedicationRequest/2855c1be-b0dd-4d03-814c-969ff9e02718"
      }, {
        "reference": "Observation/e68f4064-1cda-4733-9ff7-21d26ca0228f"
      } ]
    },
    "request": {
      "method": "PUT",
      "url": "MeasureReport/9c617282-4754-4027-a23f-a20908dda4eb"
    }
  } ]
}