{
  "resourceType": "Bundle",
  "id": "633b3f9e0968f80122503cbb",
  "type": "transaction",
  "entry": [ {
    "fullUrl": "https://madie.cms.gov/Patient/105a0427-2df9-4976-bf79-89672e7571d6",
    "resource": {
      "resourceType": "Patient",
      "id": "105a0427-2df9-4976-bf79-89672e7571d6",
      "meta": {
        "profile": [ "http://hl7.org/fhir/us/qicore/StructureDefinition/qicore-patient" ]
      },
      "text": {
        "status": "generated",
        "div": "<div xmlns=\"http://www.w3.org/1999/xhtml\"><div class=\"hapiHeaderText\">RaceEthnicityDetailedAdded<b>IPOPPass </b></div><table class=\"hapiPropertyTable\"><tbody><tr><td>Date of birth</td><td><span>01 February 2004</span></td></tr></tbody></table></div>"
      },
      "extension": [ {
        "url": "http://hl7.org/fhir/us/core/StructureDefinition/us-core-race",
        "extension": [ {
          "url": "ombCategory",
          "valueCoding": {
            "system": "urn:oid:2.16.840.1.113883.6.238",
            "code": "1002-5",
            "display": "American Indian or Alaska Native",
            "userSelected": true
          }
        }, {
          "url": "text",
          "valueString": "American Indian or Alaska Native"
        }, {
          "url": "detailed",
          "valueCoding": {
            "system": "urn:oid:2.16.840.1.113883.6.238",
            "code": "1653-5",
            "display": "Tohono O'Odham"
          }
        } ]
      }, {
        "url": "http://hl7.org/fhir/us/core/StructureDefinition/us-core-ethnicity",
        "extension": [ {
          "url": "ombCategory",
          "valueCoding": {
            "system": "urn:oid:2.16.840.1.113883.6.238",
            "code": "2135-2",
            "display": "Hispanic or Latino",
            "userSelected": true
          }
        }, {
          "url": "text",
          "valueString": "Hispanic or Latino"
        }, {
          "url": "detailed",
          "valueCoding": {
            "system": "urn:oid:2.16.840.1.113883.6.238",
            "code": "2153-5",
            "display": "Mexican American Indian"
          }
        } ]
      } ],
      "identifier": [ {
        "type": {
          "coding": [ {
            "system": "http://terminology.hl7.org/CodeSystem/v2-0203",
            "code": "MR"
          } ]
        },
        "system": "https://bonnie-fhir.healthit.gov/",
        "value": "633b3f9e0968f80122503cbb"
      } ],
      "active": true,
      "name": [ {
        "use": "usual",
        "family": "IPOPPass",
        "given": [ "RaceEthnicityDetailedAdded" ]
      } ],
      "gender": "female",
      "birthDate": "2017-02-01"
    },
    "request": {
      "method": "PUT",
      "url": "Patient/105a0427-2df9-4976-bf79-89672e7571d6"
    }
  }, {
    "fullUrl": "https://madie.cms.gov/Encounter/81bd0862-7388-48dd-ae78-043baa4892ee",
    "resource": {
      "resourceType": "Encounter",
      "id": "81bd0862-7388-48dd-ae78-043baa4892ee",
      "meta": {
        "profile": [ "http://hl7.org/fhir/us/qicore/StructureDefinition/qicore-encounter" ]
      },
      "status": "finished",
      "class": {
        "system": "http://terminology.hl7.org/CodeSystem/v3-ActCode",
        "code": "IMP",
        "display": "inpatient encounter"
      },
      "type": [ {
        "coding": [ {
          "system": "http://snomed.info/sct",
          "code": "183452005"
        } ]
      } ],
      "subject": {
        "reference": "Patient/105a0427-2df9-4976-bf79-89672e7571d6"
      },
      "period": {
        "start": "2026-02-01T08:00:00Z",
        "end": "2026-02-05T08:15:00Z"
      },
      "diagnosis": [ {
        "condition": {
          "reference": "Condition/Condition-2"
        },
        "use": {
          "coding": [ {
            "system": "http://snomed.info/sct",
            "code": "169826009",
            "display": "Delivery of Singleton"
          } ]
        }
      } ]
    },
    "request": {
      "method": "PUT",
      "url": "Encounter/81bd0862-7388-48dd-ae78-043baa4892ee"
    }
  }, {
    "fullUrl": "https://madie.cms.gov/Procedure/4eb4d54c-10f5-4646-a776-391d6d79fbd5",
    "resource": {
      "resourceType": "Procedure",
      "id": "4eb4d54c-10f5-4646-a776-391d6d79fbd5",
      "meta": {
        "profile": [ "http://hl7.org/fhir/us/qicore/StructureDefinition/qicore-procedure" ]
      },
      "extension": [ {
        "url": "http://hl7.org/fhir/us/qicore/StructureDefinition/qicore-recorded",
        "valueDateTime": "2014-04-05T13:35:00Z"
      } ],
      "status": "completed",
      "code": {
        "coding": [ {
          "system": "http://snomed.info/sct",
          "version": "2022-09",
          "code": "10745001",
          "display": "Delivery of transverse presentation (procedure)",
          "userSelected": true
        } ]
      },
      "subject": {
        "reference": "Patient/105a0427-2df9-4976-bf79-89672e7571d6"
      },
      "performedPeriod": {
        "start": "2026-02-01T08:00:00Z",
        "end": "2026-02-05T08:15:00Z"
      }
    },
    "request": {
      "method": "PUT",
      "url": "Procedure/4eb4d54c-10f5-4646-a776-391d6d79fbd5"
    }
  }, {
    "fullUrl": "https://madie.cms.gov/Coverage/36b16d8f-2851-49c4-9108-55c6de2c26af",
    "resource": {
      "resourceType": "Coverage",
      "id": "36b16d8f-2851-49c4-9108-55c6de2c26af",
      "meta": {
        "profile": [ "http://hl7.org/fhir/us/qicore/StructureDefinition/qicore-coverage" ]
      },
      "status": "active",
      "beneficiary": {
        "reference": "Patient/105a0427-2df9-4976-bf79-89672e7571d6"
      },
      "payor": [ {
        "reference": "Organization/0e831f01-7759-4653-ab6b-cbd2898f94ca"
      } ]
    },
    "request": {
      "method": "PUT",
      "url": "Coverage/36b16d8f-2851-49c4-9108-55c6de2c26af"
    }
  }, {
    "fullUrl": "https://madie.cms.gov/Organization/0e831f01-7759-4653-ab6b-cbd2898f94ca",
    "resource": {
      "resourceType": "Organization",
      "id": "0e831f01-7759-4653-ab6b-cbd2898f94ca",
      "meta": {
        "profile": [ "http://hl7.org/fhir/us/qicore/StructureDefinition/qicore-organization" ]
      },
      "identifier": [ {
        "use": "temp",
        "system": "urn:oid:2.16.840.1.113883.4.4",
        "value": "21-3259825"
      } ],
      "active": true,
      "type": [ {
        "coding": [ {
          "system": "http://terminology.hl7.org/CodeSystem/organization-type",
          "code": "pay",
          "display": "Payer"
        } ]
      } ],
      "name": "Blue Cross Blue Shield of Texas",
      "telecom": [ {
        "system": "phone",
        "value": "(+1) 972-766-6900"
      } ],
      "address": [ {
        "use": "billing",
        "type": "postal",
        "line": [ "P.O. Box 660044" ],
        "city": "Dallas",
        "state": "TX",
        "postalCode": "75266-0044",
        "country": "USA"
      } ]
    },
    "request": {
      "method": "PUT",
      "url": "Organization/0e831f01-7759-4653-ab6b-cbd2898f94ca"
    }
  }, {
    "fullUrl": "https://madie.cms.gov/Practitioner/4bbb1c6b-ab26-4a64-8069-eb4be2ccfc30",
    "resource": {
      "resourceType": "Practitioner",
      "id": "4bbb1c6b-ab26-4a64-8069-eb4be2ccfc30",
      "identifier": [ {
        "system": "http://hl7.org/fhir/sid/us-npi",
        "value": "123456"
      } ],
      "name": [ {
        "family": "Evil",
        "prefix": [ "Dr" ]
      } ]
    },
    "request": {
      "method": "PUT",
      "url": "Practitioner/4bbb1c6b-ab26-4a64-8069-eb4be2ccfc30"
    }
  }, {
    "fullUrl": "https://madie.cms.gov/MeasureReport/db1cfb4b-a263-4856-8a73-5648e1390136",
    "resource": {
      "resourceType": "MeasureReport",
      "id": "db1cfb4b-a263-4856-8a73-5648e1390136",
      "meta": {
        "profile": [ "http://hl7.org/fhir/us/cqfmeasures/StructureDefinition/test-case-cqfm" ]
      },
      "contained": [ {
        "resourceType": "Parameters",
        "id": "96dc70fa-b389-4ed7-9645-9a041a61b983-parameters",
        "parameter": [ {
          "name": "subject",
          "valueString": "105a0427-2df9-4976-bf79-89672e7571d6"
        } ]
      } ],
      "extension": [ {
        "url": "http://hl7.org/fhir/StructureDefinition/cqf-inputParameters",
        "valueReference": {
          "reference": "#96dc70fa-b389-4ed7-9645-9a041a61b983-parameters"
        }
      }, {
        "url": "http://hl7.org/fhir/us/cqfmeasures/StructureDefinition/cqfm-testCaseDescription",
        "valueMarkdown": "\"url\": \"detailed\" added to test case to increase testing coverage"
      } ],
      "modifierExtension": [ {
        "url": "http://hl7.org/fhir/us/cqfmeasures/StructureDefinition/cqfm-isTestCase",
        "valueBoolean": true
      } ],
      "status": "complete",
      "type": "individual",
      "measure": "https://madie.cms.gov/Measure/CMS1028FHIRPCSevereOBComps",
      "period": {
        "start": "2026-01-01",
        "end": "2026-12-31"
      },
      "group": [ {
        "id": "Group_1",
        "population": [ {
          "id": "InitialPopulation_1",
          "code": {
            "coding": [ {
              "system": "http://terminology.hl7.org/CodeSystem/measure-population",
              "code": "initial-population",
              "display": "Initial Population"
            } ]
          },
          "count": 1
        }, {
          "id": "Denominator_1",
          "code": {
            "coding": [ {
              "system": "http://terminology.hl7.org/CodeSystem/measure-population",
              "code": "denominator",
              "display": "Denominator"
            } ]
          },
          "count": 0
        }, {
          "id": "Numerator_1",
          "code": {
            "coding": [ {
              "system": "http://terminology.hl7.org/CodeSystem/measure-population",
              "code": "numerator",
              "display": "Numerator"
            } ]
          },
          "count": 0
        }, {
          "id": "NumeratorExclusion_1",
          "code": {
            "coding": [ {
              "system": "http://terminology.hl7.org/CodeSystem/measure-population",
              "code": "numerator-exclusion",
              "display": "Numerator Exclusion"
            } ]
          },
          "count": 0
        } ],
        "measureScore": {
          "value": 0.0
        }
      }, {
        "id": "Group_2",
        "population": [ {
          "id": "InitialPopulation_2",
          "code": {
            "coding": [ {
              "system": "http://terminology.hl7.org/CodeSystem/measure-population",
              "code": "initial-population",
              "display": "Initial Population"
            } ]
          },
          "count": 1
        }, {
          "id": "Denominator_2",
          "code": {
            "coding": [ {
              "system": "http://terminology.hl7.org/CodeSystem/measure-population",
              "code": "denominator",
              "display": "Denominator"
            } ]
          },
          "count": 0
        }, {
          "id": "Numerator_2",
          "code": {
            "coding": [ {
              "system": "http://terminology.hl7.org/CodeSystem/measure-population",
              "code": "numerator",
              "display": "Numerator"
            } ]
          },
          "count": 0
        }, {
          "id": "NumeratorExclusion_2",
          "code": {
            "coding": [ {
              "system": "http://terminology.hl7.org/CodeSystem/measure-population",
              "code": "numerator-exclusion",
              "display": "Numerator Exclusion"
            } ]
          },
          "count": 0
        } ],
        "measureScore": {
          "value": 0.0
        }
      } ],
      "evaluatedResource": [ {
        "reference": "Patient/105a0427-2df9-4976-bf79-89672e7571d6"
      }, {
        "reference": "Encounter/81bd0862-7388-48dd-ae78-043baa4892ee"
      }, {
        "reference": "Procedure/4eb4d54c-10f5-4646-a776-391d6d79fbd5"
      }, {
        "reference": "Coverage/36b16d8f-2851-49c4-9108-55c6de2c26af"
      }, {
        "reference": "Organization/0e831f01-7759-4653-ab6b-cbd2898f94ca"
      }, {
        "reference": "Practitioner/4bbb1c6b-ab26-4a64-8069-eb4be2ccfc30"
      } ]
    },
    "request": {
      "method": "PUT",
      "url": "MeasureReport/db1cfb4b-a263-4856-8a73-5648e1390136"
    }
  } ]
}