{
  "resourceType": "Bundle",
  "id": "NUMPass-InitObliqueSameDayAsTHAFUOblique300DaysAfterTHA",
  "type": "transaction",
  "entry": [ {
    "fullUrl": "https://madie.cms.gov/Patient/5e5c6f39-87c3-4a5f-b02e-844de2ee8dc2",
    "resource": {
      "resourceType": "Patient",
      "id": "5e5c6f39-87c3-4a5f-b02e-844de2ee8dc2",
      "meta": {
        "profile": [ "http://hl7.org/fhir/us/qicore/StructureDefinition/qicore-patient" ]
      },
      "extension": [ {
        "url": "http://hl7.org/fhir/us/core/StructureDefinition/us-core-race",
        "extension": [ {
          "url": "ombCategory",
          "valueCoding": {
            "system": "urn:oid:2.16.840.1.113883.6.238",
            "code": "2028-9",
            "display": "Asian"
          }
        }, {
          "url": "text",
          "valueString": "Asian"
        } ]
      }, {
        "url": "http://hl7.org/fhir/us/core/StructureDefinition/us-core-ethnicity",
        "extension": [ {
          "url": "ombCategory",
          "valueCoding": {
            "system": "urn:oid:2.16.840.1.113883.6.238",
            "code": "2135-2",
            "display": "Hispanic or Latino"
          }
        }, {
          "url": "text",
          "valueString": "Hispanic or Latino"
        } ]
      } ],
      "identifier": [ {
        "system": "http://hospital.smarthealthit.org",
        "value": "999999995"
      } ],
      "name": [ {
        "family": "Bertha",
        "given": [ "Betty" ]
      } ],
      "gender": "female",
      "birthDate": "2007-01-01"
    },
    "request": {
      "method": "PUT",
      "url": "Patient/5e5c6f39-87c3-4a5f-b02e-844de2ee8dc2"
    }
  }, {
    "fullUrl": "https://madie.cms.gov/Procedure/9fe71a51-d2d5-43ba-a64f-9658c06c7e32",
    "resource": {
      "resourceType": "Procedure",
      "id": "9fe71a51-d2d5-43ba-a64f-9658c06c7e32",
      "meta": {
        "profile": [ "http://hl7.org/fhir/us/qicore/StructureDefinition/qicore-procedure" ]
      },
      "extension": [ {
        "url": "http://hl7.org/fhir/us/qicore/StructureDefinition/qicore-recorded",
        "valueDateTime": "2024-11-01T00:00:00.000Z"
      } ],
      "status": "completed",
      "code": {
        "coding": [ {
          "system": "http://www.cms.gov/Medicare/Coding/ICD10",
          "code": "0SR9019",
          "display": "Replacement of Right Hip Joint with Metal Synthetic Substitute, Cemented, Open Approach"
        } ]
      },
      "subject": {
        "reference": "Patient/5e5c6f39-87c3-4a5f-b02e-844de2ee8dc2"
      },
      "performedPeriod": {
        "start": "2024-11-01T00:00:00.000Z",
        "end": "2024-11-01T01:00:00.000Z"
      }
    },
    "request": {
      "method": "PUT",
      "url": "Procedure/9fe71a51-d2d5-43ba-a64f-9658c06c7e32"
    }
  }, {
    "fullUrl": "https://madie.cms.gov/Encounter/139b58f6-2b0e-4834-ba56-47e81e9efa38",
    "resource": {
      "resourceType": "Encounter",
      "id": "139b58f6-2b0e-4834-ba56-47e81e9efa38",
      "meta": {
        "profile": [ "http://hl7.org/fhir/us/qicore/StructureDefinition/qicore-encounter" ]
      },
      "status": "finished",
      "class": {
        "system": "http://terminology.hl7.org/CodeSystem/v3-ActCode",
        "code": "AMB",
        "display": "ambulatory"
      },
      "type": [ {
        "coding": [ {
          "system": "http://snomed.info/sct",
          "code": "281036007",
          "display": "Follow-up consultation (procedure)"
        } ]
      } ],
      "subject": {
        "reference": "Patient/5e5c6f39-87c3-4a5f-b02e-844de2ee8dc2"
      },
      "period": {
        "start": "2025-11-01T00:00:00.000Z",
        "end": "2025-11-01T01:15:00.000Z"
      }
    },
    "request": {
      "method": "PUT",
      "url": "Encounter/139b58f6-2b0e-4834-ba56-47e81e9efa38"
    }
  }, {
    "fullUrl": "https://madie.cms.gov/Observation/8885f51c-b229-4b49-a946-055b5635b628",
    "resource": {
      "resourceType": "Observation",
      "id": "8885f51c-b229-4b49-a946-055b5635b628",
      "meta": {
        "profile": [ "http://hl7.org/fhir/us/qicore/StructureDefinition/qicore-observation-screening-assessment" ]
      },
      "status": "final",
      "category": [ {
        "coding": [ {
          "system": "http://terminology.hl7.org/CodeSystem/observation-category",
          "code": "survey"
        } ]
      } ],
      "code": {
        "coding": [ {
          "system": "http://loinc.org",
          "code": "72026-8",
          "display": "VR-12 Mental component summary (MCS) score - oblique method T-score"
        } ]
      },
      "subject": {
        "reference": "Patient/5e5c6f39-87c3-4a5f-b02e-844de2ee8dc2"
      },
      "effectivePeriod": {
        "start": "2024-11-01T00:00:00.000Z",
        "end": "2024-11-01T01:00:00.000Z"
      },
      "valueInteger": 60
    },
    "request": {
      "method": "PUT",
      "url": "Observation/8885f51c-b229-4b49-a946-055b5635b628"
    }
  }, {
    "fullUrl": "https://madie.cms.gov/Observation/93923bdd-a124-450f-87f6-9015e5d2a4e0",
    "resource": {
      "resourceType": "Observation",
      "id": "93923bdd-a124-450f-87f6-9015e5d2a4e0",
      "meta": {
        "profile": [ "http://hl7.org/fhir/us/qicore/StructureDefinition/qicore-observation-screening-assessment" ]
      },
      "status": "final",
      "category": [ {
        "coding": [ {
          "system": "http://terminology.hl7.org/CodeSystem/observation-category",
          "code": "survey"
        } ]
      } ],
      "code": {
        "coding": [ {
          "system": "http://loinc.org",
          "code": "72025-0",
          "display": "VR-12 Physical component summary (PCS) score - oblique method T-score"
        } ]
      },
      "subject": {
        "reference": "Patient/5e5c6f39-87c3-4a5f-b02e-844de2ee8dc2"
      },
      "effectivePeriod": {
        "start": "2024-11-01T00:00:00.000Z",
        "end": "2024-11-01T01:00:00.000Z"
      },
      "valueInteger": 60
    },
    "request": {
      "method": "PUT",
      "url": "Observation/93923bdd-a124-450f-87f6-9015e5d2a4e0"
    }
  }, {
    "fullUrl": "https://madie.cms.gov/Observation/c9a52802-4b83-4979-b969-be607fb39f74",
    "resource": {
      "resourceType": "Observation",
      "id": "c9a52802-4b83-4979-b969-be607fb39f74",
      "meta": {
        "profile": [ "http://hl7.org/fhir/us/qicore/StructureDefinition/qicore-observation-screening-assessment" ]
      },
      "status": "final",
      "category": [ {
        "coding": [ {
          "system": "http://terminology.hl7.org/CodeSystem/observation-category",
          "code": "survey"
        } ]
      } ],
      "code": {
        "coding": [ {
          "system": "http://loinc.org",
          "code": "72026-8",
          "display": "VR-12 Mental component summary (MCS) score - oblique method T-score"
        } ]
      },
      "subject": {
        "reference": "Patient/5e5c6f39-87c3-4a5f-b02e-844de2ee8dc2"
      },
      "effectivePeriod": {
        "start": "2025-08-28T00:00:00.000Z",
        "end": "2025-08-28T01:00:00.000Z"
      },
      "valueInteger": 60
    },
    "request": {
      "method": "PUT",
      "url": "Observation/c9a52802-4b83-4979-b969-be607fb39f74"
    }
  }, {
    "fullUrl": "https://madie.cms.gov/Observation/7c9e638d-550f-47b4-947e-f6f0b2ab02d3",
    "resource": {
      "resourceType": "Observation",
      "id": "7c9e638d-550f-47b4-947e-f6f0b2ab02d3",
      "meta": {
        "profile": [ "http://hl7.org/fhir/us/qicore/StructureDefinition/qicore-observation-screening-assessment" ]
      },
      "status": "final",
      "category": [ {
        "coding": [ {
          "system": "http://terminology.hl7.org/CodeSystem/observation-category",
          "code": "survey"
        } ]
      } ],
      "code": {
        "coding": [ {
          "system": "http://loinc.org",
          "code": "72025-0",
          "display": "VR-12 Physical component summary (PCS) score - oblique method T-score"
        } ]
      },
      "subject": {
        "reference": "Patient/5e5c6f39-87c3-4a5f-b02e-844de2ee8dc2"
      },
      "effectivePeriod": {
        "start": "2025-08-28T00:00:00.000Z",
        "end": "2025-08-28T01:00:00.000Z"
      },
      "valueInteger": 60
    },
    "request": {
      "method": "PUT",
      "url": "Observation/7c9e638d-550f-47b4-947e-f6f0b2ab02d3"
    }
  }, {
    "fullUrl": "https://madie.cms.gov/MeasureReport/83d43290-bb24-4a54-88d0-53286869c5da",
    "resource": {
      "resourceType": "MeasureReport",
      "id": "83d43290-bb24-4a54-88d0-53286869c5da",
      "meta": {
        "profile": [ "http://hl7.org/fhir/us/cqfmeasures/StructureDefinition/test-case-cqfm" ]
      },
      "contained": [ {
        "resourceType": "Parameters",
        "id": "305ac685-d84c-477f-9cc1-2520428ed750-parameters",
        "parameter": [ {
          "name": "subject",
          "valueString": "5e5c6f39-87c3-4a5f-b02e-844de2ee8dc2"
        } ]
      } ],
      "extension": [ {
        "url": "http://hl7.org/fhir/StructureDefinition/cqf-inputParameters",
        "valueReference": {
          "reference": "#305ac685-d84c-477f-9cc1-2520428ed750-parameters"
        }
      }, {
        "url": "http://hl7.org/fhir/us/cqfmeasures/StructureDefinition/cqfm-testCaseDescription",
        "valueMarkdown": "Patient w/ a THA Procedure 11/1, Initial Hip Assessment Oblique Same day as THA Procedure(11/1), and FollowUp Hip Assessment Oblique 300 days after THA Procedure (8/27)"
      } ],
      "modifierExtension": [ {
        "url": "http://hl7.org/fhir/us/cqfmeasures/StructureDefinition/cqfm-isTestCase",
        "valueBoolean": true
      } ],
      "status": "complete",
      "type": "individual",
      "measure": "https://madie.cms.gov/Measure/CMS56FHIRFunctionalStatusAssessmentforTotalHipReplacement",
      "period": {
        "start": "2026-01-01",
        "end": "2026-12-31"
      },
      "group": [ {
        "id": "Group_1",
        "population": [ {
          "id": "InitialPopulation_1",
          "code": {
            "coding": [ {
              "system": "http://terminology.hl7.org/CodeSystem/measure-population",
              "code": "initial-population",
              "display": "Initial Population"
            } ]
          },
          "count": 1
        }, {
          "id": "Denominator_1",
          "code": {
            "coding": [ {
              "system": "http://terminology.hl7.org/CodeSystem/measure-population",
              "code": "denominator",
              "display": "Denominator"
            } ]
          },
          "count": 1
        }, {
          "id": "DenominatorExclusion_1",
          "code": {
            "coding": [ {
              "system": "http://terminology.hl7.org/CodeSystem/measure-population",
              "code": "denominator-exclusion",
              "display": "Denominator Exclusion"
            } ]
          },
          "count": 0
        }, {
          "id": "Numerator_1",
          "code": {
            "coding": [ {
              "system": "http://terminology.hl7.org/CodeSystem/measure-population",
              "code": "numerator",
              "display": "Numerator"
            } ]
          },
          "count": 1
        } ],
        "measureScore": {
          "value": 1.0
        }
      } ],
      "evaluatedResource": [ {
        "reference": "Patient/5e5c6f39-87c3-4a5f-b02e-844de2ee8dc2"
      }, {
        "reference": "Procedure/9fe71a51-d2d5-43ba-a64f-9658c06c7e32"
      }, {
        "reference": "Encounter/139b58f6-2b0e-4834-ba56-47e81e9efa38"
      }, {
        "reference": "Observation/8885f51c-b229-4b49-a946-055b5635b628"
      }, {
        "reference": "Observation/93923bdd-a124-450f-87f6-9015e5d2a4e0"
      }, {
        "reference": "Observation/c9a52802-4b83-4979-b969-be607fb39f74"
      }, {
        "reference": "Observation/7c9e638d-550f-47b4-947e-f6f0b2ab02d3"
      } ]
    },
    "request": {
      "method": "PUT",
      "url": "MeasureReport/83d43290-bb24-4a54-88d0-53286869c5da"
    }
  } ]
}