{
  "resourceType": "Bundle",
  "id": "61095b0998086b53805591a5",
  "type": "transaction",
  "entry": [ {
    "fullUrl": "https://madie.cms.gov/Patient/c3d3aba5-f483-4e18-8492-48cc60d8fdb4",
    "resource": {
      "resourceType": "Patient",
      "id": "c3d3aba5-f483-4e18-8492-48cc60d8fdb4",
      "meta": {
        "profile": [ "http://hl7.org/fhir/us/qicore/StructureDefinition/qicore-patient" ]
      },
      "text": {
        "status": "generated",
        "div": "<div xmlns=\"http://www.w3.org/1999/xhtml\"><div class=\"hapiHeaderText\">Age@18 <b>DENOMPASS </b></div><table class=\"hapiPropertyTable\"><tbody><tr><td>Identifier</td><td>67f3e33acf17bcb386e754d726ed064ccd48ba21ff0ffb2eb678740a684398be</td></tr><tr><td>Date of birth</td><td><span>01 January 1994</span></td></tr></tbody></table></div>"
      },
      "extension": [ {
        "url": "http://hl7.org/fhir/us/core/StructureDefinition/us-core-race",
        "extension": [ {
          "url": "ombCategory",
          "valueCoding": {
            "system": "urn:oid:2.16.840.1.113883.6.238",
            "code": "1002-5",
            "display": "American Indian or Alaska Native",
            "userSelected": true
          }
        }, {
          "url": "text",
          "valueString": "American Indian or Alaska Native"
        } ]
      }, {
        "url": "http://hl7.org/fhir/us/core/StructureDefinition/us-core-ethnicity",
        "extension": [ {
          "url": "ombCategory",
          "valueCoding": {
            "system": "urn:oid:2.16.840.1.113883.6.238",
            "code": "2135-2",
            "display": "Hispanic or Latino",
            "userSelected": true
          }
        }, {
          "url": "text",
          "valueString": "Hispanic or Latino"
        } ]
      } ],
      "identifier": [ {
        "type": {
          "coding": [ {
            "system": "http://terminology.hl7.org/CodeSystem/v2-0203",
            "code": "MR"
          } ]
        },
        "system": "https://bonnie-fhir.healthit.gov/",
        "value": "61095b0998086b53805591a5"
      } ],
      "active": true,
      "name": [ {
        "use": "usual",
        "family": "DENEXPASS",
        "given": [ "OtherEndophthalmitisWithCatSurg" ]
      } ],
      "gender": "female",
      "birthDate": "1996-01-01"
    },
    "request": {
      "method": "PUT",
      "url": "Patient/c3d3aba5-f483-4e18-8492-48cc60d8fdb4"
    }
  }, {
    "fullUrl": "https://madie.cms.gov/Observation/084b5874-5ae5-4a83-b435-7846b97c7d42",
    "resource": {
      "resourceType": "Observation",
      "id": "084b5874-5ae5-4a83-b435-7846b97c7d42",
      "meta": {
        "profile": [ "http://hl7.org/fhir/us/qicore/StructureDefinition/qicore-observation-clinical-result" ]
      },
      "status": "final",
      "category": [ {
        "coding": [ {
          "system": "http://terminology.hl7.org/CodeSystem/observation-category",
          "code": "exam",
          "display": "exam"
        } ]
      } ],
      "code": {
        "coding": [ {
          "system": "http://snomed.info/sct",
          "code": "419775003"
        } ]
      },
      "subject": {
        "reference": "Patient/c3d3aba5-f483-4e18-8492-48cc60d8fdb4"
      },
      "effectivePeriod": {
        "start": "2026-03-13T09:00:00+00:00",
        "end": "2026-03-13T09:30:00+00:00"
      }
    },
    "request": {
      "method": "PUT",
      "url": "Observation/084b5874-5ae5-4a83-b435-7846b97c7d42"
    }
  }, {
    "fullUrl": "https://madie.cms.gov/Procedure/01a32b66-7bc1-4c4f-b7d8-be03b7b44ae4",
    "resource": {
      "resourceType": "Procedure",
      "id": "01a32b66-7bc1-4c4f-b7d8-be03b7b44ae4",
      "meta": {
        "profile": [ "http://hl7.org/fhir/us/qicore/StructureDefinition/qicore-procedure" ]
      },
      "extension": [ {
        "url": "http://hl7.org/fhir/us/qicore/StructureDefinition/qicore-recorded",
        "valueDateTime": "2026-03-05T09:35:00-04:00"
      } ],
      "status": "completed",
      "code": {
        "coding": [ {
          "system": "http://snomed.info/sct",
          "code": "84149000"
        } ]
      },
      "subject": {
        "reference": "Patient/c3d3aba5-f483-4e18-8492-48cc60d8fdb4"
      },
      "performedPeriod": {
        "start": "2026-03-05T09:20:00-04:00",
        "end": "2026-04-05T10:30:00-04:00"
      }
    },
    "request": {
      "method": "PUT",
      "url": "Procedure/01a32b66-7bc1-4c4f-b7d8-be03b7b44ae4"
    }
  }, {
    "fullUrl": "https://madie.cms.gov/Condition/e52d1cff-b6ea-4a03-8adc-c73332fcd99f",
    "resource": {
      "resourceType": "Condition",
      "id": "e52d1cff-b6ea-4a03-8adc-c73332fcd99f",
      "meta": {
        "profile": [ "http://hl7.org/fhir/us/qicore/StructureDefinition/qicore-condition-problems-health-concerns" ]
      },
      "clinicalStatus": {
        "coding": [ {
          "system": "http://terminology.hl7.org/CodeSystem/condition-clinical",
          "code": "active",
          "display": "active",
          "userSelected": true
        } ]
      },
      "category": [ {
        "coding": [ {
          "system": "http://terminology.hl7.org/CodeSystem/condition-clinical",
          "code": "active",
          "display": "active",
          "userSelected": true
        } ]
      } ],
      "code": {
        "coding": [ {
          "system": "http://hl7.org/fhir/sid/icd-10-cm",
          "code": "H16.241",
          "userSelected": true
        }, {
          "system": "http://snomed.info/sct",
          "code": "57100005",
          "userSelected": true
        } ]
      },
      "subject": {
        "reference": "Patient/c3d3aba5-f483-4e18-8492-48cc60d8fdb4"
      },
      "onsetDateTime": "2024-11-01T08:00:00.000+00:00"
    },
    "request": {
      "method": "PUT",
      "url": "Condition/e52d1cff-b6ea-4a03-8adc-c73332fcd99f"
    }
  }, {
    "fullUrl": "https://madie.cms.gov/Coverage/68b84b3f-280c-47f5-9ba4-7bb879449d09",
    "resource": {
      "resourceType": "Coverage",
      "id": "68b84b3f-280c-47f5-9ba4-7bb879449d09",
      "meta": {
        "profile": [ "http://hl7.org/fhir/us/qicore/StructureDefinition/qicore-coverage" ]
      },
      "status": "active",
      "beneficiary": {
        "reference": "Patient/c3d3aba5-f483-4e18-8492-48cc60d8fdb4"
      },
      "payor": [ {
        "reference": "Organization/f76d039c-e593-4d44-8220-f7a73a9d5fcf"
      } ]
    },
    "request": {
      "method": "PUT",
      "url": "Coverage/68b84b3f-280c-47f5-9ba4-7bb879449d09"
    }
  }, {
    "fullUrl": "https://madie.cms.gov/Organization/f76d039c-e593-4d44-8220-f7a73a9d5fcf",
    "resource": {
      "resourceType": "Organization",
      "id": "f76d039c-e593-4d44-8220-f7a73a9d5fcf",
      "meta": {
        "profile": [ "http://hl7.org/fhir/us/qicore/StructureDefinition/qicore-organization" ]
      },
      "identifier": [ {
        "use": "temp",
        "system": "urn:oid:2.16.840.1.113883.4.4",
        "value": "21-3259825"
      } ],
      "active": true,
      "type": [ {
        "coding": [ {
          "system": "http://terminology.hl7.org/CodeSystem/organization-type",
          "code": "pay",
          "display": "Payer"
        } ]
      } ],
      "name": "Blue Cross Blue Shield of Texas",
      "telecom": [ {
        "system": "phone",
        "value": "(+1) 972-766-6900"
      } ],
      "address": [ {
        "use": "billing",
        "type": "postal",
        "line": [ "P.O. Box 660044" ],
        "city": "Dallas",
        "state": "TX",
        "postalCode": "75266-0044",
        "country": "USA"
      } ]
    },
    "request": {
      "method": "PUT",
      "url": "Organization/f76d039c-e593-4d44-8220-f7a73a9d5fcf"
    }
  }, {
    "fullUrl": "https://madie.cms.gov/Practitioner/3e76e57b-f127-49f3-8782-bb0a6393f5a1",
    "resource": {
      "resourceType": "Practitioner",
      "id": "3e76e57b-f127-49f3-8782-bb0a6393f5a1",
      "meta": {
        "profile": [ "http://hl7.org/fhir/us/qicore/StructureDefinition/qicore-practitioner" ]
      },
      "identifier": [ {
        "system": "http://hl7.org/fhir/sid/us-npi",
        "value": "123456"
      } ],
      "name": [ {
        "family": "Evil",
        "prefix": [ "Dr" ]
      } ]
    },
    "request": {
      "method": "PUT",
      "url": "Practitioner/3e76e57b-f127-49f3-8782-bb0a6393f5a1"
    }
  }, {
    "fullUrl": "https://madie.cms.gov/MeasureReport/0fc621d2-a790-4f9b-a15f-02be19ad0c08",
    "resource": {
      "resourceType": "MeasureReport",
      "id": "0fc621d2-a790-4f9b-a15f-02be19ad0c08",
      "meta": {
        "profile": [ "http://hl7.org/fhir/us/cqfmeasures/StructureDefinition/test-case-cqfm" ]
      },
      "contained": [ {
        "resourceType": "Parameters",
        "id": "3f1b810d-4ab4-4de9-a1ae-b8774dc8b7df-parameters",
        "parameter": [ {
          "name": "subject",
          "valueString": "c3d3aba5-f483-4e18-8492-48cc60d8fdb4"
        } ]
      } ],
      "extension": [ {
        "url": "http://hl7.org/fhir/StructureDefinition/cqf-inputParameters",
        "valueReference": {
          "reference": "#3f1b810d-4ab4-4de9-a1ae-b8774dc8b7df-parameters"
        }
      }, {
        "url": "http://hl7.org/fhir/us/cqfmeasures/StructureDefinition/cqfm-testCaseDescription",
        "valueMarkdown": "Patient with Othe rEndophthalmitis with cataract surgery. "
      } ],
      "modifierExtension": [ {
        "url": "http://hl7.org/fhir/us/cqfmeasures/StructureDefinition/cqfm-isTestCase",
        "valueBoolean": true
      } ],
      "status": "complete",
      "type": "individual",
      "measure": "https://madie.cms.gov/Measure/CMS133FHIRCataracts2040BCVAwithin90Days",
      "period": {
        "start": "2026-01-01",
        "end": "2026-12-31"
      },
      "group": [ {
        "id": "Group_1",
        "population": [ {
          "id": "InitialPopulation_1",
          "code": {
            "coding": [ {
              "system": "http://terminology.hl7.org/CodeSystem/measure-population",
              "code": "initial-population",
              "display": "Initial Population"
            } ]
          },
          "count": 1
        }, {
          "id": "Denominator_1",
          "code": {
            "coding": [ {
              "system": "http://terminology.hl7.org/CodeSystem/measure-population",
              "code": "denominator",
              "display": "Denominator"
            } ]
          },
          "count": 1
        }, {
          "id": "DenominatorExclusion_1",
          "code": {
            "coding": [ {
              "system": "http://terminology.hl7.org/CodeSystem/measure-population",
              "code": "denominator-exclusion",
              "display": "Denominator Exclusion"
            } ]
          },
          "count": 1
        }, {
          "id": "Numerator_1",
          "code": {
            "coding": [ {
              "system": "http://terminology.hl7.org/CodeSystem/measure-population",
              "code": "numerator",
              "display": "Numerator"
            } ]
          },
          "count": 0
        } ],
        "measureScore": {
          "value": 0.0
        }
      } ],
      "evaluatedResource": [ {
        "reference": "Patient/c3d3aba5-f483-4e18-8492-48cc60d8fdb4"
      }, {
        "reference": "Observation/084b5874-5ae5-4a83-b435-7846b97c7d42"
      }, {
        "reference": "Procedure/01a32b66-7bc1-4c4f-b7d8-be03b7b44ae4"
      }, {
        "reference": "Condition/e52d1cff-b6ea-4a03-8adc-c73332fcd99f"
      }, {
        "reference": "Coverage/68b84b3f-280c-47f5-9ba4-7bb879449d09"
      }, {
        "reference": "Organization/f76d039c-e593-4d44-8220-f7a73a9d5fcf"
      }, {
        "reference": "Practitioner/3e76e57b-f127-49f3-8782-bb0a6393f5a1"
      } ]
    },
    "request": {
      "method": "PUT",
      "url": "MeasureReport/0fc621d2-a790-4f9b-a15f-02be19ad0c08"
    }
  } ]
}