{
  "resourceType": "Bundle",
  "id": "62d95b63f0347d1abcae6c07",
  "type": "transaction",
  "entry": [ {
    "fullUrl": "https://madie.cms.gov/Patient/9f2a5e21-9d12-4acc-82a4-f6f9e20f073a",
    "resource": {
      "resourceType": "Patient",
      "id": "9f2a5e21-9d12-4acc-82a4-f6f9e20f073a",
      "meta": {
        "profile": [ "http://hl7.org/fhir/us/qicore/StructureDefinition/qicore-patient" ]
      },
      "extension": [ {
        "url": "http://hl7.org/fhir/us/core/StructureDefinition/us-core-race",
        "extension": [ {
          "url": "ombCategory",
          "valueCoding": {
            "system": "urn:oid:2.16.840.1.113883.6.238",
            "code": "1002-5",
            "display": "American Indian or Alaska Native",
            "userSelected": true
          }
        }, {
          "url": "text",
          "valueString": "American Indian or Alaska Native"
        } ]
      }, {
        "url": "http://hl7.org/fhir/us/core/StructureDefinition/us-core-ethnicity",
        "extension": [ {
          "url": "ombCategory",
          "valueCoding": {
            "system": "urn:oid:2.16.840.1.113883.6.238",
            "code": "2135-2",
            "display": "Hispanic or Latino",
            "userSelected": true
          }
        }, {
          "url": "text",
          "valueString": "Hispanic or Latino"
        } ]
      } ],
      "identifier": [ {
        "type": {
          "coding": [ {
            "system": "http://terminology.hl7.org/CodeSystem/v2-0203",
            "code": "MR"
          } ]
        },
        "system": "https://bonnie-fhir.healthit.gov/",
        "value": "62d95b63f0347d1abcae6c07"
      } ],
      "name": [ {
        "family": "IPFail",
        "given": [ "VirtualEnc" ]
      } ],
      "gender": "male",
      "birthDate": "2005-12-31"
    },
    "request": {
      "method": "PUT",
      "url": "Patient/9f2a5e21-9d12-4acc-82a4-f6f9e20f073a"
    }
  }, {
    "fullUrl": "https://madie.cms.gov/Encounter/3c013754-224a-40b6-8bed-2cff1ed70c74",
    "resource": {
      "resourceType": "Encounter",
      "id": "3c013754-224a-40b6-8bed-2cff1ed70c74",
      "meta": {
        "profile": [ "http://hl7.org/fhir/us/qicore/StructureDefinition/qicore-encounter" ]
      },
      "status": "finished",
      "class": {
        "system": "http://terminology.hl7.org/CodeSystem/v3-ActCode",
        "code": "VR",
        "display": "virtual",
        "userSelected": true
      },
      "type": [ {
        "coding": [ {
          "system": "http://snomed.info/sct",
          "version": "2022-03",
          "code": "103705002",
          "display": "Patient status observation (procedure)",
          "userSelected": true
        } ]
      } ],
      "subject": {
        "reference": "Patient/9f2a5e21-9d12-4acc-82a4-f6f9e20f073a"
      },
      "period": {
        "start": "2026-07-21T08:00:00.000+00:00",
        "end": "2026-07-21T08:30:00.000+00:00"
      }
    },
    "request": {
      "method": "PUT",
      "url": "Encounter/3c013754-224a-40b6-8bed-2cff1ed70c74"
    }
  }, {
    "fullUrl": "https://madie.cms.gov/Coverage/9910df83-165f-40c7-8558-e3a538c1743f",
    "resource": {
      "resourceType": "Coverage",
      "id": "9910df83-165f-40c7-8558-e3a538c1743f",
      "meta": {
        "profile": [ "http://hl7.org/fhir/us/qicore/StructureDefinition/qicore-coverage" ]
      },
      "status": "active",
      "beneficiary": {
        "reference": "Patient/9f2a5e21-9d12-4acc-82a4-f6f9e20f073a"
      },
      "payor": [ {
        "reference": "Organization/421b95b1-3362-40c1-9d4e-4f36ae9b7dbf"
      } ]
    },
    "request": {
      "method": "PUT",
      "url": "Coverage/9910df83-165f-40c7-8558-e3a538c1743f"
    }
  }, {
    "fullUrl": "https://madie.cms.gov/Organization/421b95b1-3362-40c1-9d4e-4f36ae9b7dbf",
    "resource": {
      "resourceType": "Organization",
      "id": "421b95b1-3362-40c1-9d4e-4f36ae9b7dbf",
      "meta": {
        "profile": [ "http://hl7.org/fhir/us/qicore/StructureDefinition/qicore-organization" ]
      },
      "identifier": [ {
        "use": "temp",
        "system": "urn:oid:2.16.840.1.113883.4.4",
        "value": "21-3259825"
      } ],
      "active": true,
      "type": [ {
        "coding": [ {
          "system": "http://terminology.hl7.org/CodeSystem/organization-type",
          "code": "pay",
          "display": "Payer"
        } ]
      } ],
      "name": "Blue Cross Blue Shield of Texas",
      "telecom": [ {
        "system": "phone",
        "value": "(+1) 972-766-6900"
      } ],
      "address": [ {
        "use": "billing",
        "type": "postal",
        "line": [ "P.O. Box 660044" ],
        "city": "Dallas",
        "state": "TX",
        "postalCode": "75266-0044",
        "country": "USA"
      } ]
    },
    "request": {
      "method": "PUT",
      "url": "Organization/421b95b1-3362-40c1-9d4e-4f36ae9b7dbf"
    }
  }, {
    "fullUrl": "https://madie.cms.gov/Practitioner/9f1abd4d-df21-4482-a3ca-b43e9879564b",
    "resource": {
      "resourceType": "Practitioner",
      "id": "9f1abd4d-df21-4482-a3ca-b43e9879564b",
      "meta": {
        "profile": [ "http://hl7.org/fhir/us/qicore/StructureDefinition/qicore-practitioner" ]
      },
      "identifier": [ {
        "system": "http://hl7.org/fhir/sid/us-npi",
        "value": "123456"
      } ],
      "name": [ {
        "family": "Evil",
        "prefix": [ "Dr" ]
      } ]
    },
    "request": {
      "method": "PUT",
      "url": "Practitioner/9f1abd4d-df21-4482-a3ca-b43e9879564b"
    }
  }, {
    "fullUrl": "https://madie.cms.gov/MeasureReport/dc5bc79d-06f0-4910-a083-e50fc5631160",
    "resource": {
      "resourceType": "MeasureReport",
      "id": "dc5bc79d-06f0-4910-a083-e50fc5631160",
      "meta": {
        "profile": [ "http://hl7.org/fhir/us/cqfmeasures/StructureDefinition/test-case-cqfm" ]
      },
      "contained": [ {
        "resourceType": "Parameters",
        "id": "a3cd2728-b0d8-408a-a4d0-691d70198e97-parameters",
        "parameter": [ {
          "name": "subject",
          "valueString": "9f2a5e21-9d12-4acc-82a4-f6f9e20f073a"
        } ]
      } ],
      "extension": [ {
        "url": "http://hl7.org/fhir/StructureDefinition/cqf-inputParameters",
        "valueReference": {
          "reference": "#a3cd2728-b0d8-408a-a4d0-691d70198e97-parameters"
        }
      }, {
        "url": "http://hl7.org/fhir/us/cqfmeasures/StructureDefinition/cqfm-testCaseDescription",
        "valueMarkdown": "Virtual encounters are not accepted for this measure since BP needs to be taken by qualified personnel."
      } ],
      "modifierExtension": [ {
        "url": "http://hl7.org/fhir/us/cqfmeasures/StructureDefinition/cqfm-isTestCase",
        "valueBoolean": true
      } ],
      "status": "complete",
      "type": "individual",
      "measure": "https://madie.cms.gov/Measure/CMS22FHIRPCSBPScreeningFollowUp",
      "period": {
        "start": "2026-01-01",
        "end": "2026-12-31"
      },
      "group": [ {
        "id": "Group_1",
        "population": [ {
          "id": "InitialPopulation_1",
          "code": {
            "coding": [ {
              "system": "http://terminology.hl7.org/CodeSystem/measure-population",
              "code": "initial-population",
              "display": "Initial Population"
            } ]
          },
          "count": 0
        }, {
          "id": "Denominator_1",
          "code": {
            "coding": [ {
              "system": "http://terminology.hl7.org/CodeSystem/measure-population",
              "code": "denominator",
              "display": "Denominator"
            } ]
          },
          "count": 0
        }, {
          "id": "DenominatorExclusion_1",
          "code": {
            "coding": [ {
              "system": "http://terminology.hl7.org/CodeSystem/measure-population",
              "code": "denominator-exclusion",
              "display": "Denominator Exclusion"
            } ]
          },
          "count": 0
        }, {
          "id": "Numerator_1",
          "code": {
            "coding": [ {
              "system": "http://terminology.hl7.org/CodeSystem/measure-population",
              "code": "numerator",
              "display": "Numerator"
            } ]
          },
          "count": 0
        }, {
          "id": "DenominatorException_1",
          "code": {
            "coding": [ {
              "system": "http://terminology.hl7.org/CodeSystem/measure-population",
              "code": "denominator-exception",
              "display": "Denominator Exception"
            } ]
          },
          "count": 0
        } ],
        "measureScore": {
          "value": 0.0
        }
      } ],
      "evaluatedResource": [ {
        "reference": "Patient/9f2a5e21-9d12-4acc-82a4-f6f9e20f073a"
      }, {
        "reference": "Encounter/3c013754-224a-40b6-8bed-2cff1ed70c74"
      }, {
        "reference": "Coverage/9910df83-165f-40c7-8558-e3a538c1743f"
      }, {
        "reference": "Organization/421b95b1-3362-40c1-9d4e-4f36ae9b7dbf"
      }, {
        "reference": "Practitioner/9f1abd4d-df21-4482-a3ca-b43e9879564b"
      } ]
    },
    "request": {
      "method": "PUT",
      "url": "MeasureReport/dc5bc79d-06f0-4910-a083-e50fc5631160"
    }
  } ]
}