{"resourceType":"Bundle","id":"tests-9df71b27-b988-421e-87ba-671a39f0b0b2-bundle","type":"transaction","entry":[{"resource":{"resourceType":"Bundle","id":"62a89870cadf7512b3f7b30c","type":"transaction","entry":[{"fullUrl":"https://madie.cms.gov/Patient/9df71b27-b988-421e-87ba-671a39f0b0b2","resource":{"resourceType":"Patient","id":"9df71b27-b988-421e-87ba-671a39f0b0b2","meta":{"profile":["http://hl7.org/fhir/us/qicore/StructureDefinition/qicore-patient"]},"extension":[{"url":"http://hl7.org/fhir/us/core/StructureDefinition/us-core-race","extension":[{"url":"ombCategory","valueCoding":{"system":"urn:oid:2.16.840.1.113883.6.238","code":"1002-5","display":"American Indian or Alaska Native","userSelected":true}},{"url":"text","valueString":"American Indian or Alaska Native"}]},{"url":"http://hl7.org/fhir/us/core/StructureDefinition/us-core-ethnicity","extension":[{"url":"ombCategory","valueCoding":{"system":"urn:oid:2.16.840.1.113883.6.238","code":"2135-2","display":"Hispanic or Latino","userSelected":true}},{"url":"text","valueString":"Hispanic or Latino"}]},{"url":"http://hl7.org/fhir/us/core/StructureDefinition/us-core-sex","valueCode":"248153007"}],"identifier":[{"type":{"coding":[{"system":"http://terminology.hl7.org/CodeSystem/v2-0203","code":"MR"}]},"system":"https://bonnie-fhir.healthit.gov/","value":"62a89870cadf7512b3f7b30c"}],"name":[{"family":"DENEXPass","given":["HypertensionBeforeEnc"]}],"gender":"male","birthDate":"2007-01-01"},"request":{"method":"PUT","url":"Patient/9df71b27-b988-421e-87ba-671a39f0b0b2"}},{"fullUrl":"https://madie.cms.gov/Encounter/f6ad4f50-8534-4f19-9832-13a0e7243c80","resource":{"resourceType":"Encounter","id":"f6ad4f50-8534-4f19-9832-13a0e7243c80","meta":{"profile":["http://hl7.org/fhir/us/qicore/StructureDefinition/qicore-encounter"]},"status":"finished","class":{"system":"http://terminology.hl7.org/CodeSystem/v3-ActCode","code":"AMB","display":"ambulatory"},"type":[{"coding":[{"system":"http://snomed.info/sct","version":"2022-03","code":"4525004","display":"Emergency department patient visit (procedure)","userSelected":true}]}],"subject":{"reference":"Patient/9df71b27-b988-421e-87ba-671a39f0b0b2"},"period":{"start":"2026-12-31T08:00:00.000+00:00","end":"2026-12-31T10:00:00.000+00:00"}},"request":{"method":"PUT","url":"Encounter/f6ad4f50-8534-4f19-9832-13a0e7243c80"}},{"fullUrl":"https://madie.cms.gov/Condition/2c661a5f-db9b-45c2-83d8-7abf51b9b815","resource":{"resourceType":"Condition","id":"2c661a5f-db9b-45c2-83d8-7abf51b9b815","meta":{"profile":["http://hl7.org/fhir/us/qicore/StructureDefinition/qicore-condition-problems-health-concerns"]},"clinicalStatus":{"coding":[{"system":"http://terminology.hl7.org/CodeSystem/condition-clinical","code":"relapse","display":"relapse","userSelected":true}]},"verificationStatus":{"coding":[{"system":"http://terminology.hl7.org/CodeSystem/condition-ver-status","code":"confirmed","display":"Confirmed","userSelected":true}]},"category":[{"coding":[{"system":"http://terminology.hl7.org/CodeSystem/condition-category","code":"problem-list-item","display":"Problem List Item"}]}],"code":{"coding":[{"system":"http://snomed.info/sct","version":"2022-03","code":"31992008","display":"Secondary hypertension (disorder)","userSelected":true}]},"subject":{"reference":"Patient/9df71b27-b988-421e-87ba-671a39f0b0b2"},"onsetDateTime":"2026-12-30T08:00:00.000+00:00"},"request":{"method":"PUT","url":"Condition/2c661a5f-db9b-45c2-83d8-7abf51b9b815"}},{"fullUrl":"https://madie.cms.gov/Coverage/803ab0a3-e33f-499d-b58f-9949eddb68ba","resource":{"resourceType":"Coverage","id":"803ab0a3-e33f-499d-b58f-9949eddb68ba","meta":{"profile":["http://hl7.org/fhir/us/qicore/StructureDefinition/qicore-coverage"]},"status":"active","beneficiary":{"reference":"Patient/9df71b27-b988-421e-87ba-671a39f0b0b2"},"payor":[{"reference":"Organization/136f7b78-85c8-4a48-a2f9-c5c4529085b4"}]},"request":{"method":"PUT","url":"Coverage/803ab0a3-e33f-499d-b58f-9949eddb68ba"}},{"fullUrl":"https://madie.cms.gov/Organization/136f7b78-85c8-4a48-a2f9-c5c4529085b4","resource":{"resourceType":"Organization","id":"136f7b78-85c8-4a48-a2f9-c5c4529085b4","meta":{"profile":["http://hl7.org/fhir/us/qicore/StructureDefinition/qicore-organization"]},"identifier":[{"use":"temp","system":"urn:oid:2.16.840.1.113883.4.4","value":"21-3259825"}],"active":true,"type":[{"coding":[{"system":"http://terminology.hl7.org/CodeSystem/organization-type","code":"pay","display":"Payer"}]}],"name":"Blue Cross Blue Shield of Texas","telecom":[{"system":"phone","value":"(+1) 972-766-6900"}],"address":[{"use":"billing","type":"postal","line":["P.O. Box 660044"],"city":"Dallas","state":"TX","postalCode":"75266-0044","country":"USA"}]},"request":{"method":"PUT","url":"Organization/136f7b78-85c8-4a48-a2f9-c5c4529085b4"}},{"fullUrl":"https://madie.cms.gov/Practitioner/0d5d974d-1cd4-4825-9015-400b926f2d6f","resource":{"resourceType":"Practitioner","id":"0d5d974d-1cd4-4825-9015-400b926f2d6f","meta":{"profile":["http://hl7.org/fhir/us/qicore/StructureDefinition/qicore-practitioner"]},"identifier":[{"system":"http://hl7.org/fhir/sid/us-npi","value":"123456"}],"name":[{"family":"Evil","prefix":["Dr"]}]},"request":{"method":"PUT","url":"Practitioner/0d5d974d-1cd4-4825-9015-400b926f2d6f"}},{"fullUrl":"https://madie.cms.gov/MeasureReport/652f7d43-6c55-450f-b5e8-85c05eed8d6d","resource":{"resourceType":"MeasureReport","id":"652f7d43-6c55-450f-b5e8-85c05eed8d6d","meta":{"profile":["http://hl7.org/fhir/us/cqfmeasures/StructureDefinition/test-case-cqfm"]},"contained":[{"resourceType":"Parameters","id":"e5080a50-e8ec-4fb4-93cf-890effd1bd9d-parameters","parameter":[{"name":"subject","valueString":"9df71b27-b988-421e-87ba-671a39f0b0b2"}]}],"extension":[{"url":"http://hl7.org/fhir/StructureDefinition/cqf-inputParameters","valueReference":{"reference":"#e5080a50-e8ec-4fb4-93cf-890effd1bd9d-parameters"}},{"url":"http://hl7.org/fhir/us/cqfmeasures/StructureDefinition/cqfm-testCaseDescription","valueMarkdown":"Enc. last day of MP, age 18, confirmed HTN (problem list, relapse) 1 day before encounter. Dx of HTN day before the encounter excludes this patient"}],"modifierExtension":[{"url":"http://hl7.org/fhir/us/cqfmeasures/StructureDefinition/cqfm-isTestCase","valueBoolean":true}],"status":"complete","type":"individual","measure":"https://madie.cms.gov/Measure/CMS22FHIRPCSBPScreeningFollowUp","period":{"start":"2026-01-01","end":"2026-12-31"},"group":[{"id":"Group_1","population":[{"id":"InitialPopulation_1","code":{"coding":[{"system":"http://terminology.hl7.org/CodeSystem/measure-population","code":"initial-population","display":"Initial Population"}]},"count":1},{"id":"Denominator_1","code":{"coding":[{"system":"http://terminology.hl7.org/CodeSystem/measure-population","code":"denominator","display":"Denominator"}]},"count":1},{"id":"DenominatorExclusion_1","code":{"coding":[{"system":"http://terminology.hl7.org/CodeSystem/measure-population","code":"denominator-exclusion","display":"Denominator Exclusion"}]},"count":1},{"id":"Numerator_1","code":{"coding":[{"system":"http://terminology.hl7.org/CodeSystem/measure-population","code":"numerator","display":"Numerator"}]},"count":0},{"id":"DenominatorException_1","code":{"coding":[{"system":"http://terminology.hl7.org/CodeSystem/measure-population","code":"denominator-exception","display":"Denominator Exception"}]},"count":0}],"measureScore":{"value":0}}],"evaluatedResource":[{"reference":"Patient/9df71b27-b988-421e-87ba-671a39f0b0b2"},{"reference":"Encounter/f6ad4f50-8534-4f19-9832-13a0e7243c80"},{"reference":"Condition/2c661a5f-db9b-45c2-83d8-7abf51b9b815"},{"reference":"Coverage/803ab0a3-e33f-499d-b58f-9949eddb68ba"},{"reference":"Organization/136f7b78-85c8-4a48-a2f9-c5c4529085b4"},{"reference":"Practitioner/0d5d974d-1cd4-4825-9015-400b926f2d6f"}]},"request":{"method":"PUT","url":"MeasureReport/652f7d43-6c55-450f-b5e8-85c05eed8d6d"}}]},"request":{"method":"PUT","url":"Bundle/62a89870cadf7512b3f7b30c"}},{"resource":{"resourceType":"Condition","id":"2c661a5f-db9b-45c2-83d8-7abf51b9b815","meta":{"profile":["http://hl7.org/fhir/us/qicore/StructureDefinition/qicore-condition-problems-health-concerns"]},"clinicalStatus":{"coding":[{"system":"http://terminology.hl7.org/CodeSystem/condition-clinical","code":"relapse","display":"relapse","userSelected":true}]},"verificationStatus":{"coding":[{"system":"http://terminology.hl7.org/CodeSystem/condition-ver-status","code":"confirmed","display":"Confirmed","userSelected":true}]},"category":[{"coding":[{"system":"http://terminology.hl7.org/CodeSystem/condition-category","code":"problem-list-item","display":"Problem List Item"}]}],"code":{"coding":[{"system":"http://snomed.info/sct","version":"2022-03","code":"31992008","display":"Secondary hypertension (disorder)","userSelected":true}]},"subject":{"reference":"Patient/9df71b27-b988-421e-87ba-671a39f0b0b2"},"onsetDateTime":"2026-12-30T08:00:00.000+00:00"},"request":{"method":"PUT","url":"Condition/2c661a5f-db9b-45c2-83d8-7abf51b9b815"}},{"resource":{"resourceType":"Coverage","id":"803ab0a3-e33f-499d-b58f-9949eddb68ba","meta":{"profile":["http://hl7.org/fhir/us/qicore/StructureDefinition/qicore-coverage"]},"status":"active","beneficiary":{"reference":"Patient/9df71b27-b988-421e-87ba-671a39f0b0b2"},"payor":[{"reference":"Organization/136f7b78-85c8-4a48-a2f9-c5c4529085b4"}]},"request":{"method":"PUT","url":"Coverage/803ab0a3-e33f-499d-b58f-9949eddb68ba"}},{"resource":{"resourceType":"Encounter","id":"f6ad4f50-8534-4f19-9832-13a0e7243c80","meta":{"profile":["http://hl7.org/fhir/us/qicore/StructureDefinition/qicore-encounter"]},"status":"finished","class":{"system":"http://terminology.hl7.org/CodeSystem/v3-ActCode","code":"AMB","display":"ambulatory"},"type":[{"coding":[{"system":"http://snomed.info/sct","version":"2022-03","code":"4525004","display":"Emergency department patient visit (procedure)","userSelected":true}]}],"subject":{"reference":"Patient/9df71b27-b988-421e-87ba-671a39f0b0b2"},"period":{"start":"2026-12-31T08:00:00.000+00:00","end":"2026-12-31T10:00:00.000+00:00"}},"request":{"method":"PUT","url":"Encounter/f6ad4f50-8534-4f19-9832-13a0e7243c80"}},{"resource":{"resourceType":"MeasureReport","id":"652f7d43-6c55-450f-b5e8-85c05eed8d6d","meta":{"profile":["http://hl7.org/fhir/us/cqfmeasures/StructureDefinition/test-case-cqfm"]},"contained":[{"resourceType":"Parameters","id":"e5080a50-e8ec-4fb4-93cf-890effd1bd9d-parameters","parameter":[{"name":"subject","valueString":"9df71b27-b988-421e-87ba-671a39f0b0b2"}]}],"extension":[{"url":"http://hl7.org/fhir/StructureDefinition/cqf-inputParameters","valueReference":{"reference":"#e5080a50-e8ec-4fb4-93cf-890effd1bd9d-parameters"}},{"url":"http://hl7.org/fhir/us/cqfmeasures/StructureDefinition/cqfm-testCaseDescription","valueMarkdown":"Enc. last day of MP, age 18, confirmed HTN (problem list, relapse) 1 day before encounter. Dx of HTN day before the encounter excludes this patient"}],"modifierExtension":[{"url":"http://hl7.org/fhir/us/cqfmeasures/StructureDefinition/cqfm-isTestCase","valueBoolean":true}],"status":"complete","type":"individual","measure":"https://madie.cms.gov/Measure/CMS22FHIRPCSBPScreeningFollowUp","period":{"start":"2026-01-01","end":"2026-12-31"},"group":[{"id":"Group_1","population":[{"id":"InitialPopulation_1","code":{"coding":[{"system":"http://terminology.hl7.org/CodeSystem/measure-population","code":"initial-population","display":"Initial Population"}]},"count":1},{"id":"Denominator_1","code":{"coding":[{"system":"http://terminology.hl7.org/CodeSystem/measure-population","code":"denominator","display":"Denominator"}]},"count":1},{"id":"DenominatorExclusion_1","code":{"coding":[{"system":"http://terminology.hl7.org/CodeSystem/measure-population","code":"denominator-exclusion","display":"Denominator Exclusion"}]},"count":1},{"id":"Numerator_1","code":{"coding":[{"system":"http://terminology.hl7.org/CodeSystem/measure-population","code":"numerator","display":"Numerator"}]},"count":0},{"id":"DenominatorException_1","code":{"coding":[{"system":"http://terminology.hl7.org/CodeSystem/measure-population","code":"denominator-exception","display":"Denominator Exception"}]},"count":0}],"measureScore":{"value":0}}],"evaluatedResource":[{"reference":"Patient/9df71b27-b988-421e-87ba-671a39f0b0b2"},{"reference":"Encounter/f6ad4f50-8534-4f19-9832-13a0e7243c80"},{"reference":"Condition/2c661a5f-db9b-45c2-83d8-7abf51b9b815"},{"reference":"Coverage/803ab0a3-e33f-499d-b58f-9949eddb68ba"},{"reference":"Organization/136f7b78-85c8-4a48-a2f9-c5c4529085b4"},{"reference":"Practitioner/0d5d974d-1cd4-4825-9015-400b926f2d6f"}]},"request":{"method":"PUT","url":"MeasureReport/652f7d43-6c55-450f-b5e8-85c05eed8d6d"}},{"resource":{"resourceType":"Organization","id":"136f7b78-85c8-4a48-a2f9-c5c4529085b4","meta":{"profile":["http://hl7.org/fhir/us/qicore/StructureDefinition/qicore-organization"]},"identifier":[{"use":"temp","system":"urn:oid:2.16.840.1.113883.4.4","value":"21-3259825"}],"active":true,"type":[{"coding":[{"system":"http://terminology.hl7.org/CodeSystem/organization-type","code":"pay","display":"Payer"}]}],"name":"Blue Cross Blue Shield of Texas","telecom":[{"system":"phone","value":"(+1) 972-766-6900"}],"address":[{"use":"billing","type":"postal","line":["P.O. Box 660044"],"city":"Dallas","state":"TX","postalCode":"75266-0044","country":"USA"}]},"request":{"method":"PUT","url":"Organization/136f7b78-85c8-4a48-a2f9-c5c4529085b4"}},{"resource":{"resourceType":"Patient","id":"9df71b27-b988-421e-87ba-671a39f0b0b2","meta":{"profile":["http://hl7.org/fhir/us/qicore/StructureDefinition/qicore-patient"]},"extension":[{"url":"http://hl7.org/fhir/us/core/StructureDefinition/us-core-race","extension":[{"url":"ombCategory","valueCoding":{"system":"urn:oid:2.16.840.1.113883.6.238","code":"1002-5","display":"American Indian or Alaska Native","userSelected":true}},{"url":"text","valueString":"American Indian or Alaska Native"}]},{"url":"http://hl7.org/fhir/us/core/StructureDefinition/us-core-ethnicity","extension":[{"url":"ombCategory","valueCoding":{"system":"urn:oid:2.16.840.1.113883.6.238","code":"2135-2","display":"Hispanic or Latino","userSelected":true}},{"url":"text","valueString":"Hispanic or Latino"}]},{"url":"http://hl7.org/fhir/us/core/StructureDefinition/us-core-sex","valueCode":"248153007"}],"identifier":[{"type":{"coding":[{"system":"http://terminology.hl7.org/CodeSystem/v2-0203","code":"MR"}]},"system":"https://bonnie-fhir.healthit.gov/","value":"62a89870cadf7512b3f7b30c"}],"name":[{"family":"DENEXPass","given":["HypertensionBeforeEnc"]}],"gender":"male","birthDate":"2007-01-01"},"request":{"method":"PUT","url":"Patient/9df71b27-b988-421e-87ba-671a39f0b0b2"}},{"resource":{"resourceType":"Practitioner","id":"0d5d974d-1cd4-4825-9015-400b926f2d6f","meta":{"profile":["http://hl7.org/fhir/us/qicore/StructureDefinition/qicore-practitioner"]},"identifier":[{"system":"http://hl7.org/fhir/sid/us-npi","value":"123456"}],"name":[{"family":"Evil","prefix":["Dr"]}]},"request":{"method":"PUT","url":"Practitioner/0d5d974d-1cd4-4825-9015-400b926f2d6f"}}]}