{"resourceType":"Bundle","id":"tests-296d38e4-d69b-481e-a8cf-f7eee8b9e5d7-bundle","type":"transaction","entry":[{"resource":{"resourceType":"Bundle","id":"628d4fa9786e3aa8c68d3cd4","type":"transaction","entry":[{"fullUrl":"https://madie.cms.gov/Patient/296d38e4-d69b-481e-a8cf-f7eee8b9e5d7","resource":{"resourceType":"Patient","id":"296d38e4-d69b-481e-a8cf-f7eee8b9e5d7","meta":{"profile":["http://hl7.org/fhir/us/qicore/StructureDefinition/qicore-patient"]},"extension":[{"url":"http://hl7.org/fhir/us/core/StructureDefinition/us-core-race","extension":[{"url":"ombCategory","valueCoding":{"system":"urn:oid:2.16.840.1.113883.6.238","code":"2054-5","display":"Black or African American","userSelected":true}},{"url":"text","valueString":"Black or African American"}]},{"url":"http://hl7.org/fhir/us/core/StructureDefinition/us-core-ethnicity","extension":[{"url":"ombCategory","valueCoding":{"system":"urn:oid:2.16.840.1.113883.6.238","code":"2186-5","display":"Not Hispanic or Latino","userSelected":true}},{"url":"text","valueString":"Not Hispanic or Latino"}]}],"identifier":[{"type":{"coding":[{"system":"http://terminology.hl7.org/CodeSystem/v2-0203","code":"MR"}]},"system":"https://bonnie-fhir.healthit.gov/","value":"628d4fa9786e3aa8c68d3cd4"}],"name":[{"family":"IPPPass","given":["Age18HasEnc"]}],"gender":"female","birthDate":"2006-12-31"},"request":{"method":"PUT","url":"Patient/296d38e4-d69b-481e-a8cf-f7eee8b9e5d7"}},{"fullUrl":"https://madie.cms.gov/Encounter/89e1995e-3582-454d-aa06-d6e35f146c25","resource":{"resourceType":"Encounter","id":"89e1995e-3582-454d-aa06-d6e35f146c25","meta":{"profile":["http://hl7.org/fhir/us/qicore/StructureDefinition/qicore-encounter"]},"status":"finished","class":{"system":"http://terminology.hl7.org/CodeSystem/v3-ActCode","code":"AMB","display":"ambulatory"},"type":[{"coding":[{"system":"http://snomed.info/sct","version":"2022-03","code":"103705002","display":"Patient status observation (procedure)","userSelected":true}]}],"subject":{"reference":"Patient/296d38e4-d69b-481e-a8cf-f7eee8b9e5d7"},"period":{"start":"2026-12-31T08:01:00.000+00:00","end":"2026-12-31T08:15:00.000+00:00"}},"request":{"method":"PUT","url":"Encounter/89e1995e-3582-454d-aa06-d6e35f146c25"}},{"fullUrl":"https://madie.cms.gov/Coverage/ce86a3df-13b5-4495-b23a-9834dae62aca","resource":{"resourceType":"Coverage","id":"ce86a3df-13b5-4495-b23a-9834dae62aca","meta":{"profile":["http://hl7.org/fhir/us/qicore/StructureDefinition/qicore-coverage"]},"status":"active","beneficiary":{"reference":"Patient/296d38e4-d69b-481e-a8cf-f7eee8b9e5d7"},"payor":[{"reference":"Organization/5ee110d4-e6e0-4136-b4e0-a79d2943c846"}]},"request":{"method":"PUT","url":"Coverage/ce86a3df-13b5-4495-b23a-9834dae62aca"}},{"fullUrl":"https://madie.cms.gov/Organization/5ee110d4-e6e0-4136-b4e0-a79d2943c846","resource":{"resourceType":"Organization","id":"5ee110d4-e6e0-4136-b4e0-a79d2943c846","meta":{"profile":["http://hl7.org/fhir/us/qicore/StructureDefinition/qicore-organization"]},"identifier":[{"use":"temp","system":"urn:oid:2.16.840.1.113883.4.4","value":"21-3259825"}],"active":true,"type":[{"coding":[{"system":"http://terminology.hl7.org/CodeSystem/organization-type","code":"pay","display":"Payer"}]}],"name":"Blue Cross Blue Shield of Texas","telecom":[{"system":"phone","value":"(+1) 972-766-6900"}],"address":[{"use":"billing","type":"postal","line":["P.O. Box 660044"],"city":"Dallas","state":"TX","postalCode":"75266-0044","country":"USA"}]},"request":{"method":"PUT","url":"Organization/5ee110d4-e6e0-4136-b4e0-a79d2943c846"}},{"fullUrl":"https://madie.cms.gov/Practitioner/ea323fa9-872a-4e2e-a362-70baf5e79bb5","resource":{"resourceType":"Practitioner","id":"ea323fa9-872a-4e2e-a362-70baf5e79bb5","meta":{"profile":["http://hl7.org/fhir/us/qicore/StructureDefinition/qicore-practitioner"]},"identifier":[{"system":"http://hl7.org/fhir/sid/us-npi","value":"123456"}],"name":[{"family":"Evil","prefix":["Dr"]}]},"request":{"method":"PUT","url":"Practitioner/ea323fa9-872a-4e2e-a362-70baf5e79bb5"}},{"fullUrl":"https://madie.cms.gov/MeasureReport/0b596e23-14f5-49af-8ea0-8aefa4946025","resource":{"resourceType":"MeasureReport","id":"0b596e23-14f5-49af-8ea0-8aefa4946025","meta":{"profile":["http://hl7.org/fhir/us/cqfmeasures/StructureDefinition/test-case-cqfm"]},"contained":[{"resourceType":"Parameters","id":"93d59099-0ab9-4865-93ae-496d1e0ef364-parameters","parameter":[{"name":"subject","valueString":"296d38e4-d69b-481e-a8cf-f7eee8b9e5d7"}]}],"extension":[{"url":"http://hl7.org/fhir/StructureDefinition/cqf-inputParameters","valueReference":{"reference":"#93d59099-0ab9-4865-93ae-496d1e0ef364-parameters"}},{"url":"http://hl7.org/fhir/us/cqfmeasures/StructureDefinition/cqfm-testCaseDescription","valueMarkdown":"Age 18 at start of MP and encounter last day of MP"}],"modifierExtension":[{"url":"http://hl7.org/fhir/us/cqfmeasures/StructureDefinition/cqfm-isTestCase","valueBoolean":true}],"status":"complete","type":"individual","measure":"https://madie.cms.gov/Measure/CMS22FHIRPCSBPScreeningFollowUp","period":{"start":"2026-01-01","end":"2026-12-31"},"group":[{"id":"Group_1","population":[{"id":"InitialPopulation_1","code":{"coding":[{"system":"http://terminology.hl7.org/CodeSystem/measure-population","code":"initial-population","display":"Initial Population"}]},"count":1},{"id":"Denominator_1","code":{"coding":[{"system":"http://terminology.hl7.org/CodeSystem/measure-population","code":"denominator","display":"Denominator"}]},"count":1},{"id":"DenominatorExclusion_1","code":{"coding":[{"system":"http://terminology.hl7.org/CodeSystem/measure-population","code":"denominator-exclusion","display":"Denominator Exclusion"}]},"count":0},{"id":"Numerator_1","code":{"coding":[{"system":"http://terminology.hl7.org/CodeSystem/measure-population","code":"numerator","display":"Numerator"}]},"count":0},{"id":"DenominatorException_1","code":{"coding":[{"system":"http://terminology.hl7.org/CodeSystem/measure-population","code":"denominator-exception","display":"Denominator Exception"}]},"count":0}],"measureScore":{"value":0}}],"evaluatedResource":[{"reference":"Patient/296d38e4-d69b-481e-a8cf-f7eee8b9e5d7"},{"reference":"Encounter/89e1995e-3582-454d-aa06-d6e35f146c25"},{"reference":"Coverage/ce86a3df-13b5-4495-b23a-9834dae62aca"},{"reference":"Organization/5ee110d4-e6e0-4136-b4e0-a79d2943c846"},{"reference":"Practitioner/ea323fa9-872a-4e2e-a362-70baf5e79bb5"}]},"request":{"method":"PUT","url":"MeasureReport/0b596e23-14f5-49af-8ea0-8aefa4946025"}}]},"request":{"method":"PUT","url":"Bundle/628d4fa9786e3aa8c68d3cd4"}},{"resource":{"resourceType":"Coverage","id":"ce86a3df-13b5-4495-b23a-9834dae62aca","meta":{"profile":["http://hl7.org/fhir/us/qicore/StructureDefinition/qicore-coverage"]},"status":"active","beneficiary":{"reference":"Patient/296d38e4-d69b-481e-a8cf-f7eee8b9e5d7"},"payor":[{"reference":"Organization/5ee110d4-e6e0-4136-b4e0-a79d2943c846"}]},"request":{"method":"PUT","url":"Coverage/ce86a3df-13b5-4495-b23a-9834dae62aca"}},{"resource":{"resourceType":"Encounter","id":"89e1995e-3582-454d-aa06-d6e35f146c25","meta":{"profile":["http://hl7.org/fhir/us/qicore/StructureDefinition/qicore-encounter"]},"status":"finished","class":{"system":"http://terminology.hl7.org/CodeSystem/v3-ActCode","code":"AMB","display":"ambulatory"},"type":[{"coding":[{"system":"http://snomed.info/sct","version":"2022-03","code":"103705002","display":"Patient status observation (procedure)","userSelected":true}]}],"subject":{"reference":"Patient/296d38e4-d69b-481e-a8cf-f7eee8b9e5d7"},"period":{"start":"2026-12-31T08:01:00.000+00:00","end":"2026-12-31T08:15:00.000+00:00"}},"request":{"method":"PUT","url":"Encounter/89e1995e-3582-454d-aa06-d6e35f146c25"}},{"resource":{"resourceType":"MeasureReport","id":"0b596e23-14f5-49af-8ea0-8aefa4946025","meta":{"profile":["http://hl7.org/fhir/us/cqfmeasures/StructureDefinition/test-case-cqfm"]},"contained":[{"resourceType":"Parameters","id":"93d59099-0ab9-4865-93ae-496d1e0ef364-parameters","parameter":[{"name":"subject","valueString":"296d38e4-d69b-481e-a8cf-f7eee8b9e5d7"}]}],"extension":[{"url":"http://hl7.org/fhir/StructureDefinition/cqf-inputParameters","valueReference":{"reference":"#93d59099-0ab9-4865-93ae-496d1e0ef364-parameters"}},{"url":"http://hl7.org/fhir/us/cqfmeasures/StructureDefinition/cqfm-testCaseDescription","valueMarkdown":"Age 18 at start of MP and encounter last day of MP"}],"modifierExtension":[{"url":"http://hl7.org/fhir/us/cqfmeasures/StructureDefinition/cqfm-isTestCase","valueBoolean":true}],"status":"complete","type":"individual","measure":"https://madie.cms.gov/Measure/CMS22FHIRPCSBPScreeningFollowUp","period":{"start":"2026-01-01","end":"2026-12-31"},"group":[{"id":"Group_1","population":[{"id":"InitialPopulation_1","code":{"coding":[{"system":"http://terminology.hl7.org/CodeSystem/measure-population","code":"initial-population","display":"Initial Population"}]},"count":1},{"id":"Denominator_1","code":{"coding":[{"system":"http://terminology.hl7.org/CodeSystem/measure-population","code":"denominator","display":"Denominator"}]},"count":1},{"id":"DenominatorExclusion_1","code":{"coding":[{"system":"http://terminology.hl7.org/CodeSystem/measure-population","code":"denominator-exclusion","display":"Denominator Exclusion"}]},"count":0},{"id":"Numerator_1","code":{"coding":[{"system":"http://terminology.hl7.org/CodeSystem/measure-population","code":"numerator","display":"Numerator"}]},"count":0},{"id":"DenominatorException_1","code":{"coding":[{"system":"http://terminology.hl7.org/CodeSystem/measure-population","code":"denominator-exception","display":"Denominator Exception"}]},"count":0}],"measureScore":{"value":0}}],"evaluatedResource":[{"reference":"Patient/296d38e4-d69b-481e-a8cf-f7eee8b9e5d7"},{"reference":"Encounter/89e1995e-3582-454d-aa06-d6e35f146c25"},{"reference":"Coverage/ce86a3df-13b5-4495-b23a-9834dae62aca"},{"reference":"Organization/5ee110d4-e6e0-4136-b4e0-a79d2943c846"},{"reference":"Practitioner/ea323fa9-872a-4e2e-a362-70baf5e79bb5"}]},"request":{"method":"PUT","url":"MeasureReport/0b596e23-14f5-49af-8ea0-8aefa4946025"}},{"resource":{"resourceType":"Organization","id":"5ee110d4-e6e0-4136-b4e0-a79d2943c846","meta":{"profile":["http://hl7.org/fhir/us/qicore/StructureDefinition/qicore-organization"]},"identifier":[{"use":"temp","system":"urn:oid:2.16.840.1.113883.4.4","value":"21-3259825"}],"active":true,"type":[{"coding":[{"system":"http://terminology.hl7.org/CodeSystem/organization-type","code":"pay","display":"Payer"}]}],"name":"Blue Cross Blue Shield of Texas","telecom":[{"system":"phone","value":"(+1) 972-766-6900"}],"address":[{"use":"billing","type":"postal","line":["P.O. Box 660044"],"city":"Dallas","state":"TX","postalCode":"75266-0044","country":"USA"}]},"request":{"method":"PUT","url":"Organization/5ee110d4-e6e0-4136-b4e0-a79d2943c846"}},{"resource":{"resourceType":"Patient","id":"296d38e4-d69b-481e-a8cf-f7eee8b9e5d7","meta":{"profile":["http://hl7.org/fhir/us/qicore/StructureDefinition/qicore-patient"]},"extension":[{"url":"http://hl7.org/fhir/us/core/StructureDefinition/us-core-race","extension":[{"url":"ombCategory","valueCoding":{"system":"urn:oid:2.16.840.1.113883.6.238","code":"2054-5","display":"Black or African American","userSelected":true}},{"url":"text","valueString":"Black or African American"}]},{"url":"http://hl7.org/fhir/us/core/StructureDefinition/us-core-ethnicity","extension":[{"url":"ombCategory","valueCoding":{"system":"urn:oid:2.16.840.1.113883.6.238","code":"2186-5","display":"Not Hispanic or Latino","userSelected":true}},{"url":"text","valueString":"Not Hispanic or Latino"}]}],"identifier":[{"type":{"coding":[{"system":"http://terminology.hl7.org/CodeSystem/v2-0203","code":"MR"}]},"system":"https://bonnie-fhir.healthit.gov/","value":"628d4fa9786e3aa8c68d3cd4"}],"name":[{"family":"IPPPass","given":["Age18HasEnc"]}],"gender":"female","birthDate":"2006-12-31"},"request":{"method":"PUT","url":"Patient/296d38e4-d69b-481e-a8cf-f7eee8b9e5d7"}},{"resource":{"resourceType":"Practitioner","id":"ea323fa9-872a-4e2e-a362-70baf5e79bb5","meta":{"profile":["http://hl7.org/fhir/us/qicore/StructureDefinition/qicore-practitioner"]},"identifier":[{"system":"http://hl7.org/fhir/sid/us-npi","value":"123456"}],"name":[{"family":"Evil","prefix":["Dr"]}]},"request":{"method":"PUT","url":"Practitioner/ea323fa9-872a-4e2e-a362-70baf5e79bb5"}}]}