{"resourceType":"Bundle","id":"tests-efee27eb-af27-42d3-93a3-83371d134307-bundle","type":"transaction","entry":[{"resource":{"resourceType":"Bundle","id":"62d96963f0347d1abcae6c0e","type":"transaction","entry":[{"fullUrl":"https://madie.cms.gov/Patient/efee27eb-af27-42d3-93a3-83371d134307","resource":{"resourceType":"Patient","id":"efee27eb-af27-42d3-93a3-83371d134307","meta":{"profile":["http://hl7.org/fhir/us/qicore/StructureDefinition/qicore-patient"]},"extension":[{"url":"http://hl7.org/fhir/us/core/StructureDefinition/us-core-race","extension":[{"url":"ombCategory","valueCoding":{"system":"urn:oid:2.16.840.1.113883.6.238","code":"1002-5","display":"American Indian or Alaska Native","userSelected":true}},{"url":"text","valueString":"American Indian or Alaska Native"}]},{"url":"http://hl7.org/fhir/us/core/StructureDefinition/us-core-ethnicity","extension":[{"url":"ombCategory","valueCoding":{"system":"urn:oid:2.16.840.1.113883.6.238","code":"2135-2","display":"Hispanic or Latino","userSelected":true}},{"url":"text","valueString":"Hispanic or Latino"}]}],"identifier":[{"type":{"coding":[{"system":"http://terminology.hl7.org/CodeSystem/v2-0203","code":"MR"}]},"system":"https://bonnie-fhir.healthit.gov/","value":"62d96963f0347d1abcae6c0e"}],"name":[{"family":"DENEXCEPPass","given":["NoBPMedicalReason"]}],"gender":"male","birthDate":"2007-12-31"},"request":{"method":"PUT","url":"Patient/efee27eb-af27-42d3-93a3-83371d134307"}},{"fullUrl":"https://madie.cms.gov/Encounter/52d2e4e8-26fa-41d2-92f0-6a6129186d8e","resource":{"resourceType":"Encounter","id":"52d2e4e8-26fa-41d2-92f0-6a6129186d8e","meta":{"profile":["http://hl7.org/fhir/us/qicore/StructureDefinition/qicore-encounter"]},"status":"finished","class":{"system":"http://terminology.hl7.org/CodeSystem/v3-ActCode","code":"AMB","display":"ambulatory"},"type":[{"coding":[{"system":"http://snomed.info/sct","version":"2021-09","code":"103705002","display":"Patient status observation (procedure)","userSelected":true}]}],"subject":{"reference":"Patient/efee27eb-af27-42d3-93a3-83371d134307"},"period":{"start":"2026-01-01T08:00:00.000+00:00","end":"2026-01-01T08:30:00.000+00:00"}},"request":{"method":"PUT","url":"Encounter/52d2e4e8-26fa-41d2-92f0-6a6129186d8e"}},{"fullUrl":"https://madie.cms.gov/Observation/21efb0a2-45af-4908-898f-c4c49978e275","resource":{"resourceType":"Observation","id":"21efb0a2-45af-4908-898f-c4c49978e275","meta":{"profile":["http://hl7.org/fhir/us/qicore/StructureDefinition/qicore-observationcancelled"]},"extension":[{"url":"http://hl7.org/fhir/us/qicore/StructureDefinition/qicore-notDoneReason","valueCodeableConcept":{"coding":[{"system":"http://snomed.info/sct","code":"183932001","display":"Procedure contraindicated (situation)","userSelected":true}]}}],"status":"cancelled","category":[{"coding":[{"system":"http://terminology.hl7.org/CodeSystem/observation-category","code":"procedure","display":"Procedure"}]}],"code":{"coding":[{"system":"http://loinc.org","code":"8480-6","display":"Systolic blood pressure","userSelected":true}]},"subject":{"reference":"Patient/efee27eb-af27-42d3-93a3-83371d134307"},"effectiveDateTime":"2026-01-01T08:10:00.000+00:00","issued":"2026-01-01T08:05:00.000+00:00","valueBoolean":true},"request":{"method":"PUT","url":"Observation/21efb0a2-45af-4908-898f-c4c49978e275"}},{"fullUrl":"https://madie.cms.gov/Observation/cd1dfa4f-54a1-4b22-8f72-7a0a0de64528","resource":{"resourceType":"Observation","id":"cd1dfa4f-54a1-4b22-8f72-7a0a0de64528","meta":{"profile":["http://hl7.org/fhir/us/qicore/StructureDefinition/qicore-observationcancelled"]},"extension":[{"url":"http://hl7.org/fhir/us/qicore/StructureDefinition/qicore-notDoneReason","valueCodeableConcept":{"coding":[{"system":"http://snomed.info/sct","version":"2022-03","code":"59037007","display":"Intolerance to drug (finding)","userSelected":true}]}}],"status":"cancelled","category":[{"coding":[{"system":"http://terminology.hl7.org/CodeSystem/observation-category","code":"procedure","display":"Procedure"}]}],"code":{"coding":[{"system":"http://loinc.org","code":"8462-4","display":"Diastolic blood pressure","userSelected":true}]},"subject":{"reference":"Patient/efee27eb-af27-42d3-93a3-83371d134307"},"effectiveDateTime":"2026-01-01T08:10:00.000+00:00","issued":"2026-01-01T08:05:00.000+00:00","valueBoolean":true},"request":{"method":"PUT","url":"Observation/cd1dfa4f-54a1-4b22-8f72-7a0a0de64528"}},{"fullUrl":"https://madie.cms.gov/Coverage/3f39f270-a72a-4652-ab55-6adc2c0767f7","resource":{"resourceType":"Coverage","id":"3f39f270-a72a-4652-ab55-6adc2c0767f7","meta":{"profile":["http://hl7.org/fhir/us/qicore/StructureDefinition/qicore-coverage"]},"status":"active","beneficiary":{"reference":"Patient/efee27eb-af27-42d3-93a3-83371d134307"},"payor":[{"reference":"Organization/fc223e8e-fb57-4aa2-a4ad-5efc6a391ec5"}]},"request":{"method":"PUT","url":"Coverage/3f39f270-a72a-4652-ab55-6adc2c0767f7"}},{"fullUrl":"https://madie.cms.gov/Organization/fc223e8e-fb57-4aa2-a4ad-5efc6a391ec5","resource":{"resourceType":"Organization","id":"fc223e8e-fb57-4aa2-a4ad-5efc6a391ec5","meta":{"profile":["http://hl7.org/fhir/us/qicore/StructureDefinition/qicore-organization"]},"identifier":[{"use":"temp","system":"urn:oid:2.16.840.1.113883.4.4","value":"21-3259825"}],"active":true,"type":[{"coding":[{"system":"http://terminology.hl7.org/CodeSystem/organization-type","code":"pay","display":"Payer"}]}],"name":"Blue Cross Blue Shield of Texas","telecom":[{"system":"phone","value":"(+1) 972-766-6900"}],"address":[{"use":"billing","type":"postal","line":["P.O. Box 660044"],"city":"Dallas","state":"TX","postalCode":"75266-0044","country":"USA"}]},"request":{"method":"PUT","url":"Organization/fc223e8e-fb57-4aa2-a4ad-5efc6a391ec5"}},{"fullUrl":"https://madie.cms.gov/Practitioner/87eec81d-6590-493c-a121-cf698c6803e5","resource":{"resourceType":"Practitioner","id":"87eec81d-6590-493c-a121-cf698c6803e5","meta":{"profile":["http://hl7.org/fhir/us/qicore/StructureDefinition/qicore-practitioner"]},"identifier":[{"system":"http://hl7.org/fhir/sid/us-npi","value":"123456"}],"name":[{"family":"Evil","prefix":["Dr"]}]},"request":{"method":"PUT","url":"Practitioner/87eec81d-6590-493c-a121-cf698c6803e5"}},{"fullUrl":"https://madie.cms.gov/MeasureReport/d263da04-96ed-4ffd-8577-75f41810fad1","resource":{"resourceType":"MeasureReport","id":"d263da04-96ed-4ffd-8577-75f41810fad1","meta":{"profile":["http://hl7.org/fhir/us/cqfmeasures/StructureDefinition/test-case-cqfm"]},"contained":[{"resourceType":"Parameters","id":"514371e2-730b-499c-a6c9-7b29207aa584-parameters","parameter":[{"name":"subject","valueString":"efee27eb-af27-42d3-93a3-83371d134307"}]}],"extension":[{"url":"http://hl7.org/fhir/StructureDefinition/cqf-inputParameters","valueReference":{"reference":"#514371e2-730b-499c-a6c9-7b29207aa584-parameters"}},{"url":"http://hl7.org/fhir/us/cqfmeasures/StructureDefinition/cqfm-testCaseDescription","valueMarkdown":"Enc. first day MP, age 18 one day before start of MP, BP declined d/t contraindications "}],"modifierExtension":[{"url":"http://hl7.org/fhir/us/cqfmeasures/StructureDefinition/cqfm-isTestCase","valueBoolean":true}],"status":"complete","type":"individual","measure":"https://madie.cms.gov/Measure/CMS22FHIRPCSBPScreeningFollowUp","period":{"start":"2026-01-01","end":"2026-12-31"},"group":[{"id":"Group_1","population":[{"id":"InitialPopulation_1","code":{"coding":[{"system":"http://terminology.hl7.org/CodeSystem/measure-population","code":"initial-population","display":"Initial Population"}]},"count":1},{"id":"Denominator_1","code":{"coding":[{"system":"http://terminology.hl7.org/CodeSystem/measure-population","code":"denominator","display":"Denominator"}]},"count":1},{"id":"DenominatorExclusion_1","code":{"coding":[{"system":"http://terminology.hl7.org/CodeSystem/measure-population","code":"denominator-exclusion","display":"Denominator Exclusion"}]},"count":0},{"id":"Numerator_1","code":{"coding":[{"system":"http://terminology.hl7.org/CodeSystem/measure-population","code":"numerator","display":"Numerator"}]},"count":0},{"id":"DenominatorException_1","code":{"coding":[{"system":"http://terminology.hl7.org/CodeSystem/measure-population","code":"denominator-exception","display":"Denominator Exception"}]},"count":1}],"measureScore":{"value":0}}],"evaluatedResource":[{"reference":"Patient/efee27eb-af27-42d3-93a3-83371d134307"},{"reference":"Encounter/52d2e4e8-26fa-41d2-92f0-6a6129186d8e"},{"reference":"Observation/21efb0a2-45af-4908-898f-c4c49978e275"},{"reference":"Observation/cd1dfa4f-54a1-4b22-8f72-7a0a0de64528"},{"reference":"Coverage/3f39f270-a72a-4652-ab55-6adc2c0767f7"},{"reference":"Organization/fc223e8e-fb57-4aa2-a4ad-5efc6a391ec5"},{"reference":"Practitioner/87eec81d-6590-493c-a121-cf698c6803e5"}]},"request":{"method":"PUT","url":"MeasureReport/d263da04-96ed-4ffd-8577-75f41810fad1"}}]},"request":{"method":"PUT","url":"Bundle/62d96963f0347d1abcae6c0e"}},{"resource":{"resourceType":"Coverage","id":"3f39f270-a72a-4652-ab55-6adc2c0767f7","meta":{"profile":["http://hl7.org/fhir/us/qicore/StructureDefinition/qicore-coverage"]},"status":"active","beneficiary":{"reference":"Patient/efee27eb-af27-42d3-93a3-83371d134307"},"payor":[{"reference":"Organization/fc223e8e-fb57-4aa2-a4ad-5efc6a391ec5"}]},"request":{"method":"PUT","url":"Coverage/3f39f270-a72a-4652-ab55-6adc2c0767f7"}},{"resource":{"resourceType":"Encounter","id":"52d2e4e8-26fa-41d2-92f0-6a6129186d8e","meta":{"profile":["http://hl7.org/fhir/us/qicore/StructureDefinition/qicore-encounter"]},"status":"finished","class":{"system":"http://terminology.hl7.org/CodeSystem/v3-ActCode","code":"AMB","display":"ambulatory"},"type":[{"coding":[{"system":"http://snomed.info/sct","version":"2021-09","code":"103705002","display":"Patient status observation (procedure)","userSelected":true}]}],"subject":{"reference":"Patient/efee27eb-af27-42d3-93a3-83371d134307"},"period":{"start":"2026-01-01T08:00:00.000+00:00","end":"2026-01-01T08:30:00.000+00:00"}},"request":{"method":"PUT","url":"Encounter/52d2e4e8-26fa-41d2-92f0-6a6129186d8e"}},{"resource":{"resourceType":"MeasureReport","id":"d263da04-96ed-4ffd-8577-75f41810fad1","meta":{"profile":["http://hl7.org/fhir/us/cqfmeasures/StructureDefinition/test-case-cqfm"]},"contained":[{"resourceType":"Parameters","id":"514371e2-730b-499c-a6c9-7b29207aa584-parameters","parameter":[{"name":"subject","valueString":"efee27eb-af27-42d3-93a3-83371d134307"}]}],"extension":[{"url":"http://hl7.org/fhir/StructureDefinition/cqf-inputParameters","valueReference":{"reference":"#514371e2-730b-499c-a6c9-7b29207aa584-parameters"}},{"url":"http://hl7.org/fhir/us/cqfmeasures/StructureDefinition/cqfm-testCaseDescription","valueMarkdown":"Enc. first day MP, age 18 one day before start of MP, BP declined d/t contraindications "}],"modifierExtension":[{"url":"http://hl7.org/fhir/us/cqfmeasures/StructureDefinition/cqfm-isTestCase","valueBoolean":true}],"status":"complete","type":"individual","measure":"https://madie.cms.gov/Measure/CMS22FHIRPCSBPScreeningFollowUp","period":{"start":"2026-01-01","end":"2026-12-31"},"group":[{"id":"Group_1","population":[{"id":"InitialPopulation_1","code":{"coding":[{"system":"http://terminology.hl7.org/CodeSystem/measure-population","code":"initial-population","display":"Initial Population"}]},"count":1},{"id":"Denominator_1","code":{"coding":[{"system":"http://terminology.hl7.org/CodeSystem/measure-population","code":"denominator","display":"Denominator"}]},"count":1},{"id":"DenominatorExclusion_1","code":{"coding":[{"system":"http://terminology.hl7.org/CodeSystem/measure-population","code":"denominator-exclusion","display":"Denominator Exclusion"}]},"count":0},{"id":"Numerator_1","code":{"coding":[{"system":"http://terminology.hl7.org/CodeSystem/measure-population","code":"numerator","display":"Numerator"}]},"count":0},{"id":"DenominatorException_1","code":{"coding":[{"system":"http://terminology.hl7.org/CodeSystem/measure-population","code":"denominator-exception","display":"Denominator Exception"}]},"count":1}],"measureScore":{"value":0}}],"evaluatedResource":[{"reference":"Patient/efee27eb-af27-42d3-93a3-83371d134307"},{"reference":"Encounter/52d2e4e8-26fa-41d2-92f0-6a6129186d8e"},{"reference":"Observation/21efb0a2-45af-4908-898f-c4c49978e275"},{"reference":"Observation/cd1dfa4f-54a1-4b22-8f72-7a0a0de64528"},{"reference":"Coverage/3f39f270-a72a-4652-ab55-6adc2c0767f7"},{"reference":"Organization/fc223e8e-fb57-4aa2-a4ad-5efc6a391ec5"},{"reference":"Practitioner/87eec81d-6590-493c-a121-cf698c6803e5"}]},"request":{"method":"PUT","url":"MeasureReport/d263da04-96ed-4ffd-8577-75f41810fad1"}},{"resource":{"resourceType":"Observation","id":"21efb0a2-45af-4908-898f-c4c49978e275","meta":{"profile":["http://hl7.org/fhir/us/qicore/StructureDefinition/qicore-observationcancelled"]},"extension":[{"url":"http://hl7.org/fhir/us/qicore/StructureDefinition/qicore-notDoneReason","valueCodeableConcept":{"coding":[{"system":"http://snomed.info/sct","code":"183932001","display":"Procedure contraindicated (situation)","userSelected":true}]}}],"status":"cancelled","category":[{"coding":[{"system":"http://terminology.hl7.org/CodeSystem/observation-category","code":"procedure","display":"Procedure"}]}],"code":{"coding":[{"system":"http://loinc.org","code":"8480-6","display":"Systolic blood pressure","userSelected":true}]},"subject":{"reference":"Patient/efee27eb-af27-42d3-93a3-83371d134307"},"effectiveDateTime":"2026-01-01T08:10:00.000+00:00","issued":"2026-01-01T08:05:00.000+00:00","valueBoolean":true},"request":{"method":"PUT","url":"Observation/21efb0a2-45af-4908-898f-c4c49978e275"}},{"resource":{"resourceType":"Observation","id":"cd1dfa4f-54a1-4b22-8f72-7a0a0de64528","meta":{"profile":["http://hl7.org/fhir/us/qicore/StructureDefinition/qicore-observationcancelled"]},"extension":[{"url":"http://hl7.org/fhir/us/qicore/StructureDefinition/qicore-notDoneReason","valueCodeableConcept":{"coding":[{"system":"http://snomed.info/sct","version":"2022-03","code":"59037007","display":"Intolerance to drug (finding)","userSelected":true}]}}],"status":"cancelled","category":[{"coding":[{"system":"http://terminology.hl7.org/CodeSystem/observation-category","code":"procedure","display":"Procedure"}]}],"code":{"coding":[{"system":"http://loinc.org","code":"8462-4","display":"Diastolic blood pressure","userSelected":true}]},"subject":{"reference":"Patient/efee27eb-af27-42d3-93a3-83371d134307"},"effectiveDateTime":"2026-01-01T08:10:00.000+00:00","issued":"2026-01-01T08:05:00.000+00:00","valueBoolean":true},"request":{"method":"PUT","url":"Observation/cd1dfa4f-54a1-4b22-8f72-7a0a0de64528"}},{"resource":{"resourceType":"Organization","id":"fc223e8e-fb57-4aa2-a4ad-5efc6a391ec5","meta":{"profile":["http://hl7.org/fhir/us/qicore/StructureDefinition/qicore-organization"]},"identifier":[{"use":"temp","system":"urn:oid:2.16.840.1.113883.4.4","value":"21-3259825"}],"active":true,"type":[{"coding":[{"system":"http://terminology.hl7.org/CodeSystem/organization-type","code":"pay","display":"Payer"}]}],"name":"Blue Cross Blue Shield of Texas","telecom":[{"system":"phone","value":"(+1) 972-766-6900"}],"address":[{"use":"billing","type":"postal","line":["P.O. Box 660044"],"city":"Dallas","state":"TX","postalCode":"75266-0044","country":"USA"}]},"request":{"method":"PUT","url":"Organization/fc223e8e-fb57-4aa2-a4ad-5efc6a391ec5"}},{"resource":{"resourceType":"Patient","id":"efee27eb-af27-42d3-93a3-83371d134307","meta":{"profile":["http://hl7.org/fhir/us/qicore/StructureDefinition/qicore-patient"]},"extension":[{"url":"http://hl7.org/fhir/us/core/StructureDefinition/us-core-race","extension":[{"url":"ombCategory","valueCoding":{"system":"urn:oid:2.16.840.1.113883.6.238","code":"1002-5","display":"American Indian or Alaska Native","userSelected":true}},{"url":"text","valueString":"American Indian or Alaska Native"}]},{"url":"http://hl7.org/fhir/us/core/StructureDefinition/us-core-ethnicity","extension":[{"url":"ombCategory","valueCoding":{"system":"urn:oid:2.16.840.1.113883.6.238","code":"2135-2","display":"Hispanic or Latino","userSelected":true}},{"url":"text","valueString":"Hispanic or Latino"}]}],"identifier":[{"type":{"coding":[{"system":"http://terminology.hl7.org/CodeSystem/v2-0203","code":"MR"}]},"system":"https://bonnie-fhir.healthit.gov/","value":"62d96963f0347d1abcae6c0e"}],"name":[{"family":"DENEXCEPPass","given":["NoBPMedicalReason"]}],"gender":"male","birthDate":"2007-12-31"},"request":{"method":"PUT","url":"Patient/efee27eb-af27-42d3-93a3-83371d134307"}},{"resource":{"resourceType":"Practitioner","id":"87eec81d-6590-493c-a121-cf698c6803e5","meta":{"profile":["http://hl7.org/fhir/us/qicore/StructureDefinition/qicore-practitioner"]},"identifier":[{"system":"http://hl7.org/fhir/sid/us-npi","value":"123456"}],"name":[{"family":"Evil","prefix":["Dr"]}]},"request":{"method":"PUT","url":"Practitioner/87eec81d-6590-493c-a121-cf698c6803e5"}}]}