{"resourceType":"Bundle","id":"tests-a55c6265-a05c-4fad-beb4-c5338420d1b1-bundle","type":"transaction","entry":[{"resource":{"resourceType":"Bundle","id":"62d94d31f0347d1abcae6c00","type":"transaction","entry":[{"fullUrl":"https://madie.cms.gov/Patient/a55c6265-a05c-4fad-beb4-c5338420d1b1","resource":{"resourceType":"Patient","id":"a55c6265-a05c-4fad-beb4-c5338420d1b1","meta":{"profile":["http://hl7.org/fhir/us/qicore/StructureDefinition/qicore-patient"]},"extension":[{"url":"http://hl7.org/fhir/us/core/StructureDefinition/us-core-race","extension":[{"url":"ombCategory","valueCoding":{"system":"urn:oid:2.16.840.1.113883.6.238","code":"2054-5","display":"Black or African American","userSelected":true}},{"url":"text","valueString":"Black or African American"}]},{"url":"http://hl7.org/fhir/us/core/StructureDefinition/us-core-ethnicity","extension":[{"url":"ombCategory","valueCoding":{"system":"urn:oid:2.16.840.1.113883.6.238","code":"2135-2","display":"Hispanic or Latino","userSelected":true}},{"url":"text","valueString":"Hispanic or Latino"}]}],"identifier":[{"type":{"coding":[{"system":"http://terminology.hl7.org/CodeSystem/v2-0203","code":"MR"}]},"system":"https://bonnie-fhir.healthit.gov/","value":"62d94d31f0347d1abcae6c00"}],"name":[{"family":"DENEXCEPPass","given":["ElevatedBP4to6FUDeclined"]}],"gender":"female","birthDate":"2006-01-01"},"request":{"method":"PUT","url":"Patient/a55c6265-a05c-4fad-beb4-c5338420d1b1"}},{"fullUrl":"https://madie.cms.gov/Encounter/c274b6ca-0379-46b5-aa14-36f6b19c0a24","resource":{"resourceType":"Encounter","id":"c274b6ca-0379-46b5-aa14-36f6b19c0a24","meta":{"profile":["http://hl7.org/fhir/us/qicore/StructureDefinition/qicore-encounter"]},"status":"finished","class":{"system":"http://terminology.hl7.org/CodeSystem/v3-ActCode","code":"AMB","display":"ambulatory"},"type":[{"coding":[{"system":"http://snomed.info/sct","version":"2022-03","code":"103705002","display":"Patient status observation (procedure)","userSelected":true}]}],"subject":{"reference":"Patient/a55c6265-a05c-4fad-beb4-c5338420d1b1"},"period":{"start":"2026-01-01T08:00:00.000+00:00","end":"2026-01-01T08:30:00.000+00:00"}},"request":{"method":"PUT","url":"Encounter/c274b6ca-0379-46b5-aa14-36f6b19c0a24"}},{"fullUrl":"https://madie.cms.gov/Observation/96cbd778-1de1-46d8-bfeb-279696153376","resource":{"resourceType":"Observation","id":"96cbd778-1de1-46d8-bfeb-279696153376","meta":{"profile":["http://hl7.org/fhir/us/core/StructureDefinition/us-core-blood-pressure"]},"status":"final","category":[{"coding":[{"system":"http://terminology.hl7.org/CodeSystem/observation-category","code":"vital-signs","display":"Vital Signs"}],"text":"Vital Signs"}],"code":{"coding":[{"system":"http://loinc.org","code":"85354-9","display":"Blood pressure panel"}]},"subject":{"reference":"Patient/a55c6265-a05c-4fad-beb4-c5338420d1b1"},"effectiveDateTime":"2026-01-01T08:05:00.000+00:00","component":[{"code":{"coding":[{"system":"http://loinc.org","code":"8480-6","display":"Systolic blood pressure"}]},"valueQuantity":{"value":120,"unit":"mmHg","system":"http://unitsofmeasure.org","code":"mm[Hg]"}},{"code":{"coding":[{"system":"http://loinc.org","code":"8462-4","display":"Diastolic blood pressure"}]},"valueQuantity":{"value":79,"unit":"mmHg","system":"http://unitsofmeasure.org","code":"mm[Hg]"}}]},"request":{"method":"PUT","url":"Observation/96cbd778-1de1-46d8-bfeb-279696153376"}},{"fullUrl":"https://madie.cms.gov/ServiceRequest/6001d347-78fe-429b-bce4-307c75adcffe","resource":{"resourceType":"ServiceRequest","id":"6001d347-78fe-429b-bce4-307c75adcffe","meta":{"profile":["http://hl7.org/fhir/us/qicore/StructureDefinition/qicore-servicenotrequested"]},"extension":[{"url":"http://hl7.org/fhir/us/qicore/StructureDefinition/qicore-doNotPerformReason","valueCodeableConcept":{"coding":[{"system":"http://snomed.info/sct","version":"2022-03","code":"183945002","display":"Procedure declined for religious reason (situation)","userSelected":true}]}}],"status":"completed","intent":"order","doNotPerform":true,"code":{"coding":[{"system":"http://snomed.info/sct","code":"183625007","display":"Follow-up 4-6 months (finding)","userSelected":true}]},"subject":{"reference":"Patient/a55c6265-a05c-4fad-beb4-c5338420d1b1"},"authoredOn":"2026-01-01T08:25:00.000+00:00"},"request":{"method":"PUT","url":"ServiceRequest/6001d347-78fe-429b-bce4-307c75adcffe"}},{"fullUrl":"https://madie.cms.gov/Coverage/2f0a66ef-dfe7-43c2-b17f-5974b73ee1bc","resource":{"resourceType":"Coverage","id":"2f0a66ef-dfe7-43c2-b17f-5974b73ee1bc","meta":{"profile":["http://hl7.org/fhir/us/qicore/StructureDefinition/qicore-coverage"]},"status":"active","beneficiary":{"reference":"Patient/a55c6265-a05c-4fad-beb4-c5338420d1b1"},"payor":[{"reference":"Organization/62385b72-e116-47b1-b53a-e2ef93ad3039"}]},"request":{"method":"PUT","url":"Coverage/2f0a66ef-dfe7-43c2-b17f-5974b73ee1bc"}},{"fullUrl":"https://madie.cms.gov/Organization/62385b72-e116-47b1-b53a-e2ef93ad3039","resource":{"resourceType":"Organization","id":"62385b72-e116-47b1-b53a-e2ef93ad3039","meta":{"profile":["http://hl7.org/fhir/us/qicore/StructureDefinition/qicore-organization"]},"identifier":[{"use":"temp","system":"urn:oid:2.16.840.1.113883.4.4","value":"21-3259825"}],"active":true,"type":[{"coding":[{"system":"http://terminology.hl7.org/CodeSystem/organization-type","code":"pay","display":"Payer"}]}],"name":"Blue Cross Blue Shield of Texas","telecom":[{"system":"phone","value":"(+1) 972-766-6900"}],"address":[{"use":"billing","type":"postal","line":["P.O. Box 660044"],"city":"Dallas","state":"TX","postalCode":"75266-0044","country":"USA"}]},"request":{"method":"PUT","url":"Organization/62385b72-e116-47b1-b53a-e2ef93ad3039"}},{"fullUrl":"https://madie.cms.gov/MeasureReport/f6362ae1-7373-4290-9191-29e4e7608d98","resource":{"resourceType":"MeasureReport","id":"f6362ae1-7373-4290-9191-29e4e7608d98","meta":{"profile":["http://hl7.org/fhir/us/cqfmeasures/StructureDefinition/test-case-cqfm"]},"contained":[{"resourceType":"Parameters","id":"68813dff-33a1-43f3-969d-220c00c4b93a-parameters","parameter":[{"name":"subject","valueString":"a55c6265-a05c-4fad-beb4-c5338420d1b1"}]}],"extension":[{"url":"http://hl7.org/fhir/StructureDefinition/cqf-inputParameters","valueReference":{"reference":"#68813dff-33a1-43f3-969d-220c00c4b93a-parameters"}},{"url":"http://hl7.org/fhir/us/cqfmeasures/StructureDefinition/cqfm-testCaseDescription","valueMarkdown":"Enc. 01/01 0800-0830 during MP, age 20, BP 120/79, patient refused f/u in 4-6 months due to religious reasons"}],"modifierExtension":[{"url":"http://hl7.org/fhir/us/cqfmeasures/StructureDefinition/cqfm-isTestCase","valueBoolean":true}],"status":"complete","type":"individual","measure":"https://madie.cms.gov/Measure/CMS22FHIRPCSBPScreeningFollowUp","period":{"start":"2026-01-01","end":"2026-12-31"},"group":[{"id":"Group_1","population":[{"id":"InitialPopulation_1","code":{"coding":[{"system":"http://terminology.hl7.org/CodeSystem/measure-population","code":"initial-population","display":"Initial Population"}]},"count":1},{"id":"Denominator_1","code":{"coding":[{"system":"http://terminology.hl7.org/CodeSystem/measure-population","code":"denominator","display":"Denominator"}]},"count":1},{"id":"DenominatorExclusion_1","code":{"coding":[{"system":"http://terminology.hl7.org/CodeSystem/measure-population","code":"denominator-exclusion","display":"Denominator Exclusion"}]},"count":0},{"id":"Numerator_1","code":{"coding":[{"system":"http://terminology.hl7.org/CodeSystem/measure-population","code":"numerator","display":"Numerator"}]},"count":0},{"id":"DenominatorException_1","code":{"coding":[{"system":"http://terminology.hl7.org/CodeSystem/measure-population","code":"denominator-exception","display":"Denominator Exception"}]},"count":1}],"measureScore":{"value":0}}],"evaluatedResource":[{"reference":"Patient/a55c6265-a05c-4fad-beb4-c5338420d1b1"},{"reference":"Encounter/c274b6ca-0379-46b5-aa14-36f6b19c0a24"},{"reference":"Observation/96cbd778-1de1-46d8-bfeb-279696153376"},{"reference":"ServiceRequest/6001d347-78fe-429b-bce4-307c75adcffe"},{"reference":"Coverage/2f0a66ef-dfe7-43c2-b17f-5974b73ee1bc"},{"reference":"Organization/62385b72-e116-47b1-b53a-e2ef93ad3039"}]},"request":{"method":"PUT","url":"MeasureReport/f6362ae1-7373-4290-9191-29e4e7608d98"}}]},"request":{"method":"PUT","url":"Bundle/62d94d31f0347d1abcae6c00"}},{"resource":{"resourceType":"Coverage","id":"2f0a66ef-dfe7-43c2-b17f-5974b73ee1bc","meta":{"profile":["http://hl7.org/fhir/us/qicore/StructureDefinition/qicore-coverage"]},"status":"active","beneficiary":{"reference":"Patient/a55c6265-a05c-4fad-beb4-c5338420d1b1"},"payor":[{"reference":"Organization/62385b72-e116-47b1-b53a-e2ef93ad3039"}]},"request":{"method":"PUT","url":"Coverage/2f0a66ef-dfe7-43c2-b17f-5974b73ee1bc"}},{"resource":{"resourceType":"Encounter","id":"c274b6ca-0379-46b5-aa14-36f6b19c0a24","meta":{"profile":["http://hl7.org/fhir/us/qicore/StructureDefinition/qicore-encounter"]},"status":"finished","class":{"system":"http://terminology.hl7.org/CodeSystem/v3-ActCode","code":"AMB","display":"ambulatory"},"type":[{"coding":[{"system":"http://snomed.info/sct","version":"2022-03","code":"103705002","display":"Patient status observation (procedure)","userSelected":true}]}],"subject":{"reference":"Patient/a55c6265-a05c-4fad-beb4-c5338420d1b1"},"period":{"start":"2026-01-01T08:00:00.000+00:00","end":"2026-01-01T08:30:00.000+00:00"}},"request":{"method":"PUT","url":"Encounter/c274b6ca-0379-46b5-aa14-36f6b19c0a24"}},{"resource":{"resourceType":"MeasureReport","id":"f6362ae1-7373-4290-9191-29e4e7608d98","meta":{"profile":["http://hl7.org/fhir/us/cqfmeasures/StructureDefinition/test-case-cqfm"]},"contained":[{"resourceType":"Parameters","id":"68813dff-33a1-43f3-969d-220c00c4b93a-parameters","parameter":[{"name":"subject","valueString":"a55c6265-a05c-4fad-beb4-c5338420d1b1"}]}],"extension":[{"url":"http://hl7.org/fhir/StructureDefinition/cqf-inputParameters","valueReference":{"reference":"#68813dff-33a1-43f3-969d-220c00c4b93a-parameters"}},{"url":"http://hl7.org/fhir/us/cqfmeasures/StructureDefinition/cqfm-testCaseDescription","valueMarkdown":"Enc. 01/01 0800-0830 during MP, age 20, BP 120/79, patient refused f/u in 4-6 months due to religious reasons"}],"modifierExtension":[{"url":"http://hl7.org/fhir/us/cqfmeasures/StructureDefinition/cqfm-isTestCase","valueBoolean":true}],"status":"complete","type":"individual","measure":"https://madie.cms.gov/Measure/CMS22FHIRPCSBPScreeningFollowUp","period":{"start":"2026-01-01","end":"2026-12-31"},"group":[{"id":"Group_1","population":[{"id":"InitialPopulation_1","code":{"coding":[{"system":"http://terminology.hl7.org/CodeSystem/measure-population","code":"initial-population","display":"Initial Population"}]},"count":1},{"id":"Denominator_1","code":{"coding":[{"system":"http://terminology.hl7.org/CodeSystem/measure-population","code":"denominator","display":"Denominator"}]},"count":1},{"id":"DenominatorExclusion_1","code":{"coding":[{"system":"http://terminology.hl7.org/CodeSystem/measure-population","code":"denominator-exclusion","display":"Denominator Exclusion"}]},"count":0},{"id":"Numerator_1","code":{"coding":[{"system":"http://terminology.hl7.org/CodeSystem/measure-population","code":"numerator","display":"Numerator"}]},"count":0},{"id":"DenominatorException_1","code":{"coding":[{"system":"http://terminology.hl7.org/CodeSystem/measure-population","code":"denominator-exception","display":"Denominator Exception"}]},"count":1}],"measureScore":{"value":0}}],"evaluatedResource":[{"reference":"Patient/a55c6265-a05c-4fad-beb4-c5338420d1b1"},{"reference":"Encounter/c274b6ca-0379-46b5-aa14-36f6b19c0a24"},{"reference":"Observation/96cbd778-1de1-46d8-bfeb-279696153376"},{"reference":"ServiceRequest/6001d347-78fe-429b-bce4-307c75adcffe"},{"reference":"Coverage/2f0a66ef-dfe7-43c2-b17f-5974b73ee1bc"},{"reference":"Organization/62385b72-e116-47b1-b53a-e2ef93ad3039"}]},"request":{"method":"PUT","url":"MeasureReport/f6362ae1-7373-4290-9191-29e4e7608d98"}},{"resource":{"resourceType":"Observation","id":"96cbd778-1de1-46d8-bfeb-279696153376","meta":{"profile":["http://hl7.org/fhir/us/core/StructureDefinition/us-core-blood-pressure"]},"status":"final","category":[{"coding":[{"system":"http://terminology.hl7.org/CodeSystem/observation-category","code":"vital-signs","display":"Vital Signs"}],"text":"Vital Signs"}],"code":{"coding":[{"system":"http://loinc.org","code":"85354-9","display":"Blood pressure panel"}]},"subject":{"reference":"Patient/a55c6265-a05c-4fad-beb4-c5338420d1b1"},"effectiveDateTime":"2026-01-01T08:05:00.000+00:00","component":[{"code":{"coding":[{"system":"http://loinc.org","code":"8480-6","display":"Systolic blood pressure"}]},"valueQuantity":{"value":120,"unit":"mmHg","system":"http://unitsofmeasure.org","code":"mm[Hg]"}},{"code":{"coding":[{"system":"http://loinc.org","code":"8462-4","display":"Diastolic blood pressure"}]},"valueQuantity":{"value":79,"unit":"mmHg","system":"http://unitsofmeasure.org","code":"mm[Hg]"}}]},"request":{"method":"PUT","url":"Observation/96cbd778-1de1-46d8-bfeb-279696153376"}},{"resource":{"resourceType":"Organization","id":"62385b72-e116-47b1-b53a-e2ef93ad3039","meta":{"profile":["http://hl7.org/fhir/us/qicore/StructureDefinition/qicore-organization"]},"identifier":[{"use":"temp","system":"urn:oid:2.16.840.1.113883.4.4","value":"21-3259825"}],"active":true,"type":[{"coding":[{"system":"http://terminology.hl7.org/CodeSystem/organization-type","code":"pay","display":"Payer"}]}],"name":"Blue Cross Blue Shield of Texas","telecom":[{"system":"phone","value":"(+1) 972-766-6900"}],"address":[{"use":"billing","type":"postal","line":["P.O. Box 660044"],"city":"Dallas","state":"TX","postalCode":"75266-0044","country":"USA"}]},"request":{"method":"PUT","url":"Organization/62385b72-e116-47b1-b53a-e2ef93ad3039"}},{"resource":{"resourceType":"Patient","id":"a55c6265-a05c-4fad-beb4-c5338420d1b1","meta":{"profile":["http://hl7.org/fhir/us/qicore/StructureDefinition/qicore-patient"]},"extension":[{"url":"http://hl7.org/fhir/us/core/StructureDefinition/us-core-race","extension":[{"url":"ombCategory","valueCoding":{"system":"urn:oid:2.16.840.1.113883.6.238","code":"2054-5","display":"Black or African American","userSelected":true}},{"url":"text","valueString":"Black or African American"}]},{"url":"http://hl7.org/fhir/us/core/StructureDefinition/us-core-ethnicity","extension":[{"url":"ombCategory","valueCoding":{"system":"urn:oid:2.16.840.1.113883.6.238","code":"2135-2","display":"Hispanic or Latino","userSelected":true}},{"url":"text","valueString":"Hispanic or Latino"}]}],"identifier":[{"type":{"coding":[{"system":"http://terminology.hl7.org/CodeSystem/v2-0203","code":"MR"}]},"system":"https://bonnie-fhir.healthit.gov/","value":"62d94d31f0347d1abcae6c00"}],"name":[{"family":"DENEXCEPPass","given":["ElevatedBP4to6FUDeclined"]}],"gender":"female","birthDate":"2006-01-01"},"request":{"method":"PUT","url":"Patient/a55c6265-a05c-4fad-beb4-c5338420d1b1"}},{"resource":{"resourceType":"ServiceRequest","id":"6001d347-78fe-429b-bce4-307c75adcffe","meta":{"profile":["http://hl7.org/fhir/us/qicore/StructureDefinition/qicore-servicenotrequested"]},"extension":[{"url":"http://hl7.org/fhir/us/qicore/StructureDefinition/qicore-doNotPerformReason","valueCodeableConcept":{"coding":[{"system":"http://snomed.info/sct","version":"2022-03","code":"183945002","display":"Procedure declined for religious reason (situation)","userSelected":true}]}}],"status":"completed","intent":"order","doNotPerform":true,"code":{"coding":[{"system":"http://snomed.info/sct","code":"183625007","display":"Follow-up 4-6 months (finding)","userSelected":true}]},"subject":{"reference":"Patient/a55c6265-a05c-4fad-beb4-c5338420d1b1"},"authoredOn":"2026-01-01T08:25:00.000+00:00"},"request":{"method":"PUT","url":"ServiceRequest/6001d347-78fe-429b-bce4-307c75adcffe"}}]}