{"resourceType":"Bundle","id":"tests-f3cd028d-a63e-473f-9f1b-4837ae091e65-bundle","type":"transaction","entry":[{"resource":{"resourceType":"Organization","id":"45883104-0b45-45ec-86b6-94021f7b1f45","meta":{"profile":["http://hl7.org/fhir/us/qicore/StructureDefinition/qicore-organization"]},"identifier":[{"use":"temp","system":"urn:oid:2.16.840.1.113883.4.4","value":"21-3259825"}],"active":true,"type":[{"coding":[{"system":"http://terminology.hl7.org/CodeSystem/organization-type","code":"pay","display":"Payer"}]}],"name":"Blue Cross Blue Shield of Texas","telecom":[{"system":"phone","value":"(+1) 972-766-6900"}],"address":[{"use":"billing","type":"postal","line":["P.O. Box 660044"],"city":"Dallas","state":"TX","postalCode":"75266-0044","country":"USA"}]},"request":{"method":"PUT","url":"Organization/45883104-0b45-45ec-86b6-94021f7b1f45"}},{"resource":{"resourceType":"Patient","id":"f3cd028d-a63e-473f-9f1b-4837ae091e65","meta":{"profile":["http://hl7.org/fhir/us/qicore/StructureDefinition/qicore-patient"]},"text":{"status":"generated","div":"<div xmlns=\"http://www.w3.org/1999/xhtml\">do not know</div>"},"extension":[{"url":"http://hl7.org/fhir/us/core/StructureDefinition/us-core-race","extension":[{"url":"ombCategory","valueCoding":{"system":"urn:oid:2.16.840.1.113883.6.238","code":"2028-9","display":"Asian","userSelected":true}},{"url":"text","valueString":"Asian"}]},{"url":"http://hl7.org/fhir/us/core/StructureDefinition/us-core-ethnicity","extension":[{"url":"ombCategory","valueCoding":{"system":"urn:oid:2.16.840.1.113883.6.238","code":"2186-5","display":"Not Hispanic or Latino","userSelected":true}},{"url":"text","valueString":"Not Hispanic or Latino"}]}],"identifier":[{"type":{"coding":[{"system":"http://terminology.hl7.org/CodeSystem/v2-0203","code":"MR"}]},"system":"https://bonnie-fhir.healthit.gov/","value":"628d4f48786e3aa8c68d3cd3"}],"name":[{"family":"IPPFail","given":["NoEncounter"]}],"gender":"female","birthDate":"2006-12-31"},"request":{"method":"PUT","url":"Patient/f3cd028d-a63e-473f-9f1b-4837ae091e65"}},{"resource":{"resourceType":"Bundle","id":"628d4f48786e3aa8c68d3cd3","type":"transaction","entry":[{"fullUrl":"https://madie.cms.gov/Patient/f3cd028d-a63e-473f-9f1b-4837ae091e65","resource":{"resourceType":"Patient","id":"f3cd028d-a63e-473f-9f1b-4837ae091e65","meta":{"profile":["http://hl7.org/fhir/us/qicore/StructureDefinition/qicore-patient"]},"text":{"status":"generated","div":"<div xmlns=\"http://www.w3.org/1999/xhtml\">do not know</div>"},"extension":[{"url":"http://hl7.org/fhir/us/core/StructureDefinition/us-core-race","extension":[{"url":"ombCategory","valueCoding":{"system":"urn:oid:2.16.840.1.113883.6.238","code":"2028-9","display":"Asian","userSelected":true}},{"url":"text","valueString":"Asian"}]},{"url":"http://hl7.org/fhir/us/core/StructureDefinition/us-core-ethnicity","extension":[{"url":"ombCategory","valueCoding":{"system":"urn:oid:2.16.840.1.113883.6.238","code":"2186-5","display":"Not Hispanic or Latino","userSelected":true}},{"url":"text","valueString":"Not Hispanic or Latino"}]}],"identifier":[{"type":{"coding":[{"system":"http://terminology.hl7.org/CodeSystem/v2-0203","code":"MR"}]},"system":"https://bonnie-fhir.healthit.gov/","value":"628d4f48786e3aa8c68d3cd3"}],"name":[{"family":"IPPFail","given":["NoEncounter"]}],"gender":"female","birthDate":"2006-12-31"},"request":{"method":"PUT","url":"Patient/f3cd028d-a63e-473f-9f1b-4837ae091e65"}},{"fullUrl":"https://madie.cms.gov/Coverage/8c0fcbf6-de07-4888-aee4-31cf2511b127","resource":{"resourceType":"Coverage","id":"8c0fcbf6-de07-4888-aee4-31cf2511b127","meta":{"profile":["http://hl7.org/fhir/us/qicore/StructureDefinition/qicore-coverage"]},"status":"active","beneficiary":{"reference":"Patient/f3cd028d-a63e-473f-9f1b-4837ae091e65"},"payor":[{"reference":"Organization/45883104-0b45-45ec-86b6-94021f7b1f45"}]},"request":{"method":"PUT","url":"Coverage/8c0fcbf6-de07-4888-aee4-31cf2511b127"}},{"fullUrl":"https://madie.cms.gov/Organization/45883104-0b45-45ec-86b6-94021f7b1f45","resource":{"resourceType":"Organization","id":"45883104-0b45-45ec-86b6-94021f7b1f45","meta":{"profile":["http://hl7.org/fhir/us/qicore/StructureDefinition/qicore-organization"]},"identifier":[{"use":"temp","system":"urn:oid:2.16.840.1.113883.4.4","value":"21-3259825"}],"active":true,"type":[{"coding":[{"system":"http://terminology.hl7.org/CodeSystem/organization-type","code":"pay","display":"Payer"}]}],"name":"Blue Cross Blue Shield of Texas","telecom":[{"system":"phone","value":"(+1) 972-766-6900"}],"address":[{"use":"billing","type":"postal","line":["P.O. Box 660044"],"city":"Dallas","state":"TX","postalCode":"75266-0044","country":"USA"}]},"request":{"method":"PUT","url":"Organization/45883104-0b45-45ec-86b6-94021f7b1f45"}},{"fullUrl":"https://madie.cms.gov/MeasureReport/41625866-99ae-411e-afb8-5673d8e1b46b","resource":{"resourceType":"MeasureReport","id":"41625866-99ae-411e-afb8-5673d8e1b46b","meta":{"profile":["http://hl7.org/fhir/us/cqfmeasures/StructureDefinition/test-case-cqfm"]},"contained":[{"resourceType":"Parameters","id":"4907fe6c-f5a1-4e03-a118-1bfc6bbc0bb2-parameters","parameter":[{"name":"subject","valueString":"f3cd028d-a63e-473f-9f1b-4837ae091e65"}]}],"extension":[{"url":"http://hl7.org/fhir/StructureDefinition/cqf-inputParameters","valueReference":{"reference":"#4907fe6c-f5a1-4e03-a118-1bfc6bbc0bb2-parameters"}},{"url":"http://hl7.org/fhir/us/cqfmeasures/StructureDefinition/cqfm-testCaseDescription","valueMarkdown":"Age 18 but no encounter. "}],"modifierExtension":[{"url":"http://hl7.org/fhir/us/cqfmeasures/StructureDefinition/cqfm-isTestCase","valueBoolean":true}],"status":"complete","type":"individual","measure":"https://madie.cms.gov/Measure/CMS22FHIRPCSBPScreeningFollowUp","period":{"start":"2026-01-01","end":"2026-12-31"},"group":[{"id":"Group_1","population":[{"id":"InitialPopulation_1","code":{"coding":[{"system":"http://terminology.hl7.org/CodeSystem/measure-population","code":"initial-population","display":"Initial Population"}]},"count":0},{"id":"Denominator_1","code":{"coding":[{"system":"http://terminology.hl7.org/CodeSystem/measure-population","code":"denominator","display":"Denominator"}]},"count":0},{"id":"DenominatorExclusion_1","code":{"coding":[{"system":"http://terminology.hl7.org/CodeSystem/measure-population","code":"denominator-exclusion","display":"Denominator Exclusion"}]},"count":0},{"id":"Numerator_1","code":{"coding":[{"system":"http://terminology.hl7.org/CodeSystem/measure-population","code":"numerator","display":"Numerator"}]},"count":0},{"id":"DenominatorException_1","code":{"coding":[{"system":"http://terminology.hl7.org/CodeSystem/measure-population","code":"denominator-exception","display":"Denominator Exception"}]},"count":0}],"measureScore":{"value":0.0}}],"evaluatedResource":[{"reference":"Patient/f3cd028d-a63e-473f-9f1b-4837ae091e65"},{"reference":"Coverage/8c0fcbf6-de07-4888-aee4-31cf2511b127"},{"reference":"Organization/45883104-0b45-45ec-86b6-94021f7b1f45"}]},"request":{"method":"PUT","url":"MeasureReport/41625866-99ae-411e-afb8-5673d8e1b46b"}}]},"request":{"method":"PUT","url":"Bundle/628d4f48786e3aa8c68d3cd3"}},{"resource":{"resourceType":"MeasureReport","id":"41625866-99ae-411e-afb8-5673d8e1b46b","meta":{"profile":["http://hl7.org/fhir/us/cqfmeasures/StructureDefinition/test-case-cqfm"]},"contained":[{"resourceType":"Parameters","id":"4907fe6c-f5a1-4e03-a118-1bfc6bbc0bb2-parameters","parameter":[{"name":"subject","valueString":"f3cd028d-a63e-473f-9f1b-4837ae091e65"}]}],"extension":[{"url":"http://hl7.org/fhir/StructureDefinition/cqf-inputParameters","valueReference":{"reference":"#4907fe6c-f5a1-4e03-a118-1bfc6bbc0bb2-parameters"}},{"url":"http://hl7.org/fhir/us/cqfmeasures/StructureDefinition/cqfm-testCaseDescription","valueMarkdown":"Age 18 but no encounter. "}],"modifierExtension":[{"url":"http://hl7.org/fhir/us/cqfmeasures/StructureDefinition/cqfm-isTestCase","valueBoolean":true}],"status":"complete","type":"individual","measure":"https://madie.cms.gov/Measure/CMS22FHIRPCSBPScreeningFollowUp","period":{"start":"2026-01-01","end":"2026-12-31"},"group":[{"id":"Group_1","population":[{"id":"InitialPopulation_1","code":{"coding":[{"system":"http://terminology.hl7.org/CodeSystem/measure-population","code":"initial-population","display":"Initial Population"}]},"count":0},{"id":"Denominator_1","code":{"coding":[{"system":"http://terminology.hl7.org/CodeSystem/measure-population","code":"denominator","display":"Denominator"}]},"count":0},{"id":"DenominatorExclusion_1","code":{"coding":[{"system":"http://terminology.hl7.org/CodeSystem/measure-population","code":"denominator-exclusion","display":"Denominator Exclusion"}]},"count":0},{"id":"Numerator_1","code":{"coding":[{"system":"http://terminology.hl7.org/CodeSystem/measure-population","code":"numerator","display":"Numerator"}]},"count":0},{"id":"DenominatorException_1","code":{"coding":[{"system":"http://terminology.hl7.org/CodeSystem/measure-population","code":"denominator-exception","display":"Denominator Exception"}]},"count":0}],"measureScore":{"value":0.0}}],"evaluatedResource":[{"reference":"Patient/f3cd028d-a63e-473f-9f1b-4837ae091e65"},{"reference":"Coverage/8c0fcbf6-de07-4888-aee4-31cf2511b127"},{"reference":"Organization/45883104-0b45-45ec-86b6-94021f7b1f45"}]},"request":{"method":"PUT","url":"MeasureReport/41625866-99ae-411e-afb8-5673d8e1b46b"}},{"resource":{"resourceType":"Coverage","id":"8c0fcbf6-de07-4888-aee4-31cf2511b127","meta":{"profile":["http://hl7.org/fhir/us/qicore/StructureDefinition/qicore-coverage"]},"status":"active","beneficiary":{"reference":"Patient/f3cd028d-a63e-473f-9f1b-4837ae091e65"},"payor":[{"reference":"Organization/45883104-0b45-45ec-86b6-94021f7b1f45"}]},"request":{"method":"PUT","url":"Coverage/8c0fcbf6-de07-4888-aee4-31cf2511b127"}}]}