{"resourceType":"Bundle","id":"tests-9b3f40f2-2832-4862-b26e-4c46d02fd1ee-bundle","type":"transaction","entry":[{"resource":{"resourceType":"Bundle","id":"628d4fa9786e3aa8c68d3cd4","type":"transaction","entry":[{"fullUrl":"https://madie.cms.gov/Patient/9b3f40f2-2832-4862-b26e-4c46d02fd1ee","resource":{"resourceType":"Patient","id":"9b3f40f2-2832-4862-b26e-4c46d02fd1ee","meta":{"profile":["http://hl7.org/fhir/us/qicore/StructureDefinition/qicore-patient"]},"extension":[{"url":"http://hl7.org/fhir/us/core/StructureDefinition/us-core-race","extension":[{"url":"ombCategory","valueCoding":{"system":"urn:oid:2.16.840.1.113883.6.238","code":"2054-5","display":"Black or African American","userSelected":true}},{"url":"text","valueString":"Black or African American"}]},{"url":"http://hl7.org/fhir/us/core/StructureDefinition/us-core-ethnicity","extension":[{"url":"ombCategory","valueCoding":{"system":"urn:oid:2.16.840.1.113883.6.238","code":"2186-5","display":"Not Hispanic or Latino","userSelected":true}},{"url":"text","valueString":"Not Hispanic or Latino"}]}],"identifier":[{"type":{"coding":[{"system":"http://terminology.hl7.org/CodeSystem/v2-0203","code":"MR"}]},"system":"https://bonnie-fhir.healthit.gov/","value":"628d4fa9786e3aa8c68d3cd4"}],"name":[{"family":"IPPPass","given":["Age18HasEnc"]}],"gender":"female","birthDate":"2006-12-31"},"request":{"method":"PUT","url":"Patient/9b3f40f2-2832-4862-b26e-4c46d02fd1ee"}},{"fullUrl":"https://madie.cms.gov/Encounter/aa983af2-a992-464d-ab1b-171f539aac9a","resource":{"resourceType":"Encounter","id":"aa983af2-a992-464d-ab1b-171f539aac9a","meta":{"profile":["http://hl7.org/fhir/us/qicore/StructureDefinition/qicore-encounter"]},"status":"finished","class":{"system":"http://terminology.hl7.org/CodeSystem/v3-ActCode","code":"AMB","display":"ambulatory"},"type":[{"coding":[{"system":"http://snomed.info/sct","version":"2022-03","code":"103705002","display":"Patient status observation (procedure)","userSelected":true}]}],"subject":{"reference":"Patient/9b3f40f2-2832-4862-b26e-4c46d02fd1ee"},"period":{"start":"2026-01-01T08:00:00.000+00:00","end":"2026-01-01T08:30:00.000+00:00"}},"request":{"method":"PUT","url":"Encounter/aa983af2-a992-464d-ab1b-171f539aac9a"}},{"fullUrl":"https://madie.cms.gov/Coverage/5e5783e9-05e1-4b83-8042-c4d7482f3205","resource":{"resourceType":"Coverage","id":"5e5783e9-05e1-4b83-8042-c4d7482f3205","meta":{"profile":["http://hl7.org/fhir/us/qicore/StructureDefinition/qicore-coverage"]},"status":"active","beneficiary":{"reference":"Patient/9b3f40f2-2832-4862-b26e-4c46d02fd1ee"},"payor":[{"reference":"Organization/143bffe7-72ad-4af5-85ad-ffd97bd83a41"}]},"request":{"method":"PUT","url":"Coverage/5e5783e9-05e1-4b83-8042-c4d7482f3205"}},{"fullUrl":"https://madie.cms.gov/Organization/143bffe7-72ad-4af5-85ad-ffd97bd83a41","resource":{"resourceType":"Organization","id":"143bffe7-72ad-4af5-85ad-ffd97bd83a41","meta":{"profile":["http://hl7.org/fhir/us/qicore/StructureDefinition/qicore-organization"]},"identifier":[{"use":"temp","system":"urn:oid:2.16.840.1.113883.4.4","value":"21-3259825"}],"active":true,"type":[{"coding":[{"system":"http://terminology.hl7.org/CodeSystem/organization-type","code":"pay","display":"Payer"}]}],"name":"Blue Cross Blue Shield of Texas","telecom":[{"system":"phone","value":"(+1) 972-766-6900"}],"address":[{"use":"billing","type":"postal","line":["P.O. Box 660044"],"city":"Dallas","state":"TX","postalCode":"75266-0044","country":"USA"}]},"request":{"method":"PUT","url":"Organization/143bffe7-72ad-4af5-85ad-ffd97bd83a41"}},{"fullUrl":"https://madie.cms.gov/MeasureReport/34290e5e-b839-4a5c-a5d9-c46167b8e985","resource":{"resourceType":"MeasureReport","id":"34290e5e-b839-4a5c-a5d9-c46167b8e985","meta":{"profile":["http://hl7.org/fhir/us/cqfmeasures/StructureDefinition/test-case-cqfm"]},"contained":[{"resourceType":"Parameters","id":"6cc79461-cab6-47a6-ba22-63aca6a43990-parameters","parameter":[{"name":"subject","valueString":"9b3f40f2-2832-4862-b26e-4c46d02fd1ee"}]}],"extension":[{"url":"http://hl7.org/fhir/StructureDefinition/cqf-inputParameters","valueReference":{"reference":"#6cc79461-cab6-47a6-ba22-63aca6a43990-parameters"}},{"url":"http://hl7.org/fhir/us/cqfmeasures/StructureDefinition/cqfm-testCaseDescription","valueMarkdown":"Age 18 day before start of MP, has a finished encounter first day of MP"}],"modifierExtension":[{"url":"http://hl7.org/fhir/us/cqfmeasures/StructureDefinition/cqfm-isTestCase","valueBoolean":true}],"status":"complete","type":"individual","measure":"https://madie.cms.gov/Measure/CMS22FHIRPCSBPScreeningFollowUp","period":{"start":"2026-01-01","end":"2026-12-31"},"group":[{"id":"Group_1","population":[{"id":"InitialPopulation_1","code":{"coding":[{"system":"http://terminology.hl7.org/CodeSystem/measure-population","code":"initial-population","display":"Initial Population"}]},"count":1},{"id":"Denominator_1","code":{"coding":[{"system":"http://terminology.hl7.org/CodeSystem/measure-population","code":"denominator","display":"Denominator"}]},"count":1},{"id":"DenominatorExclusion_1","code":{"coding":[{"system":"http://terminology.hl7.org/CodeSystem/measure-population","code":"denominator-exclusion","display":"Denominator Exclusion"}]},"count":0},{"id":"Numerator_1","code":{"coding":[{"system":"http://terminology.hl7.org/CodeSystem/measure-population","code":"numerator","display":"Numerator"}]},"count":0},{"id":"DenominatorException_1","code":{"coding":[{"system":"http://terminology.hl7.org/CodeSystem/measure-population","code":"denominator-exception","display":"Denominator Exception"}]},"count":0}],"measureScore":{"value":0.0}}],"evaluatedResource":[{"reference":"Patient/9b3f40f2-2832-4862-b26e-4c46d02fd1ee"},{"reference":"Encounter/aa983af2-a992-464d-ab1b-171f539aac9a"},{"reference":"Coverage/5e5783e9-05e1-4b83-8042-c4d7482f3205"},{"reference":"Organization/143bffe7-72ad-4af5-85ad-ffd97bd83a41"}]},"request":{"method":"PUT","url":"MeasureReport/34290e5e-b839-4a5c-a5d9-c46167b8e985"}}]},"request":{"method":"PUT","url":"Bundle/628d4fa9786e3aa8c68d3cd4"}},{"resource":{"resourceType":"Coverage","id":"5e5783e9-05e1-4b83-8042-c4d7482f3205","meta":{"profile":["http://hl7.org/fhir/us/qicore/StructureDefinition/qicore-coverage"]},"status":"active","beneficiary":{"reference":"Patient/9b3f40f2-2832-4862-b26e-4c46d02fd1ee"},"payor":[{"reference":"Organization/143bffe7-72ad-4af5-85ad-ffd97bd83a41"}]},"request":{"method":"PUT","url":"Coverage/5e5783e9-05e1-4b83-8042-c4d7482f3205"}},{"resource":{"resourceType":"Encounter","id":"aa983af2-a992-464d-ab1b-171f539aac9a","meta":{"profile":["http://hl7.org/fhir/us/qicore/StructureDefinition/qicore-encounter"]},"status":"finished","class":{"system":"http://terminology.hl7.org/CodeSystem/v3-ActCode","code":"AMB","display":"ambulatory"},"type":[{"coding":[{"system":"http://snomed.info/sct","version":"2022-03","code":"103705002","display":"Patient status observation (procedure)","userSelected":true}]}],"subject":{"reference":"Patient/9b3f40f2-2832-4862-b26e-4c46d02fd1ee"},"period":{"start":"2026-01-01T08:00:00.000+00:00","end":"2026-01-01T08:30:00.000+00:00"}},"request":{"method":"PUT","url":"Encounter/aa983af2-a992-464d-ab1b-171f539aac9a"}},{"resource":{"resourceType":"MeasureReport","id":"34290e5e-b839-4a5c-a5d9-c46167b8e985","meta":{"profile":["http://hl7.org/fhir/us/cqfmeasures/StructureDefinition/test-case-cqfm"]},"contained":[{"resourceType":"Parameters","id":"6cc79461-cab6-47a6-ba22-63aca6a43990-parameters","parameter":[{"name":"subject","valueString":"9b3f40f2-2832-4862-b26e-4c46d02fd1ee"}]}],"extension":[{"url":"http://hl7.org/fhir/StructureDefinition/cqf-inputParameters","valueReference":{"reference":"#6cc79461-cab6-47a6-ba22-63aca6a43990-parameters"}},{"url":"http://hl7.org/fhir/us/cqfmeasures/StructureDefinition/cqfm-testCaseDescription","valueMarkdown":"Age 18 day before start of MP, has a finished encounter first day of MP"}],"modifierExtension":[{"url":"http://hl7.org/fhir/us/cqfmeasures/StructureDefinition/cqfm-isTestCase","valueBoolean":true}],"status":"complete","type":"individual","measure":"https://madie.cms.gov/Measure/CMS22FHIRPCSBPScreeningFollowUp","period":{"start":"2026-01-01","end":"2026-12-31"},"group":[{"id":"Group_1","population":[{"id":"InitialPopulation_1","code":{"coding":[{"system":"http://terminology.hl7.org/CodeSystem/measure-population","code":"initial-population","display":"Initial Population"}]},"count":1},{"id":"Denominator_1","code":{"coding":[{"system":"http://terminology.hl7.org/CodeSystem/measure-population","code":"denominator","display":"Denominator"}]},"count":1},{"id":"DenominatorExclusion_1","code":{"coding":[{"system":"http://terminology.hl7.org/CodeSystem/measure-population","code":"denominator-exclusion","display":"Denominator Exclusion"}]},"count":0},{"id":"Numerator_1","code":{"coding":[{"system":"http://terminology.hl7.org/CodeSystem/measure-population","code":"numerator","display":"Numerator"}]},"count":0},{"id":"DenominatorException_1","code":{"coding":[{"system":"http://terminology.hl7.org/CodeSystem/measure-population","code":"denominator-exception","display":"Denominator Exception"}]},"count":0}],"measureScore":{"value":0.0}}],"evaluatedResource":[{"reference":"Patient/9b3f40f2-2832-4862-b26e-4c46d02fd1ee"},{"reference":"Encounter/aa983af2-a992-464d-ab1b-171f539aac9a"},{"reference":"Coverage/5e5783e9-05e1-4b83-8042-c4d7482f3205"},{"reference":"Organization/143bffe7-72ad-4af5-85ad-ffd97bd83a41"}]},"request":{"method":"PUT","url":"MeasureReport/34290e5e-b839-4a5c-a5d9-c46167b8e985"}},{"resource":{"resourceType":"Organization","id":"143bffe7-72ad-4af5-85ad-ffd97bd83a41","meta":{"profile":["http://hl7.org/fhir/us/qicore/StructureDefinition/qicore-organization"]},"identifier":[{"use":"temp","system":"urn:oid:2.16.840.1.113883.4.4","value":"21-3259825"}],"active":true,"type":[{"coding":[{"system":"http://terminology.hl7.org/CodeSystem/organization-type","code":"pay","display":"Payer"}]}],"name":"Blue Cross Blue Shield of Texas","telecom":[{"system":"phone","value":"(+1) 972-766-6900"}],"address":[{"use":"billing","type":"postal","line":["P.O. Box 660044"],"city":"Dallas","state":"TX","postalCode":"75266-0044","country":"USA"}]},"request":{"method":"PUT","url":"Organization/143bffe7-72ad-4af5-85ad-ffd97bd83a41"}},{"resource":{"resourceType":"Patient","id":"9b3f40f2-2832-4862-b26e-4c46d02fd1ee","meta":{"profile":["http://hl7.org/fhir/us/qicore/StructureDefinition/qicore-patient"]},"extension":[{"url":"http://hl7.org/fhir/us/core/StructureDefinition/us-core-race","extension":[{"url":"ombCategory","valueCoding":{"system":"urn:oid:2.16.840.1.113883.6.238","code":"2054-5","display":"Black or African American","userSelected":true}},{"url":"text","valueString":"Black or African American"}]},{"url":"http://hl7.org/fhir/us/core/StructureDefinition/us-core-ethnicity","extension":[{"url":"ombCategory","valueCoding":{"system":"urn:oid:2.16.840.1.113883.6.238","code":"2186-5","display":"Not Hispanic or Latino","userSelected":true}},{"url":"text","valueString":"Not Hispanic or Latino"}]}],"identifier":[{"type":{"coding":[{"system":"http://terminology.hl7.org/CodeSystem/v2-0203","code":"MR"}]},"system":"https://bonnie-fhir.healthit.gov/","value":"628d4fa9786e3aa8c68d3cd4"}],"name":[{"family":"IPPPass","given":["Age18HasEnc"]}],"gender":"female","birthDate":"2006-12-31"},"request":{"method":"PUT","url":"Patient/9b3f40f2-2832-4862-b26e-4c46d02fd1ee"}}]}