{"resourceType":"Bundle","id":"tests-58e117e5-ab51-4acf-92d1-55d70582eaa5-bundle","type":"transaction","entry":[{"resource":{"resourceType":"Bundle","id":"62cc369c67cd2f796b838ab3","type":"transaction","entry":[{"fullUrl":"https://madie.cms.gov/Patient/58e117e5-ab51-4acf-92d1-55d70582eaa5","resource":{"resourceType":"Patient","id":"58e117e5-ab51-4acf-92d1-55d70582eaa5","meta":{"profile":["http://hl7.org/fhir/us/qicore/StructureDefinition/qicore-patient"]},"extension":[{"url":"http://hl7.org/fhir/us/core/StructureDefinition/us-core-race","extension":[{"url":"ombCategory","valueCoding":{"system":"urn:oid:2.16.840.1.113883.6.238","code":"2106-3","display":"White","userSelected":true}},{"url":"text","valueString":"White"}]},{"url":"http://hl7.org/fhir/us/core/StructureDefinition/us-core-ethnicity","extension":[{"url":"ombCategory","valueCoding":{"system":"urn:oid:2.16.840.1.113883.6.238","code":"2186-5","display":"Not Hispanic or Latino","userSelected":true}},{"url":"text","valueString":"Not Hispanic or Latino"}]}],"identifier":[{"type":{"coding":[{"system":"http://terminology.hl7.org/CodeSystem/v2-0203","code":"MR"}]},"system":"https://bonnie-fhir.healthit.gov/","value":"62cc369c67cd2f796b838ab3"}],"name":[{"family":"NUMERFail","given":["FirstHTNWeightRecNoFU"]}],"gender":"male","birthDate":"2006-01-31"},"request":{"method":"PUT","url":"Patient/58e117e5-ab51-4acf-92d1-55d70582eaa5"}},{"fullUrl":"https://madie.cms.gov/Encounter/d63e7019-07be-4ba6-a475-727638347bb4","resource":{"resourceType":"Encounter","id":"d63e7019-07be-4ba6-a475-727638347bb4","meta":{"profile":["http://hl7.org/fhir/us/qicore/StructureDefinition/qicore-encounter"]},"status":"finished","class":{"system":"http://terminology.hl7.org/CodeSystem/v3-ActCode","code":"AMB","display":"ambulatory"},"type":[{"coding":[{"system":"http://snomed.info/sct","version":"2022-03","code":"103705002","display":"Patient status observation (procedure)","userSelected":true}]}],"subject":{"reference":"Patient/58e117e5-ab51-4acf-92d1-55d70582eaa5"},"period":{"start":"2026-01-01T08:00:00.000+00:00","end":"2026-01-01T08:30:00.000+00:00"}},"request":{"method":"PUT","url":"Encounter/d63e7019-07be-4ba6-a475-727638347bb4"}},{"fullUrl":"https://madie.cms.gov/Observation/887f0d16-bfa3-4d1f-9ff9-a81d411eb59b","resource":{"resourceType":"Observation","id":"887f0d16-bfa3-4d1f-9ff9-a81d411eb59b","meta":{"profile":["http://hl7.org/fhir/us/qicore/StructureDefinition/qicore-simple-observation"]},"status":"final","category":[{"coding":[{"system":"http://terminology.hl7.org/CodeSystem/observation-category","code":"procedure","display":"Procedure"}]}],"code":{"coding":[{"system":"http://loinc.org","code":"8480-6","display":"Systolic blood pressure","userSelected":true}]},"subject":{"reference":"Patient/58e117e5-ab51-4acf-92d1-55d70582eaa5"},"effectiveDateTime":"2026-01-01T08:05:00.000+00:00","valueQuantity":{"value":130,"unit":"mm[Hg]"}},"request":{"method":"PUT","url":"Observation/887f0d16-bfa3-4d1f-9ff9-a81d411eb59b"}},{"fullUrl":"https://madie.cms.gov/Observation/567b313b-f1fd-4b52-9c98-328ab3f140b7","resource":{"resourceType":"Observation","id":"567b313b-f1fd-4b52-9c98-328ab3f140b7","meta":{"profile":["http://hl7.org/fhir/us/qicore/StructureDefinition/qicore-simple-observation"]},"status":"final","category":[{"coding":[{"system":"http://terminology.hl7.org/CodeSystem/observation-category","code":"procedure","display":"Procedure"}]}],"code":{"coding":[{"system":"http://loinc.org","code":"8462-4","display":"Diastolic blood pressure","userSelected":true}]},"subject":{"reference":"Patient/58e117e5-ab51-4acf-92d1-55d70582eaa5"},"effectiveDateTime":"2026-01-01T08:05:00.000+00:00","valueQuantity":{"value":80,"unit":"mm[Hg]"}},"request":{"method":"PUT","url":"Observation/567b313b-f1fd-4b52-9c98-328ab3f140b7"}},{"fullUrl":"https://madie.cms.gov/ServiceRequest/80b7a19b-daf0-4821-9412-904512ca1ed6","resource":{"resourceType":"ServiceRequest","id":"80b7a19b-daf0-4821-9412-904512ca1ed6","meta":{"profile":["http://hl7.org/fhir/us/qicore/StructureDefinition/qicore-servicerequest"]},"status":"active","intent":"order","code":{"coding":[{"system":"http://snomed.info/sct","version":"2022-03","code":"1181000175107","display":"Recommendation to lose weight (procedure)","userSelected":true}]},"subject":{"reference":"Patient/58e117e5-ab51-4acf-92d1-55d70582eaa5"},"authoredOn":"2026-01-01T08:25:00.000+00:00"},"request":{"method":"PUT","url":"ServiceRequest/80b7a19b-daf0-4821-9412-904512ca1ed6"}},{"fullUrl":"https://madie.cms.gov/Coverage/1920f64c-e3ee-4dfd-bfce-2fcc1d28697f","resource":{"resourceType":"Coverage","id":"1920f64c-e3ee-4dfd-bfce-2fcc1d28697f","meta":{"profile":["http://hl7.org/fhir/us/qicore/StructureDefinition/qicore-coverage"]},"status":"active","beneficiary":{"reference":"Patient/58e117e5-ab51-4acf-92d1-55d70582eaa5"},"payor":[{"reference":"Organization/af01cc29-2eda-455b-b330-d0335f07a23c"}]},"request":{"method":"PUT","url":"Coverage/1920f64c-e3ee-4dfd-bfce-2fcc1d28697f"}},{"fullUrl":"https://madie.cms.gov/Organization/af01cc29-2eda-455b-b330-d0335f07a23c","resource":{"resourceType":"Organization","id":"af01cc29-2eda-455b-b330-d0335f07a23c","meta":{"profile":["http://hl7.org/fhir/us/qicore/StructureDefinition/qicore-organization"]},"identifier":[{"use":"temp","system":"urn:oid:2.16.840.1.113883.4.4","value":"21-3259825"}],"active":true,"type":[{"coding":[{"system":"http://terminology.hl7.org/CodeSystem/organization-type","code":"pay","display":"Payer"}]}],"name":"Blue Cross Blue Shield of Texas","telecom":[{"system":"phone","value":"(+1) 972-766-6900"}],"address":[{"use":"billing","type":"postal","line":["P.O. Box 660044"],"city":"Dallas","state":"TX","postalCode":"75266-0044","country":"USA"}]},"request":{"method":"PUT","url":"Organization/af01cc29-2eda-455b-b330-d0335f07a23c"}},{"fullUrl":"https://madie.cms.gov/Practitioner/59087c48-03b1-4cbd-8664-a008c2cff4a5","resource":{"resourceType":"Practitioner","id":"59087c48-03b1-4cbd-8664-a008c2cff4a5","meta":{"profile":["http://hl7.org/fhir/us/qicore/StructureDefinition/qicore-practitioner"]},"identifier":[{"system":"http://hl7.org/fhir/sid/us-npi","value":"123456"}],"name":[{"family":"Evil","prefix":["Dr"]}]},"request":{"method":"PUT","url":"Practitioner/59087c48-03b1-4cbd-8664-a008c2cff4a5"}},{"fullUrl":"https://madie.cms.gov/MeasureReport/26c7e7a0-a5e1-4a73-a1b7-9265f978c65c","resource":{"resourceType":"MeasureReport","id":"26c7e7a0-a5e1-4a73-a1b7-9265f978c65c","meta":{"profile":["http://hl7.org/fhir/us/cqfmeasures/StructureDefinition/test-case-cqfm"]},"contained":[{"resourceType":"Parameters","id":"8c8f2670-8a3d-4ec1-8336-954aa56b2eb8-parameters","parameter":[{"name":"subject","valueString":"58e117e5-ab51-4acf-92d1-55d70582eaa5"}]}],"extension":[{"url":"http://hl7.org/fhir/StructureDefinition/cqf-inputParameters","valueReference":{"reference":"#8c8f2670-8a3d-4ec1-8336-954aa56b2eb8-parameters"}},{"url":"http://hl7.org/fhir/us/cqfmeasures/StructureDefinition/cqfm-testCaseDescription","valueMarkdown":"Encounter first day of MP, BP reading 130/80, weight loss recommended but no follow up although first HTN reading. "}],"modifierExtension":[{"url":"http://hl7.org/fhir/us/cqfmeasures/StructureDefinition/cqfm-isTestCase","valueBoolean":true}],"status":"complete","type":"individual","measure":"https://madie.cms.gov/Measure/CMS22FHIRPCSBPScreeningFollowUp","period":{"start":"2026-01-01","end":"2026-12-31"},"group":[{"id":"Group_1","population":[{"id":"InitialPopulation_1","code":{"coding":[{"system":"http://terminology.hl7.org/CodeSystem/measure-population","code":"initial-population","display":"Initial Population"}]},"count":1},{"id":"Denominator_1","code":{"coding":[{"system":"http://terminology.hl7.org/CodeSystem/measure-population","code":"denominator","display":"Denominator"}]},"count":1},{"id":"DenominatorExclusion_1","code":{"coding":[{"system":"http://terminology.hl7.org/CodeSystem/measure-population","code":"denominator-exclusion","display":"Denominator Exclusion"}]},"count":0},{"id":"Numerator_1","code":{"coding":[{"system":"http://terminology.hl7.org/CodeSystem/measure-population","code":"numerator","display":"Numerator"}]},"count":0},{"id":"DenominatorException_1","code":{"coding":[{"system":"http://terminology.hl7.org/CodeSystem/measure-population","code":"denominator-exception","display":"Denominator Exception"}]},"count":0}],"measureScore":{"value":0}}],"evaluatedResource":[{"reference":"Patient/58e117e5-ab51-4acf-92d1-55d70582eaa5"},{"reference":"Encounter/d63e7019-07be-4ba6-a475-727638347bb4"},{"reference":"Observation/887f0d16-bfa3-4d1f-9ff9-a81d411eb59b"},{"reference":"Observation/567b313b-f1fd-4b52-9c98-328ab3f140b7"},{"reference":"ServiceRequest/80b7a19b-daf0-4821-9412-904512ca1ed6"},{"reference":"Coverage/1920f64c-e3ee-4dfd-bfce-2fcc1d28697f"},{"reference":"Organization/af01cc29-2eda-455b-b330-d0335f07a23c"},{"reference":"Practitioner/59087c48-03b1-4cbd-8664-a008c2cff4a5"}]},"request":{"method":"PUT","url":"MeasureReport/26c7e7a0-a5e1-4a73-a1b7-9265f978c65c"}}]},"request":{"method":"PUT","url":"Bundle/62cc369c67cd2f796b838ab3"}},{"resource":{"resourceType":"Coverage","id":"1920f64c-e3ee-4dfd-bfce-2fcc1d28697f","meta":{"profile":["http://hl7.org/fhir/us/qicore/StructureDefinition/qicore-coverage"]},"status":"active","beneficiary":{"reference":"Patient/58e117e5-ab51-4acf-92d1-55d70582eaa5"},"payor":[{"reference":"Organization/af01cc29-2eda-455b-b330-d0335f07a23c"}]},"request":{"method":"PUT","url":"Coverage/1920f64c-e3ee-4dfd-bfce-2fcc1d28697f"}},{"resource":{"resourceType":"Encounter","id":"d63e7019-07be-4ba6-a475-727638347bb4","meta":{"profile":["http://hl7.org/fhir/us/qicore/StructureDefinition/qicore-encounter"]},"status":"finished","class":{"system":"http://terminology.hl7.org/CodeSystem/v3-ActCode","code":"AMB","display":"ambulatory"},"type":[{"coding":[{"system":"http://snomed.info/sct","version":"2022-03","code":"103705002","display":"Patient status observation (procedure)","userSelected":true}]}],"subject":{"reference":"Patient/58e117e5-ab51-4acf-92d1-55d70582eaa5"},"period":{"start":"2026-01-01T08:00:00.000+00:00","end":"2026-01-01T08:30:00.000+00:00"}},"request":{"method":"PUT","url":"Encounter/d63e7019-07be-4ba6-a475-727638347bb4"}},{"resource":{"resourceType":"MeasureReport","id":"26c7e7a0-a5e1-4a73-a1b7-9265f978c65c","meta":{"profile":["http://hl7.org/fhir/us/cqfmeasures/StructureDefinition/test-case-cqfm"]},"contained":[{"resourceType":"Parameters","id":"8c8f2670-8a3d-4ec1-8336-954aa56b2eb8-parameters","parameter":[{"name":"subject","valueString":"58e117e5-ab51-4acf-92d1-55d70582eaa5"}]}],"extension":[{"url":"http://hl7.org/fhir/StructureDefinition/cqf-inputParameters","valueReference":{"reference":"#8c8f2670-8a3d-4ec1-8336-954aa56b2eb8-parameters"}},{"url":"http://hl7.org/fhir/us/cqfmeasures/StructureDefinition/cqfm-testCaseDescription","valueMarkdown":"Encounter first day of MP, BP reading 130/80, weight loss recommended but no follow up although first HTN reading. "}],"modifierExtension":[{"url":"http://hl7.org/fhir/us/cqfmeasures/StructureDefinition/cqfm-isTestCase","valueBoolean":true}],"status":"complete","type":"individual","measure":"https://madie.cms.gov/Measure/CMS22FHIRPCSBPScreeningFollowUp","period":{"start":"2026-01-01","end":"2026-12-31"},"group":[{"id":"Group_1","population":[{"id":"InitialPopulation_1","code":{"coding":[{"system":"http://terminology.hl7.org/CodeSystem/measure-population","code":"initial-population","display":"Initial Population"}]},"count":1},{"id":"Denominator_1","code":{"coding":[{"system":"http://terminology.hl7.org/CodeSystem/measure-population","code":"denominator","display":"Denominator"}]},"count":1},{"id":"DenominatorExclusion_1","code":{"coding":[{"system":"http://terminology.hl7.org/CodeSystem/measure-population","code":"denominator-exclusion","display":"Denominator Exclusion"}]},"count":0},{"id":"Numerator_1","code":{"coding":[{"system":"http://terminology.hl7.org/CodeSystem/measure-population","code":"numerator","display":"Numerator"}]},"count":0},{"id":"DenominatorException_1","code":{"coding":[{"system":"http://terminology.hl7.org/CodeSystem/measure-population","code":"denominator-exception","display":"Denominator Exception"}]},"count":0}],"measureScore":{"value":0}}],"evaluatedResource":[{"reference":"Patient/58e117e5-ab51-4acf-92d1-55d70582eaa5"},{"reference":"Encounter/d63e7019-07be-4ba6-a475-727638347bb4"},{"reference":"Observation/887f0d16-bfa3-4d1f-9ff9-a81d411eb59b"},{"reference":"Observation/567b313b-f1fd-4b52-9c98-328ab3f140b7"},{"reference":"ServiceRequest/80b7a19b-daf0-4821-9412-904512ca1ed6"},{"reference":"Coverage/1920f64c-e3ee-4dfd-bfce-2fcc1d28697f"},{"reference":"Organization/af01cc29-2eda-455b-b330-d0335f07a23c"},{"reference":"Practitioner/59087c48-03b1-4cbd-8664-a008c2cff4a5"}]},"request":{"method":"PUT","url":"MeasureReport/26c7e7a0-a5e1-4a73-a1b7-9265f978c65c"}},{"resource":{"resourceType":"Observation","id":"567b313b-f1fd-4b52-9c98-328ab3f140b7","meta":{"profile":["http://hl7.org/fhir/us/qicore/StructureDefinition/qicore-simple-observation"]},"status":"final","category":[{"coding":[{"system":"http://terminology.hl7.org/CodeSystem/observation-category","code":"procedure","display":"Procedure"}]}],"code":{"coding":[{"system":"http://loinc.org","code":"8462-4","display":"Diastolic blood pressure","userSelected":true}]},"subject":{"reference":"Patient/58e117e5-ab51-4acf-92d1-55d70582eaa5"},"effectiveDateTime":"2026-01-01T08:05:00.000+00:00","valueQuantity":{"value":80,"unit":"mm[Hg]"}},"request":{"method":"PUT","url":"Observation/567b313b-f1fd-4b52-9c98-328ab3f140b7"}},{"resource":{"resourceType":"Observation","id":"887f0d16-bfa3-4d1f-9ff9-a81d411eb59b","meta":{"profile":["http://hl7.org/fhir/us/qicore/StructureDefinition/qicore-simple-observation"]},"status":"final","category":[{"coding":[{"system":"http://terminology.hl7.org/CodeSystem/observation-category","code":"procedure","display":"Procedure"}]}],"code":{"coding":[{"system":"http://loinc.org","code":"8480-6","display":"Systolic blood pressure","userSelected":true}]},"subject":{"reference":"Patient/58e117e5-ab51-4acf-92d1-55d70582eaa5"},"effectiveDateTime":"2026-01-01T08:05:00.000+00:00","valueQuantity":{"value":130,"unit":"mm[Hg]"}},"request":{"method":"PUT","url":"Observation/887f0d16-bfa3-4d1f-9ff9-a81d411eb59b"}},{"resource":{"resourceType":"Organization","id":"af01cc29-2eda-455b-b330-d0335f07a23c","meta":{"profile":["http://hl7.org/fhir/us/qicore/StructureDefinition/qicore-organization"]},"identifier":[{"use":"temp","system":"urn:oid:2.16.840.1.113883.4.4","value":"21-3259825"}],"active":true,"type":[{"coding":[{"system":"http://terminology.hl7.org/CodeSystem/organization-type","code":"pay","display":"Payer"}]}],"name":"Blue Cross Blue Shield of Texas","telecom":[{"system":"phone","value":"(+1) 972-766-6900"}],"address":[{"use":"billing","type":"postal","line":["P.O. Box 660044"],"city":"Dallas","state":"TX","postalCode":"75266-0044","country":"USA"}]},"request":{"method":"PUT","url":"Organization/af01cc29-2eda-455b-b330-d0335f07a23c"}},{"resource":{"resourceType":"Patient","id":"58e117e5-ab51-4acf-92d1-55d70582eaa5","meta":{"profile":["http://hl7.org/fhir/us/qicore/StructureDefinition/qicore-patient"]},"extension":[{"url":"http://hl7.org/fhir/us/core/StructureDefinition/us-core-race","extension":[{"url":"ombCategory","valueCoding":{"system":"urn:oid:2.16.840.1.113883.6.238","code":"2106-3","display":"White","userSelected":true}},{"url":"text","valueString":"White"}]},{"url":"http://hl7.org/fhir/us/core/StructureDefinition/us-core-ethnicity","extension":[{"url":"ombCategory","valueCoding":{"system":"urn:oid:2.16.840.1.113883.6.238","code":"2186-5","display":"Not Hispanic or Latino","userSelected":true}},{"url":"text","valueString":"Not Hispanic or Latino"}]}],"identifier":[{"type":{"coding":[{"system":"http://terminology.hl7.org/CodeSystem/v2-0203","code":"MR"}]},"system":"https://bonnie-fhir.healthit.gov/","value":"62cc369c67cd2f796b838ab3"}],"name":[{"family":"NUMERFail","given":["FirstHTNWeightRecNoFU"]}],"gender":"male","birthDate":"2006-01-31"},"request":{"method":"PUT","url":"Patient/58e117e5-ab51-4acf-92d1-55d70582eaa5"}},{"resource":{"resourceType":"Practitioner","id":"59087c48-03b1-4cbd-8664-a008c2cff4a5","meta":{"profile":["http://hl7.org/fhir/us/qicore/StructureDefinition/qicore-practitioner"]},"identifier":[{"system":"http://hl7.org/fhir/sid/us-npi","value":"123456"}],"name":[{"family":"Evil","prefix":["Dr"]}]},"request":{"method":"PUT","url":"Practitioner/59087c48-03b1-4cbd-8664-a008c2cff4a5"}},{"resource":{"resourceType":"ServiceRequest","id":"80b7a19b-daf0-4821-9412-904512ca1ed6","meta":{"profile":["http://hl7.org/fhir/us/qicore/StructureDefinition/qicore-servicerequest"]},"status":"active","intent":"order","code":{"coding":[{"system":"http://snomed.info/sct","version":"2022-03","code":"1181000175107","display":"Recommendation to lose weight (procedure)","userSelected":true}]},"subject":{"reference":"Patient/58e117e5-ab51-4acf-92d1-55d70582eaa5"},"authoredOn":"2026-01-01T08:25:00.000+00:00"},"request":{"method":"PUT","url":"ServiceRequest/80b7a19b-daf0-4821-9412-904512ca1ed6"}}]}