{
  "resourceType": "Bundle",
  "id": "46313213416131",
  "type": "transaction",
  "entry": [ {
    "fullUrl": "https://madie.cms.gov/Patient/bc710459-b3f7-4a3b-a640-3bf541fea336",
    "resource": {
      "resourceType": "Patient",
      "id": "bc710459-b3f7-4a3b-a640-3bf541fea336",
      "meta": {
        "profile": [ "http://hl7.org/fhir/us/qicore/StructureDefinition/qicore-patient" ]
      },
      "extension": [ {
        "url": "http://hl7.org/fhir/us/core/StructureDefinition/us-core-race",
        "extension": [ {
          "url": "ombCategory",
          "valueCoding": {
            "system": "urn:oid:2.16.840.1.113883.6.238",
            "code": "2076-8",
            "display": "Native Hawaiian or Other Pacific Islander"
          }
        }, {
          "url": "text",
          "valueString": "Native Hawaiian or Other Pacific Islander"
        } ]
      }, {
        "url": "http://hl7.org/fhir/us/core/StructureDefinition/us-core-ethnicity",
        "extension": [ {
          "url": "ombCategory",
          "valueCoding": {
            "system": "urn:oid:2.16.840.1.113883.6.238",
            "code": "2186-5",
            "display": "Not Hispanic or Latino"
          }
        }, {
          "url": "text",
          "valueString": "Not Hispanic or Latino"
        } ]
      } ],
      "identifier": [ {
        "type": {
          "coding": [ {
            "system": "http://terminology.hl7.org/CodeSystem/v2-0203",
            "code": "MR"
          } ]
        },
        "system": "https://bonnie-fhir.healthit.gov/",
        "value": "46431231346541"
      } ],
      "active": true,
      "name": [ {
        "use": "usual",
        "family": "DENEXPass",
        "given": [ "HasLVDeviceComplications" ]
      } ],
      "gender": "male",
      "birthDate": "1975-02-10"
    },
    "request": {
      "method": "PUT",
      "url": "Patient/bc710459-b3f7-4a3b-a640-3bf541fea336"
    }
  }, {
    "fullUrl": "https://madie.cms.gov/Encounter/9c7da7b9-8381-4c31-99a0-bbbe4834ef1e",
    "resource": {
      "resourceType": "Encounter",
      "id": "9c7da7b9-8381-4c31-99a0-bbbe4834ef1e",
      "meta": {
        "profile": [ "http://hl7.org/fhir/us/qicore/StructureDefinition/qicore-encounter" ]
      },
      "status": "finished",
      "class": {
        "system": "http://terminology.hl7.org/CodeSystem/v3-ActCode",
        "code": "AMB",
        "display": "ambulatory"
      },
      "type": [ {
        "coding": [ {
          "system": "http://www.ama-assn.org/go/cpt",
          "version": "2024",
          "code": "99213"
        } ]
      } ],
      "subject": {
        "reference": "Patient/bc710459-b3f7-4a3b-a640-3bf541fea336"
      },
      "period": {
        "start": "2026-04-14T14:40:00.000+00:00",
        "end": "2026-04-14T14:50:00.000+00:00"
      },
      "length": {
        "value": 0,
        "unit": "days"
      }
    },
    "request": {
      "method": "PUT",
      "url": "Encounter/9c7da7b9-8381-4c31-99a0-bbbe4834ef1e"
    }
  }, {
    "fullUrl": "https://madie.cms.gov/Condition/a3148b1b-e079-48fd-9ff1-97574ee2d8bc",
    "resource": {
      "resourceType": "Condition",
      "id": "a3148b1b-e079-48fd-9ff1-97574ee2d8bc",
      "meta": {
        "profile": [ "http://hl7.org/fhir/us/qicore/StructureDefinition/qicore-condition-problems-health-concerns" ]
      },
      "clinicalStatus": {
        "coding": [ {
          "system": "http://terminology.hl7.org/CodeSystem/condition-clinical",
          "code": "active",
          "display": "Active"
        } ]
      },
      "verificationStatus": {
        "coding": [ {
          "system": "http://terminology.hl7.org/CodeSystem/condition-ver-status",
          "code": "confirmed",
          "display": "Confirmed"
        } ]
      },
      "category": [ {
        "coding": [ {
          "system": "http://terminology.hl7.org/CodeSystem/condition-category",
          "code": "problem-list-item",
          "display": "Problem List Item"
        } ]
      } ],
      "code": {
        "coding": [ {
          "system": "http://snomed.info/sct",
          "version": "http://snomed.info/sct/731000124108/version/20240301",
          "code": "764680009",
          "display": "Infection of left ventricular assist device driveline (disorder)"
        } ]
      },
      "subject": {
        "reference": "Patient/bc710459-b3f7-4a3b-a640-3bf541fea336"
      },
      "onsetPeriod": {
        "start": "2025-07-11T08:00:00.000+00:00"
      }
    },
    "request": {
      "method": "PUT",
      "url": "Condition/a3148b1b-e079-48fd-9ff1-97574ee2d8bc"
    }
  }, {
    "fullUrl": "https://madie.cms.gov/Encounter/d1810bf7-e89e-4f3e-b929-2692d2f0a8a0",
    "resource": {
      "resourceType": "Encounter",
      "id": "d1810bf7-e89e-4f3e-b929-2692d2f0a8a0",
      "meta": {
        "profile": [ "http://hl7.org/fhir/us/qicore/StructureDefinition/qicore-encounter" ]
      },
      "status": "finished",
      "class": {
        "system": "http://terminology.hl7.org/CodeSystem/v3-ActCode",
        "code": "AMB",
        "display": "ambulatory"
      },
      "type": [ {
        "coding": [ {
          "system": "http://www.ama-assn.org/go/cpt",
          "version": "2024",
          "code": "99212"
        } ]
      } ],
      "subject": {
        "reference": "Patient/bc710459-b3f7-4a3b-a640-3bf541fea336"
      },
      "period": {
        "start": "2026-07-20T11:50:00.000+00:00",
        "end": "2026-07-20T11:50:00.000+00:00"
      },
      "length": {
        "value": 0,
        "unit": "days"
      }
    },
    "request": {
      "method": "PUT",
      "url": "Encounter/d1810bf7-e89e-4f3e-b929-2692d2f0a8a0"
    }
  }, {
    "fullUrl": "https://madie.cms.gov/Condition/e6e29fd1-706e-4254-9d5a-ef740e511328",
    "resource": {
      "resourceType": "Condition",
      "id": "e6e29fd1-706e-4254-9d5a-ef740e511328",
      "meta": {
        "profile": [ "http://hl7.org/fhir/us/qicore/StructureDefinition/qicore-condition-problems-health-concerns" ]
      },
      "clinicalStatus": {
        "coding": [ {
          "system": "http://terminology.hl7.org/CodeSystem/condition-clinical",
          "code": "active",
          "display": "Active"
        } ]
      },
      "verificationStatus": {
        "coding": [ {
          "system": "http://terminology.hl7.org/CodeSystem/condition-ver-status",
          "code": "confirmed",
          "display": "Confirmed"
        } ]
      },
      "category": [ {
        "coding": [ {
          "system": "http://terminology.hl7.org/CodeSystem/condition-category",
          "code": "problem-list-item",
          "display": "Problem List Item"
        } ]
      } ],
      "code": {
        "coding": [ {
          "system": "http://hl7.org/fhir/sid/icd-10-cm",
          "version": "2024",
          "code": "I11.0"
        } ]
      },
      "subject": {
        "reference": "Patient/bc710459-b3f7-4a3b-a640-3bf541fea336"
      },
      "onsetPeriod": {
        "start": "2026-04-11T10:00:00.000+00:00"
      }
    },
    "request": {
      "method": "PUT",
      "url": "Condition/e6e29fd1-706e-4254-9d5a-ef740e511328"
    }
  }, {
    "fullUrl": "https://madie.cms.gov/Condition/dd44226b-5b9d-4dca-89f9-1841f48e338d",
    "resource": {
      "resourceType": "Condition",
      "id": "dd44226b-5b9d-4dca-89f9-1841f48e338d",
      "meta": {
        "profile": [ "http://hl7.org/fhir/us/qicore/StructureDefinition/qicore-condition-problems-health-concerns" ]
      },
      "clinicalStatus": {
        "coding": [ {
          "system": "http://terminology.hl7.org/CodeSystem/condition-clinical",
          "code": "active",
          "display": "Active"
        } ]
      },
      "verificationStatus": {
        "coding": [ {
          "system": "http://terminology.hl7.org/CodeSystem/condition-ver-status",
          "code": "confirmed",
          "display": "Confirmed"
        } ]
      },
      "category": [ {
        "coding": [ {
          "system": "http://terminology.hl7.org/CodeSystem/condition-category",
          "code": "problem-list-item",
          "display": "Problem List Item"
        } ]
      } ],
      "severity": {
        "coding": [ {
          "system": "http://snomed.info/sct",
          "version": "http://snomed.info/sct/731000124108/version/20240301",
          "code": "24484000",
          "display": "Severe (severity modifier) (qualifier value)"
        } ]
      },
      "code": {
        "coding": [ {
          "system": "http://snomed.info/sct",
          "version": "http://snomed.info/sct/731000124108/version/20240301",
          "code": "134401001",
          "display": "Left ventricular systolic dysfunction (disorder)"
        } ]
      },
      "subject": {
        "reference": "Patient/bc710459-b3f7-4a3b-a640-3bf541fea336"
      },
      "onsetPeriod": {
        "start": "2026-04-14T14:41:00.000+00:00"
      }
    },
    "request": {
      "method": "PUT",
      "url": "Condition/dd44226b-5b9d-4dca-89f9-1841f48e338d"
    }
  }, {
    "fullUrl": "https://madie.cms.gov/MeasureReport/c9f4ac3a-81d6-464c-952c-3e2a2fe90bdb",
    "resource": {
      "resourceType": "MeasureReport",
      "id": "c9f4ac3a-81d6-464c-952c-3e2a2fe90bdb",
      "meta": {
        "profile": [ "http://hl7.org/fhir/us/cqfmeasures/StructureDefinition/test-case-cqfm" ]
      },
      "contained": [ {
        "resourceType": "Parameters",
        "id": "fc6e78c6-98e9-4fd0-8b6a-cb06847f4993-parameters",
        "parameter": [ {
          "name": "subject",
          "valueString": "bc710459-b3f7-4a3b-a640-3bf541fea336"
        } ]
      } ],
      "extension": [ {
        "url": "http://hl7.org/fhir/StructureDefinition/cqf-inputParameters",
        "valueReference": {
          "reference": "#fc6e78c6-98e9-4fd0-8b6a-cb06847f4993-parameters"
        }
      }, {
        "url": "http://hl7.org/fhir/us/cqfmeasures/StructureDefinition/cqfm-testCaseDescription",
        "valueMarkdown": "Meeting denominator exclusions for active history of Left Ventricular Device Complication"
      } ],
      "modifierExtension": [ {
        "url": "http://hl7.org/fhir/us/cqfmeasures/StructureDefinition/cqfm-isTestCase",
        "valueBoolean": true
      } ],
      "status": "complete",
      "type": "individual",
      "measure": "https://madie.cms.gov/Measure/CMS144FHIRHFBetaBlockerTherapyforLVSD",
      "period": {
        "start": "2026-01-01",
        "end": "2026-12-31"
      },
      "group": [ {
        "id": "Group_1",
        "population": [ {
          "id": "InitialPopulation_1",
          "code": {
            "coding": [ {
              "system": "http://terminology.hl7.org/CodeSystem/measure-population",
              "code": "initial-population",
              "display": "Initial Population"
            } ]
          },
          "count": 1
        }, {
          "id": "Denominator_1",
          "code": {
            "coding": [ {
              "system": "http://terminology.hl7.org/CodeSystem/measure-population",
              "code": "denominator",
              "display": "Denominator"
            } ]
          },
          "count": 1
        }, {
          "id": "DenominatorExclusion_1",
          "code": {
            "coding": [ {
              "system": "http://terminology.hl7.org/CodeSystem/measure-population",
              "code": "denominator-exclusion",
              "display": "Denominator Exclusion"
            } ]
          },
          "count": 1
        }, {
          "id": "Numerator_1",
          "code": {
            "coding": [ {
              "system": "http://terminology.hl7.org/CodeSystem/measure-population",
              "code": "numerator",
              "display": "Numerator"
            } ]
          },
          "count": 0
        }, {
          "id": "DenominatorException_1",
          "code": {
            "coding": [ {
              "system": "http://terminology.hl7.org/CodeSystem/measure-population",
              "code": "denominator-exception",
              "display": "Denominator Exception"
            } ]
          },
          "count": 0
        } ],
        "measureScore": {
          "value": 1.0
        }
      } ],
      "evaluatedResource": [ {
        "reference": "Patient/bc710459-b3f7-4a3b-a640-3bf541fea336"
      }, {
        "reference": "Encounter/9c7da7b9-8381-4c31-99a0-bbbe4834ef1e"
      }, {
        "reference": "Condition/a3148b1b-e079-48fd-9ff1-97574ee2d8bc"
      }, {
        "reference": "Encounter/d1810bf7-e89e-4f3e-b929-2692d2f0a8a0"
      }, {
        "reference": "Condition/e6e29fd1-706e-4254-9d5a-ef740e511328"
      }, {
        "reference": "Condition/dd44226b-5b9d-4dca-89f9-1841f48e338d"
      } ]
    },
    "request": {
      "method": "PUT",
      "url": "MeasureReport/c9f4ac3a-81d6-464c-952c-3e2a2fe90bdb"
    }
  } ]
}