{
  "resourceType": "Bundle",
  "id": "98116841646686466847",
  "type": "transaction",
  "entry": [ {
    "fullUrl": "https://madie.cms.gov/Patient/7a417e07-f9e1-490d-a175-0fe32c374f52",
    "resource": {
      "resourceType": "Patient",
      "id": "7a417e07-f9e1-490d-a175-0fe32c374f52",
      "meta": {
        "profile": [ "http://hl7.org/fhir/us/qicore/StructureDefinition/qicore-patient" ]
      },
      "extension": [ {
        "url": "http://hl7.org/fhir/us/core/StructureDefinition/us-core-race",
        "extension": [ {
          "url": "ombCategory",
          "valueCoding": {
            "system": "urn:oid:2.16.840.1.113883.6.238",
            "code": "2106-3",
            "display": "White"
          }
        }, {
          "url": "text",
          "valueString": "White"
        } ]
      }, {
        "url": "http://hl7.org/fhir/us/core/StructureDefinition/us-core-ethnicity",
        "extension": [ {
          "url": "ombCategory",
          "valueCoding": {
            "system": "urn:oid:2.16.840.1.113883.6.238",
            "code": "2186-5",
            "display": "Not Hispanic or Latino"
          }
        }, {
          "url": "text",
          "valueString": "Not Hispanic or Latino"
        } ]
      } ],
      "identifier": [ {
        "type": {
          "coding": [ {
            "system": "http://terminology.hl7.org/CodeSystem/v2-0203",
            "code": "MR"
          } ]
        },
        "system": "https://bonnie-fhir.healthit.gov/",
        "value": "64613165130351651651"
      } ],
      "name": [ {
        "family": "DENEXPopStrat1Pass",
        "given": [ "HospiceObservation" ]
      } ],
      "gender": "female",
      "birthDate": "2011-01-01"
    },
    "request": {
      "method": "PUT",
      "url": "Patient/7a417e07-f9e1-490d-a175-0fe32c374f52"
    }
  }, {
    "fullUrl": "https://madie.cms.gov/Encounter/c607d50f-d245-4ad1-a6f7-02b89190f03d",
    "resource": {
      "resourceType": "Encounter",
      "id": "c607d50f-d245-4ad1-a6f7-02b89190f03d",
      "meta": {
        "profile": [ "http://hl7.org/fhir/us/qicore/StructureDefinition/qicore-encounter" ]
      },
      "status": "finished",
      "class": {
        "system": "http://terminology.hl7.org/CodeSystem/v3-ActCode",
        "code": "AMB",
        "display": "ambulatory"
      },
      "type": [ {
        "coding": [ {
          "system": "http://www.ama-assn.org/go/cpt",
          "version": "2024",
          "code": "90791"
        } ]
      } ],
      "subject": {
        "reference": "Patient/7a417e07-f9e1-490d-a175-0fe32c374f52"
      },
      "period": {
        "start": "2025-02-25T14:30:00+00:00",
        "end": "2025-02-25T14:50:00+00:00"
      },
      "length": {
        "value": 0,
        "unit": "days"
      }
    },
    "request": {
      "method": "PUT",
      "url": "Encounter/c607d50f-d245-4ad1-a6f7-02b89190f03d"
    }
  }, {
    "fullUrl": "https://madie.cms.gov/Observation/24dd9f18-876d-4a28-af15-8f61af7720b0",
    "resource": {
      "resourceType": "Observation",
      "id": "24dd9f18-876d-4a28-af15-8f61af7720b0",
      "meta": {
        "profile": [ "http://hl7.org/fhir/us/qicore/StructureDefinition/qicore-observation-screening-assessment" ]
      },
      "status": "final",
      "category": [ {
        "coding": [ {
          "system": "http://terminology.hl7.org/CodeSystem/observation-category",
          "code": "survey",
          "display": "Survey"
        } ]
      } ],
      "code": {
        "coding": [ {
          "system": "http://loinc.org",
          "version": "2.76",
          "code": "44261-6"
        } ]
      },
      "subject": {
        "reference": "Patient/7a417e07-f9e1-490d-a175-0fe32c374f52"
      },
      "effectiveDateTime": "2025-02-25T14:35:00+00:00",
      "valueInteger": 10
    },
    "request": {
      "method": "PUT",
      "url": "Observation/24dd9f18-876d-4a28-af15-8f61af7720b0"
    }
  }, {
    "fullUrl": "https://madie.cms.gov/Observation/6b8847f0-89d3-4042-b49d-2afc8632b92a",
    "resource": {
      "resourceType": "Observation",
      "id": "6b8847f0-89d3-4042-b49d-2afc8632b92a",
      "meta": {
        "profile": [ "http://hl7.org/fhir/us/qicore/StructureDefinition/qicore-observation-screening-assessment" ]
      },
      "status": "final",
      "category": [ {
        "coding": [ {
          "system": "http://terminology.hl7.org/CodeSystem/observation-category",
          "code": "survey",
          "display": "Survey"
        } ]
      } ],
      "code": {
        "coding": [ {
          "system": "http://loinc.org",
          "version": "2.76",
          "code": "44261-6"
        } ]
      },
      "subject": {
        "reference": "Patient/7a417e07-f9e1-490d-a175-0fe32c374f52"
      },
      "effectiveDateTime": "2026-02-19T14:30:00+00:00",
      "valueInteger": 3
    },
    "request": {
      "method": "PUT",
      "url": "Observation/6b8847f0-89d3-4042-b49d-2afc8632b92a"
    }
  }, {
    "fullUrl": "https://madie.cms.gov/Observation/a9c46d52-f69b-448b-8f23-6d99b8dbbf91",
    "resource": {
      "resourceType": "Observation",
      "id": "a9c46d52-f69b-448b-8f23-6d99b8dbbf91",
      "meta": {
        "profile": [ "http://hl7.org/fhir/us/qicore/StructureDefinition/qicore-observation-screening-assessment" ]
      },
      "status": "final",
      "category": [ {
        "coding": [ {
          "system": "http://terminology.hl7.org/CodeSystem/observation-category",
          "code": "survey",
          "display": "Survey"
        } ]
      } ],
      "code": {
        "coding": [ {
          "system": "http://loinc.org",
          "version": "2.76",
          "code": "45755-6",
          "display": "Hospice care [Minimum Data Set]"
        } ]
      },
      "subject": {
        "reference": "Patient/7a417e07-f9e1-490d-a175-0fe32c374f52"
      },
      "effectiveDateTime": "2026-02-19T14:30:00+00:00",
      "valueCodeableConcept": {
        "coding": [ {
          "system": "http://snomed.info/sct",
          "code": "373066001",
          "display": "Yes (qualifier value)"
        } ],
        "text": "Negative for Chlamydia Trachomatis rRNA"
      }
    },
    "request": {
      "method": "PUT",
      "url": "Observation/a9c46d52-f69b-448b-8f23-6d99b8dbbf91"
    }
  }, {
    "fullUrl": "https://madie.cms.gov/Condition/d607b9ee-4692-4bd8-afaf-e1fa13cbaac0",
    "resource": {
      "resourceType": "Condition",
      "id": "d607b9ee-4692-4bd8-afaf-e1fa13cbaac0",
      "meta": {
        "profile": [ "http://hl7.org/fhir/us/qicore/StructureDefinition/qicore-condition-problems-health-concerns" ]
      },
      "clinicalStatus": {
        "coding": [ {
          "system": "http://terminology.hl7.org/CodeSystem/condition-clinical",
          "code": "active",
          "display": "active"
        } ]
      },
      "verificationStatus": {
        "coding": [ {
          "system": "http://terminology.hl7.org/CodeSystem/condition-ver-status",
          "code": "confirmed"
        } ]
      },
      "category": [ {
        "coding": [ {
          "system": "http://terminology.hl7.org/CodeSystem/condition-category",
          "code": "problem-list-item",
          "display": "Problem List Item"
        } ]
      } ],
      "code": {
        "coding": [ {
          "system": "http://hl7.org/fhir/sid/icd-10-cm",
          "version": "2024",
          "code": "F32.9"
        } ]
      },
      "subject": {
        "reference": "Patient/7a417e07-f9e1-490d-a175-0fe32c374f52"
      },
      "onsetDateTime": "2025-02-25T14:35:00+00:00"
    },
    "request": {
      "method": "PUT",
      "url": "Condition/d607b9ee-4692-4bd8-afaf-e1fa13cbaac0"
    }
  }, {
    "fullUrl": "https://madie.cms.gov/MeasureReport/878b6275-564a-458f-8eb8-f5df9ef94f45",
    "resource": {
      "resourceType": "MeasureReport",
      "id": "878b6275-564a-458f-8eb8-f5df9ef94f45",
      "meta": {
        "profile": [ "http://hl7.org/fhir/us/cqfmeasures/StructureDefinition/test-case-cqfm" ]
      },
      "contained": [ {
        "resourceType": "Parameters",
        "id": "34bd6add-0947-4985-9165-ba0046349044-parameters",
        "parameter": [ {
          "name": "subject",
          "valueString": "7a417e07-f9e1-490d-a175-0fe32c374f52"
        } ]
      } ],
      "extension": [ {
        "url": "http://hl7.org/fhir/StructureDefinition/cqf-inputParameters",
        "valueReference": {
          "reference": "#34bd6add-0947-4985-9165-ba0046349044-parameters"
        }
      }, {
        "url": "http://hl7.org/fhir/us/cqfmeasures/StructureDefinition/cqfm-testCaseDescription",
        "valueMarkdown": "Patient has a Major Depressive Dx and PHQ-9 > 9 during the denom ID period. Patient has Hospice Observation during start of denom ID and end of measure assessment period. Should be in denominator exclusion for Strat 1. Note: Stratification issue. "
      } ],
      "modifierExtension": [ {
        "url": "http://hl7.org/fhir/us/cqfmeasures/StructureDefinition/cqfm-isTestCase",
        "valueBoolean": true
      } ],
      "status": "complete",
      "type": "individual",
      "measure": "https://madie.cms.gov/Measure/CMS159FHIRDepressionRemissionatTwelveMonths",
      "period": {
        "start": "2026-01-01",
        "end": "2026-12-31"
      },
      "group": [ {
        "id": "Group_1",
        "population": [ {
          "id": "InitialPopulation_1",
          "code": {
            "coding": [ {
              "system": "http://terminology.hl7.org/CodeSystem/measure-population",
              "code": "initial-population",
              "display": "Initial Population"
            } ]
          },
          "count": 1
        }, {
          "id": "Denominator_1",
          "code": {
            "coding": [ {
              "system": "http://terminology.hl7.org/CodeSystem/measure-population",
              "code": "denominator",
              "display": "Denominator"
            } ]
          },
          "count": 1
        }, {
          "id": "DenominatorExclusion_1",
          "code": {
            "coding": [ {
              "system": "http://terminology.hl7.org/CodeSystem/measure-population",
              "code": "denominator-exclusion",
              "display": "Denominator Exclusion"
            } ]
          },
          "count": 1
        }, {
          "id": "Numerator_1",
          "code": {
            "coding": [ {
              "system": "http://terminology.hl7.org/CodeSystem/measure-population",
              "code": "numerator",
              "display": "Numerator"
            } ]
          },
          "count": 0
        } ],
        "measureScore": {
          "value": 1.0
        }
      } ],
      "evaluatedResource": [ {
        "reference": "Patient/7a417e07-f9e1-490d-a175-0fe32c374f52"
      }, {
        "reference": "Encounter/c607d50f-d245-4ad1-a6f7-02b89190f03d"
      }, {
        "reference": "Observation/24dd9f18-876d-4a28-af15-8f61af7720b0"
      }, {
        "reference": "Observation/6b8847f0-89d3-4042-b49d-2afc8632b92a"
      }, {
        "reference": "Observation/a9c46d52-f69b-448b-8f23-6d99b8dbbf91"
      }, {
        "reference": "Condition/d607b9ee-4692-4bd8-afaf-e1fa13cbaac0"
      } ]
    },
    "request": {
      "method": "PUT",
      "url": "MeasureReport/878b6275-564a-458f-8eb8-f5df9ef94f45"
    }
  } ]
}