{"resourceType":"Bundle","id":"tests-a7fc8494-7b23-46f5-864c-fdc7e073a4c8-bundle","type":"transaction","entry":[{"fullUrl":"Observation/e0fd6296-a6ea-47d8-8e03-67bd1444235e","resource":{"resourceType":"Observation","id":"e0fd6296-a6ea-47d8-8e03-67bd1444235e","meta":{"profile":["http://hl7.org/fhir/us/qicore/StructureDefinition/qicore-observation-screening-assessment"]},"status":"final","category":[{"coding":[{"system":"http://terminology.hl7.org/CodeSystem/observation-category","code":"survey","display":"Survey"}]}],"code":{"coding":[{"system":"http://loinc.org","version":"2.76","code":"44261-6"}]},"subject":{"reference":"Patient/a7fc8494-7b23-46f5-864c-fdc7e073a4c8"},"effectiveDateTime":"2026-02-19T14:30:00+00:00","valueInteger":3},"request":{"method":"PUT","url":"Observation/e0fd6296-a6ea-47d8-8e03-67bd1444235e"}},{"fullUrl":"Condition/89cf75a0-4255-4b28-bd42-73f569a38e25","resource":{"resourceType":"Condition","id":"89cf75a0-4255-4b28-bd42-73f569a38e25","meta":{"profile":["http://hl7.org/fhir/us/qicore/StructureDefinition/qicore-condition-problems-health-concerns"]},"clinicalStatus":{"coding":[{"system":"http://terminology.hl7.org/CodeSystem/condition-clinical","code":"active","display":"active"}]},"verificationStatus":{"coding":[{"system":"http://terminology.hl7.org/CodeSystem/condition-ver-status","code":"confirmed"}]},"category":[{"coding":[{"system":"http://terminology.hl7.org/CodeSystem/condition-category","code":"problem-list-item","display":"Problem List Item"}]}],"code":{"coding":[{"system":"http://hl7.org/fhir/sid/icd-10-cm","version":"2024","code":"F32.9"}]},"subject":{"reference":"Patient/a7fc8494-7b23-46f5-864c-fdc7e073a4c8"},"onsetDateTime":"2025-02-25T14:35:00+00:00"},"request":{"method":"PUT","url":"Condition/89cf75a0-4255-4b28-bd42-73f569a38e25"}},{"fullUrl":"Observation/272c0718-e6f6-4602-a005-f9a061502401","resource":{"resourceType":"Observation","id":"272c0718-e6f6-4602-a005-f9a061502401","meta":{"profile":["http://hl7.org/fhir/us/qicore/StructureDefinition/qicore-observation-screening-assessment"]},"status":"final","category":[{"coding":[{"system":"http://terminology.hl7.org/CodeSystem/observation-category","code":"survey","display":"Survey"}]}],"code":{"coding":[{"system":"http://loinc.org","version":"2.76","code":"44261-6"}]},"subject":{"reference":"Patient/a7fc8494-7b23-46f5-864c-fdc7e073a4c8"},"effectiveDateTime":"2025-02-25T14:35:00+00:00","valueInteger":10},"request":{"method":"PUT","url":"Observation/272c0718-e6f6-4602-a005-f9a061502401"}},{"fullUrl":"MeasureReport/e4f34d0d-81a2-4545-b52a-7fbf9bae867e","resource":{"resourceType":"MeasureReport","id":"e4f34d0d-81a2-4545-b52a-7fbf9bae867e","meta":{"profile":["http://hl7.org/fhir/us/cqfmeasures/StructureDefinition/test-case-cqfm"]},"contained":[{"resourceType":"Parameters","id":"27419fe7-2fe6-4301-bbda-5df0d8b95bb0-parameters","parameter":[{"name":"subject","valueString":"a7fc8494-7b23-46f5-864c-fdc7e073a4c8"}]}],"extension":[{"url":"http://hl7.org/fhir/StructureDefinition/cqf-inputParameters","valueReference":{"reference":"#27419fe7-2fe6-4301-bbda-5df0d8b95bb0-parameters"}},{"url":"http://hl7.org/fhir/us/cqfmeasures/StructureDefinition/cqfm-testCaseDescription","valueMarkdown":"Patient is 15 years old and has a Major Depressive diagnosis and PHQ-9>9 during the denom ID period. Patient had bipolar disorder before end of MAP. Should be in denominator exclusion for Strat 1. Note: Stratification Issue."}],"modifierExtension":[{"url":"http://hl7.org/fhir/us/cqfmeasures/StructureDefinition/cqfm-isTestCase","valueBoolean":true}],"status":"complete","type":"individual","measure":"https://madie.cms.gov/Measure/CMS159FHIRDepressionRemissionatTwelveMonths","period":{"start":"2026-01-01","end":"2026-12-31"},"group":[{"id":"Group_1","population":[{"id":"InitialPopulation_1","code":{"coding":[{"system":"http://terminology.hl7.org/CodeSystem/measure-population","code":"initial-population","display":"Initial Population"}]},"count":1},{"id":"Denominator_1","code":{"coding":[{"system":"http://terminology.hl7.org/CodeSystem/measure-population","code":"denominator","display":"Denominator"}]},"count":1},{"id":"DenominatorExclusion_1","code":{"coding":[{"system":"http://terminology.hl7.org/CodeSystem/measure-population","code":"denominator-exclusion","display":"Denominator Exclusion"}]},"count":1},{"id":"Numerator_1","code":{"coding":[{"system":"http://terminology.hl7.org/CodeSystem/measure-population","code":"numerator","display":"Numerator"}]},"count":0}],"measureScore":{"value":1.0}}],"evaluatedResource":[{"reference":"Patient/a7fc8494-7b23-46f5-864c-fdc7e073a4c8"},{"reference":"Encounter/bac89efa-a133-4e74-ad22-533e2a0f6c8a"},{"reference":"Observation/272c0718-e6f6-4602-a005-f9a061502401"},{"reference":"Observation/e0fd6296-a6ea-47d8-8e03-67bd1444235e"},{"reference":"Condition/89cf75a0-4255-4b28-bd42-73f569a38e25"},{"reference":"Condition/45a6b822-49df-4866-8194-aa86e569dad6"}]},"request":{"method":"PUT","url":"MeasureReport/e4f34d0d-81a2-4545-b52a-7fbf9bae867e"}},{"fullUrl":"Condition/45a6b822-49df-4866-8194-aa86e569dad6","resource":{"resourceType":"Condition","id":"45a6b822-49df-4866-8194-aa86e569dad6","meta":{"profile":["http://hl7.org/fhir/us/qicore/StructureDefinition/qicore-condition-problems-health-concerns"]},"clinicalStatus":{"coding":[{"system":"http://terminology.hl7.org/CodeSystem/condition-clinical","code":"active","display":"active"}]},"verificationStatus":{"coding":[{"system":"http://terminology.hl7.org/CodeSystem/condition-ver-status","code":"confirmed"}]},"category":[{"coding":[{"system":"http://terminology.hl7.org/CodeSystem/condition-category","code":"problem-list-item","display":"Problem List Item"}]}],"code":{"coding":[{"system":"http://snomed.info/sct","version":"http://snomed.info/sct/731000124108/version/20230901","code":"10981006","display":"Severe mixed bipolar I disorder with psychotic features (disorder)"}]},"subject":{"reference":"Patient/a7fc8494-7b23-46f5-864c-fdc7e073a4c8"},"onsetDateTime":"2025-02-25T14:35:00+00:00"},"request":{"method":"PUT","url":"Condition/45a6b822-49df-4866-8194-aa86e569dad6"}},{"fullUrl":"Patient/a7fc8494-7b23-46f5-864c-fdc7e073a4c8","resource":{"resourceType":"Patient","id":"a7fc8494-7b23-46f5-864c-fdc7e073a4c8","meta":{"profile":["http://hl7.org/fhir/us/qicore/StructureDefinition/qicore-patient"]},"extension":[{"url":"http://hl7.org/fhir/us/core/StructureDefinition/us-core-race","extension":[{"url":"ombCategory","valueCoding":{"system":"urn:oid:2.16.840.1.113883.6.238","code":"2106-3","display":"White"}},{"url":"text","valueString":"White"}]},{"url":"http://hl7.org/fhir/us/core/StructureDefinition/us-core-ethnicity","extension":[{"url":"ombCategory","valueCoding":{"system":"urn:oid:2.16.840.1.113883.6.238","code":"2186-5","display":"Not Hispanic or Latino"}},{"url":"text","valueString":"Not Hispanic or Latino"}]}],"identifier":[{"type":{"coding":[{"system":"http://terminology.hl7.org/CodeSystem/v2-0203","code":"MR"}]},"system":"https://bonnie-fhir.healthit.gov/","value":"630307ca0968f801224782d2"}],"name":[{"family":"DENEXPopStrat1Pass","given":["BipolarDisorderBeforeEndofMAP"]}],"gender":"female","birthDate":"2011-01-01"},"request":{"method":"PUT","url":"Patient/a7fc8494-7b23-46f5-864c-fdc7e073a4c8"}},{"fullUrl":"Bundle/630307ca0968f801224782d2","resource":{"resourceType":"Bundle","id":"630307ca0968f801224782d2","type":"transaction","entry":[{"fullUrl":"https://madie.cms.gov/Patient/a7fc8494-7b23-46f5-864c-fdc7e073a4c8","resource":{"resourceType":"Patient","id":"a7fc8494-7b23-46f5-864c-fdc7e073a4c8","meta":{"profile":["http://hl7.org/fhir/us/qicore/StructureDefinition/qicore-patient"]},"extension":[{"url":"http://hl7.org/fhir/us/core/StructureDefinition/us-core-race","extension":[{"url":"ombCategory","valueCoding":{"system":"urn:oid:2.16.840.1.113883.6.238","code":"2106-3","display":"White"}},{"url":"text","valueString":"White"}]},{"url":"http://hl7.org/fhir/us/core/StructureDefinition/us-core-ethnicity","extension":[{"url":"ombCategory","valueCoding":{"system":"urn:oid:2.16.840.1.113883.6.238","code":"2186-5","display":"Not Hispanic or Latino"}},{"url":"text","valueString":"Not Hispanic or Latino"}]}],"identifier":[{"type":{"coding":[{"system":"http://terminology.hl7.org/CodeSystem/v2-0203","code":"MR"}]},"system":"https://bonnie-fhir.healthit.gov/","value":"630307ca0968f801224782d2"}],"name":[{"family":"DENEXPopStrat1Pass","given":["BipolarDisorderBeforeEndofMAP"]}],"gender":"female","birthDate":"2011-01-01"},"request":{"method":"PUT","url":"Patient/a7fc8494-7b23-46f5-864c-fdc7e073a4c8"}},{"fullUrl":"https://madie.cms.gov/Encounter/bac89efa-a133-4e74-ad22-533e2a0f6c8a","resource":{"resourceType":"Encounter","id":"bac89efa-a133-4e74-ad22-533e2a0f6c8a","meta":{"profile":["http://hl7.org/fhir/us/qicore/StructureDefinition/qicore-encounter"]},"status":"finished","class":{"system":"http://terminology.hl7.org/CodeSystem/v3-ActCode","code":"AMB","display":"ambulatory"},"type":[{"coding":[{"system":"http://www.ama-assn.org/go/cpt","version":"2024","code":"90791"}]}],"subject":{"reference":"Patient/a7fc8494-7b23-46f5-864c-fdc7e073a4c8"},"period":{"start":"2025-02-25T14:30:00+00:00","end":"2025-02-25T14:50:00+00:00"},"length":{"value":0,"unit":"days"}},"request":{"method":"PUT","url":"Encounter/bac89efa-a133-4e74-ad22-533e2a0f6c8a"}},{"fullUrl":"https://madie.cms.gov/Observation/272c0718-e6f6-4602-a005-f9a061502401","resource":{"resourceType":"Observation","id":"272c0718-e6f6-4602-a005-f9a061502401","meta":{"profile":["http://hl7.org/fhir/us/qicore/StructureDefinition/qicore-observation-screening-assessment"]},"status":"final","category":[{"coding":[{"system":"http://terminology.hl7.org/CodeSystem/observation-category","code":"survey","display":"Survey"}]}],"code":{"coding":[{"system":"http://loinc.org","version":"2.76","code":"44261-6"}]},"subject":{"reference":"Patient/a7fc8494-7b23-46f5-864c-fdc7e073a4c8"},"effectiveDateTime":"2025-02-25T14:35:00+00:00","valueInteger":10},"request":{"method":"PUT","url":"Observation/272c0718-e6f6-4602-a005-f9a061502401"}},{"fullUrl":"https://madie.cms.gov/Observation/e0fd6296-a6ea-47d8-8e03-67bd1444235e","resource":{"resourceType":"Observation","id":"e0fd6296-a6ea-47d8-8e03-67bd1444235e","meta":{"profile":["http://hl7.org/fhir/us/qicore/StructureDefinition/qicore-observation-screening-assessment"]},"status":"final","category":[{"coding":[{"system":"http://terminology.hl7.org/CodeSystem/observation-category","code":"survey","display":"Survey"}]}],"code":{"coding":[{"system":"http://loinc.org","version":"2.76","code":"44261-6"}]},"subject":{"reference":"Patient/a7fc8494-7b23-46f5-864c-fdc7e073a4c8"},"effectiveDateTime":"2026-02-19T14:30:00+00:00","valueInteger":3},"request":{"method":"PUT","url":"Observation/e0fd6296-a6ea-47d8-8e03-67bd1444235e"}},{"fullUrl":"https://madie.cms.gov/Condition/89cf75a0-4255-4b28-bd42-73f569a38e25","resource":{"resourceType":"Condition","id":"89cf75a0-4255-4b28-bd42-73f569a38e25","meta":{"profile":["http://hl7.org/fhir/us/qicore/StructureDefinition/qicore-condition-problems-health-concerns"]},"clinicalStatus":{"coding":[{"system":"http://terminology.hl7.org/CodeSystem/condition-clinical","code":"active","display":"active"}]},"verificationStatus":{"coding":[{"system":"http://terminology.hl7.org/CodeSystem/condition-ver-status","code":"confirmed"}]},"category":[{"coding":[{"system":"http://terminology.hl7.org/CodeSystem/condition-category","code":"problem-list-item","display":"Problem List Item"}]}],"code":{"coding":[{"system":"http://hl7.org/fhir/sid/icd-10-cm","version":"2024","code":"F32.9"}]},"subject":{"reference":"Patient/a7fc8494-7b23-46f5-864c-fdc7e073a4c8"},"onsetDateTime":"2025-02-25T14:35:00+00:00"},"request":{"method":"PUT","url":"Condition/89cf75a0-4255-4b28-bd42-73f569a38e25"}},{"fullUrl":"https://madie.cms.gov/Condition/45a6b822-49df-4866-8194-aa86e569dad6","resource":{"resourceType":"Condition","id":"45a6b822-49df-4866-8194-aa86e569dad6","meta":{"profile":["http://hl7.org/fhir/us/qicore/StructureDefinition/qicore-condition-problems-health-concerns"]},"clinicalStatus":{"coding":[{"system":"http://terminology.hl7.org/CodeSystem/condition-clinical","code":"active","display":"active"}]},"verificationStatus":{"coding":[{"system":"http://terminology.hl7.org/CodeSystem/condition-ver-status","code":"confirmed"}]},"category":[{"coding":[{"system":"http://terminology.hl7.org/CodeSystem/condition-category","code":"problem-list-item","display":"Problem List Item"}]}],"code":{"coding":[{"system":"http://snomed.info/sct","version":"http://snomed.info/sct/731000124108/version/20230901","code":"10981006","display":"Severe mixed bipolar I disorder with psychotic features (disorder)"}]},"subject":{"reference":"Patient/a7fc8494-7b23-46f5-864c-fdc7e073a4c8"},"onsetDateTime":"2025-02-25T14:35:00+00:00"},"request":{"method":"PUT","url":"Condition/45a6b822-49df-4866-8194-aa86e569dad6"}},{"fullUrl":"https://madie.cms.gov/MeasureReport/e4f34d0d-81a2-4545-b52a-7fbf9bae867e","resource":{"resourceType":"MeasureReport","id":"e4f34d0d-81a2-4545-b52a-7fbf9bae867e","meta":{"profile":["http://hl7.org/fhir/us/cqfmeasures/StructureDefinition/test-case-cqfm"]},"contained":[{"resourceType":"Parameters","id":"27419fe7-2fe6-4301-bbda-5df0d8b95bb0-parameters","parameter":[{"name":"subject","valueString":"a7fc8494-7b23-46f5-864c-fdc7e073a4c8"}]}],"extension":[{"url":"http://hl7.org/fhir/StructureDefinition/cqf-inputParameters","valueReference":{"reference":"#27419fe7-2fe6-4301-bbda-5df0d8b95bb0-parameters"}},{"url":"http://hl7.org/fhir/us/cqfmeasures/StructureDefinition/cqfm-testCaseDescription","valueMarkdown":"Patient is 15 years old and has a Major Depressive diagnosis and PHQ-9>9 during the denom ID period. Patient had bipolar disorder before end of MAP. Should be in denominator exclusion for Strat 1. Note: Stratification Issue."}],"modifierExtension":[{"url":"http://hl7.org/fhir/us/cqfmeasures/StructureDefinition/cqfm-isTestCase","valueBoolean":true}],"status":"complete","type":"individual","measure":"https://madie.cms.gov/Measure/CMS159FHIRDepressionRemissionatTwelveMonths","period":{"start":"2026-01-01","end":"2026-12-31"},"group":[{"id":"Group_1","population":[{"id":"InitialPopulation_1","code":{"coding":[{"system":"http://terminology.hl7.org/CodeSystem/measure-population","code":"initial-population","display":"Initial Population"}]},"count":1},{"id":"Denominator_1","code":{"coding":[{"system":"http://terminology.hl7.org/CodeSystem/measure-population","code":"denominator","display":"Denominator"}]},"count":1},{"id":"DenominatorExclusion_1","code":{"coding":[{"system":"http://terminology.hl7.org/CodeSystem/measure-population","code":"denominator-exclusion","display":"Denominator Exclusion"}]},"count":1},{"id":"Numerator_1","code":{"coding":[{"system":"http://terminology.hl7.org/CodeSystem/measure-population","code":"numerator","display":"Numerator"}]},"count":0}],"measureScore":{"value":1.0}}],"evaluatedResource":[{"reference":"Patient/a7fc8494-7b23-46f5-864c-fdc7e073a4c8"},{"reference":"Encounter/bac89efa-a133-4e74-ad22-533e2a0f6c8a"},{"reference":"Observation/272c0718-e6f6-4602-a005-f9a061502401"},{"reference":"Observation/e0fd6296-a6ea-47d8-8e03-67bd1444235e"},{"reference":"Condition/89cf75a0-4255-4b28-bd42-73f569a38e25"},{"reference":"Condition/45a6b822-49df-4866-8194-aa86e569dad6"}]},"request":{"method":"PUT","url":"MeasureReport/e4f34d0d-81a2-4545-b52a-7fbf9bae867e"}}]},"request":{"method":"PUT","url":"Bundle/630307ca0968f801224782d2"}},{"fullUrl":"Encounter/bac89efa-a133-4e74-ad22-533e2a0f6c8a","resource":{"resourceType":"Encounter","id":"bac89efa-a133-4e74-ad22-533e2a0f6c8a","meta":{"profile":["http://hl7.org/fhir/us/qicore/StructureDefinition/qicore-encounter"]},"status":"finished","class":{"system":"http://terminology.hl7.org/CodeSystem/v3-ActCode","code":"AMB","display":"ambulatory"},"type":[{"coding":[{"system":"http://www.ama-assn.org/go/cpt","version":"2024","code":"90791"}]}],"subject":{"reference":"Patient/a7fc8494-7b23-46f5-864c-fdc7e073a4c8"},"period":{"start":"2025-02-25T14:30:00+00:00","end":"2025-02-25T14:50:00+00:00"},"length":{"value":0,"unit":"days"}},"request":{"method":"PUT","url":"Encounter/bac89efa-a133-4e74-ad22-533e2a0f6c8a"}}]}