{"resourceType":"Bundle","id":"tests-3892ef89-5feb-4ca3-b7c6-d47e5c12c65b-bundle","type":"transaction","entry":[{"fullUrl":"Observation/d3b3847a-dcd0-46e0-b30e-5d820a50b331","resource":{"resourceType":"Observation","id":"d3b3847a-dcd0-46e0-b30e-5d820a50b331","meta":{"profile":["http://hl7.org/fhir/us/qicore/StructureDefinition/qicore-observation-screening-assessment"]},"status":"final","category":[{"coding":[{"system":"http://terminology.hl7.org/CodeSystem/observation-category","code":"survey","display":"Survey"}]}],"code":{"coding":[{"system":"http://loinc.org","version":"2.76","code":"44261-6"}]},"subject":{"reference":"Patient/3892ef89-5feb-4ca3-b7c6-d47e5c12c65b"},"effectiveDateTime":"2026-02-19T14:30:00+00:00","valueInteger":3},"request":{"method":"PUT","url":"Observation/d3b3847a-dcd0-46e0-b30e-5d820a50b331"}},{"fullUrl":"MeasureReport/16d5450e-a3bb-41f2-be85-3099d746af24","resource":{"resourceType":"MeasureReport","id":"16d5450e-a3bb-41f2-be85-3099d746af24","meta":{"profile":["http://hl7.org/fhir/us/cqfmeasures/StructureDefinition/test-case-cqfm"]},"contained":[{"resourceType":"Parameters","id":"00fcd809-472d-4e62-a0e4-768b5d846e50-parameters","parameter":[{"name":"subject","valueString":"3892ef89-5feb-4ca3-b7c6-d47e5c12c65b"}]}],"extension":[{"url":"http://hl7.org/fhir/StructureDefinition/cqf-inputParameters","valueReference":{"reference":"#00fcd809-472d-4e62-a0e4-768b5d846e50-parameters"}},{"url":"http://hl7.org/fhir/us/cqfmeasures/StructureDefinition/cqfm-testCaseDescription","valueMarkdown":"Patients has a PHQ-9>9 and a Major Depression diagnosis during the denom ID period. Assessment occurs within 7 day window of encounter. Patient has PHQ-9<5 during MAP. Patient should be in numerator for strat 2."}],"modifierExtension":[{"url":"http://hl7.org/fhir/us/cqfmeasures/StructureDefinition/cqfm-isTestCase","valueBoolean":true}],"status":"complete","type":"individual","measure":"https://madie.cms.gov/Measure/CMS159FHIRDepressionRemissionatTwelveMonths","period":{"start":"2026-01-01","end":"2026-12-31"},"group":[{"id":"Group_1","population":[{"id":"InitialPopulation_1","code":{"coding":[{"system":"http://terminology.hl7.org/CodeSystem/measure-population","code":"initial-population","display":"Initial Population"}]},"count":1},{"id":"Denominator_1","code":{"coding":[{"system":"http://terminology.hl7.org/CodeSystem/measure-population","code":"denominator","display":"Denominator"}]},"count":1},{"id":"DenominatorExclusion_1","code":{"coding":[{"system":"http://terminology.hl7.org/CodeSystem/measure-population","code":"denominator-exclusion","display":"Denominator Exclusion"}]},"count":0},{"id":"Numerator_1","code":{"coding":[{"system":"http://terminology.hl7.org/CodeSystem/measure-population","code":"numerator","display":"Numerator"}]},"count":1}],"measureScore":{"value":1.0}}],"evaluatedResource":[{"reference":"Patient/3892ef89-5feb-4ca3-b7c6-d47e5c12c65b"},{"reference":"Encounter/496a49db-3fc1-4985-ab3a-310bb6e8f1d3"},{"reference":"Observation/eef7eab1-3573-455a-84ac-e7309c920e0e"},{"reference":"Observation/d3b3847a-dcd0-46e0-b30e-5d820a50b331"},{"reference":"Condition/9b109f7b-361e-49cd-ae9e-e46c15d43f85"}]},"request":{"method":"PUT","url":"MeasureReport/16d5450e-a3bb-41f2-be85-3099d746af24"}},{"fullUrl":"Condition/9b109f7b-361e-49cd-ae9e-e46c15d43f85","resource":{"resourceType":"Condition","id":"9b109f7b-361e-49cd-ae9e-e46c15d43f85","meta":{"profile":["http://hl7.org/fhir/us/qicore/StructureDefinition/qicore-condition-problems-health-concerns"]},"clinicalStatus":{"coding":[{"system":"http://terminology.hl7.org/CodeSystem/condition-clinical","code":"active","display":"active"}]},"verificationStatus":{"coding":[{"system":"http://terminology.hl7.org/CodeSystem/condition-ver-status","code":"confirmed"}]},"category":[{"coding":[{"system":"http://terminology.hl7.org/CodeSystem/condition-category","code":"problem-list-item","display":"Problem List Item"}]}],"code":{"coding":[{"system":"http://hl7.org/fhir/sid/icd-10-cm","version":"2024","code":"F32.9","display":"Major Depressive Disorder"}]},"subject":{"reference":"Patient/3892ef89-5feb-4ca3-b7c6-d47e5c12c65b"},"onsetDateTime":"2025-02-25T14:35:00+00:00"},"request":{"method":"PUT","url":"Condition/9b109f7b-361e-49cd-ae9e-e46c15d43f85"}},{"fullUrl":"Encounter/496a49db-3fc1-4985-ab3a-310bb6e8f1d3","resource":{"resourceType":"Encounter","id":"496a49db-3fc1-4985-ab3a-310bb6e8f1d3","meta":{"profile":["http://hl7.org/fhir/us/qicore/StructureDefinition/qicore-encounter"]},"status":"finished","class":{"system":"http://terminology.hl7.org/CodeSystem/v3-ActCode","code":"AMB","display":"ambulatory"},"type":[{"coding":[{"system":"http://www.ama-assn.org/go/cpt","version":"2024","code":"90791"}]}],"subject":{"reference":"Patient/3892ef89-5feb-4ca3-b7c6-d47e5c12c65b"},"period":{"start":"2025-02-25T14:30:00+00:00","end":"2025-02-25T14:50:00+00:00"},"length":{"value":0,"unit":"days"}},"request":{"method":"PUT","url":"Encounter/496a49db-3fc1-4985-ab3a-310bb6e8f1d3"}},{"fullUrl":"Patient/3892ef89-5feb-4ca3-b7c6-d47e5c12c65b","resource":{"resourceType":"Patient","id":"3892ef89-5feb-4ca3-b7c6-d47e5c12c65b","meta":{"profile":["http://hl7.org/fhir/us/qicore/StructureDefinition/qicore-patient"]},"extension":[{"url":"http://hl7.org/fhir/us/core/StructureDefinition/us-core-race","extension":[{"url":"ombCategory","valueCoding":{"system":"urn:oid:2.16.840.1.113883.6.238","code":"2106-3","display":"White"}},{"url":"text","valueString":"White"}]},{"url":"http://hl7.org/fhir/us/core/StructureDefinition/us-core-ethnicity","extension":[{"url":"ombCategory","valueCoding":{"system":"urn:oid:2.16.840.1.113883.6.238","code":"2186-5","display":"Not Hispanic or Latino"}},{"url":"text","valueString":"Not Hispanic or Latino"}]}],"identifier":[{"type":{"coding":[{"system":"http://terminology.hl7.org/CodeSystem/v2-0203","code":"MR"}]},"system":"https://bonnie-fhir.healthit.gov/","value":"630307cc0968f8012247857e"}],"name":[{"family":"NUMERPopStrat2Pass","given":["AssessmentWithin7DaysofEncounter"]}],"gender":"female","birthDate":"1971-01-01"},"request":{"method":"PUT","url":"Patient/3892ef89-5feb-4ca3-b7c6-d47e5c12c65b"}},{"fullUrl":"Bundle/630307cc0968f8012247857e","resource":{"resourceType":"Bundle","id":"630307cc0968f8012247857e","type":"transaction","entry":[{"fullUrl":"https://madie.cms.gov/Patient/3892ef89-5feb-4ca3-b7c6-d47e5c12c65b","resource":{"resourceType":"Patient","id":"3892ef89-5feb-4ca3-b7c6-d47e5c12c65b","meta":{"profile":["http://hl7.org/fhir/us/qicore/StructureDefinition/qicore-patient"]},"extension":[{"url":"http://hl7.org/fhir/us/core/StructureDefinition/us-core-race","extension":[{"url":"ombCategory","valueCoding":{"system":"urn:oid:2.16.840.1.113883.6.238","code":"2106-3","display":"White"}},{"url":"text","valueString":"White"}]},{"url":"http://hl7.org/fhir/us/core/StructureDefinition/us-core-ethnicity","extension":[{"url":"ombCategory","valueCoding":{"system":"urn:oid:2.16.840.1.113883.6.238","code":"2186-5","display":"Not Hispanic or Latino"}},{"url":"text","valueString":"Not Hispanic or Latino"}]}],"identifier":[{"type":{"coding":[{"system":"http://terminology.hl7.org/CodeSystem/v2-0203","code":"MR"}]},"system":"https://bonnie-fhir.healthit.gov/","value":"630307cc0968f8012247857e"}],"name":[{"family":"NUMERPopStrat2Pass","given":["AssessmentWithin7DaysofEncounter"]}],"gender":"female","birthDate":"1971-01-01"},"request":{"method":"PUT","url":"Patient/3892ef89-5feb-4ca3-b7c6-d47e5c12c65b"}},{"fullUrl":"https://madie.cms.gov/Encounter/496a49db-3fc1-4985-ab3a-310bb6e8f1d3","resource":{"resourceType":"Encounter","id":"496a49db-3fc1-4985-ab3a-310bb6e8f1d3","meta":{"profile":["http://hl7.org/fhir/us/qicore/StructureDefinition/qicore-encounter"]},"status":"finished","class":{"system":"http://terminology.hl7.org/CodeSystem/v3-ActCode","code":"AMB","display":"ambulatory"},"type":[{"coding":[{"system":"http://www.ama-assn.org/go/cpt","version":"2024","code":"90791"}]}],"subject":{"reference":"Patient/3892ef89-5feb-4ca3-b7c6-d47e5c12c65b"},"period":{"start":"2025-02-25T14:30:00+00:00","end":"2025-02-25T14:50:00+00:00"},"length":{"value":0,"unit":"days"}},"request":{"method":"PUT","url":"Encounter/496a49db-3fc1-4985-ab3a-310bb6e8f1d3"}},{"fullUrl":"https://madie.cms.gov/Observation/eef7eab1-3573-455a-84ac-e7309c920e0e","resource":{"resourceType":"Observation","id":"eef7eab1-3573-455a-84ac-e7309c920e0e","meta":{"profile":["http://hl7.org/fhir/us/qicore/StructureDefinition/qicore-observation-screening-assessment"]},"status":"final","category":[{"coding":[{"system":"http://terminology.hl7.org/CodeSystem/observation-category","code":"survey","display":"Survey"}]}],"code":{"coding":[{"system":"http://loinc.org","version":"2.76","code":"44261-6"}]},"subject":{"reference":"Patient/3892ef89-5feb-4ca3-b7c6-d47e5c12c65b"},"effectiveDateTime":"2025-02-20T14:35:00+00:00","valueInteger":10},"request":{"method":"PUT","url":"Observation/eef7eab1-3573-455a-84ac-e7309c920e0e"}},{"fullUrl":"https://madie.cms.gov/Observation/d3b3847a-dcd0-46e0-b30e-5d820a50b331","resource":{"resourceType":"Observation","id":"d3b3847a-dcd0-46e0-b30e-5d820a50b331","meta":{"profile":["http://hl7.org/fhir/us/qicore/StructureDefinition/qicore-observation-screening-assessment"]},"status":"final","category":[{"coding":[{"system":"http://terminology.hl7.org/CodeSystem/observation-category","code":"survey","display":"Survey"}]}],"code":{"coding":[{"system":"http://loinc.org","version":"2.76","code":"44261-6"}]},"subject":{"reference":"Patient/3892ef89-5feb-4ca3-b7c6-d47e5c12c65b"},"effectiveDateTime":"2026-02-19T14:30:00+00:00","valueInteger":3},"request":{"method":"PUT","url":"Observation/d3b3847a-dcd0-46e0-b30e-5d820a50b331"}},{"fullUrl":"https://madie.cms.gov/Condition/9b109f7b-361e-49cd-ae9e-e46c15d43f85","resource":{"resourceType":"Condition","id":"9b109f7b-361e-49cd-ae9e-e46c15d43f85","meta":{"profile":["http://hl7.org/fhir/us/qicore/StructureDefinition/qicore-condition-problems-health-concerns"]},"clinicalStatus":{"coding":[{"system":"http://terminology.hl7.org/CodeSystem/condition-clinical","code":"active","display":"active"}]},"verificationStatus":{"coding":[{"system":"http://terminology.hl7.org/CodeSystem/condition-ver-status","code":"confirmed"}]},"category":[{"coding":[{"system":"http://terminology.hl7.org/CodeSystem/condition-category","code":"problem-list-item","display":"Problem List Item"}]}],"code":{"coding":[{"system":"http://hl7.org/fhir/sid/icd-10-cm","version":"2024","code":"F32.9","display":"Major Depressive Disorder"}]},"subject":{"reference":"Patient/3892ef89-5feb-4ca3-b7c6-d47e5c12c65b"},"onsetDateTime":"2025-02-25T14:35:00+00:00"},"request":{"method":"PUT","url":"Condition/9b109f7b-361e-49cd-ae9e-e46c15d43f85"}},{"fullUrl":"https://madie.cms.gov/MeasureReport/16d5450e-a3bb-41f2-be85-3099d746af24","resource":{"resourceType":"MeasureReport","id":"16d5450e-a3bb-41f2-be85-3099d746af24","meta":{"profile":["http://hl7.org/fhir/us/cqfmeasures/StructureDefinition/test-case-cqfm"]},"contained":[{"resourceType":"Parameters","id":"00fcd809-472d-4e62-a0e4-768b5d846e50-parameters","parameter":[{"name":"subject","valueString":"3892ef89-5feb-4ca3-b7c6-d47e5c12c65b"}]}],"extension":[{"url":"http://hl7.org/fhir/StructureDefinition/cqf-inputParameters","valueReference":{"reference":"#00fcd809-472d-4e62-a0e4-768b5d846e50-parameters"}},{"url":"http://hl7.org/fhir/us/cqfmeasures/StructureDefinition/cqfm-testCaseDescription","valueMarkdown":"Patients has a PHQ-9>9 and a Major Depression diagnosis during the denom ID period. Assessment occurs within 7 day window of encounter. Patient has PHQ-9<5 during MAP. Patient should be in numerator for strat 2."}],"modifierExtension":[{"url":"http://hl7.org/fhir/us/cqfmeasures/StructureDefinition/cqfm-isTestCase","valueBoolean":true}],"status":"complete","type":"individual","measure":"https://madie.cms.gov/Measure/CMS159FHIRDepressionRemissionatTwelveMonths","period":{"start":"2026-01-01","end":"2026-12-31"},"group":[{"id":"Group_1","population":[{"id":"InitialPopulation_1","code":{"coding":[{"system":"http://terminology.hl7.org/CodeSystem/measure-population","code":"initial-population","display":"Initial Population"}]},"count":1},{"id":"Denominator_1","code":{"coding":[{"system":"http://terminology.hl7.org/CodeSystem/measure-population","code":"denominator","display":"Denominator"}]},"count":1},{"id":"DenominatorExclusion_1","code":{"coding":[{"system":"http://terminology.hl7.org/CodeSystem/measure-population","code":"denominator-exclusion","display":"Denominator Exclusion"}]},"count":0},{"id":"Numerator_1","code":{"coding":[{"system":"http://terminology.hl7.org/CodeSystem/measure-population","code":"numerator","display":"Numerator"}]},"count":1}],"measureScore":{"value":1.0}}],"evaluatedResource":[{"reference":"Patient/3892ef89-5feb-4ca3-b7c6-d47e5c12c65b"},{"reference":"Encounter/496a49db-3fc1-4985-ab3a-310bb6e8f1d3"},{"reference":"Observation/eef7eab1-3573-455a-84ac-e7309c920e0e"},{"reference":"Observation/d3b3847a-dcd0-46e0-b30e-5d820a50b331"},{"reference":"Condition/9b109f7b-361e-49cd-ae9e-e46c15d43f85"}]},"request":{"method":"PUT","url":"MeasureReport/16d5450e-a3bb-41f2-be85-3099d746af24"}}]},"request":{"method":"PUT","url":"Bundle/630307cc0968f8012247857e"}},{"fullUrl":"Observation/eef7eab1-3573-455a-84ac-e7309c920e0e","resource":{"resourceType":"Observation","id":"eef7eab1-3573-455a-84ac-e7309c920e0e","meta":{"profile":["http://hl7.org/fhir/us/qicore/StructureDefinition/qicore-observation-screening-assessment"]},"status":"final","category":[{"coding":[{"system":"http://terminology.hl7.org/CodeSystem/observation-category","code":"survey","display":"Survey"}]}],"code":{"coding":[{"system":"http://loinc.org","version":"2.76","code":"44261-6"}]},"subject":{"reference":"Patient/3892ef89-5feb-4ca3-b7c6-d47e5c12c65b"},"effectiveDateTime":"2025-02-20T14:35:00+00:00","valueInteger":10},"request":{"method":"PUT","url":"Observation/eef7eab1-3573-455a-84ac-e7309c920e0e"}}]}