{"resourceType":"Bundle","id":"tests-fdc596ef-6cea-41b6-97b5-d090af98aff8-bundle","type":"transaction","entry":[{"fullUrl":"Encounter/098c82e2-f165-4cf4-b4b0-52899959c528","resource":{"resourceType":"Encounter","id":"098c82e2-f165-4cf4-b4b0-52899959c528","meta":{"profile":["http://hl7.org/fhir/us/qicore/StructureDefinition/qicore-encounter"]},"status":"finished","class":{"system":"http://terminology.hl7.org/CodeSystem/v3-ActCode","code":"NONAC","display":"inpatient non-acute"},"type":[{"coding":[{"system":"http://snomed.info/sct","version":"http://snomed.info/sct/731000124108/version/20240301","code":"305336008"}]}],"subject":{"reference":"Patient/fdc596ef-6cea-41b6-97b5-d090af98aff8"},"period":{"start":"2027-01-31T08:00:00+00:00","end":"2027-05-01T12:00:00+00:00"},"length":{"value":0,"unit":"days"}},"request":{"method":"PUT","url":"Encounter/098c82e2-f165-4cf4-b4b0-52899959c528"}},{"fullUrl":"Bundle/98116841646686466847","resource":{"resourceType":"Bundle","id":"98116841646686466847","type":"transaction","entry":[{"fullUrl":"https://madie.cms.gov/Patient/fdc596ef-6cea-41b6-97b5-d090af98aff8","resource":{"resourceType":"Patient","id":"fdc596ef-6cea-41b6-97b5-d090af98aff8","meta":{"profile":["http://hl7.org/fhir/us/qicore/StructureDefinition/qicore-patient"]},"extension":[{"url":"http://hl7.org/fhir/us/core/StructureDefinition/us-core-race","extension":[{"url":"ombCategory","valueCoding":{"system":"urn:oid:2.16.840.1.113883.6.238","code":"2106-3","display":"White"}},{"url":"text","valueString":"White"}]},{"url":"http://hl7.org/fhir/us/core/StructureDefinition/us-core-ethnicity","extension":[{"url":"ombCategory","valueCoding":{"system":"urn:oid:2.16.840.1.113883.6.238","code":"2186-5","display":"Not Hispanic or Latino"}},{"url":"text","valueString":"Not Hispanic or Latino"}]}],"identifier":[{"type":{"coding":[{"system":"http://terminology.hl7.org/CodeSystem/v2-0203","code":"MR"}]},"system":"https://bonnie-fhir.healthit.gov/","value":"6546841651641616513421"}],"name":[{"family":"DENEXPopStrat2Fail","given":["HospiceDxStartsAfterMP"]}],"gender":"female","birthDate":"1953-01-01"},"request":{"method":"PUT","url":"Patient/fdc596ef-6cea-41b6-97b5-d090af98aff8"}},{"fullUrl":"https://madie.cms.gov/Encounter/1fcfdfab-7508-4bbc-85d1-1659a97d3d6e","resource":{"resourceType":"Encounter","id":"1fcfdfab-7508-4bbc-85d1-1659a97d3d6e","meta":{"profile":["http://hl7.org/fhir/us/qicore/StructureDefinition/qicore-encounter"]},"status":"finished","class":{"system":"http://terminology.hl7.org/CodeSystem/v3-ActCode","code":"AMB","display":"ambulatory"},"type":[{"coding":[{"system":"http://www.ama-assn.org/go/cpt","version":"2024","code":"90791"}]}],"subject":{"reference":"Patient/fdc596ef-6cea-41b6-97b5-d090af98aff8"},"period":{"start":"2025-02-25T14:30:00+00:00","end":"2025-02-25T14:50:00+00:00"},"length":{"value":0,"unit":"days"}},"request":{"method":"PUT","url":"Encounter/1fcfdfab-7508-4bbc-85d1-1659a97d3d6e"}},{"fullUrl":"https://madie.cms.gov/Observation/ac9cf581-45b7-4d1b-8662-8b92ad64abac","resource":{"resourceType":"Observation","id":"ac9cf581-45b7-4d1b-8662-8b92ad64abac","meta":{"profile":["http://hl7.org/fhir/us/qicore/StructureDefinition/qicore-observation-screening-assessment"]},"status":"final","category":[{"coding":[{"system":"http://terminology.hl7.org/CodeSystem/observation-category","code":"survey","display":"Survey"}]}],"code":{"coding":[{"system":"http://loinc.org","version":"2.76","code":"44261-6"}]},"subject":{"reference":"Patient/fdc596ef-6cea-41b6-97b5-d090af98aff8"},"effectiveDateTime":"2025-02-25T14:35:00+00:00","valueInteger":10},"request":{"method":"PUT","url":"Observation/ac9cf581-45b7-4d1b-8662-8b92ad64abac"}},{"fullUrl":"https://madie.cms.gov/Observation/0ea055be-6094-4fba-b52e-2982b1ebb0a3","resource":{"resourceType":"Observation","id":"0ea055be-6094-4fba-b52e-2982b1ebb0a3","meta":{"profile":["http://hl7.org/fhir/us/qicore/StructureDefinition/qicore-observation-screening-assessment"]},"status":"final","category":[{"coding":[{"system":"http://terminology.hl7.org/CodeSystem/observation-category","code":"survey","display":"Survey"}]}],"code":{"coding":[{"system":"http://loinc.org","version":"2.76","code":"44261-6"}]},"subject":{"reference":"Patient/fdc596ef-6cea-41b6-97b5-d090af98aff8"},"effectiveDateTime":"2026-02-19T14:30:00+00:00","valueInteger":3},"request":{"method":"PUT","url":"Observation/0ea055be-6094-4fba-b52e-2982b1ebb0a3"}},{"fullUrl":"https://madie.cms.gov/Condition/66d9212c-ce63-442e-bf23-d57b0ab03472","resource":{"resourceType":"Condition","id":"66d9212c-ce63-442e-bf23-d57b0ab03472","meta":{"profile":["http://hl7.org/fhir/us/qicore/StructureDefinition/qicore-condition-problems-health-concerns"]},"clinicalStatus":{"coding":[{"system":"http://terminology.hl7.org/CodeSystem/condition-clinical","code":"active","display":"active"}]},"verificationStatus":{"coding":[{"system":"http://terminology.hl7.org/CodeSystem/condition-ver-status","code":"confirmed"}]},"category":[{"coding":[{"system":"http://terminology.hl7.org/CodeSystem/condition-category","code":"problem-list-item","display":"Problem List Item"}]}],"code":{"coding":[{"system":"http://hl7.org/fhir/sid/icd-10-cm","version":"2024","code":"F32.9"}]},"subject":{"reference":"Patient/fdc596ef-6cea-41b6-97b5-d090af98aff8"},"onsetDateTime":"2025-02-25T14:35:00+00:00"},"request":{"method":"PUT","url":"Condition/66d9212c-ce63-442e-bf23-d57b0ab03472"}},{"fullUrl":"https://madie.cms.gov/Encounter/098c82e2-f165-4cf4-b4b0-52899959c528","resource":{"resourceType":"Encounter","id":"098c82e2-f165-4cf4-b4b0-52899959c528","meta":{"profile":["http://hl7.org/fhir/us/qicore/StructureDefinition/qicore-encounter"]},"status":"finished","class":{"system":"http://terminology.hl7.org/CodeSystem/v3-ActCode","code":"NONAC","display":"inpatient non-acute"},"type":[{"coding":[{"system":"http://snomed.info/sct","version":"http://snomed.info/sct/731000124108/version/20240301","code":"305336008"}]}],"subject":{"reference":"Patient/fdc596ef-6cea-41b6-97b5-d090af98aff8"},"period":{"start":"2027-01-31T08:00:00+00:00","end":"2027-05-01T12:00:00+00:00"},"length":{"value":0,"unit":"days"}},"request":{"method":"PUT","url":"Encounter/098c82e2-f165-4cf4-b4b0-52899959c528"}},{"fullUrl":"https://madie.cms.gov/MeasureReport/c52de551-0aaa-47fb-8ad4-0c52193111e4","resource":{"resourceType":"MeasureReport","id":"c52de551-0aaa-47fb-8ad4-0c52193111e4","meta":{"profile":["http://hl7.org/fhir/us/cqfmeasures/StructureDefinition/test-case-cqfm"]},"contained":[{"resourceType":"Parameters","id":"a5bd263e-4896-4364-a368-db3ff67ee8ed-parameters","parameter":[{"name":"subject","valueString":"fdc596ef-6cea-41b6-97b5-d090af98aff8"}]}],"extension":[{"url":"http://hl7.org/fhir/StructureDefinition/cqf-inputParameters","valueReference":{"reference":"#a5bd263e-4896-4364-a368-db3ff67ee8ed-parameters"}},{"url":"http://hl7.org/fhir/us/cqfmeasures/StructureDefinition/cqfm-testCaseDescription","valueMarkdown":"Patient has a Major Depressive DX and PHQ-9>9 during the denom ID period. Patient has Hospice Dx starts after Interval (den ID to MAP), and hospice intervention order. Should not be in denominator exclusion for Strat 2. "}],"modifierExtension":[{"url":"http://hl7.org/fhir/us/cqfmeasures/StructureDefinition/cqfm-isTestCase","valueBoolean":true}],"status":"complete","type":"individual","measure":"https://madie.cms.gov/Measure/CMS159FHIRDepressionRemissionatTwelveMonths","period":{"start":"2026-01-01","end":"2026-12-31"},"group":[{"id":"Group_1","population":[{"id":"InitialPopulation_1","code":{"coding":[{"system":"http://terminology.hl7.org/CodeSystem/measure-population","code":"initial-population","display":"Initial Population"}]},"count":1},{"id":"Denominator_1","code":{"coding":[{"system":"http://terminology.hl7.org/CodeSystem/measure-population","code":"denominator","display":"Denominator"}]},"count":1},{"id":"DenominatorExclusion_1","code":{"coding":[{"system":"http://terminology.hl7.org/CodeSystem/measure-population","code":"denominator-exclusion","display":"Denominator Exclusion"}]},"count":0},{"id":"Numerator_1","code":{"coding":[{"system":"http://terminology.hl7.org/CodeSystem/measure-population","code":"numerator","display":"Numerator"}]},"count":1}],"measureScore":{"value":1.0}}],"evaluatedResource":[{"reference":"Patient/fdc596ef-6cea-41b6-97b5-d090af98aff8"},{"reference":"Encounter/1fcfdfab-7508-4bbc-85d1-1659a97d3d6e"},{"reference":"Observation/ac9cf581-45b7-4d1b-8662-8b92ad64abac"},{"reference":"Observation/0ea055be-6094-4fba-b52e-2982b1ebb0a3"},{"reference":"Condition/66d9212c-ce63-442e-bf23-d57b0ab03472"},{"reference":"Encounter/098c82e2-f165-4cf4-b4b0-52899959c528"}]},"request":{"method":"PUT","url":"MeasureReport/c52de551-0aaa-47fb-8ad4-0c52193111e4"}}]},"request":{"method":"PUT","url":"Bundle/98116841646686466847"}},{"fullUrl":"Condition/66d9212c-ce63-442e-bf23-d57b0ab03472","resource":{"resourceType":"Condition","id":"66d9212c-ce63-442e-bf23-d57b0ab03472","meta":{"profile":["http://hl7.org/fhir/us/qicore/StructureDefinition/qicore-condition-problems-health-concerns"]},"clinicalStatus":{"coding":[{"system":"http://terminology.hl7.org/CodeSystem/condition-clinical","code":"active","display":"active"}]},"verificationStatus":{"coding":[{"system":"http://terminology.hl7.org/CodeSystem/condition-ver-status","code":"confirmed"}]},"category":[{"coding":[{"system":"http://terminology.hl7.org/CodeSystem/condition-category","code":"problem-list-item","display":"Problem List Item"}]}],"code":{"coding":[{"system":"http://hl7.org/fhir/sid/icd-10-cm","version":"2024","code":"F32.9"}]},"subject":{"reference":"Patient/fdc596ef-6cea-41b6-97b5-d090af98aff8"},"onsetDateTime":"2025-02-25T14:35:00+00:00"},"request":{"method":"PUT","url":"Condition/66d9212c-ce63-442e-bf23-d57b0ab03472"}},{"fullUrl":"Encounter/1fcfdfab-7508-4bbc-85d1-1659a97d3d6e","resource":{"resourceType":"Encounter","id":"1fcfdfab-7508-4bbc-85d1-1659a97d3d6e","meta":{"profile":["http://hl7.org/fhir/us/qicore/StructureDefinition/qicore-encounter"]},"status":"finished","class":{"system":"http://terminology.hl7.org/CodeSystem/v3-ActCode","code":"AMB","display":"ambulatory"},"type":[{"coding":[{"system":"http://www.ama-assn.org/go/cpt","version":"2024","code":"90791"}]}],"subject":{"reference":"Patient/fdc596ef-6cea-41b6-97b5-d090af98aff8"},"period":{"start":"2025-02-25T14:30:00+00:00","end":"2025-02-25T14:50:00+00:00"},"length":{"value":0,"unit":"days"}},"request":{"method":"PUT","url":"Encounter/1fcfdfab-7508-4bbc-85d1-1659a97d3d6e"}},{"fullUrl":"MeasureReport/c52de551-0aaa-47fb-8ad4-0c52193111e4","resource":{"resourceType":"MeasureReport","id":"c52de551-0aaa-47fb-8ad4-0c52193111e4","meta":{"profile":["http://hl7.org/fhir/us/cqfmeasures/StructureDefinition/test-case-cqfm"]},"contained":[{"resourceType":"Parameters","id":"a5bd263e-4896-4364-a368-db3ff67ee8ed-parameters","parameter":[{"name":"subject","valueString":"fdc596ef-6cea-41b6-97b5-d090af98aff8"}]}],"extension":[{"url":"http://hl7.org/fhir/StructureDefinition/cqf-inputParameters","valueReference":{"reference":"#a5bd263e-4896-4364-a368-db3ff67ee8ed-parameters"}},{"url":"http://hl7.org/fhir/us/cqfmeasures/StructureDefinition/cqfm-testCaseDescription","valueMarkdown":"Patient has a Major Depressive DX and PHQ-9>9 during the denom ID period. Patient has Hospice Dx starts after Interval (den ID to MAP), and hospice intervention order. Should not be in denominator exclusion for Strat 2. "}],"modifierExtension":[{"url":"http://hl7.org/fhir/us/cqfmeasures/StructureDefinition/cqfm-isTestCase","valueBoolean":true}],"status":"complete","type":"individual","measure":"https://madie.cms.gov/Measure/CMS159FHIRDepressionRemissionatTwelveMonths","period":{"start":"2026-01-01","end":"2026-12-31"},"group":[{"id":"Group_1","population":[{"id":"InitialPopulation_1","code":{"coding":[{"system":"http://terminology.hl7.org/CodeSystem/measure-population","code":"initial-population","display":"Initial Population"}]},"count":1},{"id":"Denominator_1","code":{"coding":[{"system":"http://terminology.hl7.org/CodeSystem/measure-population","code":"denominator","display":"Denominator"}]},"count":1},{"id":"DenominatorExclusion_1","code":{"coding":[{"system":"http://terminology.hl7.org/CodeSystem/measure-population","code":"denominator-exclusion","display":"Denominator Exclusion"}]},"count":0},{"id":"Numerator_1","code":{"coding":[{"system":"http://terminology.hl7.org/CodeSystem/measure-population","code":"numerator","display":"Numerator"}]},"count":1}],"measureScore":{"value":1.0}}],"evaluatedResource":[{"reference":"Patient/fdc596ef-6cea-41b6-97b5-d090af98aff8"},{"reference":"Encounter/1fcfdfab-7508-4bbc-85d1-1659a97d3d6e"},{"reference":"Observation/ac9cf581-45b7-4d1b-8662-8b92ad64abac"},{"reference":"Observation/0ea055be-6094-4fba-b52e-2982b1ebb0a3"},{"reference":"Condition/66d9212c-ce63-442e-bf23-d57b0ab03472"},{"reference":"Encounter/098c82e2-f165-4cf4-b4b0-52899959c528"}]},"request":{"method":"PUT","url":"MeasureReport/c52de551-0aaa-47fb-8ad4-0c52193111e4"}},{"fullUrl":"Observation/ac9cf581-45b7-4d1b-8662-8b92ad64abac","resource":{"resourceType":"Observation","id":"ac9cf581-45b7-4d1b-8662-8b92ad64abac","meta":{"profile":["http://hl7.org/fhir/us/qicore/StructureDefinition/qicore-observation-screening-assessment"]},"status":"final","category":[{"coding":[{"system":"http://terminology.hl7.org/CodeSystem/observation-category","code":"survey","display":"Survey"}]}],"code":{"coding":[{"system":"http://loinc.org","version":"2.76","code":"44261-6"}]},"subject":{"reference":"Patient/fdc596ef-6cea-41b6-97b5-d090af98aff8"},"effectiveDateTime":"2025-02-25T14:35:00+00:00","valueInteger":10},"request":{"method":"PUT","url":"Observation/ac9cf581-45b7-4d1b-8662-8b92ad64abac"}},{"fullUrl":"Patient/fdc596ef-6cea-41b6-97b5-d090af98aff8","resource":{"resourceType":"Patient","id":"fdc596ef-6cea-41b6-97b5-d090af98aff8","meta":{"profile":["http://hl7.org/fhir/us/qicore/StructureDefinition/qicore-patient"]},"extension":[{"url":"http://hl7.org/fhir/us/core/StructureDefinition/us-core-race","extension":[{"url":"ombCategory","valueCoding":{"system":"urn:oid:2.16.840.1.113883.6.238","code":"2106-3","display":"White"}},{"url":"text","valueString":"White"}]},{"url":"http://hl7.org/fhir/us/core/StructureDefinition/us-core-ethnicity","extension":[{"url":"ombCategory","valueCoding":{"system":"urn:oid:2.16.840.1.113883.6.238","code":"2186-5","display":"Not Hispanic or Latino"}},{"url":"text","valueString":"Not Hispanic or Latino"}]}],"identifier":[{"type":{"coding":[{"system":"http://terminology.hl7.org/CodeSystem/v2-0203","code":"MR"}]},"system":"https://bonnie-fhir.healthit.gov/","value":"6546841651641616513421"}],"name":[{"family":"DENEXPopStrat2Fail","given":["HospiceDxStartsAfterMP"]}],"gender":"female","birthDate":"1953-01-01"},"request":{"method":"PUT","url":"Patient/fdc596ef-6cea-41b6-97b5-d090af98aff8"}},{"fullUrl":"Observation/0ea055be-6094-4fba-b52e-2982b1ebb0a3","resource":{"resourceType":"Observation","id":"0ea055be-6094-4fba-b52e-2982b1ebb0a3","meta":{"profile":["http://hl7.org/fhir/us/qicore/StructureDefinition/qicore-observation-screening-assessment"]},"status":"final","category":[{"coding":[{"system":"http://terminology.hl7.org/CodeSystem/observation-category","code":"survey","display":"Survey"}]}],"code":{"coding":[{"system":"http://loinc.org","version":"2.76","code":"44261-6"}]},"subject":{"reference":"Patient/fdc596ef-6cea-41b6-97b5-d090af98aff8"},"effectiveDateTime":"2026-02-19T14:30:00+00:00","valueInteger":3},"request":{"method":"PUT","url":"Observation/0ea055be-6094-4fba-b52e-2982b1ebb0a3"}}]}