{"resourceType":"Bundle","id":"tests-879bf9f1-3681-4e7e-bb6a-d140b0e94077-bundle","type":"transaction","entry":[{"fullUrl":"Encounter/ac673a33-318c-4f58-9f28-def62c8a65d2","resource":{"resourceType":"Encounter","id":"ac673a33-318c-4f58-9f28-def62c8a65d2","meta":{"profile":["http://hl7.org/fhir/us/qicore/StructureDefinition/qicore-encounter"]},"status":"finished","class":{"system":"http://terminology.hl7.org/CodeSystem/v3-ActCode","code":"AMB","display":"ambulatory"},"type":[{"coding":[{"system":"http://www.ama-assn.org/go/cpt","version":"2024","code":"90791"}]}],"subject":{"reference":"Patient/879bf9f1-3681-4e7e-bb6a-d140b0e94077"},"period":{"start":"2025-02-25T14:30:00+00:00","end":"2025-02-25T14:50:00+00:00"},"length":{"value":0,"unit":"days"}},"request":{"method":"PUT","url":"Encounter/ac673a33-318c-4f58-9f28-def62c8a65d2"}},{"fullUrl":"Observation/a2b9baa9-1af3-41ac-b54c-1c5e9ca24932","resource":{"resourceType":"Observation","id":"a2b9baa9-1af3-41ac-b54c-1c5e9ca24932","meta":{"profile":["http://hl7.org/fhir/us/qicore/StructureDefinition/qicore-observation-screening-assessment"]},"status":"final","category":[{"coding":[{"system":"http://terminology.hl7.org/CodeSystem/observation-category","code":"survey","display":"Survey"}]}],"code":{"coding":[{"system":"http://loinc.org","version":"2.76","code":"44261-6"}]},"subject":{"reference":"Patient/879bf9f1-3681-4e7e-bb6a-d140b0e94077"},"effectiveDateTime":"2026-02-19T14:30:00+00:00","valueInteger":3},"request":{"method":"PUT","url":"Observation/a2b9baa9-1af3-41ac-b54c-1c5e9ca24932"}},{"fullUrl":"MeasureReport/243b41d1-b23b-4aba-82f3-a9380e91cdfd","resource":{"resourceType":"MeasureReport","id":"243b41d1-b23b-4aba-82f3-a9380e91cdfd","meta":{"profile":["http://hl7.org/fhir/us/cqfmeasures/StructureDefinition/test-case-cqfm"]},"contained":[{"resourceType":"Parameters","id":"b92d84ac-eb27-4e91-adb1-67ad752a7788-parameters","parameter":[{"name":"subject","valueString":"879bf9f1-3681-4e7e-bb6a-d140b0e94077"}]}],"extension":[{"url":"http://hl7.org/fhir/StructureDefinition/cqf-inputParameters","valueReference":{"reference":"#b92d84ac-eb27-4e91-adb1-67ad752a7788-parameters"}},{"url":"http://hl7.org/fhir/us/cqfmeasures/StructureDefinition/cqfm-testCaseDescription","valueMarkdown":"Patient is 15 years old and has a Major Depression diagnosis and PHQ-9>9 during the denom ID period. Patient had Personality Disorder diagnosis before end of MAP. Should be in denominator exclusion for Strat 1. "}],"modifierExtension":[{"url":"http://hl7.org/fhir/us/cqfmeasures/StructureDefinition/cqfm-isTestCase","valueBoolean":true}],"status":"complete","type":"individual","measure":"https://madie.cms.gov/Measure/CMS159FHIRDepressionRemissionatTwelveMonths","period":{"start":"2026-01-01","end":"2026-12-31"},"group":[{"id":"Group_1","population":[{"id":"InitialPopulation_1","code":{"coding":[{"system":"http://terminology.hl7.org/CodeSystem/measure-population","code":"initial-population","display":"Initial Population"}]},"count":1},{"id":"Denominator_1","code":{"coding":[{"system":"http://terminology.hl7.org/CodeSystem/measure-population","code":"denominator","display":"Denominator"}]},"count":1},{"id":"DenominatorExclusion_1","code":{"coding":[{"system":"http://terminology.hl7.org/CodeSystem/measure-population","code":"denominator-exclusion","display":"Denominator Exclusion"}]},"count":1},{"id":"Numerator_1","code":{"coding":[{"system":"http://terminology.hl7.org/CodeSystem/measure-population","code":"numerator","display":"Numerator"}]},"count":0}],"measureScore":{"value":1.0}}],"evaluatedResource":[{"reference":"Patient/879bf9f1-3681-4e7e-bb6a-d140b0e94077"},{"reference":"Encounter/ac673a33-318c-4f58-9f28-def62c8a65d2"},{"reference":"Observation/c47946c2-70c9-498e-bc97-7a35b3067a20"},{"reference":"Observation/a2b9baa9-1af3-41ac-b54c-1c5e9ca24932"},{"reference":"Condition/c24beea5-5b06-4726-b563-6254fe82f3f7"},{"reference":"Condition/4900d7e1-5ae2-4750-a3b1-1a49357dd55d"},{"reference":"Condition/f17fa4f9-5bb8-4cb4-be0f-ce269b67d795"}]},"request":{"method":"PUT","url":"MeasureReport/243b41d1-b23b-4aba-82f3-a9380e91cdfd"}},{"fullUrl":"Observation/c47946c2-70c9-498e-bc97-7a35b3067a20","resource":{"resourceType":"Observation","id":"c47946c2-70c9-498e-bc97-7a35b3067a20","meta":{"profile":["http://hl7.org/fhir/us/qicore/StructureDefinition/qicore-observation-screening-assessment"]},"status":"final","category":[{"coding":[{"system":"http://terminology.hl7.org/CodeSystem/observation-category","code":"survey","display":"Survey"}]}],"code":{"coding":[{"system":"http://loinc.org","version":"2.76","code":"44261-6"}]},"subject":{"reference":"Patient/879bf9f1-3681-4e7e-bb6a-d140b0e94077"},"effectiveDateTime":"2025-02-25T14:35:00+00:00","valueInteger":10},"request":{"method":"PUT","url":"Observation/c47946c2-70c9-498e-bc97-7a35b3067a20"}},{"fullUrl":"Patient/879bf9f1-3681-4e7e-bb6a-d140b0e94077","resource":{"resourceType":"Patient","id":"879bf9f1-3681-4e7e-bb6a-d140b0e94077","meta":{"profile":["http://hl7.org/fhir/us/qicore/StructureDefinition/qicore-patient"]},"extension":[{"url":"http://hl7.org/fhir/us/core/StructureDefinition/us-core-race","extension":[{"url":"ombCategory","valueCoding":{"system":"urn:oid:2.16.840.1.113883.6.238","code":"2106-3","display":"White"}},{"url":"text","valueString":"White"}]},{"url":"http://hl7.org/fhir/us/core/StructureDefinition/us-core-ethnicity","extension":[{"url":"ombCategory","valueCoding":{"system":"urn:oid:2.16.840.1.113883.6.238","code":"2186-5","display":"Not Hispanic or Latino"}},{"url":"text","valueString":"Not Hispanic or Latino"}]}],"identifier":[{"type":{"coding":[{"system":"http://terminology.hl7.org/CodeSystem/v2-0203","code":"MR"}]},"system":"https://bonnie-fhir.healthit.gov/","value":"630307c90968f8012247825d"}],"name":[{"family":"DENEXPopStrat1Pass","given":["PersDisordDxBeforeEndofMP"]}],"gender":"female","birthDate":"2011-01-01"},"request":{"method":"PUT","url":"Patient/879bf9f1-3681-4e7e-bb6a-d140b0e94077"}},{"fullUrl":"Condition/f17fa4f9-5bb8-4cb4-be0f-ce269b67d795","resource":{"resourceType":"Condition","id":"f17fa4f9-5bb8-4cb4-be0f-ce269b67d795","meta":{"profile":["http://hl7.org/fhir/us/qicore/StructureDefinition/qicore-condition-encounter-diagnosis"]},"clinicalStatus":{"coding":[{"system":"http://terminology.hl7.org/CodeSystem/condition-clinical","code":"active","display":"active"}]},"verificationStatus":{"coding":[{"system":"http://terminology.hl7.org/CodeSystem/condition-ver-status","code":"confirmed"}]},"category":[{"coding":[{"system":"http://terminology.hl7.org/CodeSystem/condition-category","code":"encounter-diagnosis","display":"Encounter Diagnosis"}]}],"code":{"coding":[{"system":"http://snomed.info/sct","version":"http://snomed.info/sct/731000124108/version/20240301","code":"191765005"}]},"subject":{"reference":"Patient/879bf9f1-3681-4e7e-bb6a-d140b0e94077"},"onsetDateTime":"2025-02-25T14:35:00+00:00"},"request":{"method":"PUT","url":"Condition/f17fa4f9-5bb8-4cb4-be0f-ce269b67d795"}},{"fullUrl":"Condition/c24beea5-5b06-4726-b563-6254fe82f3f7","resource":{"resourceType":"Condition","id":"c24beea5-5b06-4726-b563-6254fe82f3f7","meta":{"profile":["http://hl7.org/fhir/us/qicore/StructureDefinition/qicore-condition-problems-health-concerns"]},"clinicalStatus":{"coding":[{"system":"http://terminology.hl7.org/CodeSystem/condition-clinical","code":"active","display":"active"}]},"verificationStatus":{"coding":[{"system":"http://terminology.hl7.org/CodeSystem/condition-ver-status","code":"confirmed"}]},"category":[{"coding":[{"system":"http://terminology.hl7.org/CodeSystem/condition-category","code":"problem-list-item","display":"Problem List Item"}]}],"code":{"coding":[{"system":"http://hl7.org/fhir/sid/icd-10-cm","version":"2024","code":"F32.9"}]},"subject":{"reference":"Patient/879bf9f1-3681-4e7e-bb6a-d140b0e94077"},"onsetDateTime":"2025-02-25T14:35:00+00:00"},"request":{"method":"PUT","url":"Condition/c24beea5-5b06-4726-b563-6254fe82f3f7"}},{"fullUrl":"Bundle/630307c90968f8012247825d","resource":{"resourceType":"Bundle","id":"630307c90968f8012247825d","type":"transaction","entry":[{"fullUrl":"https://madie.cms.gov/Patient/879bf9f1-3681-4e7e-bb6a-d140b0e94077","resource":{"resourceType":"Patient","id":"879bf9f1-3681-4e7e-bb6a-d140b0e94077","meta":{"profile":["http://hl7.org/fhir/us/qicore/StructureDefinition/qicore-patient"]},"extension":[{"url":"http://hl7.org/fhir/us/core/StructureDefinition/us-core-race","extension":[{"url":"ombCategory","valueCoding":{"system":"urn:oid:2.16.840.1.113883.6.238","code":"2106-3","display":"White"}},{"url":"text","valueString":"White"}]},{"url":"http://hl7.org/fhir/us/core/StructureDefinition/us-core-ethnicity","extension":[{"url":"ombCategory","valueCoding":{"system":"urn:oid:2.16.840.1.113883.6.238","code":"2186-5","display":"Not Hispanic or Latino"}},{"url":"text","valueString":"Not Hispanic or Latino"}]}],"identifier":[{"type":{"coding":[{"system":"http://terminology.hl7.org/CodeSystem/v2-0203","code":"MR"}]},"system":"https://bonnie-fhir.healthit.gov/","value":"630307c90968f8012247825d"}],"name":[{"family":"DENEXPopStrat1Pass","given":["PersDisordDxBeforeEndofMP"]}],"gender":"female","birthDate":"2011-01-01"},"request":{"method":"PUT","url":"Patient/879bf9f1-3681-4e7e-bb6a-d140b0e94077"}},{"fullUrl":"https://madie.cms.gov/Encounter/ac673a33-318c-4f58-9f28-def62c8a65d2","resource":{"resourceType":"Encounter","id":"ac673a33-318c-4f58-9f28-def62c8a65d2","meta":{"profile":["http://hl7.org/fhir/us/qicore/StructureDefinition/qicore-encounter"]},"status":"finished","class":{"system":"http://terminology.hl7.org/CodeSystem/v3-ActCode","code":"AMB","display":"ambulatory"},"type":[{"coding":[{"system":"http://www.ama-assn.org/go/cpt","version":"2024","code":"90791"}]}],"subject":{"reference":"Patient/879bf9f1-3681-4e7e-bb6a-d140b0e94077"},"period":{"start":"2025-02-25T14:30:00+00:00","end":"2025-02-25T14:50:00+00:00"},"length":{"value":0,"unit":"days"}},"request":{"method":"PUT","url":"Encounter/ac673a33-318c-4f58-9f28-def62c8a65d2"}},{"fullUrl":"https://madie.cms.gov/Observation/c47946c2-70c9-498e-bc97-7a35b3067a20","resource":{"resourceType":"Observation","id":"c47946c2-70c9-498e-bc97-7a35b3067a20","meta":{"profile":["http://hl7.org/fhir/us/qicore/StructureDefinition/qicore-observation-screening-assessment"]},"status":"final","category":[{"coding":[{"system":"http://terminology.hl7.org/CodeSystem/observation-category","code":"survey","display":"Survey"}]}],"code":{"coding":[{"system":"http://loinc.org","version":"2.76","code":"44261-6"}]},"subject":{"reference":"Patient/879bf9f1-3681-4e7e-bb6a-d140b0e94077"},"effectiveDateTime":"2025-02-25T14:35:00+00:00","valueInteger":10},"request":{"method":"PUT","url":"Observation/c47946c2-70c9-498e-bc97-7a35b3067a20"}},{"fullUrl":"https://madie.cms.gov/Observation/a2b9baa9-1af3-41ac-b54c-1c5e9ca24932","resource":{"resourceType":"Observation","id":"a2b9baa9-1af3-41ac-b54c-1c5e9ca24932","meta":{"profile":["http://hl7.org/fhir/us/qicore/StructureDefinition/qicore-observation-screening-assessment"]},"status":"final","category":[{"coding":[{"system":"http://terminology.hl7.org/CodeSystem/observation-category","code":"survey","display":"Survey"}]}],"code":{"coding":[{"system":"http://loinc.org","version":"2.76","code":"44261-6"}]},"subject":{"reference":"Patient/879bf9f1-3681-4e7e-bb6a-d140b0e94077"},"effectiveDateTime":"2026-02-19T14:30:00+00:00","valueInteger":3},"request":{"method":"PUT","url":"Observation/a2b9baa9-1af3-41ac-b54c-1c5e9ca24932"}},{"fullUrl":"https://madie.cms.gov/Condition/c24beea5-5b06-4726-b563-6254fe82f3f7","resource":{"resourceType":"Condition","id":"c24beea5-5b06-4726-b563-6254fe82f3f7","meta":{"profile":["http://hl7.org/fhir/us/qicore/StructureDefinition/qicore-condition-problems-health-concerns"]},"clinicalStatus":{"coding":[{"system":"http://terminology.hl7.org/CodeSystem/condition-clinical","code":"active","display":"active"}]},"verificationStatus":{"coding":[{"system":"http://terminology.hl7.org/CodeSystem/condition-ver-status","code":"confirmed"}]},"category":[{"coding":[{"system":"http://terminology.hl7.org/CodeSystem/condition-category","code":"problem-list-item","display":"Problem List Item"}]}],"code":{"coding":[{"system":"http://hl7.org/fhir/sid/icd-10-cm","version":"2024","code":"F32.9"}]},"subject":{"reference":"Patient/879bf9f1-3681-4e7e-bb6a-d140b0e94077"},"onsetDateTime":"2025-02-25T14:35:00+00:00"},"request":{"method":"PUT","url":"Condition/c24beea5-5b06-4726-b563-6254fe82f3f7"}},{"fullUrl":"https://madie.cms.gov/Condition/4900d7e1-5ae2-4750-a3b1-1a49357dd55d","resource":{"resourceType":"Condition","id":"4900d7e1-5ae2-4750-a3b1-1a49357dd55d","meta":{"profile":["http://hl7.org/fhir/us/qicore/StructureDefinition/qicore-condition-problems-health-concerns"]},"clinicalStatus":{"coding":[{"system":"http://terminology.hl7.org/CodeSystem/condition-clinical","code":"active","display":"active"}]},"verificationStatus":{"coding":[{"system":"http://terminology.hl7.org/CodeSystem/condition-ver-status","code":"confirmed"}]},"category":[{"coding":[{"system":"http://terminology.hl7.org/CodeSystem/condition-category","code":"problem-list-item","display":"Problem List Item"}]}],"code":{"coding":[{"system":"http://snomed.info/sct","version":"http://snomed.info/sct/731000124108/version/20240301","code":"191765005"}]},"subject":{"reference":"Patient/879bf9f1-3681-4e7e-bb6a-d140b0e94077"},"onsetDateTime":"2025-02-25T14:35:00+00:00"},"request":{"method":"PUT","url":"Condition/4900d7e1-5ae2-4750-a3b1-1a49357dd55d"}},{"fullUrl":"https://madie.cms.gov/Condition/f17fa4f9-5bb8-4cb4-be0f-ce269b67d795","resource":{"resourceType":"Condition","id":"f17fa4f9-5bb8-4cb4-be0f-ce269b67d795","meta":{"profile":["http://hl7.org/fhir/us/qicore/StructureDefinition/qicore-condition-encounter-diagnosis"]},"clinicalStatus":{"coding":[{"system":"http://terminology.hl7.org/CodeSystem/condition-clinical","code":"active","display":"active"}]},"verificationStatus":{"coding":[{"system":"http://terminology.hl7.org/CodeSystem/condition-ver-status","code":"confirmed"}]},"category":[{"coding":[{"system":"http://terminology.hl7.org/CodeSystem/condition-category","code":"encounter-diagnosis","display":"Encounter Diagnosis"}]}],"code":{"coding":[{"system":"http://snomed.info/sct","version":"http://snomed.info/sct/731000124108/version/20240301","code":"191765005"}]},"subject":{"reference":"Patient/879bf9f1-3681-4e7e-bb6a-d140b0e94077"},"onsetDateTime":"2025-02-25T14:35:00+00:00"},"request":{"method":"PUT","url":"Condition/f17fa4f9-5bb8-4cb4-be0f-ce269b67d795"}},{"fullUrl":"https://madie.cms.gov/MeasureReport/243b41d1-b23b-4aba-82f3-a9380e91cdfd","resource":{"resourceType":"MeasureReport","id":"243b41d1-b23b-4aba-82f3-a9380e91cdfd","meta":{"profile":["http://hl7.org/fhir/us/cqfmeasures/StructureDefinition/test-case-cqfm"]},"contained":[{"resourceType":"Parameters","id":"b92d84ac-eb27-4e91-adb1-67ad752a7788-parameters","parameter":[{"name":"subject","valueString":"879bf9f1-3681-4e7e-bb6a-d140b0e94077"}]}],"extension":[{"url":"http://hl7.org/fhir/StructureDefinition/cqf-inputParameters","valueReference":{"reference":"#b92d84ac-eb27-4e91-adb1-67ad752a7788-parameters"}},{"url":"http://hl7.org/fhir/us/cqfmeasures/StructureDefinition/cqfm-testCaseDescription","valueMarkdown":"Patient is 15 years old and has a Major Depression diagnosis and PHQ-9>9 during the denom ID period. Patient had Personality Disorder diagnosis before end of MAP. Should be in denominator exclusion for Strat 1. "}],"modifierExtension":[{"url":"http://hl7.org/fhir/us/cqfmeasures/StructureDefinition/cqfm-isTestCase","valueBoolean":true}],"status":"complete","type":"individual","measure":"https://madie.cms.gov/Measure/CMS159FHIRDepressionRemissionatTwelveMonths","period":{"start":"2026-01-01","end":"2026-12-31"},"group":[{"id":"Group_1","population":[{"id":"InitialPopulation_1","code":{"coding":[{"system":"http://terminology.hl7.org/CodeSystem/measure-population","code":"initial-population","display":"Initial Population"}]},"count":1},{"id":"Denominator_1","code":{"coding":[{"system":"http://terminology.hl7.org/CodeSystem/measure-population","code":"denominator","display":"Denominator"}]},"count":1},{"id":"DenominatorExclusion_1","code":{"coding":[{"system":"http://terminology.hl7.org/CodeSystem/measure-population","code":"denominator-exclusion","display":"Denominator Exclusion"}]},"count":1},{"id":"Numerator_1","code":{"coding":[{"system":"http://terminology.hl7.org/CodeSystem/measure-population","code":"numerator","display":"Numerator"}]},"count":0}],"measureScore":{"value":1.0}}],"evaluatedResource":[{"reference":"Patient/879bf9f1-3681-4e7e-bb6a-d140b0e94077"},{"reference":"Encounter/ac673a33-318c-4f58-9f28-def62c8a65d2"},{"reference":"Observation/c47946c2-70c9-498e-bc97-7a35b3067a20"},{"reference":"Observation/a2b9baa9-1af3-41ac-b54c-1c5e9ca24932"},{"reference":"Condition/c24beea5-5b06-4726-b563-6254fe82f3f7"},{"reference":"Condition/4900d7e1-5ae2-4750-a3b1-1a49357dd55d"},{"reference":"Condition/f17fa4f9-5bb8-4cb4-be0f-ce269b67d795"}]},"request":{"method":"PUT","url":"MeasureReport/243b41d1-b23b-4aba-82f3-a9380e91cdfd"}}]},"request":{"method":"PUT","url":"Bundle/630307c90968f8012247825d"}},{"fullUrl":"Condition/4900d7e1-5ae2-4750-a3b1-1a49357dd55d","resource":{"resourceType":"Condition","id":"4900d7e1-5ae2-4750-a3b1-1a49357dd55d","meta":{"profile":["http://hl7.org/fhir/us/qicore/StructureDefinition/qicore-condition-problems-health-concerns"]},"clinicalStatus":{"coding":[{"system":"http://terminology.hl7.org/CodeSystem/condition-clinical","code":"active","display":"active"}]},"verificationStatus":{"coding":[{"system":"http://terminology.hl7.org/CodeSystem/condition-ver-status","code":"confirmed"}]},"category":[{"coding":[{"system":"http://terminology.hl7.org/CodeSystem/condition-category","code":"problem-list-item","display":"Problem List Item"}]}],"code":{"coding":[{"system":"http://snomed.info/sct","version":"http://snomed.info/sct/731000124108/version/20240301","code":"191765005"}]},"subject":{"reference":"Patient/879bf9f1-3681-4e7e-bb6a-d140b0e94077"},"onsetDateTime":"2025-02-25T14:35:00+00:00"},"request":{"method":"PUT","url":"Condition/4900d7e1-5ae2-4750-a3b1-1a49357dd55d"}}]}