{"resourceType":"Bundle","id":"tests-cfe262d9-4bbe-4f41-9b5d-f16d55f4db31-bundle","type":"transaction","entry":[{"resource":{"resourceType":"Encounter","id":"e527fce4-1e3c-46c6-afbc-30a3219546fc","meta":{"profile":["http://hl7.org/fhir/us/qicore/StructureDefinition/qicore-encounter"]},"status":"finished","class":{"system":"http://terminology.hl7.org/CodeSystem/v3-ActCode","code":"AMB","display":"ambulatory"},"type":[{"coding":[{"system":"http://www.ama-assn.org/go/cpt","version":"2024","code":"90791"}]}],"subject":{"reference":"Patient/cfe262d9-4bbe-4f41-9b5d-f16d55f4db31"},"period":{"start":"2025-02-25T14:30:00+00:00","end":"2025-02-25T14:50:00+00:00"},"length":{"value":0,"unit":"days"}},"request":{"method":"PUT","url":"Encounter/e527fce4-1e3c-46c6-afbc-30a3219546fc"}},{"resource":{"resourceType":"Observation","id":"69fa8f9a-83e6-42f9-8116-dbbb3b39470a","meta":{"profile":["http://hl7.org/fhir/us/qicore/StructureDefinition/qicore-observation-screening-assessment"]},"status":"final","category":[{"coding":[{"system":"http://terminology.hl7.org/CodeSystem/observation-category","code":"survey","display":"Survey"}]}],"code":{"coding":[{"system":"http://loinc.org","version":"2.76","code":"44261-6"}]},"subject":{"reference":"Patient/cfe262d9-4bbe-4f41-9b5d-f16d55f4db31"},"effectiveDateTime":"2026-02-19T14:30:00+00:00","valueInteger":4},"request":{"method":"PUT","url":"Observation/69fa8f9a-83e6-42f9-8116-dbbb3b39470a"}},{"resource":{"resourceType":"MeasureReport","id":"ce876e1e-dcd2-406c-a535-0bcb23266707","meta":{"profile":["http://hl7.org/fhir/us/cqfmeasures/StructureDefinition/test-case-cqfm"]},"contained":[{"resourceType":"Parameters","id":"1de2e05d-f98f-4d50-8fa0-5fc546fcb638-parameters","parameter":[{"name":"subject","valueString":"cfe262d9-4bbe-4f41-9b5d-f16d55f4db31"}]}],"extension":[{"url":"http://hl7.org/fhir/StructureDefinition/cqf-inputParameters","valueReference":{"reference":"#1de2e05d-f98f-4d50-8fa0-5fc546fcb638-parameters"}},{"url":"http://hl7.org/fhir/us/cqfmeasures/StructureDefinition/cqfm-testCaseDescription","valueMarkdown":"Patient has a Major Depression diagnosis, an encounter with PHQ-9>9 during Denom ID period, and a PHQ-9<5 during the MAP. Patient should be in numerator for strat 2.  "}],"modifierExtension":[{"url":"http://hl7.org/fhir/us/cqfmeasures/StructureDefinition/cqfm-isTestCase","valueBoolean":true}],"status":"complete","type":"individual","measure":"https://madie.cms.gov/Measure/CMS159FHIRDepressionRemissionatTwelveMonths","period":{"start":"2026-01-01","end":"2026-12-31"},"group":[{"id":"Group_1","population":[{"id":"InitialPopulation_1","code":{"coding":[{"system":"http://terminology.hl7.org/CodeSystem/measure-population","code":"initial-population","display":"Initial Population"}]},"count":1},{"id":"Denominator_1","code":{"coding":[{"system":"http://terminology.hl7.org/CodeSystem/measure-population","code":"denominator","display":"Denominator"}]},"count":1},{"id":"DenominatorExclusion_1","code":{"coding":[{"system":"http://terminology.hl7.org/CodeSystem/measure-population","code":"denominator-exclusion","display":"Denominator Exclusion"}]},"count":0},{"id":"Numerator_1","code":{"coding":[{"system":"http://terminology.hl7.org/CodeSystem/measure-population","code":"numerator","display":"Numerator"}]},"count":1}],"measureScore":{"value":1.0}}],"evaluatedResource":[{"reference":"Patient/cfe262d9-4bbe-4f41-9b5d-f16d55f4db31"},{"reference":"Encounter/e527fce4-1e3c-46c6-afbc-30a3219546fc"},{"reference":"Observation/be5991b2-e794-41c6-a4a8-b9485f87c559"},{"reference":"Observation/69fa8f9a-83e6-42f9-8116-dbbb3b39470a"},{"reference":"Condition/bb642949-d3c6-48f9-97c7-27478fb8601a"}]},"request":{"method":"PUT","url":"MeasureReport/ce876e1e-dcd2-406c-a535-0bcb23266707"}},{"resource":{"resourceType":"Condition","id":"bb642949-d3c6-48f9-97c7-27478fb8601a","meta":{"profile":["http://hl7.org/fhir/us/qicore/StructureDefinition/qicore-condition-problems-health-concerns"]},"clinicalStatus":{"coding":[{"system":"http://terminology.hl7.org/CodeSystem/condition-clinical","code":"active","display":"active"}]},"verificationStatus":{"coding":[{"system":"http://terminology.hl7.org/CodeSystem/condition-ver-status","code":"confirmed"}]},"category":[{"coding":[{"system":"http://terminology.hl7.org/CodeSystem/condition-category","code":"problem-list-item","display":"Problem List Item"}]}],"code":{"coding":[{"system":"http://hl7.org/fhir/sid/icd-10-cm","version":"2024","code":"F32.9"}]},"subject":{"reference":"Patient/cfe262d9-4bbe-4f41-9b5d-f16d55f4db31"},"onsetDateTime":"2025-02-25T14:30:00+00:00"},"request":{"method":"PUT","url":"Condition/bb642949-d3c6-48f9-97c7-27478fb8601a"}},{"resource":{"resourceType":"Patient","id":"cfe262d9-4bbe-4f41-9b5d-f16d55f4db31","meta":{"profile":["http://hl7.org/fhir/us/qicore/StructureDefinition/qicore-patient"]},"extension":[{"url":"http://hl7.org/fhir/us/core/StructureDefinition/us-core-race","extension":[{"url":"ombCategory","valueCoding":{"system":"urn:oid:2.16.840.1.113883.6.238","code":"2106-3","display":"White"}},{"url":"text","valueString":"White"}]},{"url":"http://hl7.org/fhir/us/core/StructureDefinition/us-core-ethnicity","extension":[{"url":"ombCategory","valueCoding":{"system":"urn:oid:2.16.840.1.113883.6.238","code":"2186-5","display":"Not Hispanic or Latino"}},{"url":"text","valueString":"Not Hispanic or Latino"}]}],"identifier":[{"type":{"coding":[{"system":"http://terminology.hl7.org/CodeSystem/v2-0203","code":"MR"}]},"system":"https://bonnie-fhir.healthit.gov/","value":"630307cd0968f801224786f4"}],"name":[{"family":"NUMERPopStrat2Pass","given":["DXandAssessmentsWithinMAP"]}],"gender":"female","birthDate":"1927-01-01"},"request":{"method":"PUT","url":"Patient/cfe262d9-4bbe-4f41-9b5d-f16d55f4db31"}},{"resource":{"resourceType":"Observation","id":"be5991b2-e794-41c6-a4a8-b9485f87c559","meta":{"profile":["http://hl7.org/fhir/us/qicore/StructureDefinition/qicore-observation-screening-assessment"]},"status":"final","category":[{"coding":[{"system":"http://terminology.hl7.org/CodeSystem/observation-category","code":"survey","display":"Survey"}]}],"code":{"coding":[{"system":"http://loinc.org","version":"2.76","code":"44261-6"}]},"subject":{"reference":"Patient/cfe262d9-4bbe-4f41-9b5d-f16d55f4db31"},"effectiveDateTime":"2025-02-25T14:35:00+00:00","valueInteger":20},"request":{"method":"PUT","url":"Observation/be5991b2-e794-41c6-a4a8-b9485f87c559"}},{"resource":{"resourceType":"Bundle","id":"630307cd0968f801224786f4","type":"transaction","entry":[{"fullUrl":"https://madie.cms.gov/Patient/cfe262d9-4bbe-4f41-9b5d-f16d55f4db31","resource":{"resourceType":"Patient","id":"cfe262d9-4bbe-4f41-9b5d-f16d55f4db31","meta":{"profile":["http://hl7.org/fhir/us/qicore/StructureDefinition/qicore-patient"]},"extension":[{"url":"http://hl7.org/fhir/us/core/StructureDefinition/us-core-race","extension":[{"url":"ombCategory","valueCoding":{"system":"urn:oid:2.16.840.1.113883.6.238","code":"2106-3","display":"White"}},{"url":"text","valueString":"White"}]},{"url":"http://hl7.org/fhir/us/core/StructureDefinition/us-core-ethnicity","extension":[{"url":"ombCategory","valueCoding":{"system":"urn:oid:2.16.840.1.113883.6.238","code":"2186-5","display":"Not Hispanic or Latino"}},{"url":"text","valueString":"Not Hispanic or Latino"}]}],"identifier":[{"type":{"coding":[{"system":"http://terminology.hl7.org/CodeSystem/v2-0203","code":"MR"}]},"system":"https://bonnie-fhir.healthit.gov/","value":"630307cd0968f801224786f4"}],"name":[{"family":"NUMERPopStrat2Pass","given":["DXandAssessmentsWithinMAP"]}],"gender":"female","birthDate":"1927-01-01"},"request":{"method":"PUT","url":"Patient/cfe262d9-4bbe-4f41-9b5d-f16d55f4db31"}},{"fullUrl":"https://madie.cms.gov/Encounter/e527fce4-1e3c-46c6-afbc-30a3219546fc","resource":{"resourceType":"Encounter","id":"e527fce4-1e3c-46c6-afbc-30a3219546fc","meta":{"profile":["http://hl7.org/fhir/us/qicore/StructureDefinition/qicore-encounter"]},"status":"finished","class":{"system":"http://terminology.hl7.org/CodeSystem/v3-ActCode","code":"AMB","display":"ambulatory"},"type":[{"coding":[{"system":"http://www.ama-assn.org/go/cpt","version":"2024","code":"90791"}]}],"subject":{"reference":"Patient/cfe262d9-4bbe-4f41-9b5d-f16d55f4db31"},"period":{"start":"2025-02-25T14:30:00+00:00","end":"2025-02-25T14:50:00+00:00"},"length":{"value":0,"unit":"days"}},"request":{"method":"PUT","url":"Encounter/e527fce4-1e3c-46c6-afbc-30a3219546fc"}},{"fullUrl":"https://madie.cms.gov/Observation/be5991b2-e794-41c6-a4a8-b9485f87c559","resource":{"resourceType":"Observation","id":"be5991b2-e794-41c6-a4a8-b9485f87c559","meta":{"profile":["http://hl7.org/fhir/us/qicore/StructureDefinition/qicore-observation-screening-assessment"]},"status":"final","category":[{"coding":[{"system":"http://terminology.hl7.org/CodeSystem/observation-category","code":"survey","display":"Survey"}]}],"code":{"coding":[{"system":"http://loinc.org","version":"2.76","code":"44261-6"}]},"subject":{"reference":"Patient/cfe262d9-4bbe-4f41-9b5d-f16d55f4db31"},"effectiveDateTime":"2025-02-25T14:35:00+00:00","valueInteger":20},"request":{"method":"PUT","url":"Observation/be5991b2-e794-41c6-a4a8-b9485f87c559"}},{"fullUrl":"https://madie.cms.gov/Observation/69fa8f9a-83e6-42f9-8116-dbbb3b39470a","resource":{"resourceType":"Observation","id":"69fa8f9a-83e6-42f9-8116-dbbb3b39470a","meta":{"profile":["http://hl7.org/fhir/us/qicore/StructureDefinition/qicore-observation-screening-assessment"]},"status":"final","category":[{"coding":[{"system":"http://terminology.hl7.org/CodeSystem/observation-category","code":"survey","display":"Survey"}]}],"code":{"coding":[{"system":"http://loinc.org","version":"2.76","code":"44261-6"}]},"subject":{"reference":"Patient/cfe262d9-4bbe-4f41-9b5d-f16d55f4db31"},"effectiveDateTime":"2026-02-19T14:30:00+00:00","valueInteger":4},"request":{"method":"PUT","url":"Observation/69fa8f9a-83e6-42f9-8116-dbbb3b39470a"}},{"fullUrl":"https://madie.cms.gov/Condition/bb642949-d3c6-48f9-97c7-27478fb8601a","resource":{"resourceType":"Condition","id":"bb642949-d3c6-48f9-97c7-27478fb8601a","meta":{"profile":["http://hl7.org/fhir/us/qicore/StructureDefinition/qicore-condition-problems-health-concerns"]},"clinicalStatus":{"coding":[{"system":"http://terminology.hl7.org/CodeSystem/condition-clinical","code":"active","display":"active"}]},"verificationStatus":{"coding":[{"system":"http://terminology.hl7.org/CodeSystem/condition-ver-status","code":"confirmed"}]},"category":[{"coding":[{"system":"http://terminology.hl7.org/CodeSystem/condition-category","code":"problem-list-item","display":"Problem List Item"}]}],"code":{"coding":[{"system":"http://hl7.org/fhir/sid/icd-10-cm","version":"2024","code":"F32.9"}]},"subject":{"reference":"Patient/cfe262d9-4bbe-4f41-9b5d-f16d55f4db31"},"onsetDateTime":"2025-02-25T14:30:00+00:00"},"request":{"method":"PUT","url":"Condition/bb642949-d3c6-48f9-97c7-27478fb8601a"}},{"fullUrl":"https://madie.cms.gov/MeasureReport/ce876e1e-dcd2-406c-a535-0bcb23266707","resource":{"resourceType":"MeasureReport","id":"ce876e1e-dcd2-406c-a535-0bcb23266707","meta":{"profile":["http://hl7.org/fhir/us/cqfmeasures/StructureDefinition/test-case-cqfm"]},"contained":[{"resourceType":"Parameters","id":"1de2e05d-f98f-4d50-8fa0-5fc546fcb638-parameters","parameter":[{"name":"subject","valueString":"cfe262d9-4bbe-4f41-9b5d-f16d55f4db31"}]}],"extension":[{"url":"http://hl7.org/fhir/StructureDefinition/cqf-inputParameters","valueReference":{"reference":"#1de2e05d-f98f-4d50-8fa0-5fc546fcb638-parameters"}},{"url":"http://hl7.org/fhir/us/cqfmeasures/StructureDefinition/cqfm-testCaseDescription","valueMarkdown":"Patient has a Major Depression diagnosis, an encounter with PHQ-9>9 during Denom ID period, and a PHQ-9<5 during the MAP. Patient should be in numerator for strat 2.  "}],"modifierExtension":[{"url":"http://hl7.org/fhir/us/cqfmeasures/StructureDefinition/cqfm-isTestCase","valueBoolean":true}],"status":"complete","type":"individual","measure":"https://madie.cms.gov/Measure/CMS159FHIRDepressionRemissionatTwelveMonths","period":{"start":"2026-01-01","end":"2026-12-31"},"group":[{"id":"Group_1","population":[{"id":"InitialPopulation_1","code":{"coding":[{"system":"http://terminology.hl7.org/CodeSystem/measure-population","code":"initial-population","display":"Initial Population"}]},"count":1},{"id":"Denominator_1","code":{"coding":[{"system":"http://terminology.hl7.org/CodeSystem/measure-population","code":"denominator","display":"Denominator"}]},"count":1},{"id":"DenominatorExclusion_1","code":{"coding":[{"system":"http://terminology.hl7.org/CodeSystem/measure-population","code":"denominator-exclusion","display":"Denominator Exclusion"}]},"count":0},{"id":"Numerator_1","code":{"coding":[{"system":"http://terminology.hl7.org/CodeSystem/measure-population","code":"numerator","display":"Numerator"}]},"count":1}],"measureScore":{"value":1.0}}],"evaluatedResource":[{"reference":"Patient/cfe262d9-4bbe-4f41-9b5d-f16d55f4db31"},{"reference":"Encounter/e527fce4-1e3c-46c6-afbc-30a3219546fc"},{"reference":"Observation/be5991b2-e794-41c6-a4a8-b9485f87c559"},{"reference":"Observation/69fa8f9a-83e6-42f9-8116-dbbb3b39470a"},{"reference":"Condition/bb642949-d3c6-48f9-97c7-27478fb8601a"}]},"request":{"method":"PUT","url":"MeasureReport/ce876e1e-dcd2-406c-a535-0bcb23266707"}}]},"request":{"method":"PUT","url":"Bundle/630307cd0968f801224786f4"}}]}