{"resourceType":"Bundle","id":"tests-9d81b9ca-bbbf-4560-ba4d-61af313324e2-bundle","type":"transaction","entry":[{"fullUrl":"Condition/855a3b76-5347-4cb5-87a8-aed8bb5a38ed","resource":{"resourceType":"Condition","id":"855a3b76-5347-4cb5-87a8-aed8bb5a38ed","meta":{"profile":["http://hl7.org/fhir/us/qicore/StructureDefinition/qicore-condition-problems-health-concerns"]},"clinicalStatus":{"coding":[{"system":"http://terminology.hl7.org/CodeSystem/condition-clinical","code":"active","display":"active"}]},"verificationStatus":{"coding":[{"system":"http://terminology.hl7.org/CodeSystem/condition-ver-status","code":"confirmed"}]},"category":[{"coding":[{"system":"http://terminology.hl7.org/CodeSystem/condition-category","code":"problem-list-item","display":"Problem List Item"}]}],"code":{"coding":[{"system":"http://snomed.info/sct","version":"http://snomed.info/sct/731000124108/version/20240301","code":"111482003"}]},"subject":{"reference":"Patient/9d81b9ca-bbbf-4560-ba4d-61af313324e2"},"onsetDateTime":"2025-02-25T14:35:00+00:00"},"request":{"method":"PUT","url":"Condition/855a3b76-5347-4cb5-87a8-aed8bb5a38ed"}},{"fullUrl":"Encounter/b74989a9-298b-4dd0-8839-eb4bf74f6e44","resource":{"resourceType":"Encounter","id":"b74989a9-298b-4dd0-8839-eb4bf74f6e44","meta":{"profile":["http://hl7.org/fhir/us/qicore/StructureDefinition/qicore-encounter"]},"status":"finished","class":{"system":"http://terminology.hl7.org/CodeSystem/v3-ActCode","code":"AMB","display":"ambulatory"},"type":[{"coding":[{"system":"http://www.ama-assn.org/go/cpt","version":"2024","code":"90791"}]}],"subject":{"reference":"Patient/9d81b9ca-bbbf-4560-ba4d-61af313324e2"},"period":{"start":"2025-02-25T14:30:00+00:00","end":"2025-02-25T14:50:00+00:00"},"length":{"value":0,"unit":"days"}},"request":{"method":"PUT","url":"Encounter/b74989a9-298b-4dd0-8839-eb4bf74f6e44"}},{"fullUrl":"Condition/af6138da-76d9-465e-a150-f9326bec0049","resource":{"resourceType":"Condition","id":"af6138da-76d9-465e-a150-f9326bec0049","meta":{"profile":["http://hl7.org/fhir/us/qicore/StructureDefinition/qicore-condition-problems-health-concerns"]},"clinicalStatus":{"coding":[{"system":"http://terminology.hl7.org/CodeSystem/condition-clinical","code":"active","display":"active"}]},"verificationStatus":{"coding":[{"system":"http://terminology.hl7.org/CodeSystem/condition-ver-status","code":"confirmed"}]},"category":[{"coding":[{"system":"http://terminology.hl7.org/CodeSystem/condition-category","code":"problem-list-item","display":"Problem List Item"}]}],"code":{"coding":[{"system":"http://hl7.org/fhir/sid/icd-10-cm","version":"2024","code":"F32.9"}]},"subject":{"reference":"Patient/9d81b9ca-bbbf-4560-ba4d-61af313324e2"},"onsetDateTime":"2025-02-25T14:35:00+00:00"},"request":{"method":"PUT","url":"Condition/af6138da-76d9-465e-a150-f9326bec0049"}},{"fullUrl":"MeasureReport/0045da27-c0cb-4a77-84c6-4b5c056835ef","resource":{"resourceType":"MeasureReport","id":"0045da27-c0cb-4a77-84c6-4b5c056835ef","meta":{"profile":["http://hl7.org/fhir/us/cqfmeasures/StructureDefinition/test-case-cqfm"]},"contained":[{"resourceType":"Parameters","id":"959234c5-bf15-462c-ac0f-64ffa7dd2ff6-parameters","parameter":[{"name":"subject","valueString":"9d81b9ca-bbbf-4560-ba4d-61af313324e2"}]}],"extension":[{"url":"http://hl7.org/fhir/StructureDefinition/cqf-inputParameters","valueReference":{"reference":"#959234c5-bf15-462c-ac0f-64ffa7dd2ff6-parameters"}},{"url":"http://hl7.org/fhir/us/cqfmeasures/StructureDefinition/cqfm-testCaseDescription","valueMarkdown":"Patient is 15 years old and has a Major Depressive Dx and PHQ-9>9 during the denom ID period. Patient had Schizophrenia diagnosis before end of MAP. Should be in denominator exclusion for Strat 1. "}],"modifierExtension":[{"url":"http://hl7.org/fhir/us/cqfmeasures/StructureDefinition/cqfm-isTestCase","valueBoolean":true}],"status":"complete","type":"individual","measure":"https://madie.cms.gov/Measure/CMS159FHIRDepressionRemissionatTwelveMonths","period":{"start":"2026-01-01","end":"2026-12-31"},"group":[{"id":"Group_1","population":[{"id":"InitialPopulation_1","code":{"coding":[{"system":"http://terminology.hl7.org/CodeSystem/measure-population","code":"initial-population","display":"Initial Population"}]},"count":1},{"id":"Denominator_1","code":{"coding":[{"system":"http://terminology.hl7.org/CodeSystem/measure-population","code":"denominator","display":"Denominator"}]},"count":1},{"id":"DenominatorExclusion_1","code":{"coding":[{"system":"http://terminology.hl7.org/CodeSystem/measure-population","code":"denominator-exclusion","display":"Denominator Exclusion"}]},"count":1},{"id":"Numerator_1","code":{"coding":[{"system":"http://terminology.hl7.org/CodeSystem/measure-population","code":"numerator","display":"Numerator"}]},"count":0}],"measureScore":{"value":1.0}}],"evaluatedResource":[{"reference":"Patient/9d81b9ca-bbbf-4560-ba4d-61af313324e2"},{"reference":"Encounter/b74989a9-298b-4dd0-8839-eb4bf74f6e44"},{"reference":"Observation/d107e5b0-6c31-4c5f-bf21-ecd9d958a0bf"},{"reference":"Observation/78ceda47-36bc-4855-9107-90f9c12a7d99"},{"reference":"Condition/af6138da-76d9-465e-a150-f9326bec0049"},{"reference":"Condition/855a3b76-5347-4cb5-87a8-aed8bb5a38ed"}]},"request":{"method":"PUT","url":"MeasureReport/0045da27-c0cb-4a77-84c6-4b5c056835ef"}},{"fullUrl":"Observation/d107e5b0-6c31-4c5f-bf21-ecd9d958a0bf","resource":{"resourceType":"Observation","id":"d107e5b0-6c31-4c5f-bf21-ecd9d958a0bf","meta":{"profile":["http://hl7.org/fhir/us/qicore/StructureDefinition/qicore-observation-screening-assessment"]},"status":"final","category":[{"coding":[{"system":"http://terminology.hl7.org/CodeSystem/observation-category","code":"survey","display":"Survey"}]}],"code":{"coding":[{"system":"http://loinc.org","version":"2.76","code":"44261-6"}]},"subject":{"reference":"Patient/9d81b9ca-bbbf-4560-ba4d-61af313324e2"},"effectiveDateTime":"2025-02-25T14:35:00+00:00","valueInteger":10},"request":{"method":"PUT","url":"Observation/d107e5b0-6c31-4c5f-bf21-ecd9d958a0bf"}},{"fullUrl":"Bundle/630307ca0968f801224782d2","resource":{"resourceType":"Bundle","id":"630307ca0968f801224782d2","type":"transaction","entry":[{"fullUrl":"https://madie.cms.gov/Patient/9d81b9ca-bbbf-4560-ba4d-61af313324e2","resource":{"resourceType":"Patient","id":"9d81b9ca-bbbf-4560-ba4d-61af313324e2","meta":{"profile":["http://hl7.org/fhir/us/qicore/StructureDefinition/qicore-patient"]},"extension":[{"url":"http://hl7.org/fhir/us/core/StructureDefinition/us-core-race","extension":[{"url":"ombCategory","valueCoding":{"system":"urn:oid:2.16.840.1.113883.6.238","code":"2106-3","display":"White"}},{"url":"text","valueString":"White"}]},{"url":"http://hl7.org/fhir/us/core/StructureDefinition/us-core-ethnicity","extension":[{"url":"ombCategory","valueCoding":{"system":"urn:oid:2.16.840.1.113883.6.238","code":"2186-5","display":"Not Hispanic or Latino"}},{"url":"text","valueString":"Not Hispanic or Latino"}]}],"identifier":[{"type":{"coding":[{"system":"http://terminology.hl7.org/CodeSystem/v2-0203","code":"MR"}]},"system":"https://bonnie-fhir.healthit.gov/","value":"630307ca0968f801224782d2"}],"name":[{"family":"DENEXPopStrat1Pass","given":["SchizophreniaDxBeforeEndofMP"]}],"gender":"female","birthDate":"2011-01-01"},"request":{"method":"PUT","url":"Patient/9d81b9ca-bbbf-4560-ba4d-61af313324e2"}},{"fullUrl":"https://madie.cms.gov/Encounter/b74989a9-298b-4dd0-8839-eb4bf74f6e44","resource":{"resourceType":"Encounter","id":"b74989a9-298b-4dd0-8839-eb4bf74f6e44","meta":{"profile":["http://hl7.org/fhir/us/qicore/StructureDefinition/qicore-encounter"]},"status":"finished","class":{"system":"http://terminology.hl7.org/CodeSystem/v3-ActCode","code":"AMB","display":"ambulatory"},"type":[{"coding":[{"system":"http://www.ama-assn.org/go/cpt","version":"2024","code":"90791"}]}],"subject":{"reference":"Patient/9d81b9ca-bbbf-4560-ba4d-61af313324e2"},"period":{"start":"2025-02-25T14:30:00+00:00","end":"2025-02-25T14:50:00+00:00"},"length":{"value":0,"unit":"days"}},"request":{"method":"PUT","url":"Encounter/b74989a9-298b-4dd0-8839-eb4bf74f6e44"}},{"fullUrl":"https://madie.cms.gov/Observation/d107e5b0-6c31-4c5f-bf21-ecd9d958a0bf","resource":{"resourceType":"Observation","id":"d107e5b0-6c31-4c5f-bf21-ecd9d958a0bf","meta":{"profile":["http://hl7.org/fhir/us/qicore/StructureDefinition/qicore-observation-screening-assessment"]},"status":"final","category":[{"coding":[{"system":"http://terminology.hl7.org/CodeSystem/observation-category","code":"survey","display":"Survey"}]}],"code":{"coding":[{"system":"http://loinc.org","version":"2.76","code":"44261-6"}]},"subject":{"reference":"Patient/9d81b9ca-bbbf-4560-ba4d-61af313324e2"},"effectiveDateTime":"2025-02-25T14:35:00+00:00","valueInteger":10},"request":{"method":"PUT","url":"Observation/d107e5b0-6c31-4c5f-bf21-ecd9d958a0bf"}},{"fullUrl":"https://madie.cms.gov/Observation/78ceda47-36bc-4855-9107-90f9c12a7d99","resource":{"resourceType":"Observation","id":"78ceda47-36bc-4855-9107-90f9c12a7d99","meta":{"profile":["http://hl7.org/fhir/us/qicore/StructureDefinition/qicore-observation-screening-assessment"]},"status":"final","category":[{"coding":[{"system":"http://terminology.hl7.org/CodeSystem/observation-category","code":"survey","display":"Survey"}]}],"code":{"coding":[{"system":"http://loinc.org","version":"2.76","code":"44261-6"}]},"subject":{"reference":"Patient/9d81b9ca-bbbf-4560-ba4d-61af313324e2"},"effectiveDateTime":"2026-02-19T14:30:00+00:00","valueInteger":3},"request":{"method":"PUT","url":"Observation/78ceda47-36bc-4855-9107-90f9c12a7d99"}},{"fullUrl":"https://madie.cms.gov/Condition/af6138da-76d9-465e-a150-f9326bec0049","resource":{"resourceType":"Condition","id":"af6138da-76d9-465e-a150-f9326bec0049","meta":{"profile":["http://hl7.org/fhir/us/qicore/StructureDefinition/qicore-condition-problems-health-concerns"]},"clinicalStatus":{"coding":[{"system":"http://terminology.hl7.org/CodeSystem/condition-clinical","code":"active","display":"active"}]},"verificationStatus":{"coding":[{"system":"http://terminology.hl7.org/CodeSystem/condition-ver-status","code":"confirmed"}]},"category":[{"coding":[{"system":"http://terminology.hl7.org/CodeSystem/condition-category","code":"problem-list-item","display":"Problem List Item"}]}],"code":{"coding":[{"system":"http://hl7.org/fhir/sid/icd-10-cm","version":"2024","code":"F32.9"}]},"subject":{"reference":"Patient/9d81b9ca-bbbf-4560-ba4d-61af313324e2"},"onsetDateTime":"2025-02-25T14:35:00+00:00"},"request":{"method":"PUT","url":"Condition/af6138da-76d9-465e-a150-f9326bec0049"}},{"fullUrl":"https://madie.cms.gov/Condition/855a3b76-5347-4cb5-87a8-aed8bb5a38ed","resource":{"resourceType":"Condition","id":"855a3b76-5347-4cb5-87a8-aed8bb5a38ed","meta":{"profile":["http://hl7.org/fhir/us/qicore/StructureDefinition/qicore-condition-problems-health-concerns"]},"clinicalStatus":{"coding":[{"system":"http://terminology.hl7.org/CodeSystem/condition-clinical","code":"active","display":"active"}]},"verificationStatus":{"coding":[{"system":"http://terminology.hl7.org/CodeSystem/condition-ver-status","code":"confirmed"}]},"category":[{"coding":[{"system":"http://terminology.hl7.org/CodeSystem/condition-category","code":"problem-list-item","display":"Problem List Item"}]}],"code":{"coding":[{"system":"http://snomed.info/sct","version":"http://snomed.info/sct/731000124108/version/20240301","code":"111482003"}]},"subject":{"reference":"Patient/9d81b9ca-bbbf-4560-ba4d-61af313324e2"},"onsetDateTime":"2025-02-25T14:35:00+00:00"},"request":{"method":"PUT","url":"Condition/855a3b76-5347-4cb5-87a8-aed8bb5a38ed"}},{"fullUrl":"https://madie.cms.gov/MeasureReport/0045da27-c0cb-4a77-84c6-4b5c056835ef","resource":{"resourceType":"MeasureReport","id":"0045da27-c0cb-4a77-84c6-4b5c056835ef","meta":{"profile":["http://hl7.org/fhir/us/cqfmeasures/StructureDefinition/test-case-cqfm"]},"contained":[{"resourceType":"Parameters","id":"959234c5-bf15-462c-ac0f-64ffa7dd2ff6-parameters","parameter":[{"name":"subject","valueString":"9d81b9ca-bbbf-4560-ba4d-61af313324e2"}]}],"extension":[{"url":"http://hl7.org/fhir/StructureDefinition/cqf-inputParameters","valueReference":{"reference":"#959234c5-bf15-462c-ac0f-64ffa7dd2ff6-parameters"}},{"url":"http://hl7.org/fhir/us/cqfmeasures/StructureDefinition/cqfm-testCaseDescription","valueMarkdown":"Patient is 15 years old and has a Major Depressive Dx and PHQ-9>9 during the denom ID period. Patient had Schizophrenia diagnosis before end of MAP. Should be in denominator exclusion for Strat 1. "}],"modifierExtension":[{"url":"http://hl7.org/fhir/us/cqfmeasures/StructureDefinition/cqfm-isTestCase","valueBoolean":true}],"status":"complete","type":"individual","measure":"https://madie.cms.gov/Measure/CMS159FHIRDepressionRemissionatTwelveMonths","period":{"start":"2026-01-01","end":"2026-12-31"},"group":[{"id":"Group_1","population":[{"id":"InitialPopulation_1","code":{"coding":[{"system":"http://terminology.hl7.org/CodeSystem/measure-population","code":"initial-population","display":"Initial Population"}]},"count":1},{"id":"Denominator_1","code":{"coding":[{"system":"http://terminology.hl7.org/CodeSystem/measure-population","code":"denominator","display":"Denominator"}]},"count":1},{"id":"DenominatorExclusion_1","code":{"coding":[{"system":"http://terminology.hl7.org/CodeSystem/measure-population","code":"denominator-exclusion","display":"Denominator Exclusion"}]},"count":1},{"id":"Numerator_1","code":{"coding":[{"system":"http://terminology.hl7.org/CodeSystem/measure-population","code":"numerator","display":"Numerator"}]},"count":0}],"measureScore":{"value":1.0}}],"evaluatedResource":[{"reference":"Patient/9d81b9ca-bbbf-4560-ba4d-61af313324e2"},{"reference":"Encounter/b74989a9-298b-4dd0-8839-eb4bf74f6e44"},{"reference":"Observation/d107e5b0-6c31-4c5f-bf21-ecd9d958a0bf"},{"reference":"Observation/78ceda47-36bc-4855-9107-90f9c12a7d99"},{"reference":"Condition/af6138da-76d9-465e-a150-f9326bec0049"},{"reference":"Condition/855a3b76-5347-4cb5-87a8-aed8bb5a38ed"}]},"request":{"method":"PUT","url":"MeasureReport/0045da27-c0cb-4a77-84c6-4b5c056835ef"}}]},"request":{"method":"PUT","url":"Bundle/630307ca0968f801224782d2"}},{"fullUrl":"Observation/78ceda47-36bc-4855-9107-90f9c12a7d99","resource":{"resourceType":"Observation","id":"78ceda47-36bc-4855-9107-90f9c12a7d99","meta":{"profile":["http://hl7.org/fhir/us/qicore/StructureDefinition/qicore-observation-screening-assessment"]},"status":"final","category":[{"coding":[{"system":"http://terminology.hl7.org/CodeSystem/observation-category","code":"survey","display":"Survey"}]}],"code":{"coding":[{"system":"http://loinc.org","version":"2.76","code":"44261-6"}]},"subject":{"reference":"Patient/9d81b9ca-bbbf-4560-ba4d-61af313324e2"},"effectiveDateTime":"2026-02-19T14:30:00+00:00","valueInteger":3},"request":{"method":"PUT","url":"Observation/78ceda47-36bc-4855-9107-90f9c12a7d99"}},{"fullUrl":"Patient/9d81b9ca-bbbf-4560-ba4d-61af313324e2","resource":{"resourceType":"Patient","id":"9d81b9ca-bbbf-4560-ba4d-61af313324e2","meta":{"profile":["http://hl7.org/fhir/us/qicore/StructureDefinition/qicore-patient"]},"extension":[{"url":"http://hl7.org/fhir/us/core/StructureDefinition/us-core-race","extension":[{"url":"ombCategory","valueCoding":{"system":"urn:oid:2.16.840.1.113883.6.238","code":"2106-3","display":"White"}},{"url":"text","valueString":"White"}]},{"url":"http://hl7.org/fhir/us/core/StructureDefinition/us-core-ethnicity","extension":[{"url":"ombCategory","valueCoding":{"system":"urn:oid:2.16.840.1.113883.6.238","code":"2186-5","display":"Not Hispanic or Latino"}},{"url":"text","valueString":"Not Hispanic or Latino"}]}],"identifier":[{"type":{"coding":[{"system":"http://terminology.hl7.org/CodeSystem/v2-0203","code":"MR"}]},"system":"https://bonnie-fhir.healthit.gov/","value":"630307ca0968f801224782d2"}],"name":[{"family":"DENEXPopStrat1Pass","given":["SchizophreniaDxBeforeEndofMP"]}],"gender":"female","birthDate":"2011-01-01"},"request":{"method":"PUT","url":"Patient/9d81b9ca-bbbf-4560-ba4d-61af313324e2"}}]}