{"resourceType":"Bundle","id":"tests-cf1b6127-e944-4d6b-875e-e410f34a1880-bundle","type":"transaction","entry":[{"fullUrl":"Patient/cf1b6127-e944-4d6b-875e-e410f34a1880","resource":{"resourceType":"Patient","id":"cf1b6127-e944-4d6b-875e-e410f34a1880","meta":{"profile":["http://hl7.org/fhir/us/qicore/StructureDefinition/qicore-patient"]},"extension":[{"url":"http://hl7.org/fhir/us/core/StructureDefinition/us-core-race","extension":[{"url":"ombCategory","valueCoding":{"system":"urn:oid:2.16.840.1.113883.6.238","code":"2106-3","display":"White"}},{"url":"text","valueString":"White"}]},{"url":"http://hl7.org/fhir/us/core/StructureDefinition/us-core-ethnicity","extension":[{"url":"ombCategory","valueCoding":{"system":"urn:oid:2.16.840.1.113883.6.238","code":"2186-5","display":"Not Hispanic or Latino"}},{"url":"text","valueString":"Not Hispanic or Latino"}]}],"identifier":[{"type":{"coding":[{"system":"http://terminology.hl7.org/CodeSystem/v2-0203","code":"MR"}]},"system":"https://bonnie-fhir.healthit.gov/","value":"630307c50968f80122477cf7"}],"name":[{"family":"DENEXPopStrat1Pass","given":["PersDisordDxMeasureAssessPeriod"]}],"gender":"female","birthDate":"2012-01-01"},"request":{"method":"PUT","url":"Patient/cf1b6127-e944-4d6b-875e-e410f34a1880"}},{"fullUrl":"Observation/b5ca4c43-e1a3-4886-a22d-16e9b50417b8","resource":{"resourceType":"Observation","id":"b5ca4c43-e1a3-4886-a22d-16e9b50417b8","meta":{"profile":["http://hl7.org/fhir/us/qicore/StructureDefinition/qicore-observation-screening-assessment"]},"status":"final","category":[{"coding":[{"system":"http://terminology.hl7.org/CodeSystem/observation-category","code":"survey","display":"Survey"}]}],"code":{"coding":[{"system":"http://loinc.org","version":"2.76","code":"44261-6"}]},"subject":{"reference":"Patient/cf1b6127-e944-4d6b-875e-e410f34a1880"},"effectiveDateTime":"2025-02-25T14:35:00+00:00","valueInteger":10},"request":{"method":"PUT","url":"Observation/b5ca4c43-e1a3-4886-a22d-16e9b50417b8"}},{"fullUrl":"Condition/4a1b5a4f-4009-445c-88f3-4316d0cd1b28","resource":{"resourceType":"Condition","id":"4a1b5a4f-4009-445c-88f3-4316d0cd1b28","meta":{"profile":["http://hl7.org/fhir/us/qicore/StructureDefinition/qicore-condition-problems-health-concerns"]},"clinicalStatus":{"coding":[{"system":"http://terminology.hl7.org/CodeSystem/condition-clinical","code":"active","display":"active"}]},"verificationStatus":{"coding":[{"system":"http://terminology.hl7.org/CodeSystem/condition-ver-status","code":"confirmed"}]},"category":[{"coding":[{"system":"http://terminology.hl7.org/CodeSystem/condition-category","code":"problem-list-item","display":"Problem List Item"}]}],"code":{"coding":[{"system":"http://hl7.org/fhir/sid/icd-10-cm","version":"2024","code":"F32.9"}]},"subject":{"reference":"Patient/cf1b6127-e944-4d6b-875e-e410f34a1880"},"onsetDateTime":"2025-02-25T14:35:00+00:00"},"request":{"method":"PUT","url":"Condition/4a1b5a4f-4009-445c-88f3-4316d0cd1b28"}},{"fullUrl":"Encounter/ff55609f-b39b-4b1b-b45a-47939c095248","resource":{"resourceType":"Encounter","id":"ff55609f-b39b-4b1b-b45a-47939c095248","meta":{"profile":["http://hl7.org/fhir/us/qicore/StructureDefinition/qicore-encounter"]},"status":"finished","class":{"system":"http://terminology.hl7.org/CodeSystem/v3-ActCode","code":"AMB","display":"ambulatory"},"type":[{"coding":[{"system":"http://www.ama-assn.org/go/cpt","version":"2024","code":"90791"}]}],"subject":{"reference":"Patient/cf1b6127-e944-4d6b-875e-e410f34a1880"},"period":{"start":"2025-02-25T14:30:00+00:00","end":"2025-02-25T14:50:00+00:00"},"length":{"value":0,"unit":"days"}},"request":{"method":"PUT","url":"Encounter/ff55609f-b39b-4b1b-b45a-47939c095248"}},{"fullUrl":"Observation/e4ecb7a8-eb28-45ea-9f4e-b45700341e43","resource":{"resourceType":"Observation","id":"e4ecb7a8-eb28-45ea-9f4e-b45700341e43","meta":{"profile":["http://hl7.org/fhir/us/qicore/StructureDefinition/qicore-observation-screening-assessment"]},"status":"final","category":[{"coding":[{"system":"http://terminology.hl7.org/CodeSystem/observation-category","code":"survey","display":"Survey"}]}],"code":{"coding":[{"system":"http://loinc.org","version":"2.76","code":"44261-6"}]},"subject":{"reference":"Patient/cf1b6127-e944-4d6b-875e-e410f34a1880"},"effectiveDateTime":"2026-02-19T14:30:00+00:00","valueInteger":3},"request":{"method":"PUT","url":"Observation/e4ecb7a8-eb28-45ea-9f4e-b45700341e43"}},{"fullUrl":"Encounter/0adbff97-d046-41d7-a881-22da0cca23b6","resource":{"resourceType":"Encounter","id":"0adbff97-d046-41d7-a881-22da0cca23b6","meta":{"profile":["http://hl7.org/fhir/us/qicore/StructureDefinition/qicore-encounter"]},"status":"finished","class":{"system":"http://terminology.hl7.org/CodeSystem/v3-ActCode","code":"HH","display":"home health"},"type":[{"coding":[{"system":"http://snomed.info/sct","version":"http://snomed.info/sct/731000124108/version/20240301","code":"305284002"}]}],"subject":{"reference":"Patient/cf1b6127-e944-4d6b-875e-e410f34a1880"},"period":{"start":"2025-12-31T08:00:00+00:00","end":"2026-01-01T12:00:00+00:00"},"length":{"value":0,"unit":"days"}},"request":{"method":"PUT","url":"Encounter/0adbff97-d046-41d7-a881-22da0cca23b6"}},{"fullUrl":"Bundle/630307c50968f80122477cf7","resource":{"resourceType":"Bundle","id":"630307c50968f80122477cf7","type":"transaction","entry":[{"fullUrl":"https://madie.cms.gov/Patient/cf1b6127-e944-4d6b-875e-e410f34a1880","resource":{"resourceType":"Patient","id":"cf1b6127-e944-4d6b-875e-e410f34a1880","meta":{"profile":["http://hl7.org/fhir/us/qicore/StructureDefinition/qicore-patient"]},"extension":[{"url":"http://hl7.org/fhir/us/core/StructureDefinition/us-core-race","extension":[{"url":"ombCategory","valueCoding":{"system":"urn:oid:2.16.840.1.113883.6.238","code":"2106-3","display":"White"}},{"url":"text","valueString":"White"}]},{"url":"http://hl7.org/fhir/us/core/StructureDefinition/us-core-ethnicity","extension":[{"url":"ombCategory","valueCoding":{"system":"urn:oid:2.16.840.1.113883.6.238","code":"2186-5","display":"Not Hispanic or Latino"}},{"url":"text","valueString":"Not Hispanic or Latino"}]}],"identifier":[{"type":{"coding":[{"system":"http://terminology.hl7.org/CodeSystem/v2-0203","code":"MR"}]},"system":"https://bonnie-fhir.healthit.gov/","value":"630307c50968f80122477cf7"}],"name":[{"family":"DENEXPopStrat1Pass","given":["PersDisordDxMeasureAssessPeriod"]}],"gender":"female","birthDate":"2012-01-01"},"request":{"method":"PUT","url":"Patient/cf1b6127-e944-4d6b-875e-e410f34a1880"}},{"fullUrl":"https://madie.cms.gov/Encounter/ff55609f-b39b-4b1b-b45a-47939c095248","resource":{"resourceType":"Encounter","id":"ff55609f-b39b-4b1b-b45a-47939c095248","meta":{"profile":["http://hl7.org/fhir/us/qicore/StructureDefinition/qicore-encounter"]},"status":"finished","class":{"system":"http://terminology.hl7.org/CodeSystem/v3-ActCode","code":"AMB","display":"ambulatory"},"type":[{"coding":[{"system":"http://www.ama-assn.org/go/cpt","version":"2024","code":"90791"}]}],"subject":{"reference":"Patient/cf1b6127-e944-4d6b-875e-e410f34a1880"},"period":{"start":"2025-02-25T14:30:00+00:00","end":"2025-02-25T14:50:00+00:00"},"length":{"value":0,"unit":"days"}},"request":{"method":"PUT","url":"Encounter/ff55609f-b39b-4b1b-b45a-47939c095248"}},{"fullUrl":"https://madie.cms.gov/Observation/b5ca4c43-e1a3-4886-a22d-16e9b50417b8","resource":{"resourceType":"Observation","id":"b5ca4c43-e1a3-4886-a22d-16e9b50417b8","meta":{"profile":["http://hl7.org/fhir/us/qicore/StructureDefinition/qicore-observation-screening-assessment"]},"status":"final","category":[{"coding":[{"system":"http://terminology.hl7.org/CodeSystem/observation-category","code":"survey","display":"Survey"}]}],"code":{"coding":[{"system":"http://loinc.org","version":"2.76","code":"44261-6"}]},"subject":{"reference":"Patient/cf1b6127-e944-4d6b-875e-e410f34a1880"},"effectiveDateTime":"2025-02-25T14:35:00+00:00","valueInteger":10},"request":{"method":"PUT","url":"Observation/b5ca4c43-e1a3-4886-a22d-16e9b50417b8"}},{"fullUrl":"https://madie.cms.gov/Observation/e4ecb7a8-eb28-45ea-9f4e-b45700341e43","resource":{"resourceType":"Observation","id":"e4ecb7a8-eb28-45ea-9f4e-b45700341e43","meta":{"profile":["http://hl7.org/fhir/us/qicore/StructureDefinition/qicore-observation-screening-assessment"]},"status":"final","category":[{"coding":[{"system":"http://terminology.hl7.org/CodeSystem/observation-category","code":"survey","display":"Survey"}]}],"code":{"coding":[{"system":"http://loinc.org","version":"2.76","code":"44261-6"}]},"subject":{"reference":"Patient/cf1b6127-e944-4d6b-875e-e410f34a1880"},"effectiveDateTime":"2026-02-19T14:30:00+00:00","valueInteger":3},"request":{"method":"PUT","url":"Observation/e4ecb7a8-eb28-45ea-9f4e-b45700341e43"}},{"fullUrl":"https://madie.cms.gov/Condition/4a1b5a4f-4009-445c-88f3-4316d0cd1b28","resource":{"resourceType":"Condition","id":"4a1b5a4f-4009-445c-88f3-4316d0cd1b28","meta":{"profile":["http://hl7.org/fhir/us/qicore/StructureDefinition/qicore-condition-problems-health-concerns"]},"clinicalStatus":{"coding":[{"system":"http://terminology.hl7.org/CodeSystem/condition-clinical","code":"active","display":"active"}]},"verificationStatus":{"coding":[{"system":"http://terminology.hl7.org/CodeSystem/condition-ver-status","code":"confirmed"}]},"category":[{"coding":[{"system":"http://terminology.hl7.org/CodeSystem/condition-category","code":"problem-list-item","display":"Problem List Item"}]}],"code":{"coding":[{"system":"http://hl7.org/fhir/sid/icd-10-cm","version":"2024","code":"F32.9"}]},"subject":{"reference":"Patient/cf1b6127-e944-4d6b-875e-e410f34a1880"},"onsetDateTime":"2025-02-25T14:35:00+00:00"},"request":{"method":"PUT","url":"Condition/4a1b5a4f-4009-445c-88f3-4316d0cd1b28"}},{"fullUrl":"https://madie.cms.gov/Encounter/0adbff97-d046-41d7-a881-22da0cca23b6","resource":{"resourceType":"Encounter","id":"0adbff97-d046-41d7-a881-22da0cca23b6","meta":{"profile":["http://hl7.org/fhir/us/qicore/StructureDefinition/qicore-encounter"]},"status":"finished","class":{"system":"http://terminology.hl7.org/CodeSystem/v3-ActCode","code":"HH","display":"home health"},"type":[{"coding":[{"system":"http://snomed.info/sct","version":"http://snomed.info/sct/731000124108/version/20240301","code":"305284002"}]}],"subject":{"reference":"Patient/cf1b6127-e944-4d6b-875e-e410f34a1880"},"period":{"start":"2025-12-31T08:00:00+00:00","end":"2026-01-01T12:00:00+00:00"},"length":{"value":0,"unit":"days"}},"request":{"method":"PUT","url":"Encounter/0adbff97-d046-41d7-a881-22da0cca23b6"}},{"fullUrl":"https://madie.cms.gov/MeasureReport/11caf46f-26f9-40e0-80cf-66364803d333","resource":{"resourceType":"MeasureReport","id":"11caf46f-26f9-40e0-80cf-66364803d333","meta":{"profile":["http://hl7.org/fhir/us/cqfmeasures/StructureDefinition/test-case-cqfm"]},"contained":[{"resourceType":"Parameters","id":"8c38821b-bb30-4467-a97d-b79efc2de6f4-parameters","parameter":[{"name":"subject","valueString":"cf1b6127-e944-4d6b-875e-e410f34a1880"}]}],"extension":[{"url":"http://hl7.org/fhir/StructureDefinition/cqf-inputParameters","valueReference":{"reference":"#8c38821b-bb30-4467-a97d-b79efc2de6f4-parameters"}},{"url":"http://hl7.org/fhir/us/cqfmeasures/StructureDefinition/cqfm-testCaseDescription","valueMarkdown":"Patient is 13 years old and has a Major depression including remission DX and PHQ-9>9 during the denom ID period. Patient diagnosed with personality disorder before end of MAP. Should be in denominator exclusion for Strat 1. "}],"modifierExtension":[{"url":"http://hl7.org/fhir/us/cqfmeasures/StructureDefinition/cqfm-isTestCase","valueBoolean":true}],"status":"complete","type":"individual","measure":"https://madie.cms.gov/Measure/CMS159FHIRDepressionRemissionatTwelveMonths","period":{"start":"2026-01-01","end":"2026-12-31"},"group":[{"id":"Group_1","population":[{"id":"InitialPopulation_1","code":{"coding":[{"system":"http://terminology.hl7.org/CodeSystem/measure-population","code":"initial-population","display":"Initial Population"}]},"count":1},{"id":"Denominator_1","code":{"coding":[{"system":"http://terminology.hl7.org/CodeSystem/measure-population","code":"denominator","display":"Denominator"}]},"count":1},{"id":"DenominatorExclusion_1","code":{"coding":[{"system":"http://terminology.hl7.org/CodeSystem/measure-population","code":"denominator-exclusion","display":"Denominator Exclusion"}]},"count":1},{"id":"Numerator_1","code":{"coding":[{"system":"http://terminology.hl7.org/CodeSystem/measure-population","code":"numerator","display":"Numerator"}]},"count":0}],"measureScore":{"value":1.0}}],"evaluatedResource":[{"reference":"Patient/cf1b6127-e944-4d6b-875e-e410f34a1880"},{"reference":"Encounter/ff55609f-b39b-4b1b-b45a-47939c095248"},{"reference":"Observation/b5ca4c43-e1a3-4886-a22d-16e9b50417b8"},{"reference":"Observation/e4ecb7a8-eb28-45ea-9f4e-b45700341e43"},{"reference":"Condition/4a1b5a4f-4009-445c-88f3-4316d0cd1b28"},{"reference":"Encounter/0adbff97-d046-41d7-a881-22da0cca23b6"}]},"request":{"method":"PUT","url":"MeasureReport/11caf46f-26f9-40e0-80cf-66364803d333"}}]},"request":{"method":"PUT","url":"Bundle/630307c50968f80122477cf7"}},{"fullUrl":"MeasureReport/11caf46f-26f9-40e0-80cf-66364803d333","resource":{"resourceType":"MeasureReport","id":"11caf46f-26f9-40e0-80cf-66364803d333","meta":{"profile":["http://hl7.org/fhir/us/cqfmeasures/StructureDefinition/test-case-cqfm"]},"contained":[{"resourceType":"Parameters","id":"8c38821b-bb30-4467-a97d-b79efc2de6f4-parameters","parameter":[{"name":"subject","valueString":"cf1b6127-e944-4d6b-875e-e410f34a1880"}]}],"extension":[{"url":"http://hl7.org/fhir/StructureDefinition/cqf-inputParameters","valueReference":{"reference":"#8c38821b-bb30-4467-a97d-b79efc2de6f4-parameters"}},{"url":"http://hl7.org/fhir/us/cqfmeasures/StructureDefinition/cqfm-testCaseDescription","valueMarkdown":"Patient is 13 years old and has a Major depression including remission DX and PHQ-9>9 during the denom ID period. Patient diagnosed with personality disorder before end of MAP. Should be in denominator exclusion for Strat 1. "}],"modifierExtension":[{"url":"http://hl7.org/fhir/us/cqfmeasures/StructureDefinition/cqfm-isTestCase","valueBoolean":true}],"status":"complete","type":"individual","measure":"https://madie.cms.gov/Measure/CMS159FHIRDepressionRemissionatTwelveMonths","period":{"start":"2026-01-01","end":"2026-12-31"},"group":[{"id":"Group_1","population":[{"id":"InitialPopulation_1","code":{"coding":[{"system":"http://terminology.hl7.org/CodeSystem/measure-population","code":"initial-population","display":"Initial Population"}]},"count":1},{"id":"Denominator_1","code":{"coding":[{"system":"http://terminology.hl7.org/CodeSystem/measure-population","code":"denominator","display":"Denominator"}]},"count":1},{"id":"DenominatorExclusion_1","code":{"coding":[{"system":"http://terminology.hl7.org/CodeSystem/measure-population","code":"denominator-exclusion","display":"Denominator Exclusion"}]},"count":1},{"id":"Numerator_1","code":{"coding":[{"system":"http://terminology.hl7.org/CodeSystem/measure-population","code":"numerator","display":"Numerator"}]},"count":0}],"measureScore":{"value":1.0}}],"evaluatedResource":[{"reference":"Patient/cf1b6127-e944-4d6b-875e-e410f34a1880"},{"reference":"Encounter/ff55609f-b39b-4b1b-b45a-47939c095248"},{"reference":"Observation/b5ca4c43-e1a3-4886-a22d-16e9b50417b8"},{"reference":"Observation/e4ecb7a8-eb28-45ea-9f4e-b45700341e43"},{"reference":"Condition/4a1b5a4f-4009-445c-88f3-4316d0cd1b28"},{"reference":"Encounter/0adbff97-d046-41d7-a881-22da0cca23b6"}]},"request":{"method":"PUT","url":"MeasureReport/11caf46f-26f9-40e0-80cf-66364803d333"}}]}