{"resourceType":"Bundle","id":"tests-cfe7e63e-940a-4eaa-9bb8-738323aef838-bundle","type":"transaction","entry":[{"fullUrl":"Patient/cfe7e63e-940a-4eaa-9bb8-738323aef838","resource":{"resourceType":"Patient","id":"cfe7e63e-940a-4eaa-9bb8-738323aef838","meta":{"profile":["http://hl7.org/fhir/us/qicore/StructureDefinition/qicore-patient"]},"extension":[{"url":"http://hl7.org/fhir/us/core/StructureDefinition/us-core-race","extension":[{"url":"ombCategory","valueCoding":{"system":"urn:oid:2.16.840.1.113883.6.238","code":"2106-3","display":"White"}},{"url":"text","valueString":"White"}]},{"url":"http://hl7.org/fhir/us/core/StructureDefinition/us-core-ethnicity","extension":[{"url":"ombCategory","valueCoding":{"system":"urn:oid:2.16.840.1.113883.6.238","code":"2186-5","display":"Not Hispanic or Latino"}},{"url":"text","valueString":"Not Hispanic or Latino"}]}],"identifier":[{"type":{"coding":[{"system":"http://terminology.hl7.org/CodeSystem/v2-0203","code":"MR"}]},"system":"https://bonnie-fhir.healthit.gov/","value":"630307cd0968f801224786f4"}],"name":[{"family":"DENOMPopStrat1Pass","given":["NoFUAssess"]}],"gender":"female","birthDate":"2011-01-01"},"request":{"method":"PUT","url":"Patient/cfe7e63e-940a-4eaa-9bb8-738323aef838"}},{"fullUrl":"Observation/f5f0db1d-76f2-4a06-8364-fe465cbf4c0e","resource":{"resourceType":"Observation","id":"f5f0db1d-76f2-4a06-8364-fe465cbf4c0e","meta":{"profile":["http://hl7.org/fhir/us/qicore/StructureDefinition/qicore-observation-screening-assessment"]},"status":"final","category":[{"coding":[{"system":"http://terminology.hl7.org/CodeSystem/observation-category","code":"survey","display":"Survey"}]}],"code":{"coding":[{"system":"http://loinc.org","version":"2.76","code":"44261-6"}]},"subject":{"reference":"Patient/cfe7e63e-940a-4eaa-9bb8-738323aef838"},"effectiveDateTime":"2025-02-25T14:35:00+00:00","valueInteger":20},"request":{"method":"PUT","url":"Observation/f5f0db1d-76f2-4a06-8364-fe465cbf4c0e"}},{"fullUrl":"Encounter/6992c2a1-1d72-4a76-94c0-46a35c5f5519","resource":{"resourceType":"Encounter","id":"6992c2a1-1d72-4a76-94c0-46a35c5f5519","meta":{"profile":["http://hl7.org/fhir/us/qicore/StructureDefinition/qicore-encounter"]},"status":"finished","class":{"system":"http://terminology.hl7.org/CodeSystem/v3-ActCode","code":"AMB","display":"ambulatory"},"type":[{"coding":[{"system":"http://www.ama-assn.org/go/cpt","version":"2024","code":"90791"}]}],"subject":{"reference":"Patient/cfe7e63e-940a-4eaa-9bb8-738323aef838"},"period":{"start":"2025-02-25T14:30:00+00:00","end":"2025-02-25T14:50:00+00:00"},"length":{"value":0,"unit":"days"}},"request":{"method":"PUT","url":"Encounter/6992c2a1-1d72-4a76-94c0-46a35c5f5519"}},{"fullUrl":"Bundle/630307cd0968f801224786f4","resource":{"resourceType":"Bundle","id":"630307cd0968f801224786f4","type":"transaction","entry":[{"fullUrl":"https://madie.cms.gov/Patient/cfe7e63e-940a-4eaa-9bb8-738323aef838","resource":{"resourceType":"Patient","id":"cfe7e63e-940a-4eaa-9bb8-738323aef838","meta":{"profile":["http://hl7.org/fhir/us/qicore/StructureDefinition/qicore-patient"]},"extension":[{"url":"http://hl7.org/fhir/us/core/StructureDefinition/us-core-race","extension":[{"url":"ombCategory","valueCoding":{"system":"urn:oid:2.16.840.1.113883.6.238","code":"2106-3","display":"White"}},{"url":"text","valueString":"White"}]},{"url":"http://hl7.org/fhir/us/core/StructureDefinition/us-core-ethnicity","extension":[{"url":"ombCategory","valueCoding":{"system":"urn:oid:2.16.840.1.113883.6.238","code":"2186-5","display":"Not Hispanic or Latino"}},{"url":"text","valueString":"Not Hispanic or Latino"}]}],"identifier":[{"type":{"coding":[{"system":"http://terminology.hl7.org/CodeSystem/v2-0203","code":"MR"}]},"system":"https://bonnie-fhir.healthit.gov/","value":"630307cd0968f801224786f4"}],"name":[{"family":"DENOMPopStrat1Pass","given":["NoFUAssess"]}],"gender":"female","birthDate":"2011-01-01"},"request":{"method":"PUT","url":"Patient/cfe7e63e-940a-4eaa-9bb8-738323aef838"}},{"fullUrl":"https://madie.cms.gov/Encounter/6992c2a1-1d72-4a76-94c0-46a35c5f5519","resource":{"resourceType":"Encounter","id":"6992c2a1-1d72-4a76-94c0-46a35c5f5519","meta":{"profile":["http://hl7.org/fhir/us/qicore/StructureDefinition/qicore-encounter"]},"status":"finished","class":{"system":"http://terminology.hl7.org/CodeSystem/v3-ActCode","code":"AMB","display":"ambulatory"},"type":[{"coding":[{"system":"http://www.ama-assn.org/go/cpt","version":"2024","code":"90791"}]}],"subject":{"reference":"Patient/cfe7e63e-940a-4eaa-9bb8-738323aef838"},"period":{"start":"2025-02-25T14:30:00+00:00","end":"2025-02-25T14:50:00+00:00"},"length":{"value":0,"unit":"days"}},"request":{"method":"PUT","url":"Encounter/6992c2a1-1d72-4a76-94c0-46a35c5f5519"}},{"fullUrl":"https://madie.cms.gov/Observation/f5f0db1d-76f2-4a06-8364-fe465cbf4c0e","resource":{"resourceType":"Observation","id":"f5f0db1d-76f2-4a06-8364-fe465cbf4c0e","meta":{"profile":["http://hl7.org/fhir/us/qicore/StructureDefinition/qicore-observation-screening-assessment"]},"status":"final","category":[{"coding":[{"system":"http://terminology.hl7.org/CodeSystem/observation-category","code":"survey","display":"Survey"}]}],"code":{"coding":[{"system":"http://loinc.org","version":"2.76","code":"44261-6"}]},"subject":{"reference":"Patient/cfe7e63e-940a-4eaa-9bb8-738323aef838"},"effectiveDateTime":"2025-02-25T14:35:00+00:00","valueInteger":20},"request":{"method":"PUT","url":"Observation/f5f0db1d-76f2-4a06-8364-fe465cbf4c0e"}},{"fullUrl":"https://madie.cms.gov/Condition/944e00b0-46d7-4b45-82a5-7f7663c21611","resource":{"resourceType":"Condition","id":"944e00b0-46d7-4b45-82a5-7f7663c21611","meta":{"profile":["http://hl7.org/fhir/us/qicore/StructureDefinition/qicore-condition-problems-health-concerns"]},"clinicalStatus":{"coding":[{"system":"http://terminology.hl7.org/CodeSystem/condition-clinical","code":"active","display":"active"}]},"verificationStatus":{"coding":[{"system":"http://terminology.hl7.org/CodeSystem/condition-ver-status","code":"confirmed"}]},"category":[{"coding":[{"system":"http://terminology.hl7.org/CodeSystem/condition-category","code":"problem-list-item","display":"Problem List Item"}]}],"code":{"coding":[{"system":"http://hl7.org/fhir/sid/icd-10-cm","version":"2024","code":"F32.9"}]},"subject":{"reference":"Patient/cfe7e63e-940a-4eaa-9bb8-738323aef838"},"onsetDateTime":"2025-02-25T14:30:00+00:00"},"request":{"method":"PUT","url":"Condition/944e00b0-46d7-4b45-82a5-7f7663c21611"}},{"fullUrl":"https://madie.cms.gov/MeasureReport/7f32e962-a368-4f8c-b874-db25526d5d10","resource":{"resourceType":"MeasureReport","id":"7f32e962-a368-4f8c-b874-db25526d5d10","meta":{"profile":["http://hl7.org/fhir/us/cqfmeasures/StructureDefinition/test-case-cqfm"]},"contained":[{"resourceType":"Parameters","id":"6e32fa73-9c51-4cfe-bd47-cceac7abaa67-parameters","parameter":[{"name":"subject","valueString":"cfe7e63e-940a-4eaa-9bb8-738323aef838"}]}],"extension":[{"url":"http://hl7.org/fhir/StructureDefinition/cqf-inputParameters","valueReference":{"reference":"#6e32fa73-9c51-4cfe-bd47-cceac7abaa67-parameters"}},{"url":"http://hl7.org/fhir/us/cqfmeasures/StructureDefinition/cqfm-testCaseDescription","valueMarkdown":"Patient is 15 years old and has a Major Depression diagnosis and PHQ-9>9 during the denom ID period. Patient had no follow up assessment before end of MAP. Patient should be in denominator for strat 1.  "}],"modifierExtension":[{"url":"http://hl7.org/fhir/us/cqfmeasures/StructureDefinition/cqfm-isTestCase","valueBoolean":true}],"status":"complete","type":"individual","measure":"https://madie.cms.gov/Measure/CMS159FHIRDepressionRemissionatTwelveMonths","period":{"start":"2026-01-01","end":"2026-12-31"},"group":[{"id":"Group_1","population":[{"id":"InitialPopulation_1","code":{"coding":[{"system":"http://terminology.hl7.org/CodeSystem/measure-population","code":"initial-population","display":"Initial Population"}]},"count":1},{"id":"Denominator_1","code":{"coding":[{"system":"http://terminology.hl7.org/CodeSystem/measure-population","code":"denominator","display":"Denominator"}]},"count":1},{"id":"DenominatorExclusion_1","code":{"coding":[{"system":"http://terminology.hl7.org/CodeSystem/measure-population","code":"denominator-exclusion","display":"Denominator Exclusion"}]},"count":0},{"id":"Numerator_1","code":{"coding":[{"system":"http://terminology.hl7.org/CodeSystem/measure-population","code":"numerator","display":"Numerator"}]},"count":0}],"measureScore":{"value":1.0}}],"evaluatedResource":[{"reference":"Patient/cfe7e63e-940a-4eaa-9bb8-738323aef838"},{"reference":"Encounter/6992c2a1-1d72-4a76-94c0-46a35c5f5519"},{"reference":"Observation/f5f0db1d-76f2-4a06-8364-fe465cbf4c0e"},{"reference":"Condition/944e00b0-46d7-4b45-82a5-7f7663c21611"}]},"request":{"method":"PUT","url":"MeasureReport/7f32e962-a368-4f8c-b874-db25526d5d10"}}]},"request":{"method":"PUT","url":"Bundle/630307cd0968f801224786f4"}},{"fullUrl":"MeasureReport/7f32e962-a368-4f8c-b874-db25526d5d10","resource":{"resourceType":"MeasureReport","id":"7f32e962-a368-4f8c-b874-db25526d5d10","meta":{"profile":["http://hl7.org/fhir/us/cqfmeasures/StructureDefinition/test-case-cqfm"]},"contained":[{"resourceType":"Parameters","id":"6e32fa73-9c51-4cfe-bd47-cceac7abaa67-parameters","parameter":[{"name":"subject","valueString":"cfe7e63e-940a-4eaa-9bb8-738323aef838"}]}],"extension":[{"url":"http://hl7.org/fhir/StructureDefinition/cqf-inputParameters","valueReference":{"reference":"#6e32fa73-9c51-4cfe-bd47-cceac7abaa67-parameters"}},{"url":"http://hl7.org/fhir/us/cqfmeasures/StructureDefinition/cqfm-testCaseDescription","valueMarkdown":"Patient is 15 years old and has a Major Depression diagnosis and PHQ-9>9 during the denom ID period. Patient had no follow up assessment before end of MAP. Patient should be in denominator for strat 1.  "}],"modifierExtension":[{"url":"http://hl7.org/fhir/us/cqfmeasures/StructureDefinition/cqfm-isTestCase","valueBoolean":true}],"status":"complete","type":"individual","measure":"https://madie.cms.gov/Measure/CMS159FHIRDepressionRemissionatTwelveMonths","period":{"start":"2026-01-01","end":"2026-12-31"},"group":[{"id":"Group_1","population":[{"id":"InitialPopulation_1","code":{"coding":[{"system":"http://terminology.hl7.org/CodeSystem/measure-population","code":"initial-population","display":"Initial Population"}]},"count":1},{"id":"Denominator_1","code":{"coding":[{"system":"http://terminology.hl7.org/CodeSystem/measure-population","code":"denominator","display":"Denominator"}]},"count":1},{"id":"DenominatorExclusion_1","code":{"coding":[{"system":"http://terminology.hl7.org/CodeSystem/measure-population","code":"denominator-exclusion","display":"Denominator Exclusion"}]},"count":0},{"id":"Numerator_1","code":{"coding":[{"system":"http://terminology.hl7.org/CodeSystem/measure-population","code":"numerator","display":"Numerator"}]},"count":0}],"measureScore":{"value":1.0}}],"evaluatedResource":[{"reference":"Patient/cfe7e63e-940a-4eaa-9bb8-738323aef838"},{"reference":"Encounter/6992c2a1-1d72-4a76-94c0-46a35c5f5519"},{"reference":"Observation/f5f0db1d-76f2-4a06-8364-fe465cbf4c0e"},{"reference":"Condition/944e00b0-46d7-4b45-82a5-7f7663c21611"}]},"request":{"method":"PUT","url":"MeasureReport/7f32e962-a368-4f8c-b874-db25526d5d10"}},{"fullUrl":"Condition/944e00b0-46d7-4b45-82a5-7f7663c21611","resource":{"resourceType":"Condition","id":"944e00b0-46d7-4b45-82a5-7f7663c21611","meta":{"profile":["http://hl7.org/fhir/us/qicore/StructureDefinition/qicore-condition-problems-health-concerns"]},"clinicalStatus":{"coding":[{"system":"http://terminology.hl7.org/CodeSystem/condition-clinical","code":"active","display":"active"}]},"verificationStatus":{"coding":[{"system":"http://terminology.hl7.org/CodeSystem/condition-ver-status","code":"confirmed"}]},"category":[{"coding":[{"system":"http://terminology.hl7.org/CodeSystem/condition-category","code":"problem-list-item","display":"Problem List Item"}]}],"code":{"coding":[{"system":"http://hl7.org/fhir/sid/icd-10-cm","version":"2024","code":"F32.9"}]},"subject":{"reference":"Patient/cfe7e63e-940a-4eaa-9bb8-738323aef838"},"onsetDateTime":"2025-02-25T14:30:00+00:00"},"request":{"method":"PUT","url":"Condition/944e00b0-46d7-4b45-82a5-7f7663c21611"}}]}