{"resourceType":"Bundle","id":"tests-f96a2a48-8d71-49dc-9fde-eb45015151ff-bundle","type":"transaction","entry":[{"resource":{"resourceType":"Observation","id":"5b011f57-511e-41ce-bdbf-9407d1fdaff6","meta":{"profile":["http://hl7.org/fhir/us/qicore/StructureDefinition/qicore-observation-screening-assessment"]},"status":"final","category":[{"coding":[{"system":"http://terminology.hl7.org/CodeSystem/observation-category","code":"survey","display":"Survey"}]}],"code":{"coding":[{"system":"http://loinc.org","version":"2.76","code":"44261-6"}]},"subject":{"reference":"Patient/f96a2a48-8d71-49dc-9fde-eb45015151ff"},"effectiveDateTime":"2025-12-19T14:30:00+00:00","valueInteger":4},"request":{"method":"PUT","url":"Observation/5b011f57-511e-41ce-bdbf-9407d1fdaff6"}},{"resource":{"resourceType":"Bundle","id":"630307ce0968f80122478884","type":"transaction","entry":[{"fullUrl":"https://madie.cms.gov/Patient/f96a2a48-8d71-49dc-9fde-eb45015151ff","resource":{"resourceType":"Patient","id":"f96a2a48-8d71-49dc-9fde-eb45015151ff","meta":{"profile":["http://hl7.org/fhir/us/qicore/StructureDefinition/qicore-patient"]},"extension":[{"url":"http://hl7.org/fhir/us/core/StructureDefinition/us-core-race","extension":[{"url":"ombCategory","valueCoding":{"system":"urn:oid:2.16.840.1.113883.6.238","code":"2106-3","display":"White"}},{"url":"text","valueString":"White"}]},{"url":"http://hl7.org/fhir/us/core/StructureDefinition/us-core-ethnicity","extension":[{"url":"ombCategory","valueCoding":{"system":"urn:oid:2.16.840.1.113883.6.238","code":"2186-5","display":"Not Hispanic or Latino"}},{"url":"text","valueString":"Not Hispanic or Latino"}]}],"identifier":[{"type":{"coding":[{"system":"http://terminology.hl7.org/CodeSystem/v2-0203","code":"MR"}]},"system":"https://bonnie-fhir.healthit.gov/","value":"630307ce0968f80122478884"}],"name":[{"family":"NUMERPopStrat2Fail","given":["Strat2FUAssessment12MonthsAfterInitial"]}],"gender":"female","birthDate":"1970-01-01"},"request":{"method":"PUT","url":"Patient/f96a2a48-8d71-49dc-9fde-eb45015151ff"}},{"fullUrl":"https://madie.cms.gov/Encounter/25c4ff58-c92a-4695-b138-d92190da9678","resource":{"resourceType":"Encounter","id":"25c4ff58-c92a-4695-b138-d92190da9678","meta":{"profile":["http://hl7.org/fhir/us/qicore/StructureDefinition/qicore-encounter"]},"status":"finished","class":{"system":"http://terminology.hl7.org/CodeSystem/v3-ActCode","code":"AMB","display":"ambulatory"},"type":[{"coding":[{"system":"http://www.ama-assn.org/go/cpt","version":"2024","code":"90791"}]}],"subject":{"reference":"Patient/f96a2a48-8d71-49dc-9fde-eb45015151ff"},"period":{"start":"2025-02-25T14:30:00+00:00","end":"2025-02-25T14:50:00+00:00"},"length":{"value":0,"unit":"days"}},"request":{"method":"PUT","url":"Encounter/25c4ff58-c92a-4695-b138-d92190da9678"}},{"fullUrl":"https://madie.cms.gov/Observation/0f7f894c-ccfb-401f-a80f-a04c751f5510","resource":{"resourceType":"Observation","id":"0f7f894c-ccfb-401f-a80f-a04c751f5510","meta":{"profile":["http://hl7.org/fhir/us/qicore/StructureDefinition/qicore-observation-screening-assessment"]},"status":"final","category":[{"coding":[{"system":"http://terminology.hl7.org/CodeSystem/observation-category","code":"survey","display":"Survey"}]}],"code":{"coding":[{"system":"http://loinc.org","version":"2.76","code":"44261-6"}]},"subject":{"reference":"Patient/f96a2a48-8d71-49dc-9fde-eb45015151ff"},"effectiveDateTime":"2025-02-25T14:35:00+00:00","valueInteger":20},"request":{"method":"PUT","url":"Observation/0f7f894c-ccfb-401f-a80f-a04c751f5510"}},{"fullUrl":"https://madie.cms.gov/Observation/5b011f57-511e-41ce-bdbf-9407d1fdaff6","resource":{"resourceType":"Observation","id":"5b011f57-511e-41ce-bdbf-9407d1fdaff6","meta":{"profile":["http://hl7.org/fhir/us/qicore/StructureDefinition/qicore-observation-screening-assessment"]},"status":"final","category":[{"coding":[{"system":"http://terminology.hl7.org/CodeSystem/observation-category","code":"survey","display":"Survey"}]}],"code":{"coding":[{"system":"http://loinc.org","version":"2.76","code":"44261-6"}]},"subject":{"reference":"Patient/f96a2a48-8d71-49dc-9fde-eb45015151ff"},"effectiveDateTime":"2025-12-19T14:30:00+00:00","valueInteger":4},"request":{"method":"PUT","url":"Observation/5b011f57-511e-41ce-bdbf-9407d1fdaff6"}},{"fullUrl":"https://madie.cms.gov/Condition/a2cb3954-b298-44d5-a296-1262864d46f8","resource":{"resourceType":"Condition","id":"a2cb3954-b298-44d5-a296-1262864d46f8","meta":{"profile":["http://hl7.org/fhir/us/qicore/StructureDefinition/qicore-condition-problems-health-concerns"]},"clinicalStatus":{"coding":[{"system":"http://terminology.hl7.org/CodeSystem/condition-clinical","code":"active","display":"active"}]},"verificationStatus":{"coding":[{"system":"http://terminology.hl7.org/CodeSystem/condition-ver-status","code":"confirmed"}]},"category":[{"coding":[{"system":"http://terminology.hl7.org/CodeSystem/condition-category","code":"problem-list-item","display":"Problem List Item"}]}],"code":{"coding":[{"system":"http://hl7.org/fhir/sid/icd-10-cm","version":"2024","code":"F32.9"}]},"subject":{"reference":"Patient/f96a2a48-8d71-49dc-9fde-eb45015151ff"},"onsetDateTime":"2025-02-25T14:35:00+00:00"},"request":{"method":"PUT","url":"Condition/a2cb3954-b298-44d5-a296-1262864d46f8"}},{"fullUrl":"https://madie.cms.gov/MeasureReport/be205bbc-0345-4b15-a550-649f137fb1a6","resource":{"resourceType":"MeasureReport","id":"be205bbc-0345-4b15-a550-649f137fb1a6","meta":{"profile":["http://hl7.org/fhir/us/cqfmeasures/StructureDefinition/test-case-cqfm"]},"contained":[{"resourceType":"Parameters","id":"1f1c3486-b964-49fe-a521-148e1291820b-parameters","parameter":[{"name":"subject","valueString":"f96a2a48-8d71-49dc-9fde-eb45015151ff"}]}],"extension":[{"url":"http://hl7.org/fhir/StructureDefinition/cqf-inputParameters","valueReference":{"reference":"#1f1c3486-b964-49fe-a521-148e1291820b-parameters"}},{"url":"http://hl7.org/fhir/us/cqfmeasures/StructureDefinition/cqfm-testCaseDescription","valueMarkdown":"Patient is 55 years old and has a Major Depressive Dx, an encounter with PHQ-9>9 during Denom ID period and a PHQ-9<5 that occurred before start of MAP. Patient should be denom for strat 2 "}],"modifierExtension":[{"url":"http://hl7.org/fhir/us/cqfmeasures/StructureDefinition/cqfm-isTestCase","valueBoolean":true}],"status":"complete","type":"individual","measure":"https://madie.cms.gov/Measure/CMS159FHIRDepressionRemissionatTwelveMonths","period":{"start":"2026-01-01","end":"2026-12-31"},"group":[{"id":"Group_1","population":[{"id":"InitialPopulation_1","code":{"coding":[{"system":"http://terminology.hl7.org/CodeSystem/measure-population","code":"initial-population","display":"Initial Population"}]},"count":1},{"id":"Denominator_1","code":{"coding":[{"system":"http://terminology.hl7.org/CodeSystem/measure-population","code":"denominator","display":"Denominator"}]},"count":1},{"id":"DenominatorExclusion_1","code":{"coding":[{"system":"http://terminology.hl7.org/CodeSystem/measure-population","code":"denominator-exclusion","display":"Denominator Exclusion"}]},"count":0},{"id":"Numerator_1","code":{"coding":[{"system":"http://terminology.hl7.org/CodeSystem/measure-population","code":"numerator","display":"Numerator"}]},"count":0}],"measureScore":{"value":1.0}}],"evaluatedResource":[{"reference":"Patient/f96a2a48-8d71-49dc-9fde-eb45015151ff"},{"reference":"Encounter/25c4ff58-c92a-4695-b138-d92190da9678"},{"reference":"Observation/0f7f894c-ccfb-401f-a80f-a04c751f5510"},{"reference":"Observation/5b011f57-511e-41ce-bdbf-9407d1fdaff6"},{"reference":"Condition/a2cb3954-b298-44d5-a296-1262864d46f8"}]},"request":{"method":"PUT","url":"MeasureReport/be205bbc-0345-4b15-a550-649f137fb1a6"}}]},"request":{"method":"PUT","url":"Bundle/630307ce0968f80122478884"}},{"resource":{"resourceType":"Condition","id":"a2cb3954-b298-44d5-a296-1262864d46f8","meta":{"profile":["http://hl7.org/fhir/us/qicore/StructureDefinition/qicore-condition-problems-health-concerns"]},"clinicalStatus":{"coding":[{"system":"http://terminology.hl7.org/CodeSystem/condition-clinical","code":"active","display":"active"}]},"verificationStatus":{"coding":[{"system":"http://terminology.hl7.org/CodeSystem/condition-ver-status","code":"confirmed"}]},"category":[{"coding":[{"system":"http://terminology.hl7.org/CodeSystem/condition-category","code":"problem-list-item","display":"Problem List Item"}]}],"code":{"coding":[{"system":"http://hl7.org/fhir/sid/icd-10-cm","version":"2024","code":"F32.9"}]},"subject":{"reference":"Patient/f96a2a48-8d71-49dc-9fde-eb45015151ff"},"onsetDateTime":"2025-02-25T14:35:00+00:00"},"request":{"method":"PUT","url":"Condition/a2cb3954-b298-44d5-a296-1262864d46f8"}},{"resource":{"resourceType":"Patient","id":"f96a2a48-8d71-49dc-9fde-eb45015151ff","meta":{"profile":["http://hl7.org/fhir/us/qicore/StructureDefinition/qicore-patient"]},"extension":[{"url":"http://hl7.org/fhir/us/core/StructureDefinition/us-core-race","extension":[{"url":"ombCategory","valueCoding":{"system":"urn:oid:2.16.840.1.113883.6.238","code":"2106-3","display":"White"}},{"url":"text","valueString":"White"}]},{"url":"http://hl7.org/fhir/us/core/StructureDefinition/us-core-ethnicity","extension":[{"url":"ombCategory","valueCoding":{"system":"urn:oid:2.16.840.1.113883.6.238","code":"2186-5","display":"Not Hispanic or Latino"}},{"url":"text","valueString":"Not Hispanic or Latino"}]}],"identifier":[{"type":{"coding":[{"system":"http://terminology.hl7.org/CodeSystem/v2-0203","code":"MR"}]},"system":"https://bonnie-fhir.healthit.gov/","value":"630307ce0968f80122478884"}],"name":[{"family":"NUMERPopStrat2Fail","given":["Strat2FUAssessment12MonthsAfterInitial"]}],"gender":"female","birthDate":"1970-01-01"},"request":{"method":"PUT","url":"Patient/f96a2a48-8d71-49dc-9fde-eb45015151ff"}},{"resource":{"resourceType":"Observation","id":"0f7f894c-ccfb-401f-a80f-a04c751f5510","meta":{"profile":["http://hl7.org/fhir/us/qicore/StructureDefinition/qicore-observation-screening-assessment"]},"status":"final","category":[{"coding":[{"system":"http://terminology.hl7.org/CodeSystem/observation-category","code":"survey","display":"Survey"}]}],"code":{"coding":[{"system":"http://loinc.org","version":"2.76","code":"44261-6"}]},"subject":{"reference":"Patient/f96a2a48-8d71-49dc-9fde-eb45015151ff"},"effectiveDateTime":"2025-02-25T14:35:00+00:00","valueInteger":20},"request":{"method":"PUT","url":"Observation/0f7f894c-ccfb-401f-a80f-a04c751f5510"}},{"resource":{"resourceType":"Encounter","id":"25c4ff58-c92a-4695-b138-d92190da9678","meta":{"profile":["http://hl7.org/fhir/us/qicore/StructureDefinition/qicore-encounter"]},"status":"finished","class":{"system":"http://terminology.hl7.org/CodeSystem/v3-ActCode","code":"AMB","display":"ambulatory"},"type":[{"coding":[{"system":"http://www.ama-assn.org/go/cpt","version":"2024","code":"90791"}]}],"subject":{"reference":"Patient/f96a2a48-8d71-49dc-9fde-eb45015151ff"},"period":{"start":"2025-02-25T14:30:00+00:00","end":"2025-02-25T14:50:00+00:00"},"length":{"value":0,"unit":"days"}},"request":{"method":"PUT","url":"Encounter/25c4ff58-c92a-4695-b138-d92190da9678"}},{"resource":{"resourceType":"MeasureReport","id":"be205bbc-0345-4b15-a550-649f137fb1a6","meta":{"profile":["http://hl7.org/fhir/us/cqfmeasures/StructureDefinition/test-case-cqfm"]},"contained":[{"resourceType":"Parameters","id":"1f1c3486-b964-49fe-a521-148e1291820b-parameters","parameter":[{"name":"subject","valueString":"f96a2a48-8d71-49dc-9fde-eb45015151ff"}]}],"extension":[{"url":"http://hl7.org/fhir/StructureDefinition/cqf-inputParameters","valueReference":{"reference":"#1f1c3486-b964-49fe-a521-148e1291820b-parameters"}},{"url":"http://hl7.org/fhir/us/cqfmeasures/StructureDefinition/cqfm-testCaseDescription","valueMarkdown":"Patient is 55 years old and has a Major Depressive Dx, an encounter with PHQ-9>9 during Denom ID period and a PHQ-9<5 that occurred before start of MAP. Patient should be denom for strat 2 "}],"modifierExtension":[{"url":"http://hl7.org/fhir/us/cqfmeasures/StructureDefinition/cqfm-isTestCase","valueBoolean":true}],"status":"complete","type":"individual","measure":"https://madie.cms.gov/Measure/CMS159FHIRDepressionRemissionatTwelveMonths","period":{"start":"2026-01-01","end":"2026-12-31"},"group":[{"id":"Group_1","population":[{"id":"InitialPopulation_1","code":{"coding":[{"system":"http://terminology.hl7.org/CodeSystem/measure-population","code":"initial-population","display":"Initial Population"}]},"count":1},{"id":"Denominator_1","code":{"coding":[{"system":"http://terminology.hl7.org/CodeSystem/measure-population","code":"denominator","display":"Denominator"}]},"count":1},{"id":"DenominatorExclusion_1","code":{"coding":[{"system":"http://terminology.hl7.org/CodeSystem/measure-population","code":"denominator-exclusion","display":"Denominator Exclusion"}]},"count":0},{"id":"Numerator_1","code":{"coding":[{"system":"http://terminology.hl7.org/CodeSystem/measure-population","code":"numerator","display":"Numerator"}]},"count":0}],"measureScore":{"value":1.0}}],"evaluatedResource":[{"reference":"Patient/f96a2a48-8d71-49dc-9fde-eb45015151ff"},{"reference":"Encounter/25c4ff58-c92a-4695-b138-d92190da9678"},{"reference":"Observation/0f7f894c-ccfb-401f-a80f-a04c751f5510"},{"reference":"Observation/5b011f57-511e-41ce-bdbf-9407d1fdaff6"},{"reference":"Condition/a2cb3954-b298-44d5-a296-1262864d46f8"}]},"request":{"method":"PUT","url":"MeasureReport/be205bbc-0345-4b15-a550-649f137fb1a6"}}]}