{"resourceType":"Bundle","id":"tests-8562be3a-0255-4120-8666-c0357bc191e5-bundle","type":"transaction","entry":[{"fullUrl":"MeasureReport/d504e8dc-6d35-47dd-b223-dfe656e6004b","resource":{"resourceType":"MeasureReport","id":"d504e8dc-6d35-47dd-b223-dfe656e6004b","meta":{"profile":["http://hl7.org/fhir/us/cqfmeasures/StructureDefinition/test-case-cqfm"]},"contained":[{"resourceType":"Parameters","id":"92c6d034-a522-4e66-82c0-6832307cd86f-parameters","parameter":[{"name":"subject","valueString":"8562be3a-0255-4120-8666-c0357bc191e5"}]}],"extension":[{"url":"http://hl7.org/fhir/StructureDefinition/cqf-inputParameters","valueReference":{"reference":"#92c6d034-a522-4e66-82c0-6832307cd86f-parameters"}},{"url":"http://hl7.org/fhir/us/cqfmeasures/StructureDefinition/cqfm-testCaseDescription","valueMarkdown":"Patient is 11 years old. Patient is too young to be in initial population."}],"modifierExtension":[{"url":"http://hl7.org/fhir/us/cqfmeasures/StructureDefinition/cqfm-isTestCase","valueBoolean":true}],"status":"complete","type":"individual","measure":"https://madie.cms.gov/Measure/CMS159FHIRDepressionRemissionatTwelveMonths","period":{"start":"2026-01-01","end":"2026-12-31"},"group":[{"id":"Group_1","population":[{"id":"InitialPopulation_1","code":{"coding":[{"system":"http://terminology.hl7.org/CodeSystem/measure-population","code":"initial-population","display":"Initial Population"}]},"count":0},{"id":"Denominator_1","code":{"coding":[{"system":"http://terminology.hl7.org/CodeSystem/measure-population","code":"denominator","display":"Denominator"}]},"count":0},{"id":"DenominatorExclusion_1","code":{"coding":[{"system":"http://terminology.hl7.org/CodeSystem/measure-population","code":"denominator-exclusion","display":"Denominator Exclusion"}]},"count":0},{"id":"Numerator_1","code":{"coding":[{"system":"http://terminology.hl7.org/CodeSystem/measure-population","code":"numerator","display":"Numerator"}]},"count":0}],"measureScore":{"value":1.0}}],"evaluatedResource":[{"reference":"Patient/8562be3a-0255-4120-8666-c0357bc191e5"},{"reference":"Encounter/36baed22-3f55-4ebd-8469-35501a520027"},{"reference":"Observation/86aff560-a7be-45f0-8127-2937817f010c"},{"reference":"Observation/dd307cbc-f56b-4b52-bdbc-99f9ebc5cceb"},{"reference":"Condition/bf7b7119-17e3-404e-b059-dfaa82dddad7"}]},"request":{"method":"PUT","url":"MeasureReport/d504e8dc-6d35-47dd-b223-dfe656e6004b"}},{"fullUrl":"Observation/86aff560-a7be-45f0-8127-2937817f010c","resource":{"resourceType":"Observation","id":"86aff560-a7be-45f0-8127-2937817f010c","meta":{"profile":["http://hl7.org/fhir/us/qicore/StructureDefinition/qicore-observation-screening-assessment"]},"status":"final","category":[{"coding":[{"system":"http://terminology.hl7.org/CodeSystem/observation-category","code":"survey","display":"Survey"}]}],"code":{"coding":[{"system":"http://loinc.org","version":"2.76","code":"44261-6"}]},"subject":{"reference":"Patient/8562be3a-0255-4120-8666-c0357bc191e5"},"effectiveDateTime":"2025-06-25T14:35:00+00:00","valueInteger":11},"request":{"method":"PUT","url":"Observation/86aff560-a7be-45f0-8127-2937817f010c"}},{"fullUrl":"Condition/bf7b7119-17e3-404e-b059-dfaa82dddad7","resource":{"resourceType":"Condition","id":"bf7b7119-17e3-404e-b059-dfaa82dddad7","meta":{"profile":["http://hl7.org/fhir/us/qicore/StructureDefinition/qicore-condition-problems-health-concerns"]},"clinicalStatus":{"coding":[{"system":"http://terminology.hl7.org/CodeSystem/condition-clinical","code":"active","display":"active"}]},"verificationStatus":{"coding":[{"system":"http://terminology.hl7.org/CodeSystem/condition-ver-status","code":"confirmed"}]},"category":[{"coding":[{"system":"http://terminology.hl7.org/CodeSystem/condition-category","code":"problem-list-item","display":"Problem List Item"}]}],"code":{"coding":[{"system":"http://hl7.org/fhir/sid/icd-10-cm","version":"2024","code":"F32.9"}]},"subject":{"reference":"Patient/8562be3a-0255-4120-8666-c0357bc191e5"},"onsetDateTime":"2025-02-25T14:35:00+00:00"},"request":{"method":"PUT","url":"Condition/bf7b7119-17e3-404e-b059-dfaa82dddad7"}},{"fullUrl":"Patient/8562be3a-0255-4120-8666-c0357bc191e5","resource":{"resourceType":"Patient","id":"8562be3a-0255-4120-8666-c0357bc191e5","meta":{"profile":["http://hl7.org/fhir/us/qicore/StructureDefinition/qicore-patient"]},"extension":[{"url":"http://hl7.org/fhir/us/core/StructureDefinition/us-core-race","extension":[{"url":"ombCategory","valueCoding":{"system":"urn:oid:2.16.840.1.113883.6.238","code":"2106-3","display":"White"}},{"url":"text","valueString":"White"}]},{"url":"http://hl7.org/fhir/us/core/StructureDefinition/us-core-ethnicity","extension":[{"url":"ombCategory","valueCoding":{"system":"urn:oid:2.16.840.1.113883.6.238","code":"2186-5","display":"Not Hispanic or Latino"}},{"url":"text","valueString":"Not Hispanic or Latino"}]}],"identifier":[{"type":{"coding":[{"system":"http://terminology.hl7.org/CodeSystem/v2-0203","code":"MR"}]},"system":"https://bonnie-fhir.healthit.gov/","value":"630307bd0968f80122477479"}],"name":[{"family":"IPPFail","given":["PtAge11"]}],"gender":"female","birthDate":"2014-01-01"},"request":{"method":"PUT","url":"Patient/8562be3a-0255-4120-8666-c0357bc191e5"}},{"fullUrl":"Observation/dd307cbc-f56b-4b52-bdbc-99f9ebc5cceb","resource":{"resourceType":"Observation","id":"dd307cbc-f56b-4b52-bdbc-99f9ebc5cceb","meta":{"profile":["http://hl7.org/fhir/us/qicore/StructureDefinition/qicore-observation-screening-assessment"]},"status":"final","category":[{"coding":[{"system":"http://terminology.hl7.org/CodeSystem/observation-category","code":"survey","display":"Survey"}]}],"code":{"coding":[{"system":"http://loinc.org","version":"2.76","code":"44261-6"}]},"subject":{"reference":"Patient/8562be3a-0255-4120-8666-c0357bc191e5"},"effectiveDateTime":"2026-04-19T14:30:00+00:00","valueInteger":3},"request":{"method":"PUT","url":"Observation/dd307cbc-f56b-4b52-bdbc-99f9ebc5cceb"}},{"fullUrl":"Bundle/630307bd0968f80122477479","resource":{"resourceType":"Bundle","id":"630307bd0968f80122477479","type":"transaction","entry":[{"fullUrl":"https://madie.cms.gov/Patient/8562be3a-0255-4120-8666-c0357bc191e5","resource":{"resourceType":"Patient","id":"8562be3a-0255-4120-8666-c0357bc191e5","meta":{"profile":["http://hl7.org/fhir/us/qicore/StructureDefinition/qicore-patient"]},"extension":[{"url":"http://hl7.org/fhir/us/core/StructureDefinition/us-core-race","extension":[{"url":"ombCategory","valueCoding":{"system":"urn:oid:2.16.840.1.113883.6.238","code":"2106-3","display":"White"}},{"url":"text","valueString":"White"}]},{"url":"http://hl7.org/fhir/us/core/StructureDefinition/us-core-ethnicity","extension":[{"url":"ombCategory","valueCoding":{"system":"urn:oid:2.16.840.1.113883.6.238","code":"2186-5","display":"Not Hispanic or Latino"}},{"url":"text","valueString":"Not Hispanic or Latino"}]}],"identifier":[{"type":{"coding":[{"system":"http://terminology.hl7.org/CodeSystem/v2-0203","code":"MR"}]},"system":"https://bonnie-fhir.healthit.gov/","value":"630307bd0968f80122477479"}],"name":[{"family":"IPPFail","given":["PtAge11"]}],"gender":"female","birthDate":"2014-01-01"},"request":{"method":"PUT","url":"Patient/8562be3a-0255-4120-8666-c0357bc191e5"}},{"fullUrl":"https://madie.cms.gov/Encounter/36baed22-3f55-4ebd-8469-35501a520027","resource":{"resourceType":"Encounter","id":"36baed22-3f55-4ebd-8469-35501a520027","meta":{"profile":["http://hl7.org/fhir/us/qicore/StructureDefinition/qicore-encounter"]},"status":"finished","class":{"system":"http://terminology.hl7.org/CodeSystem/v3-ActCode","code":"AMB","display":"ambulatory"},"type":[{"coding":[{"system":"http://www.ama-assn.org/go/cpt","version":"2024","code":"90791"}]}],"subject":{"reference":"Patient/8562be3a-0255-4120-8666-c0357bc191e5"},"period":{"start":"2025-06-25T14:30:00+00:00","end":"2025-06-25T14:50:00+00:00"},"length":{"value":0,"unit":"days"}},"request":{"method":"PUT","url":"Encounter/36baed22-3f55-4ebd-8469-35501a520027"}},{"fullUrl":"https://madie.cms.gov/Observation/86aff560-a7be-45f0-8127-2937817f010c","resource":{"resourceType":"Observation","id":"86aff560-a7be-45f0-8127-2937817f010c","meta":{"profile":["http://hl7.org/fhir/us/qicore/StructureDefinition/qicore-observation-screening-assessment"]},"status":"final","category":[{"coding":[{"system":"http://terminology.hl7.org/CodeSystem/observation-category","code":"survey","display":"Survey"}]}],"code":{"coding":[{"system":"http://loinc.org","version":"2.76","code":"44261-6"}]},"subject":{"reference":"Patient/8562be3a-0255-4120-8666-c0357bc191e5"},"effectiveDateTime":"2025-06-25T14:35:00+00:00","valueInteger":11},"request":{"method":"PUT","url":"Observation/86aff560-a7be-45f0-8127-2937817f010c"}},{"fullUrl":"https://madie.cms.gov/Observation/dd307cbc-f56b-4b52-bdbc-99f9ebc5cceb","resource":{"resourceType":"Observation","id":"dd307cbc-f56b-4b52-bdbc-99f9ebc5cceb","meta":{"profile":["http://hl7.org/fhir/us/qicore/StructureDefinition/qicore-observation-screening-assessment"]},"status":"final","category":[{"coding":[{"system":"http://terminology.hl7.org/CodeSystem/observation-category","code":"survey","display":"Survey"}]}],"code":{"coding":[{"system":"http://loinc.org","version":"2.76","code":"44261-6"}]},"subject":{"reference":"Patient/8562be3a-0255-4120-8666-c0357bc191e5"},"effectiveDateTime":"2026-04-19T14:30:00+00:00","valueInteger":3},"request":{"method":"PUT","url":"Observation/dd307cbc-f56b-4b52-bdbc-99f9ebc5cceb"}},{"fullUrl":"https://madie.cms.gov/Condition/bf7b7119-17e3-404e-b059-dfaa82dddad7","resource":{"resourceType":"Condition","id":"bf7b7119-17e3-404e-b059-dfaa82dddad7","meta":{"profile":["http://hl7.org/fhir/us/qicore/StructureDefinition/qicore-condition-problems-health-concerns"]},"clinicalStatus":{"coding":[{"system":"http://terminology.hl7.org/CodeSystem/condition-clinical","code":"active","display":"active"}]},"verificationStatus":{"coding":[{"system":"http://terminology.hl7.org/CodeSystem/condition-ver-status","code":"confirmed"}]},"category":[{"coding":[{"system":"http://terminology.hl7.org/CodeSystem/condition-category","code":"problem-list-item","display":"Problem List Item"}]}],"code":{"coding":[{"system":"http://hl7.org/fhir/sid/icd-10-cm","version":"2024","code":"F32.9"}]},"subject":{"reference":"Patient/8562be3a-0255-4120-8666-c0357bc191e5"},"onsetDateTime":"2025-02-25T14:35:00+00:00"},"request":{"method":"PUT","url":"Condition/bf7b7119-17e3-404e-b059-dfaa82dddad7"}},{"fullUrl":"https://madie.cms.gov/MeasureReport/d504e8dc-6d35-47dd-b223-dfe656e6004b","resource":{"resourceType":"MeasureReport","id":"d504e8dc-6d35-47dd-b223-dfe656e6004b","meta":{"profile":["http://hl7.org/fhir/us/cqfmeasures/StructureDefinition/test-case-cqfm"]},"contained":[{"resourceType":"Parameters","id":"92c6d034-a522-4e66-82c0-6832307cd86f-parameters","parameter":[{"name":"subject","valueString":"8562be3a-0255-4120-8666-c0357bc191e5"}]}],"extension":[{"url":"http://hl7.org/fhir/StructureDefinition/cqf-inputParameters","valueReference":{"reference":"#92c6d034-a522-4e66-82c0-6832307cd86f-parameters"}},{"url":"http://hl7.org/fhir/us/cqfmeasures/StructureDefinition/cqfm-testCaseDescription","valueMarkdown":"Patient is 11 years old. Patient is too young to be in initial population."}],"modifierExtension":[{"url":"http://hl7.org/fhir/us/cqfmeasures/StructureDefinition/cqfm-isTestCase","valueBoolean":true}],"status":"complete","type":"individual","measure":"https://madie.cms.gov/Measure/CMS159FHIRDepressionRemissionatTwelveMonths","period":{"start":"2026-01-01","end":"2026-12-31"},"group":[{"id":"Group_1","population":[{"id":"InitialPopulation_1","code":{"coding":[{"system":"http://terminology.hl7.org/CodeSystem/measure-population","code":"initial-population","display":"Initial Population"}]},"count":0},{"id":"Denominator_1","code":{"coding":[{"system":"http://terminology.hl7.org/CodeSystem/measure-population","code":"denominator","display":"Denominator"}]},"count":0},{"id":"DenominatorExclusion_1","code":{"coding":[{"system":"http://terminology.hl7.org/CodeSystem/measure-population","code":"denominator-exclusion","display":"Denominator Exclusion"}]},"count":0},{"id":"Numerator_1","code":{"coding":[{"system":"http://terminology.hl7.org/CodeSystem/measure-population","code":"numerator","display":"Numerator"}]},"count":0}],"measureScore":{"value":1.0}}],"evaluatedResource":[{"reference":"Patient/8562be3a-0255-4120-8666-c0357bc191e5"},{"reference":"Encounter/36baed22-3f55-4ebd-8469-35501a520027"},{"reference":"Observation/86aff560-a7be-45f0-8127-2937817f010c"},{"reference":"Observation/dd307cbc-f56b-4b52-bdbc-99f9ebc5cceb"},{"reference":"Condition/bf7b7119-17e3-404e-b059-dfaa82dddad7"}]},"request":{"method":"PUT","url":"MeasureReport/d504e8dc-6d35-47dd-b223-dfe656e6004b"}}]},"request":{"method":"PUT","url":"Bundle/630307bd0968f80122477479"}},{"fullUrl":"Encounter/36baed22-3f55-4ebd-8469-35501a520027","resource":{"resourceType":"Encounter","id":"36baed22-3f55-4ebd-8469-35501a520027","meta":{"profile":["http://hl7.org/fhir/us/qicore/StructureDefinition/qicore-encounter"]},"status":"finished","class":{"system":"http://terminology.hl7.org/CodeSystem/v3-ActCode","code":"AMB","display":"ambulatory"},"type":[{"coding":[{"system":"http://www.ama-assn.org/go/cpt","version":"2024","code":"90791"}]}],"subject":{"reference":"Patient/8562be3a-0255-4120-8666-c0357bc191e5"},"period":{"start":"2025-06-25T14:30:00+00:00","end":"2025-06-25T14:50:00+00:00"},"length":{"value":0,"unit":"days"}},"request":{"method":"PUT","url":"Encounter/36baed22-3f55-4ebd-8469-35501a520027"}}]}