{"resourceType":"Bundle","id":"tests-f1a332e3-50bc-4b66-b667-f96eeee06553-bundle","type":"transaction","entry":[{"fullUrl":"Observation/ab70fc4f-a2aa-4f7f-bf57-354a1de9825f","resource":{"resourceType":"Observation","id":"ab70fc4f-a2aa-4f7f-bf57-354a1de9825f","meta":{"profile":["http://hl7.org/fhir/us/qicore/StructureDefinition/qicore-observation-screening-assessment"]},"status":"final","category":[{"coding":[{"system":"http://terminology.hl7.org/CodeSystem/observation-category","code":"survey","display":"Survey"}]}],"code":{"coding":[{"system":"http://loinc.org","version":"2.76","code":"44261-6"}]},"subject":{"reference":"Patient/f1a332e3-50bc-4b66-b667-f96eeee06553"},"effectiveDateTime":"2025-02-25T14:35:00+00:00","valueInteger":10},"request":{"method":"PUT","url":"Observation/ab70fc4f-a2aa-4f7f-bf57-354a1de9825f"}},{"fullUrl":"Encounter/cce70ae2-4575-428b-acb5-39422c3b04c9","resource":{"resourceType":"Encounter","id":"cce70ae2-4575-428b-acb5-39422c3b04c9","meta":{"profile":["http://hl7.org/fhir/us/qicore/StructureDefinition/qicore-encounter"]},"status":"finished","class":{"system":"http://terminology.hl7.org/CodeSystem/v3-ActCode","code":"AMB","display":"ambulatory"},"type":[{"coding":[{"system":"http://www.ama-assn.org/go/cpt","version":"2024","code":"90791"}]}],"subject":{"reference":"Patient/f1a332e3-50bc-4b66-b667-f96eeee06553"},"period":{"start":"2025-02-25T14:30:00+00:00","end":"2025-02-25T14:50:00+00:00"},"length":{"value":0,"unit":"days"}},"request":{"method":"PUT","url":"Encounter/cce70ae2-4575-428b-acb5-39422c3b04c9"}},{"fullUrl":"Observation/c7f2d398-83ad-49b7-b3b2-fc7acd1ee1f2","resource":{"resourceType":"Observation","id":"c7f2d398-83ad-49b7-b3b2-fc7acd1ee1f2","meta":{"profile":["http://hl7.org/fhir/us/qicore/StructureDefinition/qicore-observation-screening-assessment"]},"status":"final","category":[{"coding":[{"system":"http://terminology.hl7.org/CodeSystem/observation-category","code":"survey","display":"Survey"}]}],"code":{"coding":[{"system":"http://loinc.org","version":"2.76","code":"44261-6"}]},"subject":{"reference":"Patient/f1a332e3-50bc-4b66-b667-f96eeee06553"},"effectiveDateTime":"2026-02-19T14:30:00+00:00","valueInteger":3},"request":{"method":"PUT","url":"Observation/c7f2d398-83ad-49b7-b3b2-fc7acd1ee1f2"}},{"fullUrl":"MeasureReport/4b01d3c0-b4f2-4154-80f7-42cd0e10ecaa","resource":{"resourceType":"MeasureReport","id":"4b01d3c0-b4f2-4154-80f7-42cd0e10ecaa","meta":{"profile":["http://hl7.org/fhir/us/cqfmeasures/StructureDefinition/test-case-cqfm"]},"contained":[{"resourceType":"Parameters","id":"22b75f07-336f-4927-bf3f-d47699ba691a-parameters","parameter":[{"name":"subject","valueString":"f1a332e3-50bc-4b66-b667-f96eeee06553"}]}],"extension":[{"url":"http://hl7.org/fhir/StructureDefinition/cqf-inputParameters","valueReference":{"reference":"#22b75f07-336f-4927-bf3f-d47699ba691a-parameters"}},{"url":"http://hl7.org/fhir/us/cqfmeasures/StructureDefinition/cqfm-testCaseDescription","valueMarkdown":"Patient is 12 years old and has a Major Depression diagnosis, an encounter with PHQ-9>9 during Denom ID period, and a PHQ-9<5 during MAP. Patient passes num and falls into strat 1. "}],"modifierExtension":[{"url":"http://hl7.org/fhir/us/cqfmeasures/StructureDefinition/cqfm-isTestCase","valueBoolean":true}],"status":"complete","type":"individual","measure":"https://madie.cms.gov/Measure/CMS159FHIRDepressionRemissionatTwelveMonths","period":{"start":"2026-01-01","end":"2026-12-31"},"group":[{"id":"Group_1","population":[{"id":"InitialPopulation_1","code":{"coding":[{"system":"http://terminology.hl7.org/CodeSystem/measure-population","code":"initial-population","display":"Initial Population"}]},"count":1},{"id":"Denominator_1","code":{"coding":[{"system":"http://terminology.hl7.org/CodeSystem/measure-population","code":"denominator","display":"Denominator"}]},"count":1},{"id":"DenominatorExclusion_1","code":{"coding":[{"system":"http://terminology.hl7.org/CodeSystem/measure-population","code":"denominator-exclusion","display":"Denominator Exclusion"}]},"count":0},{"id":"Numerator_1","code":{"coding":[{"system":"http://terminology.hl7.org/CodeSystem/measure-population","code":"numerator","display":"Numerator"}]},"count":1}],"measureScore":{"value":1.0}}],"evaluatedResource":[{"reference":"Patient/f1a332e3-50bc-4b66-b667-f96eeee06553"},{"reference":"Encounter/cce70ae2-4575-428b-acb5-39422c3b04c9"},{"reference":"Observation/ab70fc4f-a2aa-4f7f-bf57-354a1de9825f"},{"reference":"Observation/c7f2d398-83ad-49b7-b3b2-fc7acd1ee1f2"},{"reference":"Coverage/897a5fd4-beb2-434a-9a55-0b974b587892"},{"reference":"Condition/9ba7da74-3d2a-41f7-862e-23ef35d17804"}]},"request":{"method":"PUT","url":"MeasureReport/4b01d3c0-b4f2-4154-80f7-42cd0e10ecaa"}},{"fullUrl":"Coverage/897a5fd4-beb2-434a-9a55-0b974b587892","resource":{"resourceType":"Coverage","id":"897a5fd4-beb2-434a-9a55-0b974b587892","meta":{"profile":["http://hl7.org/fhir/us/qicore/StructureDefinition/qicore-coverage"]},"status":"active","beneficiary":{"reference":"Patient/f1a332e3-50bc-4b66-b667-f96eeee06553"},"payor":[{"reference":"Organization/123456"}]},"request":{"method":"PUT","url":"Coverage/897a5fd4-beb2-434a-9a55-0b974b587892"}},{"fullUrl":"Bundle/630307cb0968f80122478458","resource":{"resourceType":"Bundle","id":"630307cb0968f80122478458","type":"transaction","entry":[{"fullUrl":"https://madie.cms.gov/Patient/f1a332e3-50bc-4b66-b667-f96eeee06553","resource":{"resourceType":"Patient","id":"f1a332e3-50bc-4b66-b667-f96eeee06553","meta":{"profile":["http://hl7.org/fhir/us/qicore/StructureDefinition/qicore-patient"]},"extension":[{"url":"http://hl7.org/fhir/us/core/StructureDefinition/us-core-race","extension":[{"url":"ombCategory","valueCoding":{"system":"urn:oid:2.16.840.1.113883.6.238","code":"2106-3","display":"White"}},{"url":"text","valueString":"White"}]},{"url":"http://hl7.org/fhir/us/core/StructureDefinition/us-core-ethnicity","extension":[{"url":"ombCategory","valueCoding":{"system":"urn:oid:2.16.840.1.113883.6.238","code":"2186-5","display":"Not Hispanic or Latino"}},{"url":"text","valueString":"Not Hispanic or Latino"}]}],"identifier":[{"type":{"coding":[{"system":"http://terminology.hl7.org/CodeSystem/v2-0203","code":"MR"}]},"system":"https://bonnie-fhir.healthit.gov/","value":"630307cb0968f80122478458"}],"name":[{"family":"NUMERPopMultiStrat1Pass","given":["FUAssessment12MonthsAfterInitial"]}],"gender":"female","birthDate":"2011-01-01"},"request":{"method":"PUT","url":"Patient/f1a332e3-50bc-4b66-b667-f96eeee06553"}},{"fullUrl":"https://madie.cms.gov/Encounter/cce70ae2-4575-428b-acb5-39422c3b04c9","resource":{"resourceType":"Encounter","id":"cce70ae2-4575-428b-acb5-39422c3b04c9","meta":{"profile":["http://hl7.org/fhir/us/qicore/StructureDefinition/qicore-encounter"]},"status":"finished","class":{"system":"http://terminology.hl7.org/CodeSystem/v3-ActCode","code":"AMB","display":"ambulatory"},"type":[{"coding":[{"system":"http://www.ama-assn.org/go/cpt","version":"2024","code":"90791"}]}],"subject":{"reference":"Patient/f1a332e3-50bc-4b66-b667-f96eeee06553"},"period":{"start":"2025-02-25T14:30:00+00:00","end":"2025-02-25T14:50:00+00:00"},"length":{"value":0,"unit":"days"}},"request":{"method":"PUT","url":"Encounter/cce70ae2-4575-428b-acb5-39422c3b04c9"}},{"fullUrl":"https://madie.cms.gov/Observation/ab70fc4f-a2aa-4f7f-bf57-354a1de9825f","resource":{"resourceType":"Observation","id":"ab70fc4f-a2aa-4f7f-bf57-354a1de9825f","meta":{"profile":["http://hl7.org/fhir/us/qicore/StructureDefinition/qicore-observation-screening-assessment"]},"status":"final","category":[{"coding":[{"system":"http://terminology.hl7.org/CodeSystem/observation-category","code":"survey","display":"Survey"}]}],"code":{"coding":[{"system":"http://loinc.org","version":"2.76","code":"44261-6"}]},"subject":{"reference":"Patient/f1a332e3-50bc-4b66-b667-f96eeee06553"},"effectiveDateTime":"2025-02-25T14:35:00+00:00","valueInteger":10},"request":{"method":"PUT","url":"Observation/ab70fc4f-a2aa-4f7f-bf57-354a1de9825f"}},{"fullUrl":"https://madie.cms.gov/Observation/c7f2d398-83ad-49b7-b3b2-fc7acd1ee1f2","resource":{"resourceType":"Observation","id":"c7f2d398-83ad-49b7-b3b2-fc7acd1ee1f2","meta":{"profile":["http://hl7.org/fhir/us/qicore/StructureDefinition/qicore-observation-screening-assessment"]},"status":"final","category":[{"coding":[{"system":"http://terminology.hl7.org/CodeSystem/observation-category","code":"survey","display":"Survey"}]}],"code":{"coding":[{"system":"http://loinc.org","version":"2.76","code":"44261-6"}]},"subject":{"reference":"Patient/f1a332e3-50bc-4b66-b667-f96eeee06553"},"effectiveDateTime":"2026-02-19T14:30:00+00:00","valueInteger":3},"request":{"method":"PUT","url":"Observation/c7f2d398-83ad-49b7-b3b2-fc7acd1ee1f2"}},{"fullUrl":"https://madie.cms.gov/Coverage/897a5fd4-beb2-434a-9a55-0b974b587892","resource":{"resourceType":"Coverage","id":"897a5fd4-beb2-434a-9a55-0b974b587892","meta":{"profile":["http://hl7.org/fhir/us/qicore/StructureDefinition/qicore-coverage"]},"status":"active","beneficiary":{"reference":"Patient/f1a332e3-50bc-4b66-b667-f96eeee06553"},"payor":[{"reference":"Organization/123456"}]},"request":{"method":"PUT","url":"Coverage/897a5fd4-beb2-434a-9a55-0b974b587892"}},{"fullUrl":"https://madie.cms.gov/Condition/9ba7da74-3d2a-41f7-862e-23ef35d17804","resource":{"resourceType":"Condition","id":"9ba7da74-3d2a-41f7-862e-23ef35d17804","meta":{"profile":["http://hl7.org/fhir/us/qicore/StructureDefinition/qicore-condition-problems-health-concerns"]},"clinicalStatus":{"coding":[{"system":"http://terminology.hl7.org/CodeSystem/condition-clinical","code":"active","display":"active"}]},"verificationStatus":{"coding":[{"system":"http://terminology.hl7.org/CodeSystem/condition-ver-status","code":"confirmed"}]},"category":[{"coding":[{"system":"http://terminology.hl7.org/CodeSystem/condition-category","code":"problem-list-item","display":"Problem List Item"}]}],"code":{"coding":[{"system":"http://hl7.org/fhir/sid/icd-10-cm","version":"2024","code":"F32.9"}]},"subject":{"reference":"Patient/f1a332e3-50bc-4b66-b667-f96eeee06553"},"onsetDateTime":"2025-02-25T14:35:00+00:00"},"request":{"method":"PUT","url":"Condition/9ba7da74-3d2a-41f7-862e-23ef35d17804"}},{"fullUrl":"https://madie.cms.gov/MeasureReport/4b01d3c0-b4f2-4154-80f7-42cd0e10ecaa","resource":{"resourceType":"MeasureReport","id":"4b01d3c0-b4f2-4154-80f7-42cd0e10ecaa","meta":{"profile":["http://hl7.org/fhir/us/cqfmeasures/StructureDefinition/test-case-cqfm"]},"contained":[{"resourceType":"Parameters","id":"22b75f07-336f-4927-bf3f-d47699ba691a-parameters","parameter":[{"name":"subject","valueString":"f1a332e3-50bc-4b66-b667-f96eeee06553"}]}],"extension":[{"url":"http://hl7.org/fhir/StructureDefinition/cqf-inputParameters","valueReference":{"reference":"#22b75f07-336f-4927-bf3f-d47699ba691a-parameters"}},{"url":"http://hl7.org/fhir/us/cqfmeasures/StructureDefinition/cqfm-testCaseDescription","valueMarkdown":"Patient is 12 years old and has a Major Depression diagnosis, an encounter with PHQ-9>9 during Denom ID period, and a PHQ-9<5 during MAP. Patient passes num and falls into strat 1. "}],"modifierExtension":[{"url":"http://hl7.org/fhir/us/cqfmeasures/StructureDefinition/cqfm-isTestCase","valueBoolean":true}],"status":"complete","type":"individual","measure":"https://madie.cms.gov/Measure/CMS159FHIRDepressionRemissionatTwelveMonths","period":{"start":"2026-01-01","end":"2026-12-31"},"group":[{"id":"Group_1","population":[{"id":"InitialPopulation_1","code":{"coding":[{"system":"http://terminology.hl7.org/CodeSystem/measure-population","code":"initial-population","display":"Initial Population"}]},"count":1},{"id":"Denominator_1","code":{"coding":[{"system":"http://terminology.hl7.org/CodeSystem/measure-population","code":"denominator","display":"Denominator"}]},"count":1},{"id":"DenominatorExclusion_1","code":{"coding":[{"system":"http://terminology.hl7.org/CodeSystem/measure-population","code":"denominator-exclusion","display":"Denominator Exclusion"}]},"count":0},{"id":"Numerator_1","code":{"coding":[{"system":"http://terminology.hl7.org/CodeSystem/measure-population","code":"numerator","display":"Numerator"}]},"count":1}],"measureScore":{"value":1.0}}],"evaluatedResource":[{"reference":"Patient/f1a332e3-50bc-4b66-b667-f96eeee06553"},{"reference":"Encounter/cce70ae2-4575-428b-acb5-39422c3b04c9"},{"reference":"Observation/ab70fc4f-a2aa-4f7f-bf57-354a1de9825f"},{"reference":"Observation/c7f2d398-83ad-49b7-b3b2-fc7acd1ee1f2"},{"reference":"Coverage/897a5fd4-beb2-434a-9a55-0b974b587892"},{"reference":"Condition/9ba7da74-3d2a-41f7-862e-23ef35d17804"}]},"request":{"method":"PUT","url":"MeasureReport/4b01d3c0-b4f2-4154-80f7-42cd0e10ecaa"}}]},"request":{"method":"PUT","url":"Bundle/630307cb0968f80122478458"}},{"fullUrl":"Patient/f1a332e3-50bc-4b66-b667-f96eeee06553","resource":{"resourceType":"Patient","id":"f1a332e3-50bc-4b66-b667-f96eeee06553","meta":{"profile":["http://hl7.org/fhir/us/qicore/StructureDefinition/qicore-patient"]},"extension":[{"url":"http://hl7.org/fhir/us/core/StructureDefinition/us-core-race","extension":[{"url":"ombCategory","valueCoding":{"system":"urn:oid:2.16.840.1.113883.6.238","code":"2106-3","display":"White"}},{"url":"text","valueString":"White"}]},{"url":"http://hl7.org/fhir/us/core/StructureDefinition/us-core-ethnicity","extension":[{"url":"ombCategory","valueCoding":{"system":"urn:oid:2.16.840.1.113883.6.238","code":"2186-5","display":"Not Hispanic or Latino"}},{"url":"text","valueString":"Not Hispanic or Latino"}]}],"identifier":[{"type":{"coding":[{"system":"http://terminology.hl7.org/CodeSystem/v2-0203","code":"MR"}]},"system":"https://bonnie-fhir.healthit.gov/","value":"630307cb0968f80122478458"}],"name":[{"family":"NUMERPopMultiStrat1Pass","given":["FUAssessment12MonthsAfterInitial"]}],"gender":"female","birthDate":"2011-01-01"},"request":{"method":"PUT","url":"Patient/f1a332e3-50bc-4b66-b667-f96eeee06553"}},{"fullUrl":"Condition/9ba7da74-3d2a-41f7-862e-23ef35d17804","resource":{"resourceType":"Condition","id":"9ba7da74-3d2a-41f7-862e-23ef35d17804","meta":{"profile":["http://hl7.org/fhir/us/qicore/StructureDefinition/qicore-condition-problems-health-concerns"]},"clinicalStatus":{"coding":[{"system":"http://terminology.hl7.org/CodeSystem/condition-clinical","code":"active","display":"active"}]},"verificationStatus":{"coding":[{"system":"http://terminology.hl7.org/CodeSystem/condition-ver-status","code":"confirmed"}]},"category":[{"coding":[{"system":"http://terminology.hl7.org/CodeSystem/condition-category","code":"problem-list-item","display":"Problem List Item"}]}],"code":{"coding":[{"system":"http://hl7.org/fhir/sid/icd-10-cm","version":"2024","code":"F32.9"}]},"subject":{"reference":"Patient/f1a332e3-50bc-4b66-b667-f96eeee06553"},"onsetDateTime":"2025-02-25T14:35:00+00:00"},"request":{"method":"PUT","url":"Condition/9ba7da74-3d2a-41f7-862e-23ef35d17804"}}]}