{"resourceType":"Bundle","id":"tests-4963ead8-c4a7-4101-9fac-9a51732f1723-bundle","type":"transaction","entry":[{"fullUrl":"Bundle/630307c90968f8012247825d","resource":{"resourceType":"Bundle","id":"630307c90968f8012247825d","type":"transaction","entry":[{"fullUrl":"https://madie.cms.gov/Patient/4963ead8-c4a7-4101-9fac-9a51732f1723","resource":{"resourceType":"Patient","id":"4963ead8-c4a7-4101-9fac-9a51732f1723","meta":{"profile":["http://hl7.org/fhir/us/qicore/StructureDefinition/qicore-patient"]},"extension":[{"url":"http://hl7.org/fhir/us/core/StructureDefinition/us-core-race","extension":[{"url":"ombCategory","valueCoding":{"system":"urn:oid:2.16.840.1.113883.6.238","code":"2106-3","display":"White"}},{"url":"text","valueString":"White"}]},{"url":"http://hl7.org/fhir/us/core/StructureDefinition/us-core-ethnicity","extension":[{"url":"ombCategory","valueCoding":{"system":"urn:oid:2.16.840.1.113883.6.238","code":"2186-5","display":"Not Hispanic or Latino"}},{"url":"text","valueString":"Not Hispanic or Latino"}]}],"identifier":[{"type":{"coding":[{"system":"http://terminology.hl7.org/CodeSystem/v2-0203","code":"MR"}]},"system":"https://bonnie-fhir.healthit.gov/","value":"630307c90968f8012247825d"}],"name":[{"family":"DENEXPopStrat2Pass","given":["PersDisordDxBeforeEndofMP"]}],"gender":"female","birthDate":"1981-01-01"},"request":{"method":"PUT","url":"Patient/4963ead8-c4a7-4101-9fac-9a51732f1723"}},{"fullUrl":"https://madie.cms.gov/Encounter/94665bf4-1464-473b-ad5d-819e744f4d53","resource":{"resourceType":"Encounter","id":"94665bf4-1464-473b-ad5d-819e744f4d53","meta":{"profile":["http://hl7.org/fhir/us/qicore/StructureDefinition/qicore-encounter"]},"status":"finished","class":{"system":"http://terminology.hl7.org/CodeSystem/v3-ActCode","code":"AMB","display":"ambulatory"},"type":[{"coding":[{"system":"http://www.ama-assn.org/go/cpt","version":"2024","code":"90791"}]}],"subject":{"reference":"Patient/4963ead8-c4a7-4101-9fac-9a51732f1723"},"period":{"start":"2025-02-25T14:30:00+00:00","end":"2025-02-25T14:50:00+00:00"},"length":{"value":0,"unit":"days"}},"request":{"method":"PUT","url":"Encounter/94665bf4-1464-473b-ad5d-819e744f4d53"}},{"fullUrl":"https://madie.cms.gov/Observation/53aa416f-2867-4862-ba42-071ec88be882","resource":{"resourceType":"Observation","id":"53aa416f-2867-4862-ba42-071ec88be882","meta":{"profile":["http://hl7.org/fhir/us/qicore/StructureDefinition/qicore-observation-screening-assessment"]},"status":"final","category":[{"coding":[{"system":"http://terminology.hl7.org/CodeSystem/observation-category","code":"survey","display":"Survey"}]}],"code":{"coding":[{"system":"http://loinc.org","version":"2.76","code":"44261-6"}]},"subject":{"reference":"Patient/4963ead8-c4a7-4101-9fac-9a51732f1723"},"effectiveDateTime":"2025-02-25T14:35:00+00:00","valueInteger":10},"request":{"method":"PUT","url":"Observation/53aa416f-2867-4862-ba42-071ec88be882"}},{"fullUrl":"https://madie.cms.gov/Observation/7630740b-d8d4-4cc5-9bac-457f147a60fc","resource":{"resourceType":"Observation","id":"7630740b-d8d4-4cc5-9bac-457f147a60fc","meta":{"profile":["http://hl7.org/fhir/us/qicore/StructureDefinition/qicore-observation-screening-assessment"]},"status":"final","category":[{"coding":[{"system":"http://terminology.hl7.org/CodeSystem/observation-category","code":"survey","display":"Survey"}]}],"code":{"coding":[{"system":"http://loinc.org","version":"2.76","code":"44261-6"}]},"subject":{"reference":"Patient/4963ead8-c4a7-4101-9fac-9a51732f1723"},"effectiveDateTime":"2026-02-19T14:30:00+00:00","valueInteger":3},"request":{"method":"PUT","url":"Observation/7630740b-d8d4-4cc5-9bac-457f147a60fc"}},{"fullUrl":"https://madie.cms.gov/Condition/c217d827-20c1-47c9-95e8-6100da03bfb2","resource":{"resourceType":"Condition","id":"c217d827-20c1-47c9-95e8-6100da03bfb2","meta":{"profile":["http://hl7.org/fhir/us/qicore/StructureDefinition/qicore-condition-problems-health-concerns"]},"clinicalStatus":{"coding":[{"system":"http://terminology.hl7.org/CodeSystem/condition-clinical","code":"active","display":"active"}]},"verificationStatus":{"coding":[{"system":"http://terminology.hl7.org/CodeSystem/condition-ver-status","code":"confirmed"}]},"category":[{"coding":[{"system":"http://terminology.hl7.org/CodeSystem/condition-category","code":"problem-list-item","display":"Problem List Item"}]}],"code":{"coding":[{"system":"http://hl7.org/fhir/sid/icd-10-cm","version":"2024","code":"F32.9"}]},"subject":{"reference":"Patient/4963ead8-c4a7-4101-9fac-9a51732f1723"},"onsetDateTime":"2025-02-25T14:35:00+00:00"},"request":{"method":"PUT","url":"Condition/c217d827-20c1-47c9-95e8-6100da03bfb2"}},{"fullUrl":"https://madie.cms.gov/Condition/d57af081-3667-4e87-850e-377743ef69d8","resource":{"resourceType":"Condition","id":"d57af081-3667-4e87-850e-377743ef69d8","meta":{"profile":["http://hl7.org/fhir/us/qicore/StructureDefinition/qicore-condition-problems-health-concerns"]},"clinicalStatus":{"coding":[{"system":"http://terminology.hl7.org/CodeSystem/condition-clinical","code":"active","display":"active"}]},"verificationStatus":{"coding":[{"system":"http://terminology.hl7.org/CodeSystem/condition-ver-status","code":"confirmed"}]},"category":[{"coding":[{"system":"http://terminology.hl7.org/CodeSystem/condition-category","code":"problem-list-item","display":"Problem List Item"}]}],"code":{"coding":[{"system":"http://snomed.info/sct","version":"http://snomed.info/sct/731000124108/version/20240301","code":"191765005"}]},"subject":{"reference":"Patient/4963ead8-c4a7-4101-9fac-9a51732f1723"},"onsetDateTime":"2025-02-25T14:35:00+00:00"},"request":{"method":"PUT","url":"Condition/d57af081-3667-4e87-850e-377743ef69d8"}},{"fullUrl":"https://madie.cms.gov/MeasureReport/0ff231a7-c0ee-4694-ac26-bfde3b42fe79","resource":{"resourceType":"MeasureReport","id":"0ff231a7-c0ee-4694-ac26-bfde3b42fe79","meta":{"profile":["http://hl7.org/fhir/us/cqfmeasures/StructureDefinition/test-case-cqfm"]},"contained":[{"resourceType":"Parameters","id":"0498f62c-49bf-4893-bd7c-d2df225927c8-parameters","parameter":[{"name":"subject","valueString":"4963ead8-c4a7-4101-9fac-9a51732f1723"}]}],"extension":[{"url":"http://hl7.org/fhir/StructureDefinition/cqf-inputParameters","valueReference":{"reference":"#0498f62c-49bf-4893-bd7c-d2df225927c8-parameters"}},{"url":"http://hl7.org/fhir/us/cqfmeasures/StructureDefinition/cqfm-testCaseDescription","valueMarkdown":"Patient is 42 years old and has a Major Depression diagnosis and PHQ-9>9 during the denom ID period. Patient had Personality Disorder diagnosis before end of MAP. Should be in denominator exclusion for Strat 2. "}],"modifierExtension":[{"url":"http://hl7.org/fhir/us/cqfmeasures/StructureDefinition/cqfm-isTestCase","valueBoolean":true}],"status":"complete","type":"individual","measure":"https://madie.cms.gov/Measure/CMS159FHIRDepressionRemissionatTwelveMonths","period":{"start":"2026-01-01","end":"2026-12-31"},"group":[{"id":"Group_1","population":[{"id":"InitialPopulation_1","code":{"coding":[{"system":"http://terminology.hl7.org/CodeSystem/measure-population","code":"initial-population","display":"Initial Population"}]},"count":1},{"id":"Denominator_1","code":{"coding":[{"system":"http://terminology.hl7.org/CodeSystem/measure-population","code":"denominator","display":"Denominator"}]},"count":1},{"id":"DenominatorExclusion_1","code":{"coding":[{"system":"http://terminology.hl7.org/CodeSystem/measure-population","code":"denominator-exclusion","display":"Denominator Exclusion"}]},"count":1},{"id":"Numerator_1","code":{"coding":[{"system":"http://terminology.hl7.org/CodeSystem/measure-population","code":"numerator","display":"Numerator"}]},"count":0}],"measureScore":{"value":1.0}}],"evaluatedResource":[{"reference":"Patient/4963ead8-c4a7-4101-9fac-9a51732f1723"},{"reference":"Encounter/94665bf4-1464-473b-ad5d-819e744f4d53"},{"reference":"Observation/53aa416f-2867-4862-ba42-071ec88be882"},{"reference":"Observation/7630740b-d8d4-4cc5-9bac-457f147a60fc"},{"reference":"Condition/c217d827-20c1-47c9-95e8-6100da03bfb2"},{"reference":"Condition/d57af081-3667-4e87-850e-377743ef69d8"}]},"request":{"method":"PUT","url":"MeasureReport/0ff231a7-c0ee-4694-ac26-bfde3b42fe79"}}]},"request":{"method":"PUT","url":"Bundle/630307c90968f8012247825d"}},{"fullUrl":"Patient/4963ead8-c4a7-4101-9fac-9a51732f1723","resource":{"resourceType":"Patient","id":"4963ead8-c4a7-4101-9fac-9a51732f1723","meta":{"profile":["http://hl7.org/fhir/us/qicore/StructureDefinition/qicore-patient"]},"extension":[{"url":"http://hl7.org/fhir/us/core/StructureDefinition/us-core-race","extension":[{"url":"ombCategory","valueCoding":{"system":"urn:oid:2.16.840.1.113883.6.238","code":"2106-3","display":"White"}},{"url":"text","valueString":"White"}]},{"url":"http://hl7.org/fhir/us/core/StructureDefinition/us-core-ethnicity","extension":[{"url":"ombCategory","valueCoding":{"system":"urn:oid:2.16.840.1.113883.6.238","code":"2186-5","display":"Not Hispanic or Latino"}},{"url":"text","valueString":"Not Hispanic or Latino"}]}],"identifier":[{"type":{"coding":[{"system":"http://terminology.hl7.org/CodeSystem/v2-0203","code":"MR"}]},"system":"https://bonnie-fhir.healthit.gov/","value":"630307c90968f8012247825d"}],"name":[{"family":"DENEXPopStrat2Pass","given":["PersDisordDxBeforeEndofMP"]}],"gender":"female","birthDate":"1981-01-01"},"request":{"method":"PUT","url":"Patient/4963ead8-c4a7-4101-9fac-9a51732f1723"}},{"fullUrl":"Observation/53aa416f-2867-4862-ba42-071ec88be882","resource":{"resourceType":"Observation","id":"53aa416f-2867-4862-ba42-071ec88be882","meta":{"profile":["http://hl7.org/fhir/us/qicore/StructureDefinition/qicore-observation-screening-assessment"]},"status":"final","category":[{"coding":[{"system":"http://terminology.hl7.org/CodeSystem/observation-category","code":"survey","display":"Survey"}]}],"code":{"coding":[{"system":"http://loinc.org","version":"2.76","code":"44261-6"}]},"subject":{"reference":"Patient/4963ead8-c4a7-4101-9fac-9a51732f1723"},"effectiveDateTime":"2025-02-25T14:35:00+00:00","valueInteger":10},"request":{"method":"PUT","url":"Observation/53aa416f-2867-4862-ba42-071ec88be882"}},{"fullUrl":"MeasureReport/0ff231a7-c0ee-4694-ac26-bfde3b42fe79","resource":{"resourceType":"MeasureReport","id":"0ff231a7-c0ee-4694-ac26-bfde3b42fe79","meta":{"profile":["http://hl7.org/fhir/us/cqfmeasures/StructureDefinition/test-case-cqfm"]},"contained":[{"resourceType":"Parameters","id":"0498f62c-49bf-4893-bd7c-d2df225927c8-parameters","parameter":[{"name":"subject","valueString":"4963ead8-c4a7-4101-9fac-9a51732f1723"}]}],"extension":[{"url":"http://hl7.org/fhir/StructureDefinition/cqf-inputParameters","valueReference":{"reference":"#0498f62c-49bf-4893-bd7c-d2df225927c8-parameters"}},{"url":"http://hl7.org/fhir/us/cqfmeasures/StructureDefinition/cqfm-testCaseDescription","valueMarkdown":"Patient is 42 years old and has a Major Depression diagnosis and PHQ-9>9 during the denom ID period. Patient had Personality Disorder diagnosis before end of MAP. Should be in denominator exclusion for Strat 2. "}],"modifierExtension":[{"url":"http://hl7.org/fhir/us/cqfmeasures/StructureDefinition/cqfm-isTestCase","valueBoolean":true}],"status":"complete","type":"individual","measure":"https://madie.cms.gov/Measure/CMS159FHIRDepressionRemissionatTwelveMonths","period":{"start":"2026-01-01","end":"2026-12-31"},"group":[{"id":"Group_1","population":[{"id":"InitialPopulation_1","code":{"coding":[{"system":"http://terminology.hl7.org/CodeSystem/measure-population","code":"initial-population","display":"Initial Population"}]},"count":1},{"id":"Denominator_1","code":{"coding":[{"system":"http://terminology.hl7.org/CodeSystem/measure-population","code":"denominator","display":"Denominator"}]},"count":1},{"id":"DenominatorExclusion_1","code":{"coding":[{"system":"http://terminology.hl7.org/CodeSystem/measure-population","code":"denominator-exclusion","display":"Denominator Exclusion"}]},"count":1},{"id":"Numerator_1","code":{"coding":[{"system":"http://terminology.hl7.org/CodeSystem/measure-population","code":"numerator","display":"Numerator"}]},"count":0}],"measureScore":{"value":1.0}}],"evaluatedResource":[{"reference":"Patient/4963ead8-c4a7-4101-9fac-9a51732f1723"},{"reference":"Encounter/94665bf4-1464-473b-ad5d-819e744f4d53"},{"reference":"Observation/53aa416f-2867-4862-ba42-071ec88be882"},{"reference":"Observation/7630740b-d8d4-4cc5-9bac-457f147a60fc"},{"reference":"Condition/c217d827-20c1-47c9-95e8-6100da03bfb2"},{"reference":"Condition/d57af081-3667-4e87-850e-377743ef69d8"}]},"request":{"method":"PUT","url":"MeasureReport/0ff231a7-c0ee-4694-ac26-bfde3b42fe79"}},{"fullUrl":"Condition/d57af081-3667-4e87-850e-377743ef69d8","resource":{"resourceType":"Condition","id":"d57af081-3667-4e87-850e-377743ef69d8","meta":{"profile":["http://hl7.org/fhir/us/qicore/StructureDefinition/qicore-condition-problems-health-concerns"]},"clinicalStatus":{"coding":[{"system":"http://terminology.hl7.org/CodeSystem/condition-clinical","code":"active","display":"active"}]},"verificationStatus":{"coding":[{"system":"http://terminology.hl7.org/CodeSystem/condition-ver-status","code":"confirmed"}]},"category":[{"coding":[{"system":"http://terminology.hl7.org/CodeSystem/condition-category","code":"problem-list-item","display":"Problem List Item"}]}],"code":{"coding":[{"system":"http://snomed.info/sct","version":"http://snomed.info/sct/731000124108/version/20240301","code":"191765005"}]},"subject":{"reference":"Patient/4963ead8-c4a7-4101-9fac-9a51732f1723"},"onsetDateTime":"2025-02-25T14:35:00+00:00"},"request":{"method":"PUT","url":"Condition/d57af081-3667-4e87-850e-377743ef69d8"}},{"fullUrl":"Observation/7630740b-d8d4-4cc5-9bac-457f147a60fc","resource":{"resourceType":"Observation","id":"7630740b-d8d4-4cc5-9bac-457f147a60fc","meta":{"profile":["http://hl7.org/fhir/us/qicore/StructureDefinition/qicore-observation-screening-assessment"]},"status":"final","category":[{"coding":[{"system":"http://terminology.hl7.org/CodeSystem/observation-category","code":"survey","display":"Survey"}]}],"code":{"coding":[{"system":"http://loinc.org","version":"2.76","code":"44261-6"}]},"subject":{"reference":"Patient/4963ead8-c4a7-4101-9fac-9a51732f1723"},"effectiveDateTime":"2026-02-19T14:30:00+00:00","valueInteger":3},"request":{"method":"PUT","url":"Observation/7630740b-d8d4-4cc5-9bac-457f147a60fc"}},{"fullUrl":"Condition/c217d827-20c1-47c9-95e8-6100da03bfb2","resource":{"resourceType":"Condition","id":"c217d827-20c1-47c9-95e8-6100da03bfb2","meta":{"profile":["http://hl7.org/fhir/us/qicore/StructureDefinition/qicore-condition-problems-health-concerns"]},"clinicalStatus":{"coding":[{"system":"http://terminology.hl7.org/CodeSystem/condition-clinical","code":"active","display":"active"}]},"verificationStatus":{"coding":[{"system":"http://terminology.hl7.org/CodeSystem/condition-ver-status","code":"confirmed"}]},"category":[{"coding":[{"system":"http://terminology.hl7.org/CodeSystem/condition-category","code":"problem-list-item","display":"Problem List Item"}]}],"code":{"coding":[{"system":"http://hl7.org/fhir/sid/icd-10-cm","version":"2024","code":"F32.9"}]},"subject":{"reference":"Patient/4963ead8-c4a7-4101-9fac-9a51732f1723"},"onsetDateTime":"2025-02-25T14:35:00+00:00"},"request":{"method":"PUT","url":"Condition/c217d827-20c1-47c9-95e8-6100da03bfb2"}},{"fullUrl":"Encounter/94665bf4-1464-473b-ad5d-819e744f4d53","resource":{"resourceType":"Encounter","id":"94665bf4-1464-473b-ad5d-819e744f4d53","meta":{"profile":["http://hl7.org/fhir/us/qicore/StructureDefinition/qicore-encounter"]},"status":"finished","class":{"system":"http://terminology.hl7.org/CodeSystem/v3-ActCode","code":"AMB","display":"ambulatory"},"type":[{"coding":[{"system":"http://www.ama-assn.org/go/cpt","version":"2024","code":"90791"}]}],"subject":{"reference":"Patient/4963ead8-c4a7-4101-9fac-9a51732f1723"},"period":{"start":"2025-02-25T14:30:00+00:00","end":"2025-02-25T14:50:00+00:00"},"length":{"value":0,"unit":"days"}},"request":{"method":"PUT","url":"Encounter/94665bf4-1464-473b-ad5d-819e744f4d53"}}]}