{
  "resourceType": "Bundle",
  "id": "6129132e02c62a011f2e636e",
  "type": "transaction",
  "entry": [ {
    "fullUrl": "https://madie.cms.gov/Patient/6abe0474-e60b-438d-b661-4be178e6b4bd",
    "resource": {
      "resourceType": "Patient",
      "id": "6abe0474-e60b-438d-b661-4be178e6b4bd",
      "meta": {
        "profile": [ "http://hl7.org/fhir/us/qicore/StructureDefinition/qicore-patient" ]
      },
      "text": {
        "status": "generated",
        "div": "<div xmlns=\"http://www.w3.org/1999/xhtml\"><div class=\"hapiHeaderText\">CMOdurEnc_ED=1hrObs=1hrBFEnc <b>DENEXPASS </b></div><table class=\"hapiPropertyTable\"><tbody><tr><td>Identifier</td><td>2d91ceeba148db3c346267cbc6c1af8c</td></tr><tr><td>Date of birth</td><td><span>21 August 1994</span></td></tr></tbody></table></div>"
      },
      "extension": [ {
        "url": "http://hl7.org/fhir/us/core/StructureDefinition/us-core-race",
        "extension": [ {
          "url": "ombCategory",
          "valueCoding": {
            "system": "urn:oid:2.16.840.1.113883.6.238",
            "code": "1002-5",
            "display": "American Indian or Alaska Native",
            "userSelected": true
          }
        }, {
          "url": "text",
          "valueString": "American Indian or Alaska Native"
        } ]
      }, {
        "url": "http://hl7.org/fhir/us/core/StructureDefinition/us-core-ethnicity",
        "extension": [ {
          "url": "ombCategory",
          "valueCoding": {
            "system": "urn:oid:2.16.840.1.113883.6.238",
            "code": "2135-2",
            "display": "Hispanic or Latino",
            "userSelected": true
          }
        }, {
          "url": "text",
          "valueString": "Hispanic or Latino"
        } ]
      } ],
      "identifier": [ {
        "type": {
          "coding": [ {
            "system": "http://terminology.hl7.org/CodeSystem/v2-0203",
            "code": "MR"
          } ]
        },
        "system": "https://bonnie-fhir.healthit.gov/",
        "value": "6129132e02c62a011f2e636e"
      } ],
      "active": true,
      "name": [ {
        "use": "usual",
        "family": "DENEXPass",
        "given": [ "CMOdurEnc_ED=1hrObs=1hrBFEnc" ]
      } ],
      "gender": "male",
      "birthDate": "1995-08-21"
    },
    "request": {
      "method": "PUT",
      "url": "Patient/6abe0474-e60b-438d-b661-4be178e6b4bd"
    }
  }, {
    "fullUrl": "https://madie.cms.gov/Encounter/61b8e1dc-5b1f-4b80-9260-73cf39f1519a",
    "resource": {
      "resourceType": "Encounter",
      "id": "61b8e1dc-5b1f-4b80-9260-73cf39f1519a",
      "meta": {
        "profile": [ "http://hl7.org/fhir/us/qicore/StructureDefinition/qicore-encounter" ]
      },
      "status": "finished",
      "class": {
        "system": "http://terminology.hl7.org/CodeSystem/v3-ActCode",
        "code": "EMER",
        "display": "emergency",
        "userSelected": true
      },
      "type": [ {
        "coding": [ {
          "system": "http://snomed.info/sct",
          "code": "4525004"
        } ]
      } ],
      "subject": {
        "reference": "Patient/6abe0474-e60b-438d-b661-4be178e6b4bd"
      },
      "period": {
        "start": "2026-10-09T08:00:00+00:00",
        "end": "2026-10-09T08:15:00.000+00:00"
      },
      "length": {
        "value": 0,
        "unit": "days"
      }
    },
    "request": {
      "method": "PUT",
      "url": "Encounter/61b8e1dc-5b1f-4b80-9260-73cf39f1519a"
    }
  }, {
    "fullUrl": "https://madie.cms.gov/Encounter/d86a0dac-389a-4560-a5ac-ee3bc1a74ec9",
    "resource": {
      "resourceType": "Encounter",
      "id": "d86a0dac-389a-4560-a5ac-ee3bc1a74ec9",
      "meta": {
        "profile": [ "http://hl7.org/fhir/us/qicore/StructureDefinition/qicore-encounter" ]
      },
      "status": "finished",
      "class": {
        "system": "http://terminology.hl7.org/CodeSystem/v3-ActCode",
        "code": "OBSENC",
        "display": "observation encounter",
        "userSelected": true
      },
      "type": [ {
        "coding": [ {
          "system": "http://snomed.info/sct",
          "code": "448851000124103"
        } ]
      } ],
      "subject": {
        "reference": "Patient/6abe0474-e60b-438d-b661-4be178e6b4bd"
      },
      "period": {
        "start": "2026-10-09T09:15:00+00:00",
        "end": "2026-10-09T09:30:00.000+00:00"
      },
      "length": {
        "value": 0,
        "unit": "days"
      }
    },
    "request": {
      "method": "PUT",
      "url": "Encounter/d86a0dac-389a-4560-a5ac-ee3bc1a74ec9"
    }
  }, {
    "fullUrl": "https://madie.cms.gov/Encounter/3e718404-5314-4a7a-bded-e84f1c5a1831",
    "resource": {
      "resourceType": "Encounter",
      "id": "3e718404-5314-4a7a-bded-e84f1c5a1831",
      "meta": {
        "profile": [ "http://hl7.org/fhir/us/qicore/StructureDefinition/qicore-encounter" ]
      },
      "status": "finished",
      "class": {
        "system": "http://terminology.hl7.org/CodeSystem/v3-ActCode",
        "code": "IMP",
        "display": "inpatient encounter",
        "userSelected": true
      },
      "type": [ {
        "coding": [ {
          "system": "http://snomed.info/sct",
          "code": "32485007"
        } ]
      } ],
      "subject": {
        "reference": "Patient/6abe0474-e60b-438d-b661-4be178e6b4bd"
      },
      "period": {
        "start": "2026-10-10T10:30:00+00:00",
        "end": "2026-10-12T10:30:00.000+00:00"
      },
      "length": {
        "value": 2,
        "unit": "days"
      },
      "diagnosis": [ {
        "condition": {
          "reference": "Condition/dc3bf5e6-b98c-4ee8-835d-f89b647fb479"
        },
        "use": {
          "coding": [ {
            "system": "http://terminology.hl7.org/CodeSystem/diagnosis-role",
            "code": "billing",
            "display": "Billing"
          } ]
        },
        "rank": 1
      } ]
    },
    "request": {
      "method": "PUT",
      "url": "Encounter/3e718404-5314-4a7a-bded-e84f1c5a1831"
    }
  }, {
    "fullUrl": "https://madie.cms.gov/claim/5ca62962b8484628b8de1ec5",
    "resource": {
      "resourceType": "Claim",
      "id": "5ca62962b8484628b8de1ec5",
      "meta": {
        "profile": [ "http://hl7.org/fhir/us/qicore/StructureDefinition/qicore-claim" ]
      },
      "status": "active",
      "type": {
        "coding": [ {
          "system": "http://terminology.hl7.org/CodeSystem/claim-type",
          "code": "institutional"
        } ]
      },
      "use": "claim",
      "patient": {
        "reference": "Patient/d170a0a8-b5ad-4303-b6df-e304dd5f92ad"
      },
      "created": "2026-12-01",
      "provider": {
        "reference": "Practitioner/practitioner-123456"
      },
      "priority": {
        "coding": [ {
          "system": "http://terminology.hl7.org/CodeSystem/processpriority",
          "code": "normal"
        } ]
      },
      "diagnosis": [ {
        "sequence": 1,
        "diagnosisCodeableConcept": {
          "coding": [ {
            "system": "http://hl7.org/fhir/sid/icd-10-cm",
            "code": "I63.00"
          } ]
        },
        "type": [ {
          "coding": [ {
            "system": "http://terminology.hl7.org/CodeSystem/ex-diagnosistype",
            "code": "principal"
          } ]
        } ]
      } ],
      "insurance": [ {
        "sequence": 1,
        "focal": true,
        "coverage": {
          "reference": "Coverage/5fa041661c76ba66d9959367"
        }
      } ],
      "item": [ {
        "sequence": 1,
        "diagnosisSequence": [ 1 ],
        "productOrService": {
          "coding": [ {
            "system": "http://terminology.hl7.org/CodeSystem/ex-USCLS",
            "code": "99555"
          } ]
        },
        "encounter": [ {
          "reference": "Encounter/3e718404-5314-4a7a-bded-e84f1c5a1831"
        } ]
      } ]
    },
    "request": {
      "method": "PUT",
      "url": "Claim/5ca62962b8484628b8de1ec5"
    }
  }, {
    "fullUrl": "https://madie.cms.gov/ServiceRequest/f1f74456-81d4-48ab-ad7b-815aee256226",
    "resource": {
      "resourceType": "ServiceRequest",
      "id": "f1f74456-81d4-48ab-ad7b-815aee256226",
      "meta": {
        "profile": [ "http://hl7.org/fhir/us/qicore/StructureDefinition/qicore-servicerequest" ]
      },
      "status": "active",
      "intent": "order",
      "code": {
        "coding": [ {
          "system": "http://snomed.info/sct",
          "code": "133918004"
        } ]
      },
      "subject": {
        "reference": "Patient/6abe0474-e60b-438d-b661-4be178e6b4bd"
      },
      "authoredOn": "2026-10-10T10:30:00+00:00"
    },
    "request": {
      "method": "PUT",
      "url": "ServiceRequest/f1f74456-81d4-48ab-ad7b-815aee256226"
    }
  }, {
    "fullUrl": "https://madie.cms.gov/Condition/dc3bf5e6-b98c-4ee8-835d-f89b647fb479",
    "resource": {
      "resourceType": "Condition",
      "id": "dc3bf5e6-b98c-4ee8-835d-f89b647fb479",
      "meta": {
        "profile": [ "http://hl7.org/fhir/us/qicore/StructureDefinition/qicore-condition" ]
      },
      "clinicalStatus": {
        "coding": [ {
          "system": "http://terminology.hl7.org/CodeSystem/condition-clinical",
          "code": "active"
        } ]
      },
      "verificationStatus": {
        "coding": [ {
          "system": "http://terminology.hl7.org/CodeSystem/condition-ver-status",
          "code": "confirmed"
        } ]
      },
      "category": [ {
        "coding": [ {
          "system": "http://terminology.hl7.org/CodeSystem/condition-category",
          "code": "encounter-diagnosis",
          "display": "Encounter Diagnosis"
        } ]
      } ],
      "code": {
        "coding": [ {
          "system": "http://snomed.info/sct",
          "version": "2020-09",
          "code": "111297002",
          "display": "Nonparalytic stroke (disorder)",
          "userSelected": true
        } ]
      },
      "subject": {
        "reference": "Patient/6abe0474-e60b-438d-b661-4be178e6b4bd"
      },
      "recordedDate": "2026-07-14T08:00:00+00:00"
    },
    "request": {
      "method": "PUT",
      "url": "Condition/dc3bf5e6-b98c-4ee8-835d-f89b647fb479"
    }
  }, {
    "fullUrl": "https://madie.cms.gov/Coverage/ef68c033-a816-47cd-a343-c18a6c10fff2",
    "resource": {
      "resourceType": "Coverage",
      "id": "ef68c033-a816-47cd-a343-c18a6c10fff2",
      "meta": {
        "profile": [ "http://hl7.org/fhir/us/qicore/StructureDefinition/qicore-coverage" ]
      },
      "status": "active",
      "beneficiary": {
        "reference": "Patient/6abe0474-e60b-438d-b661-4be178e6b4bd"
      },
      "payor": [ {
        "reference": "Organization/39544750-0b47-411b-80a9-90fa56039ccf"
      } ]
    },
    "request": {
      "method": "PUT",
      "url": "Coverage/ef68c033-a816-47cd-a343-c18a6c10fff2"
    }
  }, {
    "fullUrl": "https://madie.cms.gov/Organization/39544750-0b47-411b-80a9-90fa56039ccf",
    "resource": {
      "resourceType": "Organization",
      "id": "39544750-0b47-411b-80a9-90fa56039ccf",
      "meta": {
        "profile": [ "http://hl7.org/fhir/us/qicore/StructureDefinition/qicore-organization" ]
      },
      "identifier": [ {
        "use": "temp",
        "system": "urn:oid:2.16.840.1.113883.4.4",
        "value": "21-3259825"
      } ],
      "active": true,
      "type": [ {
        "coding": [ {
          "system": "http://terminology.hl7.org/CodeSystem/organization-type",
          "code": "pay",
          "display": "Payer"
        } ]
      } ],
      "name": "Blue Cross Blue Shield of Texas",
      "telecom": [ {
        "system": "phone",
        "value": "(+1) 972-766-6900"
      } ],
      "address": [ {
        "use": "billing",
        "type": "postal",
        "line": [ "P.O. Box 660044" ],
        "city": "Dallas",
        "state": "TX",
        "postalCode": "75266-0044",
        "country": "USA"
      } ]
    },
    "request": {
      "method": "PUT",
      "url": "Organization/39544750-0b47-411b-80a9-90fa56039ccf"
    }
  }, {
    "fullUrl": "https://madie.cms.gov/MeasureReport/fd29f8f7-fb4f-4efd-9c0d-dcb51522a635",
    "resource": {
      "resourceType": "MeasureReport",
      "id": "fd29f8f7-fb4f-4efd-9c0d-dcb51522a635",
      "meta": {
        "profile": [ "http://hl7.org/fhir/us/cqfmeasures/StructureDefinition/test-case-cqfm" ]
      },
      "contained": [ {
        "resourceType": "Parameters",
        "id": "244086da-52d0-4508-b622-da83567a8da3-parameters",
        "parameter": [ {
          "name": "subject",
          "valueString": "6abe0474-e60b-438d-b661-4be178e6b4bd"
        } ]
      } ],
      "extension": [ {
        "url": "http://hl7.org/fhir/StructureDefinition/cqf-inputParameters",
        "valueReference": {
          "reference": "#244086da-52d0-4508-b622-da83567a8da3-parameters"
        }
      }, {
        "url": "http://hl7.org/fhir/us/cqfmeasures/StructureDefinition/cqfm-testCaseDescription",
        "valueMarkdown": "Patient receives CMO during inpatient encounter. ED ends 60 minutes before observation. Obs ends 60 min before inpatient encounter start. Testing day of operator with HospitalizationWithObservation function."
      } ],
      "modifierExtension": [ {
        "url": "http://hl7.org/fhir/us/cqfmeasures/StructureDefinition/cqfm-isTestCase",
        "valueBoolean": true
      } ],
      "status": "complete",
      "type": "individual",
      "measure": "https://madie.cms.gov/Measure/CMS104FHIRSTKDCAntithrombotic",
      "period": {
        "start": "2026-01-01",
        "end": "2026-12-31"
      },
      "group": [ {
        "id": "Group_1",
        "population": [ {
          "id": "InitialPopulation_1",
          "code": {
            "coding": [ {
              "system": "http://terminology.hl7.org/CodeSystem/measure-population",
              "code": "initial-population",
              "display": "Initial Population"
            } ]
          },
          "count": 1
        }, {
          "id": "Denominator_1",
          "code": {
            "coding": [ {
              "system": "http://terminology.hl7.org/CodeSystem/measure-population",
              "code": "denominator",
              "display": "Denominator"
            } ]
          },
          "count": 1
        }, {
          "id": "DenominatorExclusion_1",
          "code": {
            "coding": [ {
              "system": "http://terminology.hl7.org/CodeSystem/measure-population",
              "code": "denominator-exclusion",
              "display": "Denominator Exclusion"
            } ]
          },
          "count": 1
        }, {
          "id": "Numerator_1",
          "code": {
            "coding": [ {
              "system": "http://terminology.hl7.org/CodeSystem/measure-population",
              "code": "numerator",
              "display": "Numerator"
            } ]
          },
          "count": 0
        }, {
          "id": "DenominatorException_1",
          "code": {
            "coding": [ {
              "system": "http://terminology.hl7.org/CodeSystem/measure-population",
              "code": "denominator-exception",
              "display": "Denominator Exception"
            } ]
          },
          "count": 0
        } ],
        "measureScore": {
          "value": 0.0
        }
      } ],
      "evaluatedResource": [ {
        "reference": "Patient/6abe0474-e60b-438d-b661-4be178e6b4bd"
      }, {
        "reference": "Encounter/61b8e1dc-5b1f-4b80-9260-73cf39f1519a"
      }, {
        "reference": "Encounter/d86a0dac-389a-4560-a5ac-ee3bc1a74ec9"
      }, {
        "reference": "Encounter/3e718404-5314-4a7a-bded-e84f1c5a1831"
      }, {
        "reference": "Claim/5ca62962b8484628b8de1ec5"
      }, {
        "reference": "ServiceRequest/f1f74456-81d4-48ab-ad7b-815aee256226"
      }, {
        "reference": "Condition/dc3bf5e6-b98c-4ee8-835d-f89b647fb479"
      }, {
        "reference": "Coverage/ef68c033-a816-47cd-a343-c18a6c10fff2"
      }, {
        "reference": "Organization/39544750-0b47-411b-80a9-90fa56039ccf"
      } ]
    },
    "request": {
      "method": "PUT",
      "url": "MeasureReport/fd29f8f7-fb4f-4efd-9c0d-dcb51522a635"
    }
  } ]
}