{
  "resourceType": "Bundle",
  "id": "62ec286bea03a4ebacd6a07b",
  "type": "transaction",
  "entry": [ {
    "fullUrl": "https://madie.cms.gov/Patient/db7bf97d-edaf-41c9-bf02-81a3f31db686",
    "resource": {
      "resourceType": "Patient",
      "id": "db7bf97d-edaf-41c9-bf02-81a3f31db686",
      "meta": {
        "profile": [ "http://hl7.org/fhir/us/qicore/StructureDefinition/qicore-patient" ]
      },
      "extension": [ {
        "url": "http://hl7.org/fhir/us/core/StructureDefinition/us-core-race",
        "extension": [ {
          "url": "ombCategory",
          "valueCoding": {
            "system": "urn:oid:2.16.840.1.113883.6.238",
            "code": "2076-8",
            "display": "Native Hawaiian or Other Pacific Islander",
            "userSelected": true
          }
        }, {
          "url": "text",
          "valueString": "Native Hawaiian or Other Pacific Islander"
        } ]
      }, {
        "url": "http://hl7.org/fhir/us/core/StructureDefinition/us-core-ethnicity",
        "extension": [ {
          "url": "ombCategory",
          "valueCoding": {
            "system": "urn:oid:2.16.840.1.113883.6.238",
            "code": "2135-2",
            "display": "Hispanic or Latino",
            "userSelected": true
          }
        }, {
          "url": "text",
          "valueString": "Hispanic or Latino"
        } ]
      } ],
      "identifier": [ {
        "type": {
          "coding": [ {
            "system": "http://terminology.hl7.org/CodeSystem/v2-0203",
            "code": "MR"
          } ]
        },
        "system": "https://bonnie-fhir.healthit.gov/",
        "value": "62ec286bea03a4ebacd6a07b"
      } ],
      "name": [ {
        "family": "IPPDenomFail",
        "given": [ "Encounter1MinBeforeMPBegins" ]
      } ],
      "gender": "male",
      "birthDate": "2008-12-26"
    },
    "request": {
      "method": "PUT",
      "url": "Patient/db7bf97d-edaf-41c9-bf02-81a3f31db686"
    }
  }, {
    "fullUrl": "https://madie.cms.gov/Encounter/3a53a141-3fe3-463d-94d5-f7b216f23144",
    "resource": {
      "resourceType": "Encounter",
      "id": "3a53a141-3fe3-463d-94d5-f7b216f23144",
      "meta": {
        "profile": [ "http://hl7.org/fhir/us/qicore/StructureDefinition/qicore-encounter" ]
      },
      "status": "finished",
      "class": {
        "system": "http://terminology.hl7.org/CodeSystem/v3-ActCode",
        "code": "IMP",
        "display": "inpatient encounter"
      },
      "type": [ {
        "coding": [ {
          "system": "http://snomed.info/sct",
          "version": "2022-03",
          "code": "10197000",
          "display": "Psychiatric interview and evaluation (procedure)",
          "userSelected": true
        } ]
      } ],
      "subject": {
        "reference": "Patient/db7bf97d-edaf-41c9-bf02-81a3f31db686"
      },
      "period": {
        "start": "2025-12-31T08:00:00.000+00:00",
        "end": "2025-12-31T09:15:00.000+00:00"
      }
    },
    "request": {
      "method": "PUT",
      "url": "Encounter/3a53a141-3fe3-463d-94d5-f7b216f23144"
    }
  }, {
    "fullUrl": "https://madie.cms.gov/MeasureReport/6b01a32e-1031-4ad3-977c-a3265b61f482",
    "resource": {
      "resourceType": "MeasureReport",
      "id": "6b01a32e-1031-4ad3-977c-a3265b61f482",
      "meta": {
        "profile": [ "http://hl7.org/fhir/us/cqfmeasures/StructureDefinition/test-case-cqfm" ]
      },
      "contained": [ {
        "resourceType": "Parameters",
        "id": "04edd65c-4fa6-4680-813e-3e1acca3a120-parameters",
        "parameter": [ {
          "name": "subject",
          "valueString": "db7bf97d-edaf-41c9-bf02-81a3f31db686"
        } ]
      } ],
      "extension": [ {
        "url": "http://hl7.org/fhir/StructureDefinition/cqf-inputParameters",
        "valueReference": {
          "reference": "#04edd65c-4fa6-4680-813e-3e1acca3a120-parameters"
        }
      }, {
        "url": "http://hl7.org/fhir/us/cqfmeasures/StructureDefinition/cqfm-testCaseDescription",
        "valueMarkdown": "Qualifying encounter 1 minute before MP begins"
      } ],
      "modifierExtension": [ {
        "url": "http://hl7.org/fhir/us/cqfmeasures/StructureDefinition/cqfm-isTestCase",
        "valueBoolean": true
      } ],
      "status": "complete",
      "type": "individual",
      "measure": "https://madie.cms.gov/Measure/CMS68FHIRDocumentationofCurrentMedications",
      "period": {
        "start": "2026-01-01",
        "end": "2026-12-31"
      },
      "group": [ {
        "id": "Group_1",
        "population": [ {
          "id": "InitialPopulation_1",
          "code": {
            "coding": [ {
              "system": "http://terminology.hl7.org/CodeSystem/measure-population",
              "code": "initial-population",
              "display": "Initial Population"
            } ]
          },
          "count": 0
        }, {
          "id": "Denominator_1",
          "code": {
            "coding": [ {
              "system": "http://terminology.hl7.org/CodeSystem/measure-population",
              "code": "denominator",
              "display": "Denominator"
            } ]
          },
          "count": 0
        }, {
          "id": "Numerator_1",
          "code": {
            "coding": [ {
              "system": "http://terminology.hl7.org/CodeSystem/measure-population",
              "code": "numerator",
              "display": "Numerator"
            } ]
          },
          "count": 0
        }, {
          "id": "DenominatorException_1",
          "code": {
            "coding": [ {
              "system": "http://terminology.hl7.org/CodeSystem/measure-population",
              "code": "denominator-exception",
              "display": "Denominator Exception"
            } ]
          },
          "count": 0
        } ],
        "measureScore": {
          "value": 0.0
        }
      } ],
      "evaluatedResource": [ {
        "reference": "Patient/db7bf97d-edaf-41c9-bf02-81a3f31db686"
      }, {
        "reference": "Encounter/3a53a141-3fe3-463d-94d5-f7b216f23144"
      } ]
    },
    "request": {
      "method": "PUT",
      "url": "MeasureReport/6b01a32e-1031-4ad3-977c-a3265b61f482"
    }
  } ]
}