{
  "resourceType": "Bundle",
  "id": "612e6eb702c62a011f2ef567",
  "type": "transaction",
  "entry": [ {
    "fullUrl": "https://madie.cms.gov/Patient/99fbf673-e18e-43db-bccf-6edc67fcb13f",
    "resource": {
      "resourceType": "Patient",
      "id": "99fbf673-e18e-43db-bccf-6edc67fcb13f",
      "meta": {
        "profile": [ "http://hl7.org/fhir/us/qicore/StructureDefinition/qicore-patient" ]
      },
      "text": {
        "status": "generated",
        "div": "<div xmlns=\"http://www.w3.org/1999/xhtml\"><div class=\"hapiHeaderText\">MAWarfarinDayOfICUMedAdmBFICUStart <b>NUMERPASS </b></div><table class=\"hapiPropertyTable\"><tbody><tr><td>Identifier</td><td>4a57e8e4a87323501c4bde2e71e8e471</td></tr><tr><td>Date of birth</td><td><span>03 March 1974</span></td></tr></tbody></table></div>"
      },
      "extension": [ {
        "url": "http://hl7.org/fhir/us/core/StructureDefinition/us-core-race",
        "extension": [ {
          "url": "ombCategory",
          "valueCoding": {
            "system": "urn:oid:2.16.840.1.113883.6.238",
            "code": "1002-5",
            "display": "American Indian or Alaska Native",
            "userSelected": true
          }
        }, {
          "url": "text",
          "valueString": "American Indian or Alaska Native"
        } ]
      }, {
        "url": "http://hl7.org/fhir/us/core/StructureDefinition/us-core-ethnicity",
        "extension": [ {
          "url": "ombCategory",
          "valueCoding": {
            "system": "urn:oid:2.16.840.1.113883.6.238",
            "code": "2135-2",
            "display": "Hispanic or Latino",
            "userSelected": true
          }
        }, {
          "url": "text",
          "valueString": "Hispanic or Latino"
        } ]
      } ],
      "identifier": [ {
        "type": {
          "coding": [ {
            "system": "http://terminology.hl7.org/CodeSystem/v2-0203",
            "code": "MR"
          } ]
        },
        "system": "https://bonnie-fhir.healthit.gov/",
        "value": "612e6eb702c62a011f2ef567"
      } ],
      "active": true,
      "name": [ {
        "use": "usual",
        "family": "NUMERPass",
        "given": [ "MAWarfarinDayOfICUMedAdmBFICUStart" ]
      } ],
      "gender": "female",
      "birthDate": "1975-03-03"
    },
    "request": {
      "method": "PUT",
      "url": "Patient/99fbf673-e18e-43db-bccf-6edc67fcb13f"
    }
  }, {
    "fullUrl": "https://madie.cms.gov/Encounter/3802cc54-0b74-4530-b89e-8a3ebbea8eff",
    "resource": {
      "resourceType": "Encounter",
      "id": "3802cc54-0b74-4530-b89e-8a3ebbea8eff",
      "meta": {
        "profile": [ "http://hl7.org/fhir/us/qicore/StructureDefinition/qicore-encounter" ]
      },
      "status": "finished",
      "class": {
        "system": "http://terminology.hl7.org/CodeSystem/v3-ActCode",
        "code": "IMP",
        "display": "inpatient encounter"
      },
      "type": [ {
        "coding": [ {
          "system": "http://snomed.info/sct",
          "code": "8715000"
        } ]
      } ],
      "subject": {
        "reference": "Patient/99fbf673-e18e-43db-bccf-6edc67fcb13f"
      },
      "period": {
        "start": "2026-12-01T06:00:00.000+00:00",
        "end": "2026-12-31T23:59:00.000+00:00"
      },
      "length": {
        "value": 30.0,
        "unit": "days"
      },
      "location": [ {
        "location": {
          "reference": "Location/927b5b66-e6a4-4e2e-bbe6-dc46752351fa"
        },
        "period": {
          "start": "2026-12-02T09:00:00.000+00:00",
          "end": "2026-12-10T08:15:00.000+00:00"
        }
      } ]
    },
    "request": {
      "method": "PUT",
      "url": "Encounter/3802cc54-0b74-4530-b89e-8a3ebbea8eff"
    }
  }, {
    "fullUrl": "https://madie.cms.gov/Coverage/58c76622-122b-4372-8070-5331b95064f0",
    "resource": {
      "resourceType": "Coverage",
      "id": "58c76622-122b-4372-8070-5331b95064f0",
      "status": "active",
      "beneficiary": {
        "reference": "Patient/99fbf673-e18e-43db-bccf-6edc67fcb13f"
      },
      "period": {
        "start": "1975-03-03T08:00:00.000+00:00"
      },
      "payor": [ {
        "reference": "Organization/c4fe7b19-9333-4112-998f-eeffbcefcd5f"
      } ]
    },
    "request": {
      "method": "PUT",
      "url": "Coverage/58c76622-122b-4372-8070-5331b95064f0"
    }
  }, {
    "fullUrl": "https://madie.cms.gov/MedicationAdministration/9383cbf6-1e64-4e06-9799-f895ca5fcc2b",
    "resource": {
      "resourceType": "MedicationAdministration",
      "id": "9383cbf6-1e64-4e06-9799-f895ca5fcc2b",
      "meta": {
        "profile": [ "http://hl7.org/fhir/us/qicore/StructureDefinition/qicore-medicationadministration" ]
      },
      "status": "completed",
      "medicationCodeableConcept": {
        "coding": [ {
          "system": "http://www.nlm.nih.gov/research/umls/rxnorm",
          "code": "855288"
        } ]
      },
      "subject": {
        "reference": "Patient/99fbf673-e18e-43db-bccf-6edc67fcb13f"
      },
      "effectivePeriod": {
        "start": "2026-12-02T06:59:00.000+00:00"
      }
    },
    "request": {
      "method": "PUT",
      "url": "MedicationAdministration/9383cbf6-1e64-4e06-9799-f895ca5fcc2b"
    }
  }, {
    "fullUrl": "https://madie.cms.gov/Location/927b5b66-e6a4-4e2e-bbe6-dc46752351fa",
    "resource": {
      "resourceType": "Location",
      "id": "927b5b66-e6a4-4e2e-bbe6-dc46752351fa",
      "meta": {
        "profile": [ "http://hl7.org/fhir/us/qicore/StructureDefinition/qicore-location" ]
      },
      "identifier": [ {
        "use": "usual",
        "system": "http://exampleoflocation.com",
        "value": "B1-S.F2"
      } ],
      "name": "Medical Surgical East, first floor",
      "type": [ {
        "coding": [ {
          "system": "https://www.cdc.gov/nhsn/cdaportal/terminology/codesystem/hsloc.html",
          "code": "1025-6",
          "display": "Trauma Critical Care",
          "userSelected": true
        } ]
      } ]
    },
    "request": {
      "method": "PUT",
      "url": "Location/927b5b66-e6a4-4e2e-bbe6-dc46752351fa"
    }
  }, {
    "fullUrl": "https://madie.cms.gov/Organization/c4fe7b19-9333-4112-998f-eeffbcefcd5f",
    "resource": {
      "resourceType": "Organization",
      "id": "c4fe7b19-9333-4112-998f-eeffbcefcd5f",
      "meta": {
        "profile": [ "http://hl7.org/fhir/us/qicore/StructureDefinition/qicore-organization" ]
      },
      "identifier": [ {
        "use": "temp",
        "system": "urn:oid:2.16.840.1.113883.4.4",
        "value": "21-3259825"
      } ],
      "active": true,
      "type": [ {
        "coding": [ {
          "system": "http://terminology.hl7.org/CodeSystem/organization-type",
          "code": "pay",
          "display": "Payer"
        } ]
      } ],
      "name": "Blue Cross Blue Shield of Texas",
      "telecom": [ {
        "system": "phone",
        "value": "(+1) 972-766-6900"
      } ],
      "address": [ {
        "use": "billing",
        "type": "postal",
        "line": [ "P.O. Box 660044" ],
        "city": "Dallas",
        "state": "TX",
        "postalCode": "75266-0044",
        "country": "USA"
      } ]
    },
    "request": {
      "method": "PUT",
      "url": "Organization/c4fe7b19-9333-4112-998f-eeffbcefcd5f"
    }
  }, {
    "fullUrl": "https://madie.cms.gov/Practitioner/3e785587-5583-4745-b878-4cbc8f6501bc",
    "resource": {
      "resourceType": "Practitioner",
      "id": "3e785587-5583-4745-b878-4cbc8f6501bc",
      "identifier": [ {
        "system": "http://hl7.org/fhir/sid/us-npi",
        "value": "123456"
      } ],
      "name": [ {
        "family": "Evil",
        "prefix": [ "Dr" ]
      } ]
    },
    "request": {
      "method": "PUT",
      "url": "Practitioner/3e785587-5583-4745-b878-4cbc8f6501bc"
    }
  }, {
    "fullUrl": "https://madie.cms.gov/MeasureReport/91b70455-184d-408e-8878-27e2778ddedc",
    "resource": {
      "resourceType": "MeasureReport",
      "id": "91b70455-184d-408e-8878-27e2778ddedc",
      "meta": {
        "profile": [ "http://hl7.org/fhir/us/cqfmeasures/StructureDefinition/test-case-cqfm" ]
      },
      "contained": [ {
        "resourceType": "Parameters",
        "id": "d962a9a7-4b70-4c35-bb41-3ae565d9cb28-parameters",
        "parameter": [ {
          "name": "subject",
          "valueString": "99fbf673-e18e-43db-bccf-6edc67fcb13f"
        } ]
      } ],
      "extension": [ {
        "url": "http://hl7.org/fhir/StructureDefinition/cqf-inputParameters",
        "valueReference": {
          "reference": "#d962a9a7-4b70-4c35-bb41-3ae565d9cb28-parameters"
        }
      }, {
        "url": "http://hl7.org/fhir/us/cqfmeasures/StructureDefinition/cqfm-testCaseDescription",
        "valueMarkdown": "Warfarin was given  before ICU Start time but on the same day of ICU adm date"
      } ],
      "modifierExtension": [ {
        "url": "http://hl7.org/fhir/us/cqfmeasures/StructureDefinition/cqfm-isTestCase",
        "valueBoolean": true
      } ],
      "status": "complete",
      "type": "individual",
      "measure": "https://madie.cms.gov/Measure/CMS190VTEProphylaxisICUFHIR",
      "period": {
        "start": "2026-01-01",
        "end": "2026-12-31"
      },
      "group": [ {
        "id": "Group_1",
        "population": [ {
          "id": "InitialPopulation_1",
          "code": {
            "coding": [ {
              "system": "http://terminology.hl7.org/CodeSystem/measure-population",
              "code": "initial-population",
              "display": "Initial Population"
            } ]
          },
          "count": 1
        }, {
          "id": "Denominator_1",
          "code": {
            "coding": [ {
              "system": "http://terminology.hl7.org/CodeSystem/measure-population",
              "code": "denominator",
              "display": "Denominator"
            } ]
          },
          "count": 1
        }, {
          "id": "DenominatorExclusion_1",
          "code": {
            "coding": [ {
              "system": "http://terminology.hl7.org/CodeSystem/measure-population",
              "code": "denominator-exclusion",
              "display": "Denominator Exclusion"
            } ]
          },
          "count": 0
        }, {
          "id": "Numerator_1",
          "code": {
            "coding": [ {
              "system": "http://terminology.hl7.org/CodeSystem/measure-population",
              "code": "numerator",
              "display": "Numerator"
            } ]
          },
          "count": 1
        }, {
          "id": "DenominatorException_1",
          "code": {
            "coding": [ {
              "system": "http://terminology.hl7.org/CodeSystem/measure-population",
              "code": "denominator-exception",
              "display": "Denominator Exception"
            } ]
          },
          "count": 0
        } ],
        "measureScore": {
          "value": 0.0
        }
      } ],
      "evaluatedResource": [ {
        "reference": "Patient/99fbf673-e18e-43db-bccf-6edc67fcb13f"
      }, {
        "reference": "Encounter/3802cc54-0b74-4530-b89e-8a3ebbea8eff"
      }, {
        "reference": "Coverage/58c76622-122b-4372-8070-5331b95064f0"
      }, {
        "reference": "MedicationAdministration/9383cbf6-1e64-4e06-9799-f895ca5fcc2b"
      }, {
        "reference": "Location/927b5b66-e6a4-4e2e-bbe6-dc46752351fa"
      }, {
        "reference": "Organization/c4fe7b19-9333-4112-998f-eeffbcefcd5f"
      }, {
        "reference": "Practitioner/3e785587-5583-4745-b878-4cbc8f6501bc"
      } ]
    },
    "request": {
      "method": "PUT",
      "url": "MeasureReport/91b70455-184d-408e-8878-27e2778ddedc"
    }
  } ]
}