{
  "resourceType": "Bundle",
  "id": "630307bd0968f80122477479",
  "type": "transaction",
  "entry": [ {
    "fullUrl": "https://madie.cms.gov/Patient/8467758b-18c6-4576-87cf-c2aeec2e11f9",
    "resource": {
      "resourceType": "Patient",
      "id": "8467758b-18c6-4576-87cf-c2aeec2e11f9",
      "meta": {
        "profile": [ "http://hl7.org/fhir/us/qicore/StructureDefinition/qicore-patient" ]
      },
      "extension": [ {
        "url": "http://hl7.org/fhir/us/core/StructureDefinition/us-core-race",
        "extension": [ {
          "url": "ombCategory",
          "valueCoding": {
            "system": "urn:oid:2.16.840.1.113883.6.238",
            "code": "2106-3",
            "display": "White"
          }
        }, {
          "url": "text",
          "valueString": "White"
        } ]
      }, {
        "url": "http://hl7.org/fhir/us/core/StructureDefinition/us-core-ethnicity",
        "extension": [ {
          "url": "ombCategory",
          "valueCoding": {
            "system": "urn:oid:2.16.840.1.113883.6.238",
            "code": "2186-5",
            "display": "Not Hispanic or Latino"
          }
        }, {
          "url": "text",
          "valueString": "Not Hispanic or Latino"
        } ]
      } ],
      "identifier": [ {
        "type": {
          "coding": [ {
            "system": "http://terminology.hl7.org/CodeSystem/v2-0203",
            "code": "MR"
          } ]
        },
        "system": "https://bonnie-fhir.healthit.gov/",
        "value": "630307bd0968f80122477479"
      } ],
      "name": [ {
        "family": "IPPPopStrat2Pass",
        "given": [ "Patientis18 " ]
      } ],
      "gender": "female",
      "birthDate": "2013-06-24"
    },
    "request": {
      "method": "PUT",
      "url": "Patient/8467758b-18c6-4576-87cf-c2aeec2e11f9"
    }
  }, {
    "fullUrl": "https://madie.cms.gov/Encounter/b4c26927-08e2-4c66-9155-acfda9ab4fa2",
    "resource": {
      "resourceType": "Encounter",
      "id": "b4c26927-08e2-4c66-9155-acfda9ab4fa2",
      "meta": {
        "profile": [ "http://hl7.org/fhir/us/qicore/StructureDefinition/qicore-encounter" ]
      },
      "status": "finished",
      "class": {
        "system": "http://terminology.hl7.org/CodeSystem/v3-ActCode",
        "code": "AMB",
        "display": "ambulatory"
      },
      "type": [ {
        "coding": [ {
          "system": "http://www.ama-assn.org/go/cpt",
          "version": "2024",
          "code": "90791"
        } ]
      } ],
      "subject": {
        "reference": "Patient/8467758b-18c6-4576-87cf-c2aeec2e11f9"
      },
      "period": {
        "start": "2025-06-25T14:30:00+00:00",
        "end": "2025-06-25T14:50:00+00:00"
      },
      "length": {
        "value": 0,
        "unit": "days"
      }
    },
    "request": {
      "method": "PUT",
      "url": "Encounter/b4c26927-08e2-4c66-9155-acfda9ab4fa2"
    }
  }, {
    "fullUrl": "https://madie.cms.gov/Observation/11ebb05e-2400-449a-9561-b9967760ad64",
    "resource": {
      "resourceType": "Observation",
      "id": "11ebb05e-2400-449a-9561-b9967760ad64",
      "meta": {
        "profile": [ "http://hl7.org/fhir/us/qicore/StructureDefinition/qicore-observation-screening-assessment" ]
      },
      "status": "final",
      "category": [ {
        "coding": [ {
          "system": "http://terminology.hl7.org/CodeSystem/observation-category",
          "code": "survey",
          "display": "Survey"
        } ]
      } ],
      "code": {
        "coding": [ {
          "system": "http://loinc.org",
          "version": "2.76",
          "code": "44261-6"
        } ]
      },
      "subject": {
        "reference": "Patient/8467758b-18c6-4576-87cf-c2aeec2e11f9"
      },
      "effectiveDateTime": "2025-06-25T14:35:00+00:00",
      "valueInteger": 11
    },
    "request": {
      "method": "PUT",
      "url": "Observation/11ebb05e-2400-449a-9561-b9967760ad64"
    }
  }, {
    "fullUrl": "https://madie.cms.gov/Condition/5ece559c-9ddd-454c-bcfe-4d8fcc263b92",
    "resource": {
      "resourceType": "Condition",
      "id": "5ece559c-9ddd-454c-bcfe-4d8fcc263b92",
      "meta": {
        "profile": [ "http://hl7.org/fhir/us/qicore/StructureDefinition/qicore-condition-problems-health-concerns" ]
      },
      "clinicalStatus": {
        "coding": [ {
          "system": "http://terminology.hl7.org/CodeSystem/condition-clinical",
          "code": "active",
          "display": "active"
        } ]
      },
      "verificationStatus": {
        "coding": [ {
          "system": "http://terminology.hl7.org/CodeSystem/condition-ver-status",
          "code": "confirmed"
        } ]
      },
      "category": [ {
        "coding": [ {
          "system": "http://terminology.hl7.org/CodeSystem/condition-category",
          "code": "problem-list-item",
          "display": "Problem List Item"
        } ]
      } ],
      "code": {
        "coding": [ {
          "system": "http://hl7.org/fhir/sid/icd-10-cm",
          "version": "2024",
          "code": "F32.9"
        } ]
      },
      "subject": {
        "reference": "Patient/8467758b-18c6-4576-87cf-c2aeec2e11f9"
      },
      "onsetDateTime": "2025-02-25T14:35:00+00:00"
    },
    "request": {
      "method": "PUT",
      "url": "Condition/5ece559c-9ddd-454c-bcfe-4d8fcc263b92"
    }
  }, {
    "fullUrl": "https://madie.cms.gov/MeasureReport/34b8ee00-a03b-409a-8db4-0482e8b58f4f",
    "resource": {
      "resourceType": "MeasureReport",
      "id": "34b8ee00-a03b-409a-8db4-0482e8b58f4f",
      "meta": {
        "profile": [ "http://hl7.org/fhir/us/cqfmeasures/StructureDefinition/test-case-cqfm" ]
      },
      "contained": [ {
        "resourceType": "Parameters",
        "id": "bb21d9b2-b290-4139-bf3b-2b1db55467dc-parameters",
        "parameter": [ {
          "name": "subject",
          "valueString": "8467758b-18c6-4576-87cf-c2aeec2e11f9"
        } ]
      } ],
      "extension": [ {
        "url": "http://hl7.org/fhir/StructureDefinition/cqf-inputParameters",
        "valueReference": {
          "reference": "#bb21d9b2-b290-4139-bf3b-2b1db55467dc-parameters"
        }
      }, {
        "url": "http://hl7.org/fhir/us/cqfmeasures/StructureDefinition/cqfm-testCaseDescription",
        "valueMarkdown": "patient turns 12 one day before the index event (edge case)"
      } ],
      "modifierExtension": [ {
        "url": "http://hl7.org/fhir/us/cqfmeasures/StructureDefinition/cqfm-isTestCase",
        "valueBoolean": true
      } ],
      "status": "complete",
      "type": "individual",
      "measure": "https://madie.cms.gov/Measure/CMS159FHIRDepressionRemissionatTwelveMonths",
      "period": {
        "start": "2026-01-01",
        "end": "2026-12-31"
      },
      "group": [ {
        "id": "Group_1",
        "population": [ {
          "id": "InitialPopulation_1",
          "code": {
            "coding": [ {
              "system": "http://terminology.hl7.org/CodeSystem/measure-population",
              "code": "initial-population",
              "display": "Initial Population"
            } ]
          },
          "count": 1
        }, {
          "id": "Denominator_1",
          "code": {
            "coding": [ {
              "system": "http://terminology.hl7.org/CodeSystem/measure-population",
              "code": "denominator",
              "display": "Denominator"
            } ]
          },
          "count": 1
        }, {
          "id": "DenominatorExclusion_1",
          "code": {
            "coding": [ {
              "system": "http://terminology.hl7.org/CodeSystem/measure-population",
              "code": "denominator-exclusion",
              "display": "Denominator Exclusion"
            } ]
          },
          "count": 0
        }, {
          "id": "Numerator_1",
          "code": {
            "coding": [ {
              "system": "http://terminology.hl7.org/CodeSystem/measure-population",
              "code": "numerator",
              "display": "Numerator"
            } ]
          },
          "count": 0
        } ],
        "measureScore": {
          "value": 1.0
        }
      } ],
      "evaluatedResource": [ {
        "reference": "Patient/8467758b-18c6-4576-87cf-c2aeec2e11f9"
      }, {
        "reference": "Encounter/b4c26927-08e2-4c66-9155-acfda9ab4fa2"
      }, {
        "reference": "Observation/11ebb05e-2400-449a-9561-b9967760ad64"
      }, {
        "reference": "Condition/5ece559c-9ddd-454c-bcfe-4d8fcc263b92"
      } ]
    },
    "request": {
      "method": "PUT",
      "url": "MeasureReport/34b8ee00-a03b-409a-8db4-0482e8b58f4f"
    }
  } ]
}