{
    "entry": [
        {
            "request": {
                "method": "PUT",
                "url": "Patient/4149c02e-ee5c-4b8d-a4ee-425dfa2460e7"
            },
            "resource": {
                "identifier": [{
                    "system": "https://bonnie-fhir.healthit.gov/",
                    "type": {"coding": [{
                        "system": "http://terminology.hl7.org/CodeSystem/v2-0203",
                        "code": "MR"
                    }]},
                    "value": "62b1e0113968556e5150cf36"
                }],
                "extension": [
                    {
                        "extension": [
                            {
                                "valueCoding": {
                                    "system": "urn:oid:2.16.840.1.113883.6.238",
                                    "code": "1002-5",
                                    "userSelected": true,
                                    "display": "American Indian or Alaska Native"
                                },
                                "url": "ombCategory"
                            },
                            {
                                "valueString": "American Indian or Alaska Native",
                                "url": "text"
                            }
                        ],
                        "url": "http://hl7.org/fhir/us/core/StructureDefinition/us-core-race"
                    },
                    {
                        "extension": [
                            {
                                "valueCoding": {
                                    "system": "urn:oid:2.16.840.1.113883.6.238",
                                    "code": "2135-2",
                                    "userSelected": true,
                                    "display": "Hispanic or Latino"
                                },
                                "url": "ombCategory"
                            },
                            {
                                "valueString": "Hispanic or Latino",
                                "url": "text"
                            }
                        ],
                        "url": "http://hl7.org/fhir/us/core/StructureDefinition/us-core-ethnicity"
                    }
                ],
                "gender": "male",
                "meta": {"profile": ["http://hl7.org/fhir/us/qicore/StructureDefinition/qicore-patient"]},
                "name": [{
                    "given": ["17yoPositiveAdolescentDepressionScreeningandFollowUp"],
                    "family": "NUMERPass"
                }],
                "id": "4149c02e-ee5c-4b8d-a4ee-425dfa2460e7",
                "birthDate": "2009-01-01",
                "resourceType": "Patient"
            },
            "fullUrl": "https://madie.cms.gov/Patient/4149c02e-ee5c-4b8d-a4ee-425dfa2460e7"
        },
        {
            "request": {
                "method": "PUT",
                "url": "Encounter/86841733-b9c2-4c3b-a1ef-590d6e20954c"
            },
            "resource": {
                "period": {
                    "start": "2026-06-21T08:00:00.000+00:00",
                    "end": "2026-06-21T08:15:00.000+00:00"
                },
                "meta": {"profile": ["http://hl7.org/fhir/us/qicore/StructureDefinition/qicore-encounter"]},
                "subject": {"reference": "Patient/4149c02e-ee5c-4b8d-a4ee-425dfa2460e7"},
                "id": "86841733-b9c2-4c3b-a1ef-590d6e20954c",
                "type": [{"coding": [{
                    "system": "http://snomed.info/sct",
                    "code": "10197000",
                    "userSelected": true,
                    "display": "Psychiatric interview and evaluation (procedure)",
                    "version": "2021-09"
                }]}],
                "class": {
                    "system": "http://terminology.hl7.org/CodeSystem/v3-ActCode",
                    "code": "AMB",
                    "display": "ambulatory"
                },
                "resourceType": "Encounter",
                "status": "finished"
            },
            "fullUrl": "https://madie.cms.gov/Encounter/86841733-b9c2-4c3b-a1ef-590d6e20954c"
        },
        {
            "request": {
                "method": "PUT",
                "url": "Observation/fb878d0b-a3a7-42f2-906b-7299ef19f24a"
            },
            "resource": {
                "valueCodeableConcept": {"coding": [{
                    "system": "http://snomed.info/sct",
                    "code": "428181000124104",
                    "userSelected": true,
                    "display": "Depression screening positive (finding)"
                }]},
                "code": {"coding": [{
                    "system": "http://loinc.org",
                    "code": "73831-0",
                    "userSelected": true,
                    "display": "Adolescent depression screening assessment"
                }]},
                "effectiveDateTime": "2026-06-15T08:00:00.000+00:00",
                "meta": {"profile": ["http://hl7.org/fhir/us/qicore/StructureDefinition/qicore-observation-screening-assessment"]},
                "subject": {"reference": "Patient/4149c02e-ee5c-4b8d-a4ee-425dfa2460e7"},
                "id": "fb878d0b-a3a7-42f2-906b-7299ef19f24a",
                "category": [{"coding": [{
                    "system": "http://terminology.hl7.org/CodeSystem/observation-category",
                    "code": "procedure",
                    "display": "Procedure"
                }]}],
                "resourceType": "Observation",
                "status": "final"
            },
            "fullUrl": "https://madie.cms.gov/Observation/fb878d0b-a3a7-42f2-906b-7299ef19f24a"
        },
        {
            "request": {
                "method": "PUT",
                "url": "MedicationRequest/27126231-8124-485f-a015-8fd071aace90"
            },
            "resource": {
                "requester": {"reference": "Practitioner/Practitioner-123456"},
                "authoredOn": "2026-06-21T08:00:00.000+00:00",
                "meta": {"profile": ["http://hl7.org/fhir/us/qicore/StructureDefinition/qicore-medicationrequest"]},
                "subject": {"reference": "Patient/4149c02e-ee5c-4b8d-a4ee-425dfa2460e7"},
                "id": "27126231-8124-485f-a015-8fd071aace90",
                "doNotPerform": false,
                "medicationCodeableConcept": {"coding": [{
                    "system": "http://www.nlm.nih.gov/research/umls/rxnorm",
                    "code": "1190110",
                    "userSelected": true,
                    "display": "fluoxetine 60 MG Oral Tablet"
                }]},
                "intent": "order",
                "resourceType": "MedicationRequest",
                "status": "active"
            },
            "fullUrl": "https://madie.cms.gov/MedicationRequest/27126231-8124-485f-a015-8fd071aace90"
        },
        {
            "request": {
                "method": "PUT",
                "url": "Coverage/fa5d0f7b-c5c6-4e7b-98f3-4385bfa94757"
            },
            "resource": {
                "payor": [{"reference": "Organization/35c99f01-66c8-43f0-90d2-64d665fef662"}],
                "beneficiary": {"reference": "Patient/4149c02e-ee5c-4b8d-a4ee-425dfa2460e7"},
                "meta": {"profile": ["http://hl7.org/fhir/us/qicore/StructureDefinition/qicore-coverage"]},
                "id": "fa5d0f7b-c5c6-4e7b-98f3-4385bfa94757",
                "resourceType": "Coverage",
                "status": "active"
            },
            "fullUrl": "https://madie.cms.gov/Coverage/fa5d0f7b-c5c6-4e7b-98f3-4385bfa94757"
        },
        {
            "request": {
                "method": "PUT",
                "url": "Organization/35c99f01-66c8-43f0-90d2-64d665fef662"
            },
            "resource": {
                "identifier": [{
                    "system": "urn:oid:2.16.840.1.113883.4.4",
                    "use": "temp",
                    "value": "21-3259825"
                }],
                "address": [{
                    "country": "USA",
                    "city": "Dallas",
                    "use": "billing",
                    "line": ["P.O. Box 660044"],
                    "postalCode": "75266-0044",
                    "state": "TX",
                    "type": "postal"
                }],
                "meta": {"profile": ["http://hl7.org/fhir/us/qicore/StructureDefinition/qicore-organization"]},
                "name": "Blue Cross Blue Shield of Texas",
                "active": true,
                "telecom": [{
                    "system": "phone",
                    "value": "(+1) 972-766-6900"
                }],
                "id": "35c99f01-66c8-43f0-90d2-64d665fef662",
                "type": [{"coding": [{
                    "system": "http://terminology.hl7.org/CodeSystem/organization-type",
                    "code": "pay",
                    "display": "Payer"
                }]}],
                "resourceType": "Organization"
            },
            "fullUrl": "https://madie.cms.gov/Organization/35c99f01-66c8-43f0-90d2-64d665fef662"
        },
        {
            "request": {
                "method": "PUT",
                "url": "Practitioner/a8fdffec-49fd-4806-868a-cfc0224e523b"
            },
            "resource": {
                "identifier": [{
                    "system": "http://hl7.org/fhir/sid/us-npi",
                    "value": "123456"
                }],
                "meta": {"profile": ["http://hl7.org/fhir/us/qicore/StructureDefinition/qicore-practitioner"]},
                "name": [{
                    "prefix": ["Dr"],
                    "family": "Evil"
                }],
                "id": "a8fdffec-49fd-4806-868a-cfc0224e523b",
                "resourceType": "Practitioner"
            },
            "fullUrl": "https://madie.cms.gov/Practitioner/a8fdffec-49fd-4806-868a-cfc0224e523b"
        },
        {
            "request": {
                "method": "PUT",
                "url": "MeasureReport/5b2b4b4d-0639-4c4d-bfdf-786d3ebaf0c5"
            },
            "resource": {
                "contained": [{
                    "parameter": [{
                        "valueString": "4149c02e-ee5c-4b8d-a4ee-425dfa2460e7",
                        "name": "subject"
                    }],
                    "id": "e887587f-9fa6-4246-ad2c-527431af5923-parameters",
                    "resourceType": "Parameters"
                }],
                "extension": [
                    {
                        "valueReference": {"reference": "#e887587f-9fa6-4246-ad2c-527431af5923-parameters"},
                        "url": "http://hl7.org/fhir/StructureDefinition/cqf-inputParameters"
                    },
                    {
                        "valueMarkdown": "17yo with previous positive adolescent depression screening and medication request follow up",
                        "url": "http://hl7.org/fhir/us/cqfmeasures/StructureDefinition/cqfm-testCaseDescription"
                    }
                ],
                "period": {
                    "start": "2026-01-01",
                    "end": "2026-12-31"
                },
                "measure": "https://madie.cms.gov/Measure/CMS2FHIRPCSDepressionScreenAndFollowUp",
                "meta": {"profile": ["http://hl7.org/fhir/us/cqfmeasures/StructureDefinition/test-case-cqfm"]},
                "modifierExtension": [{
                    "valueBoolean": true,
                    "url": "http://hl7.org/fhir/us/cqfmeasures/StructureDefinition/cqfm-isTestCase"
                }],
                "id": "5b2b4b4d-0639-4c4d-bfdf-786d3ebaf0c5",
                "evaluatedResource": [
                    {"reference": "Patient/4149c02e-ee5c-4b8d-a4ee-425dfa2460e7"},
                    {"reference": "Encounter/86841733-b9c2-4c3b-a1ef-590d6e20954c"},
                    {"reference": "Observation/fb878d0b-a3a7-42f2-906b-7299ef19f24a"},
                    {"reference": "MedicationRequest/27126231-8124-485f-a015-8fd071aace90"},
                    {"reference": "Coverage/fa5d0f7b-c5c6-4e7b-98f3-4385bfa94757"},
                    {"reference": "Organization/35c99f01-66c8-43f0-90d2-64d665fef662"},
                    {"reference": "Practitioner/a8fdffec-49fd-4806-868a-cfc0224e523b"}
                ],
                "type": "individual",
                "resourceType": "MeasureReport",
                "status": "complete",
                "group": [{
                    "id": "Group_1",
                    "measureScore": {"value": 1},
                    "population": [
                        {
                            "code": {"coding": [{
                                "system": "http://terminology.hl7.org/CodeSystem/measure-population",
                                "code": "initial-population",
                                "display": "Initial Population"
                            }]},
                            "count": 1,
                            "id": "InitialPopulation_1"
                        },
                        {
                            "code": {"coding": [{
                                "system": "http://terminology.hl7.org/CodeSystem/measure-population",
                                "code": "denominator",
                                "display": "Denominator"
                            }]},
                            "count": 1,
                            "id": "Denominator_1"
                        },
                        {
                            "code": {"coding": [{
                                "system": "http://terminology.hl7.org/CodeSystem/measure-population",
                                "code": "denominator-exclusion",
                                "display": "Denominator Exclusion"
                            }]},
                            "count": 0,
                            "id": "DenominatorExclusion_1"
                        },
                        {
                            "code": {"coding": [{
                                "system": "http://terminology.hl7.org/CodeSystem/measure-population",
                                "code": "numerator",
                                "display": "Numerator"
                            }]},
                            "count": 1,
                            "id": "Numerator_1"
                        },
                        {
                            "code": {"coding": [{
                                "system": "http://terminology.hl7.org/CodeSystem/measure-population",
                                "code": "denominator-exception",
                                "display": "Denominator Exception"
                            }]},
                            "count": 0,
                            "id": "DenominatorException_1"
                        }
                    ]
                }]
            },
            "fullUrl": "https://madie.cms.gov/MeasureReport/5b2b4b4d-0639-4c4d-bfdf-786d3ebaf0c5"
        }
    ],
    "id": "62b1e0113968556e5150cf36",
    "type": "transaction",
    "resourceType": "Bundle"
}