{
  "resourceType": "Bundle",
  "id": "62b1e0113968556e5150cf36",
  "type": "transaction",
  "entry": [ {
    "fullUrl": "https://madie.cms.gov/Patient/4149c02e-ee5c-4b8d-a4ee-425dfa2460e7",
    "resource": {
      "resourceType": "Patient",
      "id": "4149c02e-ee5c-4b8d-a4ee-425dfa2460e7",
      "meta": {
        "profile": [ "http://hl7.org/fhir/us/qicore/StructureDefinition/qicore-patient" ]
      },
      "extension": [ {
        "url": "http://hl7.org/fhir/us/core/StructureDefinition/us-core-race",
        "extension": [ {
          "url": "ombCategory",
          "valueCoding": {
            "system": "urn:oid:2.16.840.1.113883.6.238",
            "code": "1002-5",
            "display": "American Indian or Alaska Native",
            "userSelected": true
          }
        }, {
          "url": "text",
          "valueString": "American Indian or Alaska Native"
        } ]
      }, {
        "url": "http://hl7.org/fhir/us/core/StructureDefinition/us-core-ethnicity",
        "extension": [ {
          "url": "ombCategory",
          "valueCoding": {
            "system": "urn:oid:2.16.840.1.113883.6.238",
            "code": "2135-2",
            "display": "Hispanic or Latino",
            "userSelected": true
          }
        }, {
          "url": "text",
          "valueString": "Hispanic or Latino"
        } ]
      } ],
      "identifier": [ {
        "type": {
          "coding": [ {
            "system": "http://terminology.hl7.org/CodeSystem/v2-0203",
            "code": "MR"
          } ]
        },
        "system": "https://bonnie-fhir.healthit.gov/",
        "value": "62b1e0113968556e5150cf36"
      } ],
      "name": [ {
        "family": "NUMERPass",
        "given": [ "17yoPositiveAdolescentDepressionScreeningandFollowUp" ]
      } ],
      "gender": "male",
      "birthDate": "2009-01-01"
    },
    "request": {
      "method": "PUT",
      "url": "Patient/4149c02e-ee5c-4b8d-a4ee-425dfa2460e7"
    }
  }, {
    "fullUrl": "https://madie.cms.gov/Encounter/e056c43f-3372-4dde-97c6-f7738faae2e6",
    "resource": {
      "resourceType": "Encounter",
      "id": "e056c43f-3372-4dde-97c6-f7738faae2e6",
      "meta": {
        "profile": [ "http://hl7.org/fhir/us/qicore/StructureDefinition/qicore-encounter" ]
      },
      "status": "finished",
      "class": {
        "system": "http://terminology.hl7.org/CodeSystem/v3-ActCode",
        "code": "AMB",
        "display": "ambulatory"
      },
      "type": [ {
        "coding": [ {
          "system": "http://snomed.info/sct",
          "code": "10197000",
          "display": "Psychiatric interview and evaluation (procedure)",
          "userSelected": true
        } ]
      } ],
      "subject": {
        "reference": "Patient/4149c02e-ee5c-4b8d-a4ee-425dfa2460e7"
      },
      "period": {
        "start": "2026-06-21T08:00:00Z",
        "end": "2026-06-21T08:15:00Z"
      }
    },
    "request": {
      "method": "PUT",
      "url": "Encounter/e056c43f-3372-4dde-97c6-f7738faae2e6"
    }
  }, {
    "fullUrl": "https://madie.cms.gov/Observation/c55548ca-17b9-4de3-b058-1e0b6efe22c6",
    "resource": {
      "resourceType": "Observation",
      "id": "c55548ca-17b9-4de3-b058-1e0b6efe22c6",
      "meta": {
        "profile": [ "http://hl7.org/fhir/us/qicore/StructureDefinition/qicore-observation-screening-assessment" ]
      },
      "status": "final",
      "category": [ {
        "coding": [ {
          "system": "http://terminology.hl7.org/CodeSystem/observation-category",
          "code": "procedure",
          "display": "Procedure"
        } ]
      }, {
        "coding": [ {
          "system": "http://terminology.hl7.org/CodeSystem/observation-category",
          "code": "survey",
          "display": "Survey"
        } ]
      } ],
      "code": {
        "coding": [ {
          "system": "http://loinc.org",
          "code": "73831-0",
          "display": "Adolescent depression screening assessment",
          "userSelected": true
        } ]
      },
      "subject": {
        "reference": "Patient/4149c02e-ee5c-4b8d-a4ee-425dfa2460e7"
      },
      "effectiveDateTime": "2026-06-15T08:00:00Z",
      "valueCodeableConcept": {
        "coding": [ {
          "system": "http://snomed.info/sct",
          "code": "428181000124104",
          "display": "Depression screening positive (finding)",
          "userSelected": true
        } ]
      }
    },
    "request": {
      "method": "PUT",
      "url": "Observation/c55548ca-17b9-4de3-b058-1e0b6efe22c6"
    }
  }, {
    "fullUrl": "https://madie.cms.gov/MedicationRequest/fa711a19-986c-4c79-91a6-945dda48e80f",
    "resource": {
      "resourceType": "MedicationRequest",
      "id": "fa711a19-986c-4c79-91a6-945dda48e80f",
      "meta": {
        "profile": [ "http://hl7.org/fhir/us/qicore/StructureDefinition/qicore-medicationrequest" ]
      },
      "status": "active",
      "intent": "order",
      "doNotPerform": false,
      "medicationCodeableConcept": {
        "coding": [ {
          "system": "http://www.nlm.nih.gov/research/umls/rxnorm",
          "code": "1190110",
          "display": "fluoxetine 60 MG Oral Tablet",
          "userSelected": true
        } ]
      },
      "subject": {
        "reference": "Patient/4149c02e-ee5c-4b8d-a4ee-425dfa2460e7"
      },
      "authoredOn": "2026-06-21T08:00:00Z",
      "requester": {
        "reference": "Practitioner/123456"
      },
      "dispenseRequest": {
        "expectedSupplyDuration": {
          "value": 30,
          "system": "http://unitsofmeasure.org",
          "code": "days"
        }
      }
    },
    "request": {
      "method": "PUT",
      "url": "MedicationRequest/fa711a19-986c-4c79-91a6-945dda48e80f"
    }
  }, {
    "fullUrl": "https://madie.cms.gov/Coverage/4b671861-b398-4066-bf4f-fc8442632931",
    "resource": {
      "resourceType": "Coverage",
      "id": "4b671861-b398-4066-bf4f-fc8442632931",
      "meta": {
        "profile": [ "http://hl7.org/fhir/us/qicore/StructureDefinition/qicore-coverage" ]
      },
      "status": "active",
      "subscriberId": "123456789",
      "beneficiary": {
        "reference": "Patient/4149c02e-ee5c-4b8d-a4ee-425dfa2460e7"
      },
      "relationship": {
        "coding": [ {
          "system": "http://terminology.hl7.org/CodeSystem/subscriber-relationship",
          "code": "self",
          "display": "Self",
          "userSelected": true
        } ]
      },
      "payor": [ {
        "reference": "Organization/92d7db73-e044-47db-b0b7-52a0db786ca9"
      } ]
    },
    "request": {
      "method": "PUT",
      "url": "Coverage/4b671861-b398-4066-bf4f-fc8442632931"
    }
  }, {
    "fullUrl": "https://madie.cms.gov/Organization/92d7db73-e044-47db-b0b7-52a0db786ca9",
    "resource": {
      "resourceType": "Organization",
      "id": "92d7db73-e044-47db-b0b7-52a0db786ca9",
      "meta": {
        "profile": [ "http://hl7.org/fhir/us/qicore/StructureDefinition/qicore-organization" ]
      },
      "identifier": [ {
        "use": "temp",
        "system": "urn:oid:2.16.840.1.113883.4.4",
        "value": "21-3259825"
      } ],
      "active": true,
      "type": [ {
        "coding": [ {
          "system": "http://terminology.hl7.org/CodeSystem/organization-type",
          "code": "pay",
          "display": "Payer"
        } ]
      } ],
      "name": "Blue Cross Blue Shield of Texas",
      "telecom": [ {
        "system": "phone",
        "value": "(+1) 972-766-6900"
      } ],
      "address": [ {
        "use": "billing",
        "type": "postal",
        "line": [ "P.O. Box 660044" ],
        "city": "Dallas",
        "state": "TX",
        "postalCode": "75266-0044",
        "country": "USA"
      } ]
    },
    "request": {
      "method": "PUT",
      "url": "Organization/92d7db73-e044-47db-b0b7-52a0db786ca9"
    }
  }, {
    "fullUrl": "https://madie.cms.gov/Practitioner/98a7c150-48fe-4572-aea6-0050f7411c89",
    "resource": {
      "resourceType": "Practitioner",
      "id": "98a7c150-48fe-4572-aea6-0050f7411c89",
      "meta": {
        "profile": [ "http://hl7.org/fhir/us/qicore/StructureDefinition/qicore-practitioner" ]
      },
      "identifier": [ {
        "system": "http://hl7.org/fhir/sid/us-npi",
        "value": "1234567893"
      } ],
      "name": [ {
        "family": "Evil",
        "prefix": [ "Dr" ]
      } ]
    },
    "request": {
      "method": "PUT",
      "url": "Practitioner/98a7c150-48fe-4572-aea6-0050f7411c89"
    }
  }, {
    "fullUrl": "https://madie.cms.gov/MeasureReport/65ffe9f7-f5af-4611-84b6-defd7fa0cfe6",
    "resource": {
      "resourceType": "MeasureReport",
      "id": "65ffe9f7-f5af-4611-84b6-defd7fa0cfe6",
      "meta": {
        "profile": [ "http://hl7.org/fhir/us/cqfmeasures/StructureDefinition/test-case-cqfm" ]
      },
      "contained": [ {
        "resourceType": "Parameters",
        "id": "49cc4b84-c343-4537-9270-f2d8b30a0cb6-parameters",
        "parameter": [ {
          "name": "subject",
          "valueString": "4149c02e-ee5c-4b8d-a4ee-425dfa2460e7"
        } ]
      } ],
      "extension": [ {
        "url": "http://hl7.org/fhir/StructureDefinition/cqf-inputParameters",
        "valueReference": {
          "reference": "#49cc4b84-c343-4537-9270-f2d8b30a0cb6-parameters"
        }
      }, {
        "url": "http://hl7.org/fhir/us/cqfmeasures/StructureDefinition/cqfm-testCaseDescription",
        "valueMarkdown": "17yo with previous positive adolescent depression screening and medication request follow up"
      } ],
      "modifierExtension": [ {
        "url": "http://hl7.org/fhir/us/cqfmeasures/StructureDefinition/cqfm-isTestCase",
        "valueBoolean": true
      } ],
      "status": "complete",
      "type": "individual",
      "measure": "https://madie.cms.gov/Measure/CMS2FHIRPCSDepressionScreenAndFollowUp",
      "period": {
        "start": "2026-01-01",
        "end": "2026-12-31"
      },
      "group": [ {
        "id": "Group_1",
        "population": [ {
          "id": "InitialPopulation_1",
          "code": {
            "coding": [ {
              "system": "http://terminology.hl7.org/CodeSystem/measure-population",
              "code": "initial-population",
              "display": "Initial Population"
            } ]
          },
          "count": 1
        }, {
          "id": "Denominator_1",
          "code": {
            "coding": [ {
              "system": "http://terminology.hl7.org/CodeSystem/measure-population",
              "code": "denominator",
              "display": "Denominator"
            } ]
          },
          "count": 1
        }, {
          "id": "DenominatorExclusion_1",
          "code": {
            "coding": [ {
              "system": "http://terminology.hl7.org/CodeSystem/measure-population",
              "code": "denominator-exclusion",
              "display": "Denominator Exclusion"
            } ]
          },
          "count": 0
        }, {
          "id": "Numerator_1",
          "code": {
            "coding": [ {
              "system": "http://terminology.hl7.org/CodeSystem/measure-population",
              "code": "numerator",
              "display": "Numerator"
            } ]
          },
          "count": 1
        }, {
          "id": "DenominatorException_1",
          "code": {
            "coding": [ {
              "system": "http://terminology.hl7.org/CodeSystem/measure-population",
              "code": "denominator-exception",
              "display": "Denominator Exception"
            } ]
          },
          "count": 0
        } ],
        "measureScore": {
          "value": 1.0
        }
      } ],
      "evaluatedResource": [ {
        "reference": "Patient/4149c02e-ee5c-4b8d-a4ee-425dfa2460e7"
      }, {
        "reference": "Encounter/e056c43f-3372-4dde-97c6-f7738faae2e6"
      }, {
        "reference": "Observation/c55548ca-17b9-4de3-b058-1e0b6efe22c6"
      }, {
        "reference": "MedicationRequest/fa711a19-986c-4c79-91a6-945dda48e80f"
      }, {
        "reference": "Coverage/4b671861-b398-4066-bf4f-fc8442632931"
      }, {
        "reference": "Organization/92d7db73-e044-47db-b0b7-52a0db786ca9"
      }, {
        "reference": "Practitioner/98a7c150-48fe-4572-aea6-0050f7411c89"
      } ]
    },
    "request": {
      "method": "PUT",
      "url": "MeasureReport/65ffe9f7-f5af-4611-84b6-defd7fa0cfe6"
    }
  } ]
}