{
  "resourceType": "Bundle",
  "id": "tests-143372f5-cf0d-420f-a55c-63e0c74e8013-bundle",
  "type": "transaction",
  "entry": [ {
    "fullUrl": "https://madie.cms.gov/Coverage/e996217e-45b7-45bd-8c40-81b56e3f0684",
    "resource": {
      "resourceType": "Coverage",
      "id": "e996217e-45b7-45bd-8c40-81b56e3f0684",
      "meta": {
        "profile": [ "http://hl7.org/fhir/us/qicore/StructureDefinition/qicore-coverage" ]
      },
      "status": "active",
      "type": {
        "coding": [ {
          "system": "https://nahdo.org/sopt",
          "version": "9.2",
          "code": "512",
          "display": "Commercial Managed Care - PPO"
        } ]
      },
      "beneficiary": {
        "reference": "Patient/fcb1c94b-4276-4409-9449-87c469ffa7d6"
      },
      "period": {
        "start": "2024-12-01T00:00:00.000+00:00"
      },
      "payor": [ {
        "reference": "Organization/cd75a753-731c-4d62-a17a-37fe0e07dc04"
      } ]
    },
    "request": {
      "method": "PUT",
      "url": "Coverage/e996217e-45b7-45bd-8c40-81b56e3f0684"
    }
  }, {
    "fullUrl": "https://madie.cms.gov/Observation/c819336a-200f-4824-856f-568783851a71",
    "resource": {
      "resourceType": "Observation",
      "id": "c819336a-200f-4824-856f-568783851a71",
      "meta": {
        "profile": [ "http://hl7.org/fhir/us/qicore/StructureDefinition/qicore-observation-lab" ]
      },
      "status": "final",
      "category": [ {
        "coding": [ {
          "system": "http://terminology.hl7.org/CodeSystem/observation-category",
          "code": "laboratory",
          "display": "Laboratory"
        } ]
      } ],
      "code": {
        "coding": [ {
          "system": "http://loinc.org",
          "version": "2.72",
          "code": "2160-0",
          "display": "Creatinine [Mass/volume] in Serum or Plasma",
          "userSelected": true
        } ]
      },
      "subject": {
        "reference": "Patient/fcb1c94b-4276-4409-9449-87c469ffa7d6"
      },
      "effectiveDateTime": "2026-10-01T07:50:00.000+00:00",
      "issued": "2026-10-01T08:20:00.000+00:00",
      "valueQuantity": {
        "value": 0.6,
        "unit": "mg/dL",
        "system": "http://unitsofmeasure.org",
        "code": "mg/dL"
      }
    },
    "request": {
      "method": "PUT",
      "url": "Observation/c819336a-200f-4824-856f-568783851a71"
    }
  }, {
    "fullUrl": "https://madie.cms.gov/Patient/fcb1c94b-4276-4409-9449-87c469ffa7d6",
    "resource": {
      "resourceType": "Patient",
      "id": "fcb1c94b-4276-4409-9449-87c469ffa7d6",
      "meta": {
        "profile": [ "http://hl7.org/fhir/us/qicore/StructureDefinition/qicore-patient" ]
      },
      "text": {
        "status": "generated",
        "div": "<div xmlns=\"http://www.w3.org/1999/xhtml\"><div class=\"hapiHeaderText\">Age17InpatientHospStartTime <b>IPPFail </b></div><table class=\"hapiPropertyTable\"><tbody><tr><td>Identifier</td><td>f0eda1c9668fdacdcad3378589bf6e0a71e7dec1618f14fca4d442ec96e402b1</td></tr><tr><td>Date of birth</td><td><span>30 September 2006</span></td></tr></tbody></table></div>"
      },
      "extension": [ {
        "url": "http://hl7.org/fhir/us/core/StructureDefinition/us-core-race",
        "extension": [ {
          "url": "ombCategory",
          "valueCoding": {
            "system": "urn:oid:2.16.840.1.113883.6.238",
            "code": "1002-5",
            "display": "American Indian or Alaska Native",
            "userSelected": true
          }
        }, {
          "url": "text",
          "valueString": "American Indian or Alaska Native"
        } ]
      }, {
        "url": "http://hl7.org/fhir/us/core/StructureDefinition/us-core-ethnicity",
        "extension": [ {
          "url": "ombCategory",
          "valueCoding": {
            "system": "urn:oid:2.16.840.1.113883.6.238",
            "code": "2135-2",
            "display": "Hispanic or Latino",
            "userSelected": true
          }
        }, {
          "url": "text",
          "valueString": "Hispanic or Latino"
        } ]
      }, {
        "url": "http://hl7.org/fhir/us/core/StructureDefinition/us-core-sex",
        "valueCode": "248152002"
      } ],
      "identifier": [ {
        "type": {
          "coding": [ {
            "system": "http://terminology.hl7.org/CodeSystem/v2-0203",
            "code": "MR"
          } ]
        },
        "system": "http://bonnie-fhir.healthit.gov/",
        "value": "IPPFail-Age17InpatientHospStartTime"
      } ],
      "active": true,
      "name": [ {
        "use": "usual",
        "family": "IPPFail",
        "given": [ "Age17InpatientHospStartTime" ]
      } ],
      "gender": "female",
      "birthDate": "2000-09-30"
    },
    "request": {
      "method": "PUT",
      "url": "Patient/fcb1c94b-4276-4409-9449-87c469ffa7d6"
    }
  }, {
    "fullUrl": "https://madie.cms.gov/MedicationAdministration/fcc9aa45-2562-4606-bb45-64c755968f09",
    "resource": {
      "resourceType": "MedicationAdministration",
      "id": "fcc9aa45-2562-4606-bb45-64c755968f09",
      "meta": {
        "profile": [ "http://hl7.org/fhir/us/qicore/StructureDefinition/qicore-medicationadministration" ]
      },
      "status": "completed",
      "medicationCodeableConcept": {
        "coding": [ {
          "system": "http://www.nlm.nih.gov/research/umls/rxnorm",
          "code": "1010600"
        } ]
      },
      "subject": {
        "reference": "Patient/fcb1c94b-4276-4409-9449-87c469ffa7d6"
      },
      "effectivePeriod": {
        "start": "2026-09-29T08:00:00.000+00:00",
        "end": "2026-09-29T08:15:00.000+00:00"
      }
    },
    "request": {
      "method": "PUT",
      "url": "MedicationAdministration/fcc9aa45-2562-4606-bb45-64c755968f09"
    }
  }, {
    "fullUrl": "https://madie.cms.gov/Encounter/4c169c06-f942-4a19-a348-bf3048a01feb",
    "resource": {
      "resourceType": "Encounter",
      "id": "4c169c06-f942-4a19-a348-bf3048a01feb",
      "meta": {
        "profile": [ "http://hl7.org/fhir/us/qicore/StructureDefinition/qicore-encounter" ]
      },
      "status": "finished",
      "class": {
        "system": "http://terminology.hl7.org/CodeSystem/v3-ActCode",
        "code": "EMER",
        "display": "emergency"
      },
      "type": [ {
        "coding": [ {
          "system": "http://snomed.info/sct",
          "code": "4525004"
        } ]
      } ],
      "subject": {
        "reference": "Patient/fcb1c94b-4276-4409-9449-87c469ffa7d6"
      },
      "period": {
        "start": "2026-09-29T06:00:00.000+00:00",
        "end": "2026-09-29T08:00:00.000+00:00"
      }
    },
    "request": {
      "method": "PUT",
      "url": "Encounter/4c169c06-f942-4a19-a348-bf3048a01feb"
    }
  }, {
    "fullUrl": "https://madie.cms.gov/Observation/5839eab9-6bad-4ba3-b003-fcf9adbd80ba",
    "resource": {
      "resourceType": "Observation",
      "id": "5839eab9-6bad-4ba3-b003-fcf9adbd80ba",
      "meta": {
        "profile": [ "http://hl7.org/fhir/us/qicore/StructureDefinition/qicore-observation-lab" ]
      },
      "status": "final",
      "category": [ {
        "coding": [ {
          "system": "http://terminology.hl7.org/CodeSystem/observation-category",
          "code": "laboratory",
          "display": "Laboratory"
        } ]
      } ],
      "code": {
        "coding": [ {
          "system": "http://loinc.org",
          "code": "2160-0",
          "display": "Creatinine [Mass/volume] in Serum or Plasma"
        } ]
      },
      "subject": {
        "reference": "Patient/fcb1c94b-4276-4409-9449-87c469ffa7d6"
      },
      "effectiveDateTime": "2026-09-29T07:59:00.000+00:00",
      "issued": "2026-09-29T08:29:00.000+00:00",
      "valueQuantity": {
        "value": 0.8,
        "unit": "mg/dL",
        "system": "http://unitsofmeasure.org",
        "code": "mg/dL"
      }
    },
    "request": {
      "method": "PUT",
      "url": "Observation/5839eab9-6bad-4ba3-b003-fcf9adbd80ba"
    }
  }, {
    "fullUrl": "https://madie.cms.gov/Observation/82345053-dbe4-4ce6-96fe-e0af112e2a14",
    "resource": {
      "resourceType": "Observation",
      "id": "82345053-dbe4-4ce6-96fe-e0af112e2a14",
      "meta": {
        "profile": [ "http://hl7.org/fhir/us/qicore/StructureDefinition/qicore-observation-lab" ]
      },
      "status": "final",
      "category": [ {
        "coding": [ {
          "system": "http://terminology.hl7.org/CodeSystem/observation-category",
          "code": "laboratory",
          "display": "Laboratory"
        } ]
      } ],
      "code": {
        "coding": [ {
          "system": "http://loinc.org",
          "version": "2.72",
          "code": "2160-0",
          "display": "Creatinine [Mass/volume] in Serum or Plasma",
          "userSelected": true
        } ]
      },
      "subject": {
        "reference": "Patient/fcb1c94b-4276-4409-9449-87c469ffa7d6"
      },
      "effectiveDateTime": "2026-09-29T07:35:00.000+00:00",
      "issued": "2026-09-29T08:05:00.000+00:00",
      "valueQuantity": {
        "value": 1.6,
        "unit": "mg/dL",
        "system": "http://unitsofmeasure.org",
        "code": "mg/dL"
      }
    },
    "request": {
      "method": "PUT",
      "url": "Observation/82345053-dbe4-4ce6-96fe-e0af112e2a14"
    }
  }, {
    "fullUrl": "https://madie.cms.gov/Encounter/6b83373c-5569-4462-a5a5-2ae550fc3576",
    "resource": {
      "resourceType": "Encounter",
      "id": "6b83373c-5569-4462-a5a5-2ae550fc3576",
      "meta": {
        "profile": [ "http://hl7.org/fhir/us/qicore/StructureDefinition/qicore-encounter" ]
      },
      "status": "finished",
      "class": {
        "system": "http://terminology.hl7.org/CodeSystem/v3-ActCode",
        "code": "IMP",
        "display": "inpatient encounter"
      },
      "type": [ {
        "coding": [ {
          "system": "http://snomed.info/sct",
          "code": "183452005"
        } ]
      } ],
      "subject": {
        "reference": "Patient/fcb1c94b-4276-4409-9449-87c469ffa7d6"
      },
      "period": {
        "start": "2026-09-29T08:00:00.000+00:00",
        "end": "2026-10-03T20:00:00.000+00:00"
      },
      "reasonReference": [ {
        "reference": "Condition/c7e148d3-14c1-41a8-a831-fdda19a21d5a"
      } ]
    },
    "request": {
      "method": "PUT",
      "url": "Encounter/6b83373c-5569-4462-a5a5-2ae550fc3576"
    }
  }, {
    "fullUrl": "https://madie.cms.gov/Observation/78aae677-0590-49f8-adaf-f950c8c42704",
    "resource": {
      "resourceType": "Observation",
      "id": "78aae677-0590-49f8-adaf-f950c8c42704",
      "meta": {
        "profile": [ "http://hl7.org/fhir/us/qicore/StructureDefinition/qicore-observation-lab" ]
      },
      "status": "final",
      "category": [ {
        "coding": [ {
          "system": "http://terminology.hl7.org/CodeSystem/observation-category",
          "code": "laboratory",
          "display": "Laboratory"
        } ]
      } ],
      "code": {
        "coding": [ {
          "system": "http://loinc.org",
          "version": "2.72",
          "code": "2160-0",
          "display": "Creatinine [Mass/volume] in Serum or Plasma",
          "userSelected": true
        } ]
      },
      "subject": {
        "reference": "Patient/fcb1c94b-4276-4409-9449-87c469ffa7d6"
      },
      "effectiveDateTime": "2026-09-29T08:01:00.000+00:00",
      "issued": "2026-09-29T08:31:00.000+00:00",
      "valueQuantity": {
        "value": 1.1,
        "unit": "mg/dL",
        "system": "http://unitsofmeasure.org",
        "code": "mg/dL"
      }
    },
    "request": {
      "method": "PUT",
      "url": "Observation/78aae677-0590-49f8-adaf-f950c8c42704"
    }
  }, {
    "fullUrl": "https://madie.cms.gov/Organization/cd75a753-731c-4d62-a17a-37fe0e07dc04",
    "resource": {
      "resourceType": "Organization",
      "id": "cd75a753-731c-4d62-a17a-37fe0e07dc04",
      "meta": {
        "profile": [ "http://hl7.org/fhir/us/qicore/StructureDefinition/qicore-organization" ]
      },
      "identifier": [ {
        "use": "temp",
        "system": "urn:oid:2.16.840.1.113883.4.4",
        "value": "21-3259825"
      } ],
      "active": true,
      "type": [ {
        "coding": [ {
          "system": "http://terminology.hl7.org/CodeSystem/organization-type",
          "code": "pay",
          "display": "Payer"
        } ]
      } ],
      "name": "Blue Cross Blue Shield of Texas",
      "telecom": [ {
        "system": "phone",
        "value": "(+1) 972-766-6900"
      } ],
      "address": [ {
        "use": "billing",
        "type": "postal",
        "line": [ "P.O. Box 660044" ],
        "city": "Dallas",
        "state": "TX",
        "postalCode": "75266-0044",
        "country": "USA"
      } ]
    },
    "request": {
      "method": "PUT",
      "url": "Organization/cd75a753-731c-4d62-a17a-37fe0e07dc04"
    }
  }, {
    "fullUrl": "https://madie.cms.gov/Condition/c7e148d3-14c1-41a8-a831-fdda19a21d5a",
    "resource": {
      "resourceType": "Condition",
      "id": "c7e148d3-14c1-41a8-a831-fdda19a21d5a",
      "meta": {
        "profile": [ "http://hl7.org/fhir/us/qicore/StructureDefinition/qicore-condition" ]
      },
      "clinicalStatus": {
        "coding": [ {
          "system": "http://terminology.hl7.org/CodeSystem/condition-clinical",
          "code": "active",
          "display": "Active"
        } ]
      },
      "verificationStatus": {
        "coding": [ {
          "system": "http://terminology.hl7.org/CodeSystem/condition-ver-status",
          "code": "confirmed",
          "display": "Confirmed"
        } ]
      },
      "category": [ {
        "coding": [ {
          "system": "http://terminology.hl7.org/CodeSystem/condition-category",
          "code": "encounter-diagnosis",
          "display": "Encounter Diagnosis"
        } ]
      } ],
      "code": {
        "coding": [ {
          "system": "http://snomed.info/sct",
          "code": "100801000119107",
          "display": "Maternal tobacco use in pregnancy (finding)"
        } ]
      },
      "subject": {
        "reference": "Patient/fcb1c94b-4276-4409-9449-87c469ffa7d6"
      },
      "encounter": {
        "reference": "Encounter/6b83373c-5569-4462-a5a5-2ae550fc3576"
      },
      "onsetDateTime": "2026-09-29T08:00:00.000+00:00",
      "recordedDate": "2026-09-29T10:00:00.000+00:00"
    },
    "request": {
      "method": "PUT",
      "url": "Condition/c7e148d3-14c1-41a8-a831-fdda19a21d5a"
    }
  }, {
    "fullUrl": "https://madie.cms.gov/Observation/e25d6c77-6ea6-45fa-824c-3b558615fafd",
    "resource": {
      "resourceType": "Observation",
      "id": "e25d6c77-6ea6-45fa-824c-3b558615fafd",
      "meta": {
        "profile": [ "http://hl7.org/fhir/us/qicore/StructureDefinition/qicore-observation-lab" ]
      },
      "status": "final",
      "category": [ {
        "coding": [ {
          "system": "http://terminology.hl7.org/CodeSystem/observation-category",
          "code": "laboratory",
          "display": "Laboratory"
        } ]
      } ],
      "code": {
        "coding": [ {
          "system": "http://loinc.org",
          "code": "2160-0",
          "display": "Creatinine [Mass/volume] in Serum or Plasma"
        } ]
      },
      "subject": {
        "reference": "Patient/fcb1c94b-4276-4409-9449-87c469ffa7d6"
      },
      "effectiveDateTime": "2026-09-29T07:00:00.000+00:00",
      "issued": "2026-09-29T07:30:00.000+00:00",
      "valueQuantity": {
        "value": 0.9,
        "unit": "mg/dL",
        "system": "http://unitsofmeasure.org",
        "code": "mg/dL"
      }
    },
    "request": {
      "method": "PUT",
      "url": "Observation/e25d6c77-6ea6-45fa-824c-3b558615fafd"
    }
  }, {
    "fullUrl": "https://madie.cms.gov/MeasureReport/a199f44f-e551-4360-96d0-013df95e67bd",
    "resource": {
      "resourceType": "MeasureReport",
      "id": "a199f44f-e551-4360-96d0-013df95e67bd",
      "meta": {
        "profile": [ "http://hl7.org/fhir/us/cqfmeasures/StructureDefinition/test-case-cqfm" ]
      },
      "contained": [ {
        "resourceType": "Parameters",
        "id": "76d6f79c-75f6-4f9d-aace-f71bedf9fbc6-parameters",
        "parameter": [ {
          "name": "subject",
          "valueString": "fcb1c94b-4276-4409-9449-87c469ffa7d6"
        } ]
      } ],
      "extension": [ {
        "url": "http://hl7.org/fhir/StructureDefinition/cqf-inputParameters",
        "valueReference": {
          "reference": "#76d6f79c-75f6-4f9d-aace-f71bedf9fbc6-parameters"
        }
      }, {
        "url": "http://hl7.org/fhir/us/cqfmeasures/StructureDefinition/cqfm-testCaseDescription",
        "valueMarkdown": "26-year-old female patient with an inpatient hospitalization following an emergency visit:\nmultiple serum creatinine labs \nmedication was administered, \ndiagnosis of maternal tobacco use in pregnancy "
      } ],
      "modifierExtension": [ {
        "url": "http://hl7.org/fhir/us/cqfmeasures/StructureDefinition/cqfm-isTestCase",
        "valueBoolean": true
      } ],
      "status": "complete",
      "type": "individual",
      "measure": "https://madie.cms.gov/Measure/CMS832HHAKIFHIR",
      "period": {
        "start": "2026-01-01",
        "end": "2026-12-31"
      },
      "group": [ {
        "id": "Group_1",
        "population": [ {
          "id": "InitialPopulation_1",
          "code": {
            "coding": [ {
              "system": "http://terminology.hl7.org/CodeSystem/measure-population",
              "code": "initial-population",
              "display": "Initial Population"
            } ]
          },
          "count": 1
        }, {
          "id": "Denominator_1",
          "code": {
            "coding": [ {
              "system": "http://terminology.hl7.org/CodeSystem/measure-population",
              "code": "denominator",
              "display": "Denominator"
            } ]
          },
          "count": 1
        }, {
          "id": "DenominatorExclusion_1",
          "code": {
            "coding": [ {
              "system": "http://terminology.hl7.org/CodeSystem/measure-population",
              "code": "denominator-exclusion",
              "display": "Denominator Exclusion"
            } ]
          },
          "count": 1
        }, {
          "id": "Numerator_1",
          "code": {
            "coding": [ {
              "system": "http://terminology.hl7.org/CodeSystem/measure-population",
              "code": "numerator",
              "display": "Numerator"
            } ]
          },
          "count": 0
        } ],
        "measureScore": {
          "value": 0.0
        }
      } ],
      "evaluatedResource": [ {
        "reference": "Coverage/e996217e-45b7-45bd-8c40-81b56e3f0684"
      }, {
        "reference": "Observation/c819336a-200f-4824-856f-568783851a71"
      }, {
        "reference": "Patient/fcb1c94b-4276-4409-9449-87c469ffa7d6"
      }, {
        "reference": "MedicationAdministration/fcc9aa45-2562-4606-bb45-64c755968f09"
      }, {
        "reference": "Encounter/4c169c06-f942-4a19-a348-bf3048a01feb"
      }, {
        "reference": "Observation/5839eab9-6bad-4ba3-b003-fcf9adbd80ba"
      }, {
        "reference": "Observation/82345053-dbe4-4ce6-96fe-e0af112e2a14"
      }, {
        "reference": "Encounter/6b83373c-5569-4462-a5a5-2ae550fc3576"
      }, {
        "reference": "Observation/78aae677-0590-49f8-adaf-f950c8c42704"
      }, {
        "reference": "Organization/cd75a753-731c-4d62-a17a-37fe0e07dc04"
      }, {
        "reference": "Condition/c7e148d3-14c1-41a8-a831-fdda19a21d5a"
      }, {
        "reference": "Observation/e25d6c77-6ea6-45fa-824c-3b558615fafd"
      } ]
    },
    "request": {
      "method": "PUT",
      "url": "MeasureReport/a199f44f-e551-4360-96d0-013df95e67bd"
    }
  } ]
}