{
    "entry": [
        {
            "request": {
                "method": "PUT",
                "url": "Patient/a55c6265-a05c-4fad-beb4-c5338420d1b1"
            },
            "resource": {
                "identifier": [{
                    "system": "https://bonnie-fhir.healthit.gov/",
                    "type": {"coding": [{
                        "system": "http://terminology.hl7.org/CodeSystem/v2-0203",
                        "code": "MR"
                    }]},
                    "value": "62d94d31f0347d1abcae6c00"
                }],
                "extension": [
                    {
                        "extension": [
                            {
                                "valueCoding": {
                                    "system": "urn:oid:2.16.840.1.113883.6.238",
                                    "code": "2054-5",
                                    "userSelected": true,
                                    "display": "Black or African American"
                                },
                                "url": "ombCategory"
                            },
                            {
                                "valueString": "Black or African American",
                                "url": "text"
                            }
                        ],
                        "url": "http://hl7.org/fhir/us/core/StructureDefinition/us-core-race"
                    },
                    {
                        "extension": [
                            {
                                "valueCoding": {
                                    "system": "urn:oid:2.16.840.1.113883.6.238",
                                    "code": "2135-2",
                                    "userSelected": true,
                                    "display": "Hispanic or Latino"
                                },
                                "url": "ombCategory"
                            },
                            {
                                "valueString": "Hispanic or Latino",
                                "url": "text"
                            }
                        ],
                        "url": "http://hl7.org/fhir/us/core/StructureDefinition/us-core-ethnicity"
                    }
                ],
                "gender": "female",
                "meta": {"profile": ["http://hl7.org/fhir/us/qicore/StructureDefinition/qicore-patient"]},
                "name": [{
                    "given": ["ElevatedBP4to6FUDeclined"],
                    "family": "DENEXCEPPass"
                }],
                "id": "a55c6265-a05c-4fad-beb4-c5338420d1b1",
                "birthDate": "2006-01-01",
                "resourceType": "Patient"
            },
            "fullUrl": "https://madie.cms.gov/Patient/a55c6265-a05c-4fad-beb4-c5338420d1b1"
        },
        {
            "request": {
                "method": "PUT",
                "url": "Encounter/c274b6ca-0379-46b5-aa14-36f6b19c0a24"
            },
            "resource": {
                "period": {
                    "start": "2026-01-01T08:00:00.000+00:00",
                    "end": "2026-01-01T08:30:00.000+00:00"
                },
                "meta": {"profile": ["http://hl7.org/fhir/us/qicore/StructureDefinition/qicore-encounter"]},
                "subject": {"reference": "Patient/a55c6265-a05c-4fad-beb4-c5338420d1b1"},
                "id": "c274b6ca-0379-46b5-aa14-36f6b19c0a24",
                "type": [{"coding": [{
                    "system": "http://snomed.info/sct",
                    "code": "103705002",
                    "userSelected": true,
                    "display": "Patient status observation (procedure)",
                    "version": "2022-03"
                }]}],
                "class": {
                    "system": "http://terminology.hl7.org/CodeSystem/v3-ActCode",
                    "code": "AMB",
                    "display": "ambulatory"
                },
                "resourceType": "Encounter",
                "status": "finished"
            },
            "fullUrl": "https://madie.cms.gov/Encounter/c274b6ca-0379-46b5-aa14-36f6b19c0a24"
        },
        {
            "request": {
                "method": "PUT",
                "url": "Observation/96cbd778-1de1-46d8-bfeb-279696153376"
            },
            "resource": {
                "component": [
                    {
                        "code": {"coding": [{
                            "system": "http://loinc.org",
                            "code": "8480-6",
                            "display": "Systolic blood pressure"
                        }]},
                        "valueQuantity": {
                            "unit": "mmHg",
                            "system": "http://unitsofmeasure.org",
                            "code": "mm[Hg]",
                            "value": 120
                        }
                    },
                    {
                        "code": {"coding": [{
                            "system": "http://loinc.org",
                            "code": "8462-4",
                            "display": "Diastolic blood pressure"
                        }]},
                        "valueQuantity": {
                            "unit": "mmHg",
                            "system": "http://unitsofmeasure.org",
                            "code": "mm[Hg]",
                            "value": 79
                        }
                    }
                ],
                "code": {"coding": [{
                    "system": "http://loinc.org",
                    "code": "85354-9",
                    "display": "Blood pressure panel"
                }]},
                "effectiveDateTime": "2026-01-01T08:05:00.000+00:00",
                "meta": {"profile": ["http://hl7.org/fhir/us/core/StructureDefinition/us-core-blood-pressure"]},
                "subject": {"reference": "Patient/a55c6265-a05c-4fad-beb4-c5338420d1b1"},
                "id": "96cbd778-1de1-46d8-bfeb-279696153376",
                "category": [{
                    "coding": [{
                        "system": "http://terminology.hl7.org/CodeSystem/observation-category",
                        "code": "vital-signs",
                        "display": "Vital Signs"
                    }],
                    "text": "Vital Signs"
                }],
                "resourceType": "Observation",
                "status": "final"
            },
            "fullUrl": "https://madie.cms.gov/Observation/96cbd778-1de1-46d8-bfeb-279696153376"
        },
        {
            "request": {
                "method": "PUT",
                "url": "ServiceRequest/6001d347-78fe-429b-bce4-307c75adcffe"
            },
            "resource": {
                "extension": [{
                    "valueCodeableConcept": {"coding": [{
                        "system": "http://snomed.info/sct",
                        "code": "183945002",
                        "userSelected": true,
                        "display": "Procedure declined for religious reason (situation)",
                        "version": "2022-03"
                    }]},
                    "url": "http://hl7.org/fhir/us/qicore/StructureDefinition/qicore-doNotPerformReason"
                }],
                "code": {"coding": [{
                    "system": "http://snomed.info/sct",
                    "code": "183625007",
                    "userSelected": true,
                    "display": "Follow-up 4-6 months (finding)"
                }]},
                "authoredOn": "2026-01-01T08:25:00.000+00:00",
                "meta": {"profile": ["http://hl7.org/fhir/us/qicore/StructureDefinition/qicore-servicenotrequested"]},
                "subject": {"reference": "Patient/a55c6265-a05c-4fad-beb4-c5338420d1b1"},
                "id": "6001d347-78fe-429b-bce4-307c75adcffe",
                "doNotPerform": true,
                "intent": "order",
                "resourceType": "ServiceRequest",
                "status": "completed"
            },
            "fullUrl": "https://madie.cms.gov/ServiceRequest/6001d347-78fe-429b-bce4-307c75adcffe"
        },
        {
            "request": {
                "method": "PUT",
                "url": "Coverage/2f0a66ef-dfe7-43c2-b17f-5974b73ee1bc"
            },
            "resource": {
                "payor": [{"reference": "Organization/62385b72-e116-47b1-b53a-e2ef93ad3039"}],
                "beneficiary": {"reference": "Patient/a55c6265-a05c-4fad-beb4-c5338420d1b1"},
                "meta": {"profile": ["http://hl7.org/fhir/us/qicore/StructureDefinition/qicore-coverage"]},
                "id": "2f0a66ef-dfe7-43c2-b17f-5974b73ee1bc",
                "resourceType": "Coverage",
                "status": "active"
            },
            "fullUrl": "https://madie.cms.gov/Coverage/2f0a66ef-dfe7-43c2-b17f-5974b73ee1bc"
        },
        {
            "request": {
                "method": "PUT",
                "url": "Organization/62385b72-e116-47b1-b53a-e2ef93ad3039"
            },
            "resource": {
                "identifier": [{
                    "system": "urn:oid:2.16.840.1.113883.4.4",
                    "use": "temp",
                    "value": "21-3259825"
                }],
                "address": [{
                    "country": "USA",
                    "city": "Dallas",
                    "use": "billing",
                    "line": ["P.O. Box 660044"],
                    "postalCode": "75266-0044",
                    "state": "TX",
                    "type": "postal"
                }],
                "meta": {"profile": ["http://hl7.org/fhir/us/qicore/StructureDefinition/qicore-organization"]},
                "name": "Blue Cross Blue Shield of Texas",
                "active": true,
                "telecom": [{
                    "system": "phone",
                    "value": "(+1) 972-766-6900"
                }],
                "id": "62385b72-e116-47b1-b53a-e2ef93ad3039",
                "type": [{"coding": [{
                    "system": "http://terminology.hl7.org/CodeSystem/organization-type",
                    "code": "pay",
                    "display": "Payer"
                }]}],
                "resourceType": "Organization"
            },
            "fullUrl": "https://madie.cms.gov/Organization/62385b72-e116-47b1-b53a-e2ef93ad3039"
        },
        {
            "request": {
                "method": "PUT",
                "url": "MeasureReport/f6362ae1-7373-4290-9191-29e4e7608d98"
            },
            "resource": {
                "contained": [{
                    "parameter": [{
                        "valueString": "a55c6265-a05c-4fad-beb4-c5338420d1b1",
                        "name": "subject"
                    }],
                    "id": "68813dff-33a1-43f3-969d-220c00c4b93a-parameters",
                    "resourceType": "Parameters"
                }],
                "extension": [
                    {
                        "valueReference": {"reference": "#68813dff-33a1-43f3-969d-220c00c4b93a-parameters"},
                        "url": "http://hl7.org/fhir/StructureDefinition/cqf-inputParameters"
                    },
                    {
                        "valueMarkdown": "Enc. 01/01 0800-0830 during MP, age 20, BP 120/79, patient refused f/u in 4-6 months due to religious reasons",
                        "url": "http://hl7.org/fhir/us/cqfmeasures/StructureDefinition/cqfm-testCaseDescription"
                    }
                ],
                "period": {
                    "start": "2026-01-01",
                    "end": "2026-12-31"
                },
                "measure": "https://madie.cms.gov/Measure/CMS22FHIRPCSBPScreeningFollowUp",
                "meta": {"profile": ["http://hl7.org/fhir/us/cqfmeasures/StructureDefinition/test-case-cqfm"]},
                "modifierExtension": [{
                    "valueBoolean": true,
                    "url": "http://hl7.org/fhir/us/cqfmeasures/StructureDefinition/cqfm-isTestCase"
                }],
                "id": "f6362ae1-7373-4290-9191-29e4e7608d98",
                "evaluatedResource": [
                    {"reference": "Patient/a55c6265-a05c-4fad-beb4-c5338420d1b1"},
                    {"reference": "Encounter/c274b6ca-0379-46b5-aa14-36f6b19c0a24"},
                    {"reference": "Observation/96cbd778-1de1-46d8-bfeb-279696153376"},
                    {"reference": "ServiceRequest/6001d347-78fe-429b-bce4-307c75adcffe"},
                    {"reference": "Coverage/2f0a66ef-dfe7-43c2-b17f-5974b73ee1bc"},
                    {"reference": "Organization/62385b72-e116-47b1-b53a-e2ef93ad3039"}
                ],
                "type": "individual",
                "resourceType": "MeasureReport",
                "status": "complete",
                "group": [{
                    "id": "Group_1",
                    "measureScore": {"value": 0},
                    "population": [
                        {
                            "code": {"coding": [{
                                "system": "http://terminology.hl7.org/CodeSystem/measure-population",
                                "code": "initial-population",
                                "display": "Initial Population"
                            }]},
                            "count": 1,
                            "id": "InitialPopulation_1"
                        },
                        {
                            "code": {"coding": [{
                                "system": "http://terminology.hl7.org/CodeSystem/measure-population",
                                "code": "denominator",
                                "display": "Denominator"
                            }]},
                            "count": 1,
                            "id": "Denominator_1"
                        },
                        {
                            "code": {"coding": [{
                                "system": "http://terminology.hl7.org/CodeSystem/measure-population",
                                "code": "denominator-exclusion",
                                "display": "Denominator Exclusion"
                            }]},
                            "count": 0,
                            "id": "DenominatorExclusion_1"
                        },
                        {
                            "code": {"coding": [{
                                "system": "http://terminology.hl7.org/CodeSystem/measure-population",
                                "code": "numerator",
                                "display": "Numerator"
                            }]},
                            "count": 0,
                            "id": "Numerator_1"
                        },
                        {
                            "code": {"coding": [{
                                "system": "http://terminology.hl7.org/CodeSystem/measure-population",
                                "code": "denominator-exception",
                                "display": "Denominator Exception"
                            }]},
                            "count": 1,
                            "id": "DenominatorException_1"
                        }
                    ]
                }]
            },
            "fullUrl": "https://madie.cms.gov/MeasureReport/f6362ae1-7373-4290-9191-29e4e7608d98"
        }
    ],
    "id": "62d94d31f0347d1abcae6c00",
    "type": "transaction",
    "resourceType": "Bundle"
}