{
  "resourceType": "Bundle",
  "id": "612e6f9202c62a011f2f2512",
  "type": "transaction",
  "entry": [ {
    "fullUrl": "https://madie.cms.gov/Patient/b9cdce96-127b-4a43-b5a5-9c72ea12ca3a",
    "resource": {
      "resourceType": "Patient",
      "id": "b9cdce96-127b-4a43-b5a5-9c72ea12ca3a",
      "meta": {
        "profile": [ "http://hl7.org/fhir/us/qicore/StructureDefinition/qicore-patient" ]
      },
      "text": {
        "status": "generated",
        "div": "<div xmlns=\"http://www.w3.org/1999/xhtml\"><div class=\"hapiHeaderText\">Age18OnEncStart <b>IPPASS </b></div><table class=\"hapiPropertyTable\"><tbody><tr><td>Identifier</td><td>a13f1f4498c2fb92e48e2a73c439593d</td></tr><tr><td>Date of birth</td><td><span>01 December 2003</span></td></tr></tbody></table></div>"
      },
      "extension": [ {
        "url": "http://hl7.org/fhir/us/core/StructureDefinition/us-core-race",
        "extension": [ {
          "url": "ombCategory",
          "valueCoding": {
            "system": "urn:oid:2.16.840.1.113883.6.238",
            "code": "1002-5",
            "display": "American Indian or Alaska Native",
            "userSelected": true
          }
        }, {
          "url": "text",
          "valueString": "American Indian or Alaska Native"
        }, {
          "url": "detailed",
          "valueCoding": {
            "system": "urn:oid:2.16.840.1.113883.6.238",
            "code": "1653-5",
            "display": "Tohono O'Odham"
          }
        } ]
      }, {
        "url": "http://hl7.org/fhir/us/core/StructureDefinition/us-core-ethnicity",
        "extension": [ {
          "url": "ombCategory",
          "valueCoding": {
            "system": "urn:oid:2.16.840.1.113883.6.238",
            "code": "2135-2",
            "display": "Hispanic or Latino",
            "userSelected": true
          }
        }, {
          "url": "text",
          "valueString": "Hispanic or Latino"
        }, {
          "url": "detailed",
          "valueCoding": {
            "system": "urn:oid:2.16.840.1.113883.6.238",
            "code": "2153-5",
            "display": "Mexican American Indian"
          }
        } ]
      } ],
      "identifier": [ {
        "type": {
          "coding": [ {
            "system": "http://terminology.hl7.org/CodeSystem/v2-0203",
            "code": "MR"
          } ]
        },
        "system": "https://bonnie-fhir.healthit.gov/",
        "value": "612e6f9202c62a011f2f2512"
      } ],
      "active": true,
      "name": [ {
        "use": "usual",
        "family": "IPPass",
        "given": [ "Age18OnEncStart" ]
      } ],
      "gender": "unknown",
      "birthDate": "2007-12-01"
    },
    "request": {
      "method": "PUT",
      "url": "Patient/b9cdce96-127b-4a43-b5a5-9c72ea12ca3a"
    }
  }, {
    "fullUrl": "https://madie.cms.gov/Encounter/2c8d8075-2089-4d26-bcfc-50bd99112a7b",
    "resource": {
      "resourceType": "Encounter",
      "id": "2c8d8075-2089-4d26-bcfc-50bd99112a7b",
      "meta": {
        "profile": [ "http://hl7.org/fhir/us/qicore/StructureDefinition/qicore-encounter" ]
      },
      "status": "finished",
      "class": {
        "system": "http://terminology.hl7.org/CodeSystem/v3-ActCode",
        "code": "IMP",
        "display": "inpatient encounter"
      },
      "type": [ {
        "coding": [ {
          "system": "http://snomed.info/sct",
          "code": "8715000",
          "display": "Hospital admission, elective (procedure)"
        } ]
      } ],
      "subject": {
        "reference": "Patient/b9cdce96-127b-4a43-b5a5-9c72ea12ca3a"
      },
      "period": {
        "start": "2026-12-01T08:05:00.000+00:00",
        "end": "2026-12-31T23:59:00.000+00:00"
      },
      "length": {
        "value": 30,
        "unit": "days"
      }
    },
    "request": {
      "method": "PUT",
      "url": "Encounter/2c8d8075-2089-4d26-bcfc-50bd99112a7b"
    }
  }, {
    "fullUrl": "https://madie.cms.gov/Coverage/6bf10c3f-e7e9-449b-a731-bb280cdbae3b",
    "resource": {
      "resourceType": "Coverage",
      "id": "6bf10c3f-e7e9-449b-a731-bb280cdbae3b",
      "meta": {
        "profile": [ "http://hl7.org/fhir/us/qicore/StructureDefinition/qicore-coverage" ]
      },
      "status": "active",
      "type": {
        "coding": [ {
          "system": "https://nahdo.org/sopt",
          "code": "1",
          "display": "MEDICARE"
        } ]
      },
      "beneficiary": {
        "reference": "Patient/b9cdce96-127b-4a43-b5a5-9c72ea12ca3a"
      },
      "period": {
        "start": "2004-12-02T23:59:00.000+00:00"
      },
      "payor": [ {
        "reference": "Organization/7f0ab5ef-f629-46ae-b58b-b3e898bc6c8e"
      } ]
    },
    "request": {
      "method": "PUT",
      "url": "Coverage/6bf10c3f-e7e9-449b-a731-bb280cdbae3b"
    }
  }, {
    "fullUrl": "https://madie.cms.gov/Organization/7f0ab5ef-f629-46ae-b58b-b3e898bc6c8e",
    "resource": {
      "resourceType": "Organization",
      "id": "7f0ab5ef-f629-46ae-b58b-b3e898bc6c8e",
      "meta": {
        "profile": [ "http://hl7.org/fhir/us/qicore/StructureDefinition/qicore-organization" ]
      },
      "identifier": [ {
        "use": "temp",
        "system": "urn:oid:2.16.840.1.113883.4.4",
        "value": "21-3259825"
      } ],
      "active": true,
      "type": [ {
        "coding": [ {
          "system": "http://terminology.hl7.org/CodeSystem/organization-type",
          "code": "pay",
          "display": "Payer"
        } ]
      } ],
      "name": "Blue Cross Blue Shield of Texas",
      "telecom": [ {
        "system": "phone",
        "value": "(+1) 972-766-6900"
      } ],
      "address": [ {
        "use": "billing",
        "type": "postal",
        "line": [ "P.O. Box 660044" ],
        "city": "Dallas",
        "state": "TX",
        "postalCode": "75266-0044",
        "country": "USA"
      } ]
    },
    "request": {
      "method": "PUT",
      "url": "Organization/7f0ab5ef-f629-46ae-b58b-b3e898bc6c8e"
    }
  }, {
    "fullUrl": "https://madie.cms.gov/MeasureReport/ed8388bb-88e7-4d9c-8787-cca11f2e7ace",
    "resource": {
      "resourceType": "MeasureReport",
      "id": "ed8388bb-88e7-4d9c-8787-cca11f2e7ace",
      "meta": {
        "profile": [ "http://hl7.org/fhir/us/cqfmeasures/StructureDefinition/test-case-cqfm" ]
      },
      "contained": [ {
        "resourceType": "Parameters",
        "id": "10f56e01-bbed-4306-8167-20469afb6081-parameters",
        "parameter": [ {
          "name": "subject",
          "valueString": "b9cdce96-127b-4a43-b5a5-9c72ea12ca3a"
        } ]
      } ],
      "extension": [ {
        "url": "http://hl7.org/fhir/StructureDefinition/cqf-inputParameters",
        "valueReference": {
          "reference": "#10f56e01-bbed-4306-8167-20469afb6081-parameters"
        }
      }, {
        "url": "http://hl7.org/fhir/us/cqfmeasures/StructureDefinition/cqfm-testCaseDescription",
        "valueMarkdown": "Patient turns 18 on the day of admission\n"
      } ],
      "modifierExtension": [ {
        "url": "http://hl7.org/fhir/us/cqfmeasures/StructureDefinition/cqfm-isTestCase",
        "valueBoolean": true
      } ],
      "status": "complete",
      "type": "individual",
      "measure": "https://madie.cms.gov/Measure/CMS190VTEProphylaxisICUFHIR",
      "period": {
        "start": "2026-01-01",
        "end": "2026-12-31"
      },
      "group": [ {
        "id": "Group_1",
        "population": [ {
          "id": "InitialPopulation_1",
          "code": {
            "coding": [ {
              "system": "http://terminology.hl7.org/CodeSystem/measure-population",
              "code": "initial-population",
              "display": "Initial Population"
            } ]
          },
          "count": 1
        }, {
          "id": "Denominator_1",
          "code": {
            "coding": [ {
              "system": "http://terminology.hl7.org/CodeSystem/measure-population",
              "code": "denominator",
              "display": "Denominator"
            } ]
          },
          "count": 0
        }, {
          "id": "DenominatorExclusion_1",
          "code": {
            "coding": [ {
              "system": "http://terminology.hl7.org/CodeSystem/measure-population",
              "code": "denominator-exclusion",
              "display": "Denominator Exclusion"
            } ]
          },
          "count": 0
        }, {
          "id": "Numerator_1",
          "code": {
            "coding": [ {
              "system": "http://terminology.hl7.org/CodeSystem/measure-population",
              "code": "numerator",
              "display": "Numerator"
            } ]
          },
          "count": 0
        }, {
          "id": "DenominatorException_1",
          "code": {
            "coding": [ {
              "system": "http://terminology.hl7.org/CodeSystem/measure-population",
              "code": "denominator-exception",
              "display": "Denominator Exception"
            } ]
          },
          "count": 0
        } ],
        "measureScore": {
          "value": 0.0
        }
      } ],
      "evaluatedResource": [ {
        "reference": "Patient/b9cdce96-127b-4a43-b5a5-9c72ea12ca3a"
      }, {
        "reference": "Encounter/2c8d8075-2089-4d26-bcfc-50bd99112a7b"
      }, {
        "reference": "Coverage/6bf10c3f-e7e9-449b-a731-bb280cdbae3b"
      }, {
        "reference": "Organization/7f0ab5ef-f629-46ae-b58b-b3e898bc6c8e"
      } ]
    },
    "request": {
      "method": "PUT",
      "url": "MeasureReport/ed8388bb-88e7-4d9c-8787-cca11f2e7ace"
    }
  } ]
}