{
  "resourceType": "Bundle",
  "id": "6109658e98086b538055b9d0",
  "type": "transaction",
  "entry": [ {
    "fullUrl": "https://madie.cms.gov/Patient/0e80afcd-6020-4d72-a5fd-d6db3f1f1a05",
    "resource": {
      "resourceType": "Patient",
      "id": "0e80afcd-6020-4d72-a5fd-d6db3f1f1a05",
      "meta": {
        "profile": [ "http://hl7.org/fhir/us/qicore/StructureDefinition/qicore-patient" ]
      },
      "extension": [ {
        "url": "http://hl7.org/fhir/us/core/StructureDefinition/us-core-race",
        "extension": [ {
          "url": "ombCategory",
          "valueCoding": {
            "system": "urn:oid:2.16.840.1.113883.6.238",
            "code": "2106-3",
            "display": "White",
            "userSelected": true
          }
        }, {
          "url": "text",
          "valueString": "White"
        } ]
      }, {
        "url": "http://hl7.org/fhir/us/core/StructureDefinition/us-core-ethnicity",
        "extension": [ {
          "url": "ombCategory",
          "valueCoding": {
            "system": "urn:oid:2.16.840.1.113883.6.238",
            "code": "2135-2",
            "display": "Hispanic or Latino",
            "userSelected": true
          }
        }, {
          "url": "text",
          "valueString": "Hispanic or Latino"
        } ]
      } ],
      "identifier": [ {
        "type": {
          "coding": [ {
            "system": "http://terminology.hl7.org/CodeSystem/v2-0203",
            "code": "MR"
          } ]
        },
        "system": "https://bonnie-fhir.healthit.gov/",
        "value": "6109658e98086b538055b9d0"
      } ],
      "active": true,
      "name": [ {
        "use": "usual",
        "family": "NUMERFail",
        "given": [ "MissingOpticDiscExam" ]
      } ],
      "gender": "male",
      "birthDate": "1968-09-10"
    },
    "request": {
      "method": "PUT",
      "url": "Patient/0e80afcd-6020-4d72-a5fd-d6db3f1f1a05"
    }
  }, {
    "fullUrl": "https://madie.cms.gov/Condition/96058f86-7ed6-4bfd-ac2e-8140c5998e4e",
    "resource": {
      "resourceType": "Condition",
      "id": "96058f86-7ed6-4bfd-ac2e-8140c5998e4e",
      "meta": {
        "profile": [ "http://hl7.org/fhir/us/qicore/StructureDefinition/qicore-condition-problems-health-concerns" ]
      },
      "clinicalStatus": {
        "coding": [ {
          "system": "http://terminology.hl7.org/CodeSystem/condition-clinical",
          "code": "active",
          "display": "active",
          "userSelected": true
        } ]
      },
      "category": [ {
        "coding": [ {
          "system": "http://terminology.hl7.org/CodeSystem/condition-category",
          "code": "problem-list-item",
          "display": "problem-list-item",
          "userSelected": true
        } ]
      } ],
      "code": {
        "coding": [ {
          "system": "http://hl7.org/fhir/sid/icd-10-cm",
          "code": "H40.10X0"
        } ]
      },
      "subject": {
        "reference": "Patient/0e80afcd-6020-4d72-a5fd-d6db3f1f1a05"
      },
      "onsetDateTime": "2016-06-15T07:00:00+00:00"
    },
    "request": {
      "method": "PUT",
      "url": "Condition/96058f86-7ed6-4bfd-ac2e-8140c5998e4e"
    }
  }, {
    "fullUrl": "https://madie.cms.gov/Observation/14e464ea-c39c-471f-9d60-99df9a8afa00",
    "resource": {
      "resourceType": "Observation",
      "id": "14e464ea-c39c-471f-9d60-99df9a8afa00",
      "meta": {
        "profile": [ "http://hl7.org/fhir/us/qicore/StructureDefinition/qicore-observation-clinical-result" ]
      },
      "status": "final",
      "category": [ {
        "coding": [ {
          "system": "http://terminology.hl7.org/CodeSystem/observation-category",
          "code": "laboratory",
          "display": "laboratory",
          "userSelected": true
        } ]
      } ],
      "code": {
        "coding": [ {
          "system": "http://loinc.org",
          "version": "2.73",
          "code": "71484-0"
        } ]
      },
      "subject": {
        "reference": "Patient/0e80afcd-6020-4d72-a5fd-d6db3f1f1a05"
      },
      "effectiveDateTime": "2026-01-22T08:00:00.000+00:00",
      "valueString": "Within Normal Limits"
    },
    "request": {
      "method": "PUT",
      "url": "Observation/14e464ea-c39c-471f-9d60-99df9a8afa00"
    }
  }, {
    "fullUrl": "https://madie.cms.gov/Encounter/01fcd06d-b4f1-40c4-9805-04f53b73cb83",
    "resource": {
      "resourceType": "Encounter",
      "id": "01fcd06d-b4f1-40c4-9805-04f53b73cb83",
      "meta": {
        "profile": [ "http://hl7.org/fhir/us/qicore/StructureDefinition/qicore-encounter" ]
      },
      "status": "finished",
      "class": {
        "system": "http://terminology.hl7.org/CodeSystem/v3-ActCode",
        "code": "AMB",
        "display": "ambulatory",
        "userSelected": true
      },
      "type": [ {
        "coding": [ {
          "system": "http://www.ama-assn.org/go/cpt",
          "version": "2023",
          "code": "99213"
        } ]
      } ],
      "subject": {
        "reference": "Patient/0e80afcd-6020-4d72-a5fd-d6db3f1f1a05"
      },
      "period": {
        "start": "2026-01-26T08:00:00.000+00:00",
        "end": "2026-01-26T08:00:00.000+00:00"
      },
      "length": {
        "value": 0.0,
        "unit": "days"
      }
    },
    "request": {
      "method": "PUT",
      "url": "Encounter/01fcd06d-b4f1-40c4-9805-04f53b73cb83"
    }
  }, {
    "fullUrl": "https://madie.cms.gov/MeasureReport/23322bbd-95d4-444c-a37c-d8008222aa35",
    "resource": {
      "resourceType": "MeasureReport",
      "id": "23322bbd-95d4-444c-a37c-d8008222aa35",
      "meta": {
        "profile": [ "http://hl7.org/fhir/us/cqfmeasures/StructureDefinition/test-case-cqfm" ]
      },
      "contained": [ {
        "resourceType": "Parameters",
        "id": "f1d83a96-0416-42fb-825f-f9092b0f26b0-parameters",
        "parameter": [ {
          "name": "subject",
          "valueString": "0e80afcd-6020-4d72-a5fd-d6db3f1f1a05"
        } ]
      } ],
      "extension": [ {
        "url": "http://hl7.org/fhir/StructureDefinition/cqf-inputParameters",
        "valueReference": {
          "reference": "#f1d83a96-0416-42fb-825f-f9092b0f26b0-parameters"
        }
      }, {
        "url": "http://hl7.org/fhir/us/cqfmeasures/StructureDefinition/cqfm-testCaseDescription",
        "valueMarkdown": "Patient has POAG diagnosis and qualifying encounter in MP with associated Cup Disc Ratio Exam but is missing an Optic Disc Examination needed to qualify for numerator"
      } ],
      "modifierExtension": [ {
        "url": "http://hl7.org/fhir/us/cqfmeasures/StructureDefinition/cqfm-isTestCase",
        "valueBoolean": true
      } ],
      "status": "complete",
      "type": "individual",
      "measure": "https://madie.cms.gov/Measure/CMS143FHIRPOAGOpticNerveEvaluation",
      "period": {
        "start": "2026-01-01",
        "end": "2026-12-31"
      },
      "group": [ {
        "id": "Group_1",
        "population": [ {
          "id": "InitialPopulation_1",
          "code": {
            "coding": [ {
              "system": "http://terminology.hl7.org/CodeSystem/measure-population",
              "code": "initial-population",
              "display": "Initial Population"
            } ]
          },
          "count": 1
        }, {
          "id": "Denominator_1",
          "code": {
            "coding": [ {
              "system": "http://terminology.hl7.org/CodeSystem/measure-population",
              "code": "denominator",
              "display": "Denominator"
            } ]
          },
          "count": 1
        }, {
          "id": "Numerator_1",
          "code": {
            "coding": [ {
              "system": "http://terminology.hl7.org/CodeSystem/measure-population",
              "code": "numerator",
              "display": "Numerator"
            } ]
          },
          "count": 0
        }, {
          "id": "DenominatorException_1",
          "code": {
            "coding": [ {
              "system": "http://terminology.hl7.org/CodeSystem/measure-population",
              "code": "denominator-exception",
              "display": "Denominator Exception"
            } ]
          },
          "count": 0
        } ],
        "measureScore": {
          "value": 1.0
        }
      } ],
      "evaluatedResource": [ {
        "reference": "Patient/0e80afcd-6020-4d72-a5fd-d6db3f1f1a05"
      }, {
        "reference": "Condition/96058f86-7ed6-4bfd-ac2e-8140c5998e4e"
      }, {
        "reference": "Observation/14e464ea-c39c-471f-9d60-99df9a8afa00"
      }, {
        "reference": "Encounter/01fcd06d-b4f1-40c4-9805-04f53b73cb83"
      } ]
    },
    "request": {
      "method": "PUT",
      "url": "MeasureReport/23322bbd-95d4-444c-a37c-d8008222aa35"
    }
  } ]
}