{
    "entry": [
        {
            "request": {
                "method": "PUT",
                "url": "Patient/a4a1ed63-89ff-4d27-8819-136873e13171"
            },
            "resource": {
                "identifier": [{
                    "system": "https://bonnie-fhir.healthit.gov/",
                    "type": {"coding": [{
                        "system": "http://terminology.hl7.org/CodeSystem/v2-0203",
                        "code": "MR"
                    }]},
                    "value": "62df2c640056b6e23ec675ab"
                }],
                "extension": [
                    {
                        "extension": [
                            {
                                "valueCoding": {
                                    "system": "urn:oid:2.16.840.1.113883.6.238",
                                    "code": "2106-3",
                                    "userSelected": true,
                                    "display": "White"
                                },
                                "url": "ombCategory"
                            },
                            {
                                "valueString": "White",
                                "url": "text"
                            }
                        ],
                        "url": "http://hl7.org/fhir/us/core/StructureDefinition/us-core-race"
                    },
                    {
                        "extension": [
                            {
                                "valueCoding": {
                                    "system": "urn:oid:2.16.840.1.113883.6.238",
                                    "code": "2186-5",
                                    "userSelected": true,
                                    "display": "Not Hispanic or Latino"
                                },
                                "url": "ombCategory"
                            },
                            {
                                "valueString": "Not Hispanic or Latino",
                                "url": "text"
                            }
                        ],
                        "url": "http://hl7.org/fhir/us/core/StructureDefinition/us-core-ethnicity"
                    }
                ],
                "gender": "unknown",
                "meta": {"profile": ["http://hl7.org/fhir/us/qicore/StructureDefinition/qicore-patient"]},
                "name": [{
                    "given": ["MedicalReasonMedicationForLowBMI"],
                    "family": "DENEXCEPPass"
                }],
                "id": "a4a1ed63-89ff-4d27-8819-136873e13171",
                "birthDate": "1957-11-07",
                "resourceType": "Patient"
            },
            "fullUrl": "https://madie.cms.gov/Patient/a4a1ed63-89ff-4d27-8819-136873e13171"
        },
        {
            "request": {
                "method": "PUT",
                "url": "Encounter/adff7540-47a7-48b3-af06-763085df2d69"
            },
            "resource": {
                "period": {
                    "start": "2026-01-01T08:00:00.000+00:00",
                    "end": "2026-01-01T08:15:00.000+00:00"
                },
                "meta": {"profile": ["http://hl7.org/fhir/us/qicore/StructureDefinition/qicore-encounter"]},
                "subject": {"reference": "Patient/a4a1ed63-89ff-4d27-8819-136873e13171"},
                "id": "adff7540-47a7-48b3-af06-763085df2d69",
                "type": [{"coding": [{
                    "system": "http://snomed.info/sct",
                    "code": "10197000",
                    "userSelected": true,
                    "display": "Psychiatric interview and evaluation (procedure)",
                    "version": "2022-03"
                }]}],
                "class": {
                    "system": "http://terminology.hl7.org/CodeSystem/v3-ActCode",
                    "code": "AMB",
                    "display": "ambulatory"
                },
                "resourceType": "Encounter",
                "status": "finished"
            },
            "fullUrl": "https://madie.cms.gov/Encounter/adff7540-47a7-48b3-af06-763085df2d69"
        },
        {
            "request": {
                "method": "PUT",
                "url": "Observation/1bba469a-f174-4110-a2a6-ae0914e312c9"
            },
            "resource": {
                "code": {"coding": [{
                    "system": "http://loinc.org",
                    "code": "39156-5",
                    "userSelected": true,
                    "display": "Body mass index (BMI) [Ratio]"
                }]},
                "effectiveDateTime": "2026-01-01T08:05:00.000+00:00",
                "meta": {"profile": ["http://hl7.org/fhir/us/core/StructureDefinition/us-core-bmi"]},
                "subject": {"reference": "Patient/a4a1ed63-89ff-4d27-8819-136873e13171"},
                "id": "1bba469a-f174-4110-a2a6-ae0914e312c9",
                "category": [{"coding": [{
                    "system": "http://terminology.hl7.org/CodeSystem/observation-category",
                    "code": "vital-signs",
                    "display": "Vital Signs"
                }]}],
                "resourceType": "Observation",
                "status": "amended",
                "valueQuantity": {
                    "unit": "kg/m2",
                    "system": "http://unitsofmeasure.org",
                    "code": "kg/m2",
                    "value": 18.4
                }
            },
            "fullUrl": "https://madie.cms.gov/Observation/1bba469a-f174-4110-a2a6-ae0914e312c9"
        },
        {
            "request": {
                "method": "PUT",
                "url": "MedicationRequest/78826425-ef07-4df5-992e-14545d7985a8"
            },
            "resource": {
                "requester": {"reference": "Practitioner/Practitioner-123456"},
                "statusReason": {"coding": [{
                    "system": "http://snomed.info/sct",
                    "code": "183932001",
                    "userSelected": true,
                    "display": "Procedure contraindicated (situation)"
                }]},
                "authoredOn": "2026-01-01T08:10:00.000+00:00",
                "meta": {"profile": ["http://hl7.org/fhir/us/qicore/StructureDefinition/qicore-medicationnotrequested"]},
                "subject": {"reference": "Patient/a4a1ed63-89ff-4d27-8819-136873e13171"},
                "id": "78826425-ef07-4df5-992e-14545d7985a8",
                "reasonCode": [{"coding": [{
                    "system": "http://snomed.info/sct",
                    "code": "183932001",
                    "display": "Procedure contraindicated (situation)"
                }]}],
                "doNotPerform": true,
                "medicationCodeableConcept": {"coding": [{
                    "system": "http://www.nlm.nih.gov/research/umls/rxnorm",
                    "code": "860221",
                    "userSelected": true,
                    "display": "megestrol acetate 40 MG Oral Tablet",
                    "version": "2022-06"
                }]},
                "intent": "order",
                "resourceType": "MedicationRequest",
                "status": "completed"
            },
            "fullUrl": "https://madie.cms.gov/MedicationRequest/78826425-ef07-4df5-992e-14545d7985a8"
        },
        {
            "request": {
                "method": "PUT",
                "url": "Coverage/9afed990-5924-4d0a-84f0-9643476db8c7"
            },
            "resource": {
                "payor": [{"reference": "Organization/835fa996-3b39-4233-856e-d31fcb10c795"}],
                "beneficiary": {"reference": "Patient/a4a1ed63-89ff-4d27-8819-136873e13171"},
                "meta": {"profile": ["http://hl7.org/fhir/us/qicore/StructureDefinition/qicore-coverage"]},
                "id": "9afed990-5924-4d0a-84f0-9643476db8c7",
                "resourceType": "Coverage",
                "status": "active"
            },
            "fullUrl": "https://madie.cms.gov/Coverage/9afed990-5924-4d0a-84f0-9643476db8c7"
        },
        {
            "request": {
                "method": "PUT",
                "url": "Organization/835fa996-3b39-4233-856e-d31fcb10c795"
            },
            "resource": {
                "identifier": [{
                    "system": "urn:oid:2.16.840.1.113883.4.4",
                    "use": "temp",
                    "value": "21-3259825"
                }],
                "address": [{
                    "country": "USA",
                    "city": "Dallas",
                    "use": "billing",
                    "line": ["P.O. Box 660044"],
                    "postalCode": "75266-0044",
                    "state": "TX",
                    "type": "postal"
                }],
                "meta": {"profile": ["http://hl7.org/fhir/us/qicore/StructureDefinition/qicore-organization"]},
                "name": "Blue Cross Blue Shield of Texas",
                "active": true,
                "telecom": [{
                    "system": "phone",
                    "value": "(+1) 972-766-6900"
                }],
                "id": "835fa996-3b39-4233-856e-d31fcb10c795",
                "type": [{"coding": [{
                    "system": "http://terminology.hl7.org/CodeSystem/organization-type",
                    "code": "pay",
                    "display": "Payer"
                }]}],
                "resourceType": "Organization"
            },
            "fullUrl": "https://madie.cms.gov/Organization/835fa996-3b39-4233-856e-d31fcb10c795"
        },
        {
            "request": {
                "method": "PUT",
                "url": "MeasureReport/c7103317-f6de-467c-a202-1fdacac253c5"
            },
            "resource": {
                "contained": [{
                    "parameter": [{
                        "valueString": "a4a1ed63-89ff-4d27-8819-136873e13171",
                        "name": "subject"
                    }],
                    "id": "ed2e6baf-8d99-4cfd-8daa-52a9e854c63f-parameters",
                    "resourceType": "Parameters"
                }],
                "extension": [
                    {
                        "valueReference": {"reference": "#ed2e6baf-8d99-4cfd-8daa-52a9e854c63f-parameters"},
                        "url": "http://hl7.org/fhir/StructureDefinition/cqf-inputParameters"
                    },
                    {
                        "valueMarkdown": "Enc first day of MP, Low BMI with medical reason for not providing medication",
                        "url": "http://hl7.org/fhir/us/cqfmeasures/StructureDefinition/cqfm-testCaseDescription"
                    }
                ],
                "period": {
                    "start": "2026-01-01",
                    "end": "2026-12-31"
                },
                "measure": "https://madie.cms.gov/Measure/CMS69FHIRPCSBMIScreenAndFollowUp",
                "meta": {"profile": ["http://hl7.org/fhir/us/cqfmeasures/StructureDefinition/test-case-cqfm"]},
                "modifierExtension": [{
                    "valueBoolean": true,
                    "url": "http://hl7.org/fhir/us/cqfmeasures/StructureDefinition/cqfm-isTestCase"
                }],
                "id": "c7103317-f6de-467c-a202-1fdacac253c5",
                "evaluatedResource": [
                    {"reference": "Patient/a4a1ed63-89ff-4d27-8819-136873e13171"},
                    {"reference": "Encounter/adff7540-47a7-48b3-af06-763085df2d69"},
                    {"reference": "Observation/1bba469a-f174-4110-a2a6-ae0914e312c9"},
                    {"reference": "MedicationRequest/78826425-ef07-4df5-992e-14545d7985a8"},
                    {"reference": "Coverage/9afed990-5924-4d0a-84f0-9643476db8c7"},
                    {"reference": "Organization/835fa996-3b39-4233-856e-d31fcb10c795"}
                ],
                "type": "individual",
                "resourceType": "MeasureReport",
                "status": "complete",
                "group": [{
                    "id": "Group_1",
                    "measureScore": {"value": 1},
                    "population": [
                        {
                            "code": {"coding": [{
                                "system": "http://terminology.hl7.org/CodeSystem/measure-population",
                                "code": "initial-population",
                                "display": "Initial Population"
                            }]},
                            "count": 1,
                            "id": "InitialPopulation_1"
                        },
                        {
                            "code": {"coding": [{
                                "system": "http://terminology.hl7.org/CodeSystem/measure-population",
                                "code": "denominator",
                                "display": "Denominator"
                            }]},
                            "count": 1,
                            "id": "Denominator_1"
                        },
                        {
                            "code": {"coding": [{
                                "system": "http://terminology.hl7.org/CodeSystem/measure-population",
                                "code": "denominator-exclusion",
                                "display": "Denominator Exclusion"
                            }]},
                            "count": 0,
                            "id": "DenominatorExclusion_1"
                        },
                        {
                            "code": {"coding": [{
                                "system": "http://terminology.hl7.org/CodeSystem/measure-population",
                                "code": "numerator",
                                "display": "Numerator"
                            }]},
                            "count": 0,
                            "id": "Numerator_1"
                        },
                        {
                            "code": {"coding": [{
                                "system": "http://terminology.hl7.org/CodeSystem/measure-population",
                                "code": "denominator-exception",
                                "display": "Denominator Exception"
                            }]},
                            "count": 1,
                            "id": "DenominatorException_1"
                        }
                    ]
                }]
            },
            "fullUrl": "https://madie.cms.gov/MeasureReport/c7103317-f6de-467c-a202-1fdacac253c5"
        }
    ],
    "id": "62df2c640056b6e23ec675ab",
    "type": "transaction",
    "resourceType": "Bundle"
}