{
  "resourceType": "Bundle",
  "id": "661476b015ed5841a5547ebf",
  "type": "transaction",
  "entry": [ {
    "fullUrl": "https://madie.cms.gov/Patient/9fe769bc-bd23-4799-9bc6-9945eda0d0cf",
    "resource": {
      "resourceType": "Patient",
      "id": "9fe769bc-bd23-4799-9bc6-9945eda0d0cf",
      "meta": {
        "profile": [ "http://hl7.org/fhir/us/qicore/StructureDefinition/qicore-patient" ]
      },
      "extension": [ {
        "url": "http://hl7.org/fhir/us/core/StructureDefinition/us-core-race",
        "extension": [ {
          "url": "ombCategory",
          "valueCoding": {
            "system": "urn:oid:2.16.840.1.113883.6.238",
            "code": "1002-5",
            "display": "American Indian or Alaska Native",
            "userSelected": true
          }
        }, {
          "url": "text",
          "valueString": "American Indian or Alaska Native"
        } ]
      }, {
        "url": "http://hl7.org/fhir/us/core/StructureDefinition/us-core-ethnicity",
        "extension": [ {
          "url": "ombCategory",
          "valueCoding": {
            "system": "urn:oid:2.16.840.1.113883.6.238",
            "code": "2135-2",
            "display": "Hispanic or Latino",
            "userSelected": true
          }
        }, {
          "url": "text",
          "valueString": "Hispanic or Latino"
        } ]
      }, {
        "url": "http://hl7.org/fhir/us/core/StructureDefinition/us-core-sex",
        "valueCode": "248153007"
      } ],
      "identifier": [ {
        "type": {
          "coding": [ {
            "system": "http://terminology.hl7.org/CodeSystem/v2-0203",
            "code": "MR"
          } ]
        },
        "system": "https://bonnie-fhir.healthit.gov/",
        "value": "661476b015ed5841a5547ebf"
      } ],
      "name": [ {
        "family": "NUMERStrat3Pass",
        "given": [ "AdmittedInpatient" ]
      } ],
      "gender": "male",
      "birthDate": "2010-01-01"
    },
    "request": {
      "method": "PUT",
      "url": "Patient/9fe769bc-bd23-4799-9bc6-9945eda0d0cf"
    }
  }, {
    "fullUrl": "https://madie.cms.gov/Encounter/ad5ed126-ed91-417f-ad3b-ca766a5908a9",
    "resource": {
      "resourceType": "Encounter",
      "id": "ad5ed126-ed91-417f-ad3b-ca766a5908a9",
      "meta": {
        "profile": [ "http://hl7.org/fhir/us/qicore/StructureDefinition/qicore-encounter" ]
      },
      "status": "finished",
      "class": {
        "system": "http://terminology.hl7.org/CodeSystem/v3-ActCode",
        "code": "EMER",
        "display": "emergency department"
      },
      "type": [ {
        "coding": [ {
          "system": "http://snomed.info/sct",
          "version": "2023-09",
          "code": "4525004",
          "display": "Emergency department patient visit (procedure)",
          "userSelected": true
        } ]
      } ],
      "subject": {
        "reference": "Patient/9fe769bc-bd23-4799-9bc6-9945eda0d0cf"
      },
      "period": {
        "start": "2027-05-01T06:00:00.000+00:00",
        "end": "2027-05-01T13:15:00.000+00:00"
      },
      "diagnosis": [ {
        "condition": {
          "reference": "Condition/fb511aca-83fe-4d31-8478-e6bbf7a21555"
        },
        "use": {
          "coding": [ {
            "system": "http://terminology.hl7.org/CodeSystem/diagnosis-role",
            "code": "billing"
          } ]
        },
        "rank": 1
      } ],
      "location": [ {
        "location": {
          "reference": "Location/b1269cc7-e41e-43d2-95d0-d7604b736972"
        },
        "period": {
          "start": "2027-05-01T06:00:00.000+00:00",
          "end": "2027-05-01T13:15:00.000+00:00"
        }
      } ]
    },
    "request": {
      "method": "PUT",
      "url": "Encounter/ad5ed126-ed91-417f-ad3b-ca766a5908a9"
    }
  }, {
    "fullUrl": "https://madie.cms.gov/Encounter/61d158a5-c89c-4d2e-90b8-a6956ceb3904",
    "resource": {
      "resourceType": "Encounter",
      "id": "61d158a5-c89c-4d2e-90b8-a6956ceb3904",
      "meta": {
        "profile": [ "http://hl7.org/fhir/us/qicore/StructureDefinition/qicore-encounter" ]
      },
      "status": "finished",
      "class": {
        "system": "http://terminology.hl7.org/CodeSystem/v3-ActCode",
        "code": "IMP",
        "display": "inpatient encounter"
      },
      "type": [ {
        "coding": [ {
          "system": "http://snomed.info/sct",
          "version": "2023-09",
          "code": "183452005",
          "display": "Emergency hospital admission (procedure)",
          "userSelected": true
        } ]
      } ],
      "subject": {
        "reference": "Patient/9fe769bc-bd23-4799-9bc6-9945eda0d0cf"
      },
      "period": {
        "start": "2027-05-01T09:00:00.000+00:00",
        "end": "2027-05-03T06:15:00.000+00:00"
      }
    },
    "request": {
      "method": "PUT",
      "url": "Encounter/61d158a5-c89c-4d2e-90b8-a6956ceb3904"
    }
  }, {
    "fullUrl": "https://madie.cms.gov/Location/b1269cc7-e41e-43d2-95d0-d7604b736972",
    "resource": {
      "resourceType": "Location",
      "id": "b1269cc7-e41e-43d2-95d0-d7604b736972",
      "meta": {
        "profile": [ "http://hl7.org/fhir/us/qicore/StructureDefinition/qicore-location" ]
      },
      "identifier": [ {
        "use": "usual",
        "system": "http://exampleoflocation.com",
        "value": "B1-S.F2"
      } ],
      "name": "Medical Surgical East, first floor",
      "type": [ {
        "coding": [ {
          "system": "https://www.cdc.gov/nhsn/cdaportal/terminology/codesystem/hsloc.html",
          "version": "2022",
          "code": "1108-0",
          "display": "Emergency Department",
          "userSelected": true
        } ]
      } ]
    },
    "request": {
      "method": "PUT",
      "url": "Location/b1269cc7-e41e-43d2-95d0-d7604b736972"
    }
  }, {
    "fullUrl": "https://madie.cms.gov/claim/ClaimBehavior-NotSubsAbuse",
    "resource": {
      "resourceType": "Claim",
      "id": "ClaimBehavior-NotSubsAbuse",
      "meta": {
        "profile": [ "http://hl7.org/fhir/us/qicore/StructureDefinition/qicore-claim" ]
      },
      "status": "active",
      "type": {
        "coding": [ {
          "system": "http://terminology.hl7.org/CodeSystem/claim-type",
          "code": "institutional"
        } ]
      },
      "use": "claim",
      "patient": {
        "reference": "Patient/9fe769bc-bd23-4799-9bc6-9945eda0d0cf"
      },
      "created": "2027-05-01",
      "provider": {
        "reference": "Practitioner/3a23ce0e-4597-4c63-9dc1-a2201dd1e95b"
      },
      "priority": {
        "coding": [ {
          "system": "http://terminology.hl7.org/CodeSystem/processpriority",
          "code": "normal"
        } ]
      },
      "diagnosis": [ {
        "sequence": 1,
        "diagnosisReference": {
          "reference": "Condition/fb511aca-83fe-4d31-8478-e6bbf7a21555"
        },
        "type": [ {
          "coding": [ {
            "system": "http://terminology.hl7.org/CodeSystem/ex-diagnosistype",
            "code": "principal"
          } ]
        } ]
      } ],
      "insurance": [ {
        "sequence": 1,
        "focal": true,
        "coverage": {
          "reference": "Coverage/31a8da43-f7e0-42ed-9f26-33811b64e8dd"
        }
      } ],
      "item": [ {
        "sequence": 1,
        "diagnosisSequence": [ 1 ],
        "productOrService": {
          "coding": [ {
            "system": "http://terminology.hl7.org/CodeSystem/ex-USCLS",
            "code": "99555"
          } ]
        },
        "encounter": [ {
          "reference": "Encounter/ad5ed126-ed91-417f-ad3b-ca766a5908a9"
        } ]
      } ]
    },
    "request": {
      "method": "PUT",
      "url": "Claim/ClaimBehavior-NotSubsAbuse"
    }
  }, {
    "fullUrl": "https://madie.cms.gov/Coverage/31a8da43-f7e0-42ed-9f26-33811b64e8dd",
    "resource": {
      "resourceType": "Coverage",
      "id": "31a8da43-f7e0-42ed-9f26-33811b64e8dd",
      "meta": {
        "profile": [ "http://hl7.org/fhir/us/qicore/StructureDefinition/qicore-coverage" ]
      },
      "identifier": [ {
        "type": {
          "coding": [ {
            "system": "http://terminology.hl7.org/CodeSystem/v2-0203",
            "code": "MB"
          } ]
        }
      } ],
      "status": "active",
      "beneficiary": {
        "reference": "Patient/9fe769bc-bd23-4799-9bc6-9945eda0d0cf"
      },
      "relationship": {
        "coding": [ {
          "system": "http://terminology.hl7.org/CodeSystem/subscriber-relationship",
          "code": "self"
        } ]
      },
      "payor": [ {
        "reference": "Organization/c960ac9a-3fa2-4f00-9507-85055514e4aa"
      } ]
    },
    "request": {
      "method": "PUT",
      "url": "Coverage/31a8da43-f7e0-42ed-9f26-33811b64e8dd"
    }
  }, {
    "fullUrl": "https://madie.cms.gov/Condition/fb511aca-83fe-4d31-8478-e6bbf7a21555",
    "resource": {
      "resourceType": "Condition",
      "id": "fb511aca-83fe-4d31-8478-e6bbf7a21555",
      "meta": {
        "profile": [ "http://hl7.org/fhir/us/qicore/StructureDefinition/qicore-condition-encounter-diagnosis" ]
      },
      "category": [ {
        "coding": [ {
          "system": "http://terminology.hl7.org/CodeSystem/condition-category",
          "code": "encounter-diagnosis",
          "display": "Encounter Diagnosis"
        } ]
      } ],
      "code": {
        "coding": [ {
          "system": "http://snomed.info/sct",
          "version": "2023-09",
          "code": "10349009",
          "display": "Multi-infarct dementia with delirium (disorder)",
          "userSelected": true
        } ]
      },
      "subject": {
        "reference": "Patient/9fe769bc-bd23-4799-9bc6-9945eda0d0cf"
      },
      "recordedDate": "2027-04-09T08:00:00.000+00:00"
    },
    "request": {
      "method": "PUT",
      "url": "Condition/fb511aca-83fe-4d31-8478-e6bbf7a21555"
    }
  }, {
    "fullUrl": "https://madie.cms.gov/Organization/c960ac9a-3fa2-4f00-9507-85055514e4aa",
    "resource": {
      "resourceType": "Organization",
      "id": "c960ac9a-3fa2-4f00-9507-85055514e4aa",
      "meta": {
        "profile": [ "http://hl7.org/fhir/us/qicore/StructureDefinition/qicore-organization" ]
      },
      "identifier": [ {
        "use": "temp",
        "system": "urn:oid:2.16.840.1.113883.4.4",
        "value": "21-3259825"
      } ],
      "active": true,
      "type": [ {
        "coding": [ {
          "system": "http://terminology.hl7.org/CodeSystem/organization-type",
          "code": "pay",
          "display": "Payer"
        } ]
      } ],
      "name": "Blue Cross Blue Shield of Texas",
      "telecom": [ {
        "system": "phone",
        "value": "(+1) 972-766-6900"
      } ],
      "address": [ {
        "use": "billing",
        "type": "postal",
        "line": [ "P.O. Box 660044" ],
        "city": "Dallas",
        "state": "TX",
        "postalCode": "75266-0044",
        "country": "USA"
      } ]
    },
    "request": {
      "method": "PUT",
      "url": "Organization/c960ac9a-3fa2-4f00-9507-85055514e4aa"
    }
  }, {
    "fullUrl": "https://madie.cms.gov/Practitioner/3a23ce0e-4597-4c63-9dc1-a2201dd1e95b",
    "resource": {
      "resourceType": "Practitioner",
      "id": "3a23ce0e-4597-4c63-9dc1-a2201dd1e95b",
      "meta": {
        "profile": [ "http://hl7.org/fhir/us/qicore/StructureDefinition/qicore-practitioner" ]
      },
      "identifier": [ {
        "system": "http://hl7.org/fhir/sid/us-npi",
        "value": "9999999896"
      } ],
      "name": [ {
        "family": "Evil",
        "prefix": [ "Dr" ]
      } ]
    },
    "request": {
      "method": "PUT",
      "url": "Practitioner/3a23ce0e-4597-4c63-9dc1-a2201dd1e95b"
    }
  }, {
    "fullUrl": "https://madie.cms.gov/MeasureReport/5f1e43dc-bb4d-43c6-b41b-9c3c8e62b5d0",
    "resource": {
      "resourceType": "MeasureReport",
      "id": "5f1e43dc-bb4d-43c6-b41b-9c3c8e62b5d0",
      "meta": {
        "profile": [ "http://hl7.org/fhir/us/cqfmeasures/StructureDefinition/test-case-cqfm" ]
      },
      "contained": [ {
        "resourceType": "Parameters",
        "id": "cfc8a2a3-5f8d-4b41-aa62-6b5f3fe0cc68-parameters",
        "parameter": [ {
          "name": "subject",
          "valueString": "9fe769bc-bd23-4799-9bc6-9945eda0d0cf"
        } ]
      } ],
      "extension": [ {
        "url": "http://hl7.org/fhir/StructureDefinition/cqf-inputParameters",
        "valueReference": {
          "reference": "#cfc8a2a3-5f8d-4b41-aa62-6b5f3fe0cc68-parameters"
        }
      }, {
        "url": "http://hl7.org/fhir/us/cqfmeasures/StructureDefinition/cqfm-testCaseDescription",
        "valueMarkdown": "Child, age 17 ED enc  admitted to inpatient with psych dx"
      } ],
      "modifierExtension": [ {
        "url": "http://hl7.org/fhir/us/cqfmeasures/StructureDefinition/cqfm-isTestCase",
        "valueBoolean": true
      } ],
      "status": "complete",
      "type": "individual",
      "measure": "https://madie.cms.gov/Measure/CMS1244FHIRECATHOQR",
      "period": {
        "start": "2027-01-01",
        "end": "2027-12-31"
      },
      "group": [ {
        "id": "Group_1",
        "population": [ {
          "id": "InitialPopulation_1",
          "code": {
            "coding": [ {
              "system": "http://terminology.hl7.org/CodeSystem/measure-population",
              "code": "initial-population",
              "display": "Initial Population"
            } ]
          },
          "count": 1
        }, {
          "id": "Denominator_1",
          "code": {
            "coding": [ {
              "system": "http://terminology.hl7.org/CodeSystem/measure-population",
              "code": "denominator",
              "display": "Denominator"
            } ]
          },
          "count": 1
        }, {
          "id": "Numerator_1",
          "code": {
            "coding": [ {
              "system": "http://terminology.hl7.org/CodeSystem/measure-population",
              "code": "numerator",
              "display": "Numerator"
            } ]
          },
          "count": 1
        } ],
        "measureScore": {
          "value": 0.0
        },
        "stratifier": [ {
          "id": "Stratification_1_1",
          "code": [ {
            "text": "Strata-1"
          } ],
          "stratum": [ {
            "value": {
              "text": "Strata-1"
            },
            "population": [ {
              "id": "InitialPopulation_1",
              "code": {
                "coding": [ {
                  "system": "http://terminology.hl7.org/CodeSystem/measure-population",
                  "code": "initial-population",
                  "display": "Initial Population"
                } ]
              },
              "count": 0
            }, {
              "id": "Denominator_1",
              "code": {
                "coding": [ {
                  "system": "http://terminology.hl7.org/CodeSystem/measure-population",
                  "code": "denominator",
                  "display": "Denominator"
                } ]
              },
              "count": 0
            }, {
              "id": "Numerator_1",
              "code": {
                "coding": [ {
                  "system": "http://terminology.hl7.org/CodeSystem/measure-population",
                  "code": "numerator",
                  "display": "Numerator"
                } ]
              },
              "count": 0
            } ]
          } ]
        }, {
          "id": "Stratification_1_2",
          "code": [ {
            "text": "Strata-2"
          } ],
          "stratum": [ {
            "value": {
              "text": "Strata-2"
            },
            "population": [ {
              "id": "InitialPopulation_1",
              "code": {
                "coding": [ {
                  "system": "http://terminology.hl7.org/CodeSystem/measure-population",
                  "code": "initial-population",
                  "display": "Initial Population"
                } ]
              },
              "count": 0
            }, {
              "id": "Denominator_1",
              "code": {
                "coding": [ {
                  "system": "http://terminology.hl7.org/CodeSystem/measure-population",
                  "code": "denominator",
                  "display": "Denominator"
                } ]
              },
              "count": 0
            }, {
              "id": "Numerator_1",
              "code": {
                "coding": [ {
                  "system": "http://terminology.hl7.org/CodeSystem/measure-population",
                  "code": "numerator",
                  "display": "Numerator"
                } ]
              },
              "count": 0
            } ]
          } ]
        }, {
          "id": "Stratification_1_3",
          "code": [ {
            "text": "Strata-3"
          } ],
          "stratum": [ {
            "value": {
              "text": "Strata-3"
            },
            "population": [ {
              "id": "InitialPopulation_1",
              "code": {
                "coding": [ {
                  "system": "http://terminology.hl7.org/CodeSystem/measure-population",
                  "code": "initial-population",
                  "display": "Initial Population"
                } ]
              },
              "count": 1
            }, {
              "id": "Denominator_1",
              "code": {
                "coding": [ {
                  "system": "http://terminology.hl7.org/CodeSystem/measure-population",
                  "code": "denominator",
                  "display": "Denominator"
                } ]
              },
              "count": 1
            }, {
              "id": "Numerator_1",
              "code": {
                "coding": [ {
                  "system": "http://terminology.hl7.org/CodeSystem/measure-population",
                  "code": "numerator",
                  "display": "Numerator"
                } ]
              },
              "count": 1
            } ]
          } ]
        }, {
          "id": "Stratification_1_4",
          "code": [ {
            "text": "Strata-4"
          } ],
          "stratum": [ {
            "value": {
              "text": "Strata-4"
            },
            "population": [ {
              "id": "InitialPopulation_1",
              "code": {
                "coding": [ {
                  "system": "http://terminology.hl7.org/CodeSystem/measure-population",
                  "code": "initial-population",
                  "display": "Initial Population"
                } ]
              },
              "count": 0
            }, {
              "id": "Denominator_1",
              "code": {
                "coding": [ {
                  "system": "http://terminology.hl7.org/CodeSystem/measure-population",
                  "code": "denominator",
                  "display": "Denominator"
                } ]
              },
              "count": 0
            }, {
              "id": "Numerator_1",
              "code": {
                "coding": [ {
                  "system": "http://terminology.hl7.org/CodeSystem/measure-population",
                  "code": "numerator",
                  "display": "Numerator"
                } ]
              },
              "count": 0
            } ]
          } ]
        } ]
      } ],
      "evaluatedResource": [ {
        "reference": "Patient/9fe769bc-bd23-4799-9bc6-9945eda0d0cf"
      }, {
        "reference": "Encounter/ad5ed126-ed91-417f-ad3b-ca766a5908a9"
      }, {
        "reference": "Encounter/61d158a5-c89c-4d2e-90b8-a6956ceb3904"
      }, {
        "reference": "Location/b1269cc7-e41e-43d2-95d0-d7604b736972"
      }, {
        "reference": "Claim/ClaimBehavior-NotSubsAbuse"
      }, {
        "reference": "Coverage/31a8da43-f7e0-42ed-9f26-33811b64e8dd"
      }, {
        "reference": "Condition/fb511aca-83fe-4d31-8478-e6bbf7a21555"
      }, {
        "reference": "Organization/c960ac9a-3fa2-4f00-9507-85055514e4aa"
      }, {
        "reference": "Practitioner/3a23ce0e-4597-4c63-9dc1-a2201dd1e95b"
      } ]
    },
    "request": {
      "method": "PUT",
      "url": "MeasureReport/5f1e43dc-bb4d-43c6-b41b-9c3c8e62b5d0"
    }
  } ]
}