{
  "resourceType": "Bundle",
  "id": "6419de4b9c0269a68225bb46",
  "type": "transaction",
  "entry": [ {
    "fullUrl": "https://madie.cms.gov/Patient/c43150be-5974-4986-b428-6fcb6aa43472",
    "resource": {
      "resourceType": "Patient",
      "id": "c43150be-5974-4986-b428-6fcb6aa43472",
      "meta": {
        "profile": [ "http://hl7.org/fhir/us/qicore/StructureDefinition/qicore-patient" ]
      },
      "extension": [ {
        "url": "http://hl7.org/fhir/us/core/StructureDefinition/us-core-race",
        "extension": [ {
          "url": "ombCategory",
          "valueCoding": {
            "system": "urn:oid:2.16.840.1.113883.6.238",
            "code": "2076-8",
            "display": "Native Hawaiian or Other Pacific Islander",
            "userSelected": true
          }
        }, {
          "url": "text",
          "valueString": "Native Hawaiian or Other Pacific Islander"
        } ]
      }, {
        "url": "http://hl7.org/fhir/us/core/StructureDefinition/us-core-ethnicity",
        "extension": [ {
          "url": "ombCategory",
          "valueCoding": {
            "system": "urn:oid:2.16.840.1.113883.6.238",
            "code": "2186-5",
            "display": "Not Hispanic or Latino",
            "userSelected": true
          }
        }, {
          "url": "text",
          "valueString": "Not Hispanic or Latino"
        } ]
      }, {
        "url": "http://hl7.org/fhir/us/core/StructureDefinition/us-core-sex",
        "valueCode": "248152002"
      } ],
      "identifier": [ {
        "type": {
          "coding": [ {
            "system": "http://terminology.hl7.org/CodeSystem/v2-0203",
            "code": "MR"
          } ]
        },
        "system": "https://bonnie-fhir.healthit.gov/",
        "value": "6419de4b9c0269a68225bb46"
      } ],
      "name": [ {
        "family": "5DenExclPass",
        "given": [ "DxExclStartsDuringEndsDuringED" ]
      } ],
      "gender": "female",
      "birthDate": "1985-12-02"
    },
    "request": {
      "method": "PUT",
      "url": "Patient/c43150be-5974-4986-b428-6fcb6aa43472"
    }
  }, {
    "fullUrl": "https://madie.cms.gov/Encounter/a304d649-d16a-4205-a803-53b49b535730",
    "resource": {
      "resourceType": "Encounter",
      "id": "a304d649-d16a-4205-a803-53b49b535730",
      "meta": {
        "profile": [ "http://hl7.org/fhir/us/qicore/StructureDefinition/qicore-encounter" ]
      },
      "status": "finished",
      "class": {
        "system": "http://terminology.hl7.org/CodeSystem/v3-ActCode",
        "code": "EMER",
        "display": "emergency",
        "userSelected": true
      },
      "type": [ {
        "coding": [ {
          "system": "http://snomed.info/sct",
          "version": "2020-09",
          "code": "4525004",
          "display": "Emergency department patient visit (procedure)",
          "userSelected": true
        } ]
      } ],
      "subject": {
        "reference": "Patient/c43150be-5974-4986-b428-6fcb6aa43472"
      },
      "period": {
        "start": "2026-10-09T08:05:00.000+00:00",
        "end": "2026-10-10T07:15:00.000+00:00"
      },
      "reasonCode": [ {
        "coding": [ {
          "system": "http://snomed.info/sct",
          "version": "2020-09",
          "code": "703210007",
          "display": "Subsequent ST segment elevation myocardial infarction of anterior wall (disorder)",
          "userSelected": true
        } ]
      } ]
    },
    "request": {
      "method": "PUT",
      "url": "Encounter/a304d649-d16a-4205-a803-53b49b535730"
    }
  }, {
    "fullUrl": "https://madie.cms.gov/Condition/7ed54e44-3bc9-4ad1-a3f4-57e84de57311",
    "resource": {
      "resourceType": "Condition",
      "id": "7ed54e44-3bc9-4ad1-a3f4-57e84de57311",
      "meta": {
        "profile": [ "http://hl7.org/fhir/us/qicore/StructureDefinition/qicore-condition-problems-health-concerns" ]
      },
      "clinicalStatus": {
        "coding": [ {
          "system": "http://terminology.hl7.org/CodeSystem/condition-clinical",
          "code": "active",
          "display": "active",
          "userSelected": true
        } ]
      },
      "verificationStatus": {
        "coding": [ {
          "system": "http://terminology.hl7.org/CodeSystem/condition-ver-status",
          "code": "confirmed",
          "display": "Confirmed",
          "userSelected": true
        } ]
      },
      "category": [ {
        "coding": [ {
          "system": "http://terminology.hl7.org/CodeSystem/condition-category",
          "code": "problem-list-item",
          "display": "Problem List Item",
          "userSelected": true
        } ]
      } ],
      "code": {
        "coding": [ {
          "system": "http://snomed.info/sct",
          "version": "2020-09",
          "code": "401303003",
          "display": "Acute ST segment elevation myocardial infarction (disorder)",
          "userSelected": true
        } ]
      },
      "subject": {
        "reference": "Patient/c43150be-5974-4986-b428-6fcb6aa43472"
      },
      "onsetDateTime": "2026-10-09T08:30:00.000+00:00"
    },
    "request": {
      "method": "PUT",
      "url": "Condition/7ed54e44-3bc9-4ad1-a3f4-57e84de57311"
    }
  }, {
    "fullUrl": "https://madie.cms.gov/Condition/62837e18-db30-4e19-a17a-cab91bd71d71",
    "resource": {
      "resourceType": "Condition",
      "id": "62837e18-db30-4e19-a17a-cab91bd71d71",
      "meta": {
        "profile": [ "http://hl7.org/fhir/us/qicore/StructureDefinition/qicore-condition-problems-health-concerns" ]
      },
      "clinicalStatus": {
        "coding": [ {
          "system": "http://terminology.hl7.org/CodeSystem/condition-clinical",
          "code": "resolved",
          "display": "resolved",
          "userSelected": true
        } ]
      },
      "verificationStatus": {
        "coding": [ {
          "system": "http://terminology.hl7.org/CodeSystem/condition-ver-status",
          "code": "confirmed",
          "display": "Confirmed",
          "userSelected": true
        } ]
      },
      "category": [ {
        "coding": [ {
          "system": "http://terminology.hl7.org/CodeSystem/condition-category",
          "code": "problem-list-item",
          "display": "Problem List Item"
        } ]
      } ],
      "code": {
        "coding": [ {
          "system": "http://snomed.info/sct",
          "version": "2020-09",
          "code": "14336007",
          "display": "Ruptured abdominal aortic aneurysm (disorder)",
          "userSelected": true
        } ]
      },
      "subject": {
        "reference": "Patient/c43150be-5974-4986-b428-6fcb6aa43472"
      },
      "onsetDateTime": "2026-10-09T13:00:00.000+00:00",
      "abatementDateTime": "2026-10-09T21:15:00.000+00:00"
    },
    "request": {
      "method": "PUT",
      "url": "Condition/62837e18-db30-4e19-a17a-cab91bd71d71"
    }
  }, {
    "fullUrl": "https://madie.cms.gov/Coverage/98e912f7-5a68-4087-b888-27dfeb745def",
    "resource": {
      "resourceType": "Coverage",
      "id": "98e912f7-5a68-4087-b888-27dfeb745def",
      "meta": {
        "profile": [ "http://hl7.org/fhir/us/qicore/StructureDefinition/qicore-coverage" ]
      },
      "identifier": [ {
        "type": {
          "coding": [ {
            "system": "http://terminology.hl7.org/CodeSystem/v2-0203",
            "code": "MB"
          } ]
        }
      } ],
      "status": "active",
      "beneficiary": {
        "reference": "Patient/c43150be-5974-4986-b428-6fcb6aa43472"
      },
      "relationship": {
        "coding": [ {
          "system": "http://terminology.hl7.org/CodeSystem/subscriber-relationship",
          "code": "self"
        } ]
      },
      "payor": [ {
        "reference": "Organization/8ba966ac-3cae-4326-a3df-19fdba3b37bc"
      } ]
    },
    "request": {
      "method": "PUT",
      "url": "Coverage/98e912f7-5a68-4087-b888-27dfeb745def"
    }
  }, {
    "fullUrl": "https://madie.cms.gov/Organization/8ba966ac-3cae-4326-a3df-19fdba3b37bc",
    "resource": {
      "resourceType": "Organization",
      "id": "8ba966ac-3cae-4326-a3df-19fdba3b37bc",
      "meta": {
        "profile": [ "http://hl7.org/fhir/us/qicore/StructureDefinition/qicore-organization" ]
      },
      "identifier": [ {
        "use": "temp",
        "system": "urn:oid:2.16.840.1.113883.4.4",
        "value": "21-3259825"
      } ],
      "active": true,
      "type": [ {
        "coding": [ {
          "system": "http://terminology.hl7.org/CodeSystem/organization-type",
          "code": "pay",
          "display": "Payer"
        } ]
      } ],
      "name": "Blue Cross Blue Shield of Texas",
      "telecom": [ {
        "system": "phone",
        "value": "(+1) 972-766-6900"
      } ],
      "address": [ {
        "use": "billing",
        "type": "postal",
        "line": [ "P.O. Box 660044" ],
        "city": "Dallas",
        "state": "TX",
        "postalCode": "75266-0044",
        "country": "USA"
      } ]
    },
    "request": {
      "method": "PUT",
      "url": "Organization/8ba966ac-3cae-4326-a3df-19fdba3b37bc"
    }
  }, {
    "fullUrl": "https://madie.cms.gov/Practitioner/6f251019-ee93-4e80-a69c-c849fa721c88",
    "resource": {
      "resourceType": "Practitioner",
      "id": "6f251019-ee93-4e80-a69c-c849fa721c88",
      "identifier": [ {
        "system": "http://hl7.org/fhir/sid/us-npi",
        "value": "9999999896"
      } ],
      "name": [ {
        "family": "Evil",
        "prefix": [ "Dr" ]
      } ]
    },
    "request": {
      "method": "PUT",
      "url": "Practitioner/6f251019-ee93-4e80-a69c-c849fa721c88"
    }
  }, {
    "fullUrl": "https://madie.cms.gov/MeasureReport/3bb6eaa9-ab9b-4933-b929-4d0f065273e5",
    "resource": {
      "resourceType": "MeasureReport",
      "id": "3bb6eaa9-ab9b-4933-b929-4d0f065273e5",
      "meta": {
        "profile": [ "http://hl7.org/fhir/us/cqfmeasures/StructureDefinition/test-case-cqfm" ]
      },
      "contained": [ {
        "resourceType": "Parameters",
        "id": "c02a5acf-88f4-4324-8a86-705106632d02-parameters",
        "parameter": [ {
          "name": "subject",
          "valueString": "c43150be-5974-4986-b428-6fcb6aa43472"
        } ]
      } ],
      "extension": [ {
        "url": "http://hl7.org/fhir/StructureDefinition/cqf-inputParameters",
        "valueReference": {
          "reference": "#c02a5acf-88f4-4324-8a86-705106632d02-parameters"
        }
      }, {
        "url": "http://hl7.org/fhir/us/cqfmeasures/StructureDefinition/cqfm-testCaseDescription",
        "valueMarkdown": "Patient has aortic dissection (exclusion diagnosis) that starts during and ends during the ED encounter - not active status"
      } ],
      "modifierExtension": [ {
        "url": "http://hl7.org/fhir/us/cqfmeasures/StructureDefinition/cqfm-isTestCase",
        "valueBoolean": true
      } ],
      "status": "complete",
      "type": "individual",
      "measure": "https://madie.cms.gov/Measure/CMS996FHIRAptTxforSTEMI",
      "period": {
        "start": "2026-01-01",
        "end": "2026-12-31"
      },
      "group": [ {
        "id": "Group_1",
        "population": [ {
          "id": "InitialPopulation_1",
          "code": {
            "coding": [ {
              "system": "http://terminology.hl7.org/CodeSystem/measure-population",
              "code": "initial-population",
              "display": "Initial Population"
            } ]
          },
          "count": 1
        }, {
          "id": "Denominator_1",
          "code": {
            "coding": [ {
              "system": "http://terminology.hl7.org/CodeSystem/measure-population",
              "code": "denominator",
              "display": "Denominator"
            } ]
          },
          "count": 1
        }, {
          "id": "DenominatorExclusion_1",
          "code": {
            "coding": [ {
              "system": "http://terminology.hl7.org/CodeSystem/measure-population",
              "code": "denominator-exclusion",
              "display": "Denominator Exclusion"
            } ]
          },
          "count": 1
        }, {
          "id": "Numerator_1",
          "code": {
            "coding": [ {
              "system": "http://terminology.hl7.org/CodeSystem/measure-population",
              "code": "numerator",
              "display": "Numerator"
            } ]
          },
          "count": 0
        }, {
          "id": "DenominatorException_1",
          "code": {
            "coding": [ {
              "system": "http://terminology.hl7.org/CodeSystem/measure-population",
              "code": "denominator-exception",
              "display": "Denominator Exception"
            } ]
          },
          "count": 0
        } ],
        "measureScore": {
          "value": 0.0
        }
      } ],
      "evaluatedResource": [ {
        "reference": "Patient/c43150be-5974-4986-b428-6fcb6aa43472"
      }, {
        "reference": "Encounter/a304d649-d16a-4205-a803-53b49b535730"
      }, {
        "reference": "Condition/7ed54e44-3bc9-4ad1-a3f4-57e84de57311"
      }, {
        "reference": "Condition/62837e18-db30-4e19-a17a-cab91bd71d71"
      }, {
        "reference": "Coverage/98e912f7-5a68-4087-b888-27dfeb745def"
      }, {
        "reference": "Organization/8ba966ac-3cae-4326-a3df-19fdba3b37bc"
      }, {
        "reference": "Practitioner/6f251019-ee93-4e80-a69c-c849fa721c88"
      } ]
    },
    "request": {
      "method": "PUT",
      "url": "MeasureReport/3bb6eaa9-ab9b-4933-b929-4d0f065273e5"
    }
  } ]
}