{
  "resourceType": "Bundle",
  "id": "63487c2d0968f80122540153",
  "type": "transaction",
  "entry": [ {
    "fullUrl": "https://madie.cms.gov/Patient/de3aa996-43b5-46d9-b8ef-f1839e38470a",
    "resource": {
      "resourceType": "Patient",
      "id": "de3aa996-43b5-46d9-b8ef-f1839e38470a",
      "meta": {
        "profile": [ "http://hl7.org/fhir/us/qicore/StructureDefinition/qicore-patient" ]
      },
      "text": {
        "status": "generated",
        "div": "<div xmlns=\"http://www.w3.org/1999/xhtml\"><div class=\"hapiHeaderText\">AssessPreTerm0RelDate41wks6DaysB4DelivDate <b>DENPASS </b></div><table class=\"hapiPropertyTable\"><tbody><tr><td>Identifier</td><td>7960ac075aea8af54af93e2c2cf979cdfee3882ecdb2da9803e3d40be59520f6</td></tr><tr><td>Date of birth</td><td><span>14 February 1985</span></td></tr></tbody></table></div>"
      },
      "extension": [ {
        "url": "http://hl7.org/fhir/us/core/StructureDefinition/us-core-race",
        "extension": [ {
          "url": "ombCategory",
          "valueCoding": {
            "system": "urn:oid:2.16.840.1.113883.6.238",
            "code": "1002-5",
            "display": "American Indian or Alaska Native",
            "userSelected": true
          }
        }, {
          "url": "text",
          "valueString": "American Indian or Alaska Native"
        } ]
      }, {
        "url": "http://hl7.org/fhir/us/core/StructureDefinition/us-core-ethnicity",
        "extension": [ {
          "url": "ombCategory",
          "valueCoding": {
            "system": "urn:oid:2.16.840.1.113883.6.238",
            "code": "2135-2",
            "display": "Hispanic or Latino",
            "userSelected": true
          }
        }, {
          "url": "text",
          "valueString": "Hispanic or Latino"
        } ]
      } ],
      "identifier": [ {
        "type": {
          "coding": [ {
            "system": "http://terminology.hl7.org/CodeSystem/v2-0203",
            "code": "MR"
          } ]
        },
        "system": "https://bonnie-fhir.healthit.gov/",
        "value": "63487c2d0968f80122540153"
      } ],
      "active": true,
      "name": [ {
        "use": "usual",
        "family": "DENPass",
        "given": [ "AssessPreTerm0RelDate41wks6DaysB4DelivDate" ]
      } ],
      "gender": "female",
      "birthDate": "1998-02-14"
    },
    "request": {
      "method": "PUT",
      "url": "Patient/de3aa996-43b5-46d9-b8ef-f1839e38470a"
    }
  }, {
    "fullUrl": "https://madie.cms.gov/Observation/0e3c0545-6d0b-4a65-8106-9ce8db33ae21",
    "resource": {
      "resourceType": "Observation",
      "id": "0e3c0545-6d0b-4a65-8106-9ce8db33ae21",
      "meta": {
        "profile": [ "http://hl7.org/fhir/us/qicore/StructureDefinition/qicore-simple-observation" ]
      },
      "status": "final",
      "category": [ {
        "coding": [ {
          "system": "http://terminology.hl7.org/CodeSystem/observation-category",
          "code": "exam",
          "display": "exam",
          "userSelected": true
        } ]
      } ],
      "code": {
        "coding": [ {
          "system": "http://loinc.org",
          "code": "11637-6"
        } ]
      },
      "subject": {
        "reference": "Patient/de3aa996-43b5-46d9-b8ef-f1839e38470a"
      },
      "effectiveDateTime": "2025-08-20T09:00:00.000+00:00",
      "valueInteger": 0
    },
    "request": {
      "method": "PUT",
      "url": "Observation/0e3c0545-6d0b-4a65-8106-9ce8db33ae21"
    }
  }, {
    "fullUrl": "https://madie.cms.gov/Observation/b0ddcdb5-83ce-4992-af99-942826ca178b",
    "resource": {
      "resourceType": "Observation",
      "id": "b0ddcdb5-83ce-4992-af99-942826ca178b",
      "meta": {
        "profile": [ "http://hl7.org/fhir/us/qicore/StructureDefinition/qicore-simple-observation" ]
      },
      "status": "final",
      "category": [ {
        "coding": [ {
          "system": "http://terminology.hl7.org/CodeSystem/observation-category",
          "code": "exam",
          "display": "exam",
          "userSelected": true
        } ]
      } ],
      "code": {
        "coding": [ {
          "system": "http://loinc.org",
          "code": "11639-2"
        } ]
      },
      "subject": {
        "reference": "Patient/de3aa996-43b5-46d9-b8ef-f1839e38470a"
      },
      "effectiveDateTime": "2025-09-19T09:00:00.000+00:00",
      "valueInteger": 0
    },
    "request": {
      "method": "PUT",
      "url": "Observation/b0ddcdb5-83ce-4992-af99-942826ca178b"
    }
  }, {
    "fullUrl": "https://madie.cms.gov/Observation/5f5d1bb6-b56f-469e-a060-e843338610d8",
    "resource": {
      "resourceType": "Observation",
      "id": "5f5d1bb6-b56f-469e-a060-e843338610d8",
      "meta": {
        "profile": [ "http://hl7.org/fhir/us/qicore/StructureDefinition/qicore-simple-observation" ]
      },
      "status": "final",
      "category": [ {
        "coding": [ {
          "system": "http://terminology.hl7.org/CodeSystem/observation-category",
          "code": "exam",
          "display": "exam",
          "userSelected": true
        } ]
      } ],
      "code": {
        "coding": [ {
          "system": "http://loinc.org",
          "code": "11884-4"
        } ]
      },
      "subject": {
        "reference": "Patient/de3aa996-43b5-46d9-b8ef-f1839e38470a"
      },
      "effectiveDateTime": "2026-06-08T20:00:00.000+00:00",
      "valueQuantity": {
        "value": 37,
        "system": "http://unitsofmeasure.org",
        "code": "wk"
      }
    },
    "request": {
      "method": "PUT",
      "url": "Observation/5f5d1bb6-b56f-469e-a060-e843338610d8"
    }
  }, {
    "fullUrl": "https://madie.cms.gov/Observation/82d1cd71-30c2-4e37-a9fe-c933a93ab692",
    "resource": {
      "resourceType": "Observation",
      "id": "82d1cd71-30c2-4e37-a9fe-c933a93ab692",
      "meta": {
        "profile": [ "http://hl7.org/fhir/us/qicore/StructureDefinition/qicore-simple-observation" ]
      },
      "status": "final",
      "category": [ {
        "coding": [ {
          "system": "http://terminology.hl7.org/CodeSystem/observation-category",
          "code": "exam",
          "display": "exam",
          "userSelected": true
        } ]
      } ],
      "code": {
        "coding": [ {
          "system": "http://loinc.org",
          "code": "93857-1"
        } ]
      },
      "subject": {
        "reference": "Patient/de3aa996-43b5-46d9-b8ef-f1839e38470a"
      },
      "effectiveDateTime": "2026-06-08T20:00:00.000+00:00",
      "valueDateTime": "2026-06-08T20:00:00.000+00:00"
    },
    "request": {
      "method": "PUT",
      "url": "Observation/82d1cd71-30c2-4e37-a9fe-c933a93ab692"
    }
  }, {
    "fullUrl": "https://madie.cms.gov/Encounter/bed4496b-add2-4e47-b295-e1827db5282e",
    "resource": {
      "resourceType": "Encounter",
      "id": "bed4496b-add2-4e47-b295-e1827db5282e",
      "meta": {
        "profile": [ "http://hl7.org/fhir/us/qicore/StructureDefinition/qicore-encounter" ]
      },
      "status": "finished",
      "class": {
        "system": "http://terminology.hl7.org/CodeSystem/v3-ActCode",
        "code": "IMP",
        "display": "inpatient encounter"
      },
      "type": [ {
        "coding": [ {
          "system": "http://snomed.info/sct",
          "code": "8715000"
        } ]
      } ],
      "subject": {
        "reference": "Patient/de3aa996-43b5-46d9-b8ef-f1839e38470a"
      },
      "period": {
        "start": "2026-06-08T08:00:00.000+00:00",
        "end": "2026-06-10T08:15:00.000+00:00"
      },
      "length": {
        "value": 2,
        "unit": "days"
      },
      "reasonReference": [ {
        "reference": "Condition/d21dd8c7-abaf-4c61-a761-50d7d448d97f"
      } ]
    },
    "request": {
      "method": "PUT",
      "url": "Encounter/bed4496b-add2-4e47-b295-e1827db5282e"
    }
  }, {
    "fullUrl": "https://madie.cms.gov/Procedure/2b527a12-4795-443c-b188-155a75c74dfe",
    "resource": {
      "resourceType": "Procedure",
      "id": "2b527a12-4795-443c-b188-155a75c74dfe",
      "meta": {
        "profile": [ "http://hl7.org/fhir/us/qicore/StructureDefinition/qicore-procedure" ]
      },
      "extension": [ {
        "url": "http://hl7.org/fhir/us/qicore/StructureDefinition/qicore-recorded",
        "valueDateTime": "2014-04-05T13:35:00.000+00:00"
      } ],
      "status": "completed",
      "code": {
        "coding": [ {
          "system": "http://www.cms.gov/Medicare/Coding/ICD10",
          "code": "10D00Z0"
        }, {
          "system": "http://snomed.info/sct",
          "code": "4504004"
        } ]
      },
      "subject": {
        "reference": "Patient/de3aa996-43b5-46d9-b8ef-f1839e38470a"
      },
      "performedPeriod": {
        "start": "2026-06-08T20:00:00.000+00:00",
        "end": "2026-06-08T20:15:00.000+00:00"
      }
    },
    "request": {
      "method": "PUT",
      "url": "Procedure/2b527a12-4795-443c-b188-155a75c74dfe"
    }
  }, {
    "fullUrl": "https://madie.cms.gov/Condition/d21dd8c7-abaf-4c61-a761-50d7d448d97f",
    "resource": {
      "resourceType": "Condition",
      "id": "d21dd8c7-abaf-4c61-a761-50d7d448d97f",
      "meta": {
        "profile": [ "http://hl7.org/fhir/us/qicore/StructureDefinition/qicore-condition-encounter-diagnosis" ]
      },
      "category": [ {
        "coding": [ {
          "system": "http://terminology.hl7.org/CodeSystem/condition-category",
          "code": "encounter-diagnosis",
          "display": "Encounter Diagnosis"
        } ]
      } ],
      "code": {
        "coding": [ {
          "system": "http://snomed.info/sct",
          "version": "2022-09",
          "code": "169826009",
          "display": "Single live birth from singleton pregnancy (finding)",
          "userSelected": true
        } ]
      },
      "subject": {
        "reference": "Patient/de3aa996-43b5-46d9-b8ef-f1839e38470a"
      },
      "encounter": {
        "reference": "Encounter/bed4496b-add2-4e47-b295-e1827db5282e"
      },
      "recordedDate": "2026-10-20T08:00:00.000+00:00"
    },
    "request": {
      "method": "PUT",
      "url": "Condition/d21dd8c7-abaf-4c61-a761-50d7d448d97f"
    }
  }, {
    "fullUrl": "https://madie.cms.gov/Coverage/4d41ca46-5cfa-40b5-a8b6-4561f1493c81",
    "resource": {
      "resourceType": "Coverage",
      "id": "4d41ca46-5cfa-40b5-a8b6-4561f1493c81",
      "meta": {
        "profile": [ "http://hl7.org/fhir/us/qicore/StructureDefinition/qicore-coverage" ]
      },
      "status": "active",
      "subscriberId": "523435",
      "beneficiary": {
        "reference": "Patient/de3aa996-43b5-46d9-b8ef-f1839e38470a"
      },
      "relationship": {
        "coding": [ {
          "system": "http://terminology.hl7.org/CodeSystem/subscriber-relationship",
          "code": "self"
        } ]
      },
      "payor": [ {
        "reference": "Organization/8d586856-193d-4c8a-858a-aba5b99d1281"
      } ]
    },
    "request": {
      "method": "PUT",
      "url": "Coverage/4d41ca46-5cfa-40b5-a8b6-4561f1493c81"
    }
  }, {
    "fullUrl": "https://madie.cms.gov/Organization/8d586856-193d-4c8a-858a-aba5b99d1281",
    "resource": {
      "resourceType": "Organization",
      "id": "8d586856-193d-4c8a-858a-aba5b99d1281",
      "meta": {
        "profile": [ "http://hl7.org/fhir/us/qicore/StructureDefinition/qicore-organization" ]
      },
      "identifier": [ {
        "use": "temp",
        "system": "urn:oid:2.16.840.1.113883.4.4",
        "value": "21-3259825"
      } ],
      "active": true,
      "type": [ {
        "coding": [ {
          "system": "http://terminology.hl7.org/CodeSystem/organization-type",
          "code": "pay",
          "display": "Payer"
        } ]
      } ],
      "name": "Blue Cross Blue Shield of Texas",
      "telecom": [ {
        "system": "phone",
        "value": "(+1) 972-766-6900"
      } ],
      "address": [ {
        "use": "billing",
        "type": "postal",
        "line": [ "P.O. Box 660044" ],
        "city": "Dallas",
        "state": "TX",
        "postalCode": "75266-0044",
        "country": "USA"
      } ]
    },
    "request": {
      "method": "PUT",
      "url": "Organization/8d586856-193d-4c8a-858a-aba5b99d1281"
    }
  }, {
    "fullUrl": "https://madie.cms.gov/Practitioner/5431ab66-1918-4e42-abde-bdb81e3c02c5",
    "resource": {
      "resourceType": "Practitioner",
      "id": "5431ab66-1918-4e42-abde-bdb81e3c02c5",
      "meta": {
        "profile": [ "http://hl7.org/fhir/us/qicore/StructureDefinition/qicore-practitioner" ]
      },
      "identifier": [ {
        "system": "http://hl7.org/fhir/sid/us-npi",
        "value": "1234567890"
      } ],
      "name": [ {
        "family": "Evil",
        "prefix": [ "Dr" ]
      } ]
    },
    "request": {
      "method": "PUT",
      "url": "Practitioner/5431ab66-1918-4e42-abde-bdb81e3c02c5"
    }
  }, {
    "fullUrl": "https://madie.cms.gov/MeasureReport/e28cf4a5-8b17-4dee-9cfa-c0b8a0ea0bfc",
    "resource": {
      "resourceType": "MeasureReport",
      "id": "e28cf4a5-8b17-4dee-9cfa-c0b8a0ea0bfc",
      "meta": {
        "profile": [ "http://hl7.org/fhir/us/cqfmeasures/StructureDefinition/test-case-cqfm" ]
      },
      "contained": [ {
        "resourceType": "Parameters",
        "id": "8c444e39-e179-4862-b929-0143b8bb0c3c-parameters",
        "parameter": [ {
          "name": "subject",
          "valueString": "de3aa996-43b5-46d9-b8ef-f1839e38470a"
        } ]
      } ],
      "extension": [ {
        "url": "http://hl7.org/fhir/StructureDefinition/cqf-inputParameters",
        "valueReference": {
          "reference": "#8c444e39-e179-4862-b929-0143b8bb0c3c-parameters"
        }
      }, {
        "url": "http://hl7.org/fhir/us/cqfmeasures/StructureDefinition/cqfm-testCaseDescription",
        "valueMarkdown": "Preterm Births=0, relevant date  41weeks 6 days prior to Asse delivery date\n"
      } ],
      "modifierExtension": [ {
        "url": "http://hl7.org/fhir/us/cqfmeasures/StructureDefinition/cqfm-isTestCase",
        "valueBoolean": true
      } ],
      "status": "complete",
      "type": "individual",
      "measure": "https://madie.cms.gov/Measure/CMS0334FHIRPCCesareanBirth",
      "period": {
        "start": "2026-01-01",
        "end": "2026-12-31"
      },
      "group": [ {
        "id": "Group_1",
        "population": [ {
          "id": "InitialPopulation_1",
          "code": {
            "coding": [ {
              "system": "http://terminology.hl7.org/CodeSystem/measure-population",
              "code": "initial-population",
              "display": "Initial Population"
            } ]
          },
          "count": 1
        }, {
          "id": "Denominator_1",
          "code": {
            "coding": [ {
              "system": "http://terminology.hl7.org/CodeSystem/measure-population",
              "code": "denominator",
              "display": "Denominator"
            } ]
          },
          "count": 1
        }, {
          "id": "DenominatorExclusion_1",
          "code": {
            "coding": [ {
              "system": "http://terminology.hl7.org/CodeSystem/measure-population",
              "code": "denominator-exclusion",
              "display": "Denominator Exclusion"
            } ]
          },
          "count": 0
        }, {
          "id": "Numerator_1",
          "code": {
            "coding": [ {
              "system": "http://terminology.hl7.org/CodeSystem/measure-population",
              "code": "numerator",
              "display": "Numerator"
            } ]
          },
          "count": 1
        } ],
        "measureScore": {
          "value": 0.0
        }
      } ],
      "evaluatedResource": [ {
        "reference": "Patient/de3aa996-43b5-46d9-b8ef-f1839e38470a"
      }, {
        "reference": "Observation/0e3c0545-6d0b-4a65-8106-9ce8db33ae21"
      }, {
        "reference": "Observation/b0ddcdb5-83ce-4992-af99-942826ca178b"
      }, {
        "reference": "Observation/5f5d1bb6-b56f-469e-a060-e843338610d8"
      }, {
        "reference": "Observation/82d1cd71-30c2-4e37-a9fe-c933a93ab692"
      }, {
        "reference": "Encounter/bed4496b-add2-4e47-b295-e1827db5282e"
      }, {
        "reference": "Procedure/2b527a12-4795-443c-b188-155a75c74dfe"
      }, {
        "reference": "Condition/d21dd8c7-abaf-4c61-a761-50d7d448d97f"
      }, {
        "reference": "Coverage/4d41ca46-5cfa-40b5-a8b6-4561f1493c81"
      }, {
        "reference": "Organization/8d586856-193d-4c8a-858a-aba5b99d1281"
      }, {
        "reference": "Practitioner/5431ab66-1918-4e42-abde-bdb81e3c02c5"
      } ]
    },
    "request": {
      "method": "PUT",
      "url": "MeasureReport/e28cf4a5-8b17-4dee-9cfa-c0b8a0ea0bfc"
    }
  } ]
}