{
    "entry": [
        {
            "request": {
                "method": "PUT",
                "url": "Patient/aabfb5d9-4d3d-4768-860d-160ee6e50045"
            },
            "resource": {
                "identifier": [{
                    "system": "https://bonnie-fhir.healthit.gov/",
                    "type": {"coding": [{
                        "system": "http://terminology.hl7.org/CodeSystem/v2-0203",
                        "code": "MR"
                    }]},
                    "value": "62d0327bd15ad008a13f69e5"
                }],
                "extension": [
                    {
                        "extension": [
                            {
                                "valueCoding": {
                                    "system": "urn:oid:2.16.840.1.113883.6.238",
                                    "code": "2106-3",
                                    "userSelected": true,
                                    "display": "White"
                                },
                                "url": "ombCategory"
                            },
                            {
                                "valueString": "White",
                                "url": "text"
                            }
                        ],
                        "url": "http://hl7.org/fhir/us/core/StructureDefinition/us-core-race"
                    },
                    {
                        "extension": [
                            {
                                "valueCoding": {
                                    "system": "urn:oid:2.16.840.1.113883.6.238",
                                    "code": "2186-5",
                                    "userSelected": true,
                                    "display": "Not Hispanic or Latino"
                                },
                                "url": "ombCategory"
                            },
                            {
                                "valueString": "Not Hispanic or Latino",
                                "url": "text"
                            }
                        ],
                        "url": "http://hl7.org/fhir/us/core/StructureDefinition/us-core-ethnicity"
                    }
                ],
                "gender": "male",
                "meta": {"profile": ["http://hl7.org/fhir/us/qicore/StructureDefinition/qicore-patient"]},
                "name": [{
                    "given": ["ElevatedBPReferred"],
                    "family": "NUMERPass"
                }],
                "id": "aabfb5d9-4d3d-4768-860d-160ee6e50045",
                "birthDate": "2006-01-31",
                "resourceType": "Patient"
            },
            "fullUrl": "https://madie.cms.gov/Patient/aabfb5d9-4d3d-4768-860d-160ee6e50045"
        },
        {
            "request": {
                "method": "PUT",
                "url": "Encounter/e0757a2c-7a01-4e14-83a6-2581d66547c3"
            },
            "resource": {
                "period": {
                    "start": "2026-01-01T08:00:00.000+00:00",
                    "end": "2026-01-01T08:30:00.000+00:00"
                },
                "meta": {"profile": ["http://hl7.org/fhir/us/qicore/StructureDefinition/qicore-encounter"]},
                "subject": {"reference": "Patient/aabfb5d9-4d3d-4768-860d-160ee6e50045"},
                "id": "e0757a2c-7a01-4e14-83a6-2581d66547c3",
                "type": [{"coding": [{
                    "system": "http://snomed.info/sct",
                    "code": "103705002",
                    "userSelected": true,
                    "display": "Patient status observation (procedure)",
                    "version": "2022-03"
                }]}],
                "class": {
                    "system": "http://terminology.hl7.org/CodeSystem/v3-ActCode",
                    "code": "AMB",
                    "display": "ambulatory"
                },
                "resourceType": "Encounter",
                "status": "finished"
            },
            "fullUrl": "https://madie.cms.gov/Encounter/e0757a2c-7a01-4e14-83a6-2581d66547c3"
        },
        {
            "request": {
                "method": "PUT",
                "url": "Observation/ea6ed8ae-9019-45e7-90e1-9414d0251a48"
            },
            "resource": {
                "component": [
                    {
                        "code": {"coding": [{
                            "system": "http://loinc.org",
                            "code": "8480-6",
                            "display": "Systolic blood pressure"
                        }]},
                        "valueQuantity": {
                            "unit": "mmHg",
                            "system": "http://unitsofmeasure.org",
                            "code": "mm[Hg]",
                            "value": 120
                        }
                    },
                    {
                        "code": {"coding": [{
                            "system": "http://loinc.org",
                            "code": "8462-4",
                            "display": "Diastolic blood pressure"
                        }]},
                        "valueQuantity": {
                            "unit": "mmHg",
                            "system": "http://unitsofmeasure.org",
                            "code": "mm[Hg]",
                            "value": 79
                        }
                    }
                ],
                "code": {"coding": [{
                    "system": "http://loinc.org",
                    "code": "85354-9",
                    "display": "Blood pressure panel"
                }]},
                "effectiveDateTime": "2026-01-01T08:05:00.000+00:00",
                "meta": {"profile": ["http://hl7.org/fhir/us/core/StructureDefinition/us-core-blood-pressure"]},
                "subject": {"reference": "Patient/aabfb5d9-4d3d-4768-860d-160ee6e50045"},
                "id": "ea6ed8ae-9019-45e7-90e1-9414d0251a48",
                "category": [{
                    "coding": [{
                        "system": "http://terminology.hl7.org/CodeSystem/observation-category",
                        "code": "vital-signs",
                        "display": "Vital Signs"
                    }],
                    "text": "Vital Signs"
                }],
                "resourceType": "Observation",
                "status": "final"
            },
            "fullUrl": "https://madie.cms.gov/Observation/ea6ed8ae-9019-45e7-90e1-9414d0251a48"
        },
        {
            "request": {
                "method": "PUT",
                "url": "ServiceRequest/ece6e2a3-1311-404f-949a-9cc7ec8f88a5"
            },
            "resource": {
                "code": {"coding": [{
                    "system": "http://snomed.info/sct",
                    "code": "134403003",
                    "userSelected": true,
                    "display": "Urgent referral (procedure)",
                    "version": "2022-03"
                }]},
                "authoredOn": "2026-01-01T08:25:00.000+00:00",
                "meta": {"profile": ["http://hl7.org/fhir/us/qicore/StructureDefinition/qicore-servicerequest"]},
                "subject": {"reference": "Patient/aabfb5d9-4d3d-4768-860d-160ee6e50045"},
                "id": "ece6e2a3-1311-404f-949a-9cc7ec8f88a5",
                "reasonCode": [{"coding": [{
                    "system": "http://hl7.org/fhir/sid/icd-10-cm",
                    "code": "R03.0",
                    "userSelected": true,
                    "display": "Elevated blood-pressure reading, without diagnosis of hypertension"
                }]}],
                "intent": "order",
                "resourceType": "ServiceRequest",
                "status": "active"
            },
            "fullUrl": "https://madie.cms.gov/ServiceRequest/ece6e2a3-1311-404f-949a-9cc7ec8f88a5"
        },
        {
            "request": {
                "method": "PUT",
                "url": "Coverage/bce17402-053f-41ca-93f8-381e7d8074e7"
            },
            "resource": {
                "payor": [{"reference": "Organization/8c76220b-0cba-4a8f-bc97-c9d84e75420f"}],
                "beneficiary": {"reference": "Patient/aabfb5d9-4d3d-4768-860d-160ee6e50045"},
                "meta": {"profile": ["http://hl7.org/fhir/us/qicore/StructureDefinition/qicore-coverage"]},
                "id": "bce17402-053f-41ca-93f8-381e7d8074e7",
                "resourceType": "Coverage",
                "status": "active"
            },
            "fullUrl": "https://madie.cms.gov/Coverage/bce17402-053f-41ca-93f8-381e7d8074e7"
        },
        {
            "request": {
                "method": "PUT",
                "url": "Organization/8c76220b-0cba-4a8f-bc97-c9d84e75420f"
            },
            "resource": {
                "identifier": [{
                    "system": "urn:oid:2.16.840.1.113883.4.4",
                    "use": "temp",
                    "value": "21-3259825"
                }],
                "address": [{
                    "country": "USA",
                    "city": "Dallas",
                    "use": "billing",
                    "line": ["P.O. Box 660044"],
                    "postalCode": "75266-0044",
                    "state": "TX",
                    "type": "postal"
                }],
                "meta": {"profile": ["http://hl7.org/fhir/us/qicore/StructureDefinition/qicore-organization"]},
                "name": "Blue Cross Blue Shield of Texas",
                "active": true,
                "telecom": [{
                    "system": "phone",
                    "value": "(+1) 972-766-6900"
                }],
                "id": "8c76220b-0cba-4a8f-bc97-c9d84e75420f",
                "type": [{"coding": [{
                    "system": "http://terminology.hl7.org/CodeSystem/organization-type",
                    "code": "pay",
                    "display": "Payer"
                }]}],
                "resourceType": "Organization"
            },
            "fullUrl": "https://madie.cms.gov/Organization/8c76220b-0cba-4a8f-bc97-c9d84e75420f"
        },
        {
            "request": {
                "method": "PUT",
                "url": "MeasureReport/b37cb675-16d0-4647-ba51-a3af2e2d45ee"
            },
            "resource": {
                "contained": [{
                    "parameter": [{
                        "valueString": "aabfb5d9-4d3d-4768-860d-160ee6e50045",
                        "name": "subject"
                    }],
                    "id": "d53c7e6a-4fa1-4c68-854b-7be68e6c7ccf-parameters",
                    "resourceType": "Parameters"
                }],
                "extension": [
                    {
                        "valueReference": {"reference": "#d53c7e6a-4fa1-4c68-854b-7be68e6c7ccf-parameters"},
                        "url": "http://hl7.org/fhir/StructureDefinition/cqf-inputParameters"
                    },
                    {
                        "valueMarkdown": "Age 18 +, encounter 01/01 @0800 -0830 during MP, BP elevated, Elevated  BP 120/79 referred to other physician.",
                        "url": "http://hl7.org/fhir/us/cqfmeasures/StructureDefinition/cqfm-testCaseDescription"
                    }
                ],
                "period": {
                    "start": "2026-01-01",
                    "end": "2026-12-31"
                },
                "measure": "https://madie.cms.gov/Measure/CMS22FHIRPCSBPScreeningFollowUp",
                "meta": {"profile": ["http://hl7.org/fhir/us/cqfmeasures/StructureDefinition/test-case-cqfm"]},
                "modifierExtension": [{
                    "valueBoolean": true,
                    "url": "http://hl7.org/fhir/us/cqfmeasures/StructureDefinition/cqfm-isTestCase"
                }],
                "id": "b37cb675-16d0-4647-ba51-a3af2e2d45ee",
                "evaluatedResource": [
                    {"reference": "Patient/aabfb5d9-4d3d-4768-860d-160ee6e50045"},
                    {"reference": "Encounter/e0757a2c-7a01-4e14-83a6-2581d66547c3"},
                    {"reference": "Observation/ea6ed8ae-9019-45e7-90e1-9414d0251a48"},
                    {"reference": "ServiceRequest/ece6e2a3-1311-404f-949a-9cc7ec8f88a5"},
                    {"reference": "Coverage/bce17402-053f-41ca-93f8-381e7d8074e7"},
                    {"reference": "Organization/8c76220b-0cba-4a8f-bc97-c9d84e75420f"}
                ],
                "type": "individual",
                "resourceType": "MeasureReport",
                "status": "complete",
                "group": [{
                    "id": "Group_1",
                    "measureScore": {"value": 0},
                    "population": [
                        {
                            "code": {"coding": [{
                                "system": "http://terminology.hl7.org/CodeSystem/measure-population",
                                "code": "initial-population",
                                "display": "Initial Population"
                            }]},
                            "count": 1,
                            "id": "InitialPopulation_1"
                        },
                        {
                            "code": {"coding": [{
                                "system": "http://terminology.hl7.org/CodeSystem/measure-population",
                                "code": "denominator",
                                "display": "Denominator"
                            }]},
                            "count": 1,
                            "id": "Denominator_1"
                        },
                        {
                            "code": {"coding": [{
                                "system": "http://terminology.hl7.org/CodeSystem/measure-population",
                                "code": "denominator-exclusion",
                                "display": "Denominator Exclusion"
                            }]},
                            "count": 0,
                            "id": "DenominatorExclusion_1"
                        },
                        {
                            "code": {"coding": [{
                                "system": "http://terminology.hl7.org/CodeSystem/measure-population",
                                "code": "numerator",
                                "display": "Numerator"
                            }]},
                            "count": 1,
                            "id": "Numerator_1"
                        },
                        {
                            "code": {"coding": [{
                                "system": "http://terminology.hl7.org/CodeSystem/measure-population",
                                "code": "denominator-exception",
                                "display": "Denominator Exception"
                            }]},
                            "count": 0,
                            "id": "DenominatorException_1"
                        }
                    ]
                }]
            },
            "fullUrl": "https://madie.cms.gov/MeasureReport/b37cb675-16d0-4647-ba51-a3af2e2d45ee"
        }
    ],
    "id": "62d0327bd15ad008a13f69e5",
    "type": "transaction",
    "resourceType": "Bundle"
}