{
  "resourceType": "Bundle",
  "id": "DENEXPass-PalliativeCareSurveyOverlapsAfterMP",
  "type": "transaction",
  "entry": [ {
    "fullUrl": "https://madie.cms.gov/Patient/cdfb5385-a466-4d41-9dce-cc50f88d0666",
    "resource": {
      "resourceType": "Patient",
      "id": "cdfb5385-a466-4d41-9dce-cc50f88d0666",
      "meta": {
        "profile": [ "http://hl7.org/fhir/us/qicore/StructureDefinition/qicore-patient" ]
      },
      "extension": [ {
        "url": "http://hl7.org/fhir/us/core/StructureDefinition/us-core-race",
        "extension": [ {
          "url": "ombCategory",
          "valueCoding": {
            "system": "urn:oid:2.16.840.1.113883.6.238",
            "code": "2028-9",
            "display": "Asian"
          }
        }, {
          "url": "text",
          "valueString": "Asian"
        } ]
      }, {
        "url": "http://hl7.org/fhir/us/core/StructureDefinition/us-core-ethnicity",
        "extension": [ {
          "url": "ombCategory",
          "valueCoding": {
            "system": "urn:oid:2.16.840.1.113883.6.238",
            "code": "2135-2",
            "display": "Hispanic or Latino"
          }
        }, {
          "url": "text",
          "valueString": "Hispanic or Latino"
        } ]
      } ],
      "identifier": [ {
        "system": "http://hospital.smarthealthit.org",
        "value": "999999995"
      } ],
      "name": [ {
        "family": "DENEXPass",
        "given": [ "PalliativeCareSurveyOverlapsAfterMP" ]
      } ],
      "gender": "female",
      "birthDate": "2007-12-31"
    },
    "request": {
      "method": "PUT",
      "url": "Patient/cdfb5385-a466-4d41-9dce-cc50f88d0666"
    }
  }, {
    "fullUrl": "https://madie.cms.gov/Encounter/0e70bf44-718f-45a1-a55c-071213da0edc",
    "resource": {
      "resourceType": "Encounter",
      "id": "0e70bf44-718f-45a1-a55c-071213da0edc",
      "meta": {
        "profile": [ "http://hl7.org/fhir/us/qicore/StructureDefinition/qicore-encounter" ]
      },
      "status": "finished",
      "class": {
        "system": "http://terminology.hl7.org/CodeSystem/v3-ActCode",
        "code": "AMB",
        "display": "ambulatory"
      },
      "type": [ {
        "coding": [ {
          "system": "http://snomed.info/sct",
          "code": "3391000175108",
          "display": "Office visit for pediatric care and assessment (procedure)"
        } ]
      } ],
      "subject": {
        "reference": "Patient/cdfb5385-a466-4d41-9dce-cc50f88d0666"
      },
      "period": {
        "start": "2026-01-01T00:00:00.000+00:00",
        "end": "2026-01-01T01:00:00.000+00:00"
      }
    },
    "request": {
      "method": "PUT",
      "url": "Encounter/0e70bf44-718f-45a1-a55c-071213da0edc"
    }
  }, {
    "fullUrl": "https://madie.cms.gov/Condition/71c7c135-2463-47af-9729-17d9352252d2",
    "resource": {
      "resourceType": "Condition",
      "id": "71c7c135-2463-47af-9729-17d9352252d2",
      "meta": {
        "profile": [ "http://hl7.org/fhir/us/qicore/StructureDefinition/qicore-condition-problems-health-concerns" ]
      },
      "clinicalStatus": {
        "coding": [ {
          "system": "http://terminology.hl7.org/CodeSystem/condition-clinical",
          "code": "active"
        } ]
      },
      "category": [ {
        "coding": [ {
          "system": "http://terminology.hl7.org/CodeSystem/condition-category",
          "code": "problem-list-item",
          "display": "Problem List Item"
        } ]
      } ],
      "code": {
        "coding": [ {
          "system": "http://snomed.info/sct",
          "code": "371125006",
          "display": "Labile essential hypertension (disorder)"
        } ]
      },
      "subject": {
        "reference": "Patient/cdfb5385-a466-4d41-9dce-cc50f88d0666"
      },
      "onsetDateTime": "2026-06-30T23:59:59.000+00:00"
    },
    "request": {
      "method": "PUT",
      "url": "Condition/71c7c135-2463-47af-9729-17d9352252d2"
    }
  }, {
    "fullUrl": "https://madie.cms.gov/Observation/66106921-75f6-46c7-b9b3-a39488251cf9",
    "resource": {
      "resourceType": "Observation",
      "id": "66106921-75f6-46c7-b9b3-a39488251cf9",
      "meta": {
        "profile": [ "http://hl7.org/fhir/us/qicore/StructureDefinition/qicore-observation-screening-assessment" ]
      },
      "status": "final",
      "category": [ {
        "coding": [ {
          "system": "http://terminology.hl7.org/CodeSystem/observation-category",
          "code": "survey"
        } ]
      } ],
      "code": {
        "coding": [ {
          "system": "http://loinc.org",
          "code": "71007-9",
          "display": "Functional Assessment of Chronic Illness Therapy - Palliative Care Questionnaire (FACIT-Pal)"
        } ]
      },
      "subject": {
        "reference": "Patient/cdfb5385-a466-4d41-9dce-cc50f88d0666"
      },
      "effectivePeriod": {
        "start": "2026-12-31T00:00:00.000+00:00",
        "end": "2027-01-01T00:00:00.000+00:00"
      },
      "valueCodeableConcept": {
        "coding": [ {
          "system": "http://snomed.info/sct",
          "code": "373066001",
          "display": "Yes (qualifier value)"
        } ]
      }
    },
    "request": {
      "method": "PUT",
      "url": "Observation/66106921-75f6-46c7-b9b3-a39488251cf9"
    }
  }, {
    "fullUrl": "https://madie.cms.gov/MeasureReport/104b0312-6995-4c0c-aafe-ed4fdee630a6",
    "resource": {
      "resourceType": "MeasureReport",
      "id": "104b0312-6995-4c0c-aafe-ed4fdee630a6",
      "meta": {
        "profile": [ "http://hl7.org/fhir/us/cqfmeasures/StructureDefinition/test-case-cqfm" ]
      },
      "contained": [ {
        "resourceType": "Parameters",
        "id": "b786bf48-2119-41be-abd9-7fe6fe763c7f-parameters",
        "parameter": [ {
          "name": "subject",
          "valueString": "cdfb5385-a466-4d41-9dce-cc50f88d0666"
        } ]
      } ],
      "extension": [ {
        "url": "http://hl7.org/fhir/StructureDefinition/cqf-inputParameters",
        "valueReference": {
          "reference": "#b786bf48-2119-41be-abd9-7fe6fe763c7f-parameters"
        }
      }, {
        "url": "http://hl7.org/fhir/us/cqfmeasures/StructureDefinition/cqfm-testCaseDescription",
        "valueMarkdown": "Palliative care survey overlaps after MP"
      } ],
      "modifierExtension": [ {
        "url": "http://hl7.org/fhir/us/cqfmeasures/StructureDefinition/cqfm-isTestCase",
        "valueBoolean": true
      } ],
      "status": "complete",
      "type": "individual",
      "measure": "https://madie.cms.gov/Measure/CMS165FHIRControllingHighBloodPressure",
      "period": {
        "start": "2026-01-01",
        "end": "2026-12-31"
      },
      "group": [ {
        "id": "Group_1",
        "population": [ {
          "id": "InitialPopulation_1",
          "code": {
            "coding": [ {
              "system": "http://terminology.hl7.org/CodeSystem/measure-population",
              "code": "initial-population",
              "display": "Initial Population"
            } ]
          },
          "count": 1
        }, {
          "id": "Denominator_1",
          "code": {
            "coding": [ {
              "system": "http://terminology.hl7.org/CodeSystem/measure-population",
              "code": "denominator",
              "display": "Denominator"
            } ]
          },
          "count": 1
        }, {
          "id": "DenominatorExclusion_1",
          "code": {
            "coding": [ {
              "system": "http://terminology.hl7.org/CodeSystem/measure-population",
              "code": "denominator-exclusion",
              "display": "Denominator Exclusion"
            } ]
          },
          "count": 1
        }, {
          "id": "Numerator_1",
          "code": {
            "coding": [ {
              "system": "http://terminology.hl7.org/CodeSystem/measure-population",
              "code": "numerator",
              "display": "Numerator"
            } ]
          },
          "count": 0
        } ],
        "measureScore": {
          "value": 1.0
        }
      } ],
      "evaluatedResource": [ {
        "reference": "Patient/cdfb5385-a466-4d41-9dce-cc50f88d0666"
      }, {
        "reference": "Encounter/0e70bf44-718f-45a1-a55c-071213da0edc"
      }, {
        "reference": "Condition/71c7c135-2463-47af-9729-17d9352252d2"
      }, {
        "reference": "Observation/66106921-75f6-46c7-b9b3-a39488251cf9"
      } ]
    },
    "request": {
      "method": "PUT",
      "url": "MeasureReport/104b0312-6995-4c0c-aafe-ed4fdee630a6"
    }
  } ]
}