{
  "resourceType": "Bundle",
  "id": "6359776b6aee9629c8298235",
  "type": "transaction",
  "entry": [ {
    "fullUrl": "https://madie.cms.gov/Patient/cfed70be-9e5a-42f2-822d-133e3e970c3b",
    "resource": {
      "resourceType": "Patient",
      "id": "cfed70be-9e5a-42f2-822d-133e3e970c3b",
      "meta": {
        "profile": [ "http://hl7.org/fhir/us/qicore/StructureDefinition/qicore-patient" ]
      },
      "text": {
        "status": "generated",
        "div": "<div xmlns=\"http://www.w3.org/1999/xhtml\"><div class=\"hapiHeaderText\">1stWBCIsNull2ndIsGood<b>RISKFail</b></div><table class=\"hapiPropertyTable\"><tbody><tr><td>Date of birth</td><td><span>01 February 2004</span></td></tr></tbody></table></div>"
      },
      "extension": [ {
        "url": "http://hl7.org/fhir/us/core/StructureDefinition/us-core-race",
        "extension": [ {
          "url": "ombCategory",
          "valueCoding": {
            "system": "urn:oid:2.16.840.1.113883.6.238",
            "code": "1002-5",
            "display": "American Indian or Alaska Native",
            "userSelected": true
          }
        }, {
          "url": "text",
          "valueString": "American Indian or Alaska Native"
        } ]
      }, {
        "url": "http://hl7.org/fhir/us/core/StructureDefinition/us-core-ethnicity",
        "extension": [ {
          "url": "ombCategory",
          "valueCoding": {
            "system": "urn:oid:2.16.840.1.113883.6.238",
            "code": "2135-2",
            "display": "Hispanic or Latino",
            "userSelected": true
          }
        }, {
          "url": "text",
          "valueString": "Hispanic or Latino"
        } ]
      } ],
      "identifier": [ {
        "type": {
          "coding": [ {
            "system": "http://terminology.hl7.org/CodeSystem/v2-0203",
            "code": "MR"
          } ]
        },
        "system": "https://bonnie-fhir.healthit.gov/",
        "value": "6359776b6aee9629c8298235"
      } ],
      "active": true,
      "name": [ {
        "use": "usual",
        "family": "RiskFail",
        "given": [ "1stWBCIsNull2ndIsGood" ]
      } ],
      "gender": "female",
      "birthDate": "2005-02-01"
    },
    "request": {
      "method": "PUT",
      "url": "Patient/cfed70be-9e5a-42f2-822d-133e3e970c3b"
    }
  }, {
    "fullUrl": "https://madie.cms.gov/Observation/412a524c-ed3a-40a9-b2c7-b84eeb913b3a",
    "resource": {
      "resourceType": "Observation",
      "id": "412a524c-ed3a-40a9-b2c7-b84eeb913b3a",
      "meta": {
        "profile": [ "http://hl7.org/fhir/us/qicore/StructureDefinition/qicore-simple-observation" ]
      },
      "status": "final",
      "category": [ {
        "coding": [ {
          "system": "http://terminology.hl7.org/CodeSystem/observation-category",
          "code": "exam",
          "display": "exam",
          "userSelected": true
        } ]
      } ],
      "code": {
        "coding": [ {
          "system": "http://loinc.org",
          "code": "93857-1"
        } ]
      },
      "subject": {
        "reference": "Patient/cfed70be-9e5a-42f2-822d-133e3e970c3b"
      },
      "effectiveDateTime": "2026-02-01T08:15:00Z",
      "performer": [ {
        "reference": "Organization/example1",
        "display": "Hendricks Country Hospital"
      } ],
      "valueDateTime": "2026-02-01T08:15:00Z"
    },
    "request": {
      "method": "PUT",
      "url": "Observation/412a524c-ed3a-40a9-b2c7-b84eeb913b3a"
    }
  }, {
    "fullUrl": "https://madie.cms.gov/Condition/85f1d629-011a-4101-8776-93885a122a9f",
    "resource": {
      "resourceType": "Condition",
      "id": "85f1d629-011a-4101-8776-93885a122a9f",
      "meta": {
        "profile": [ "http://hl7.org/fhir/us/qicore/StructureDefinition/qicore-condition-encounter-diagnosis" ]
      },
      "category": [ {
        "coding": [ {
          "system": "http://terminology.hl7.org/CodeSystem/condition-category",
          "code": "encounter-diagnosis",
          "display": "Encounter Diagnosis"
        } ]
      } ],
      "code": {
        "coding": [ {
          "system": "http://hl7.org/fhir/sid/icd-10-cm",
          "version": "2023",
          "code": "Z3A.20",
          "display": "20 weeks gestation",
          "userSelected": true
        } ]
      },
      "subject": {
        "reference": "Patient/cfed70be-9e5a-42f2-822d-133e3e970c3b"
      },
      "recordedDate": "2026-10-26T08:00:00Z"
    },
    "request": {
      "method": "PUT",
      "url": "Condition/85f1d629-011a-4101-8776-93885a122a9f"
    }
  }, {
    "fullUrl": "https://madie.cms.gov/Encounter/495785fd-bffc-40ac-95fd-7f73de105310",
    "resource": {
      "resourceType": "Encounter",
      "id": "495785fd-bffc-40ac-95fd-7f73de105310",
      "meta": {
        "profile": [ "http://hl7.org/fhir/us/qicore/StructureDefinition/qicore-encounter" ]
      },
      "status": "finished",
      "class": {
        "system": "http://terminology.hl7.org/CodeSystem/v3-ActCode",
        "code": "IMP",
        "display": "inpatient encounter"
      },
      "type": [ {
        "coding": [ {
          "system": "http://snomed.info/sct",
          "code": "183452005"
        } ]
      } ],
      "subject": {
        "reference": "Patient/cfed70be-9e5a-42f2-822d-133e3e970c3b"
      },
      "period": {
        "start": "2026-02-01T08:00:00Z",
        "end": "2026-02-05T08:15:00Z"
      },
      "reasonReference": [ {
        "reference": "Condition/85f1d629-011a-4101-8776-93885a122a9f"
      } ]
    },
    "request": {
      "method": "PUT",
      "url": "Encounter/495785fd-bffc-40ac-95fd-7f73de105310"
    }
  }, {
    "fullUrl": "https://madie.cms.gov/Encounter/f1f727a9-a6be-427e-9c25-efa822e7e865",
    "resource": {
      "resourceType": "Encounter",
      "id": "f1f727a9-a6be-427e-9c25-efa822e7e865",
      "meta": {
        "profile": [ "http://hl7.org/fhir/us/qicore/StructureDefinition/qicore-encounter" ]
      },
      "status": "finished",
      "class": {
        "system": "http://terminology.hl7.org/CodeSystem/v3-ActCode",
        "code": "EMER",
        "display": "emergency"
      },
      "type": [ {
        "coding": [ {
          "system": "http://snomed.info/sct",
          "code": "4525004"
        } ]
      } ],
      "subject": {
        "reference": "Patient/cfed70be-9e5a-42f2-822d-133e3e970c3b"
      },
      "period": {
        "start": "2026-02-01T07:00:00Z",
        "end": "2026-02-01T07:59:00Z"
      }
    },
    "request": {
      "method": "PUT",
      "url": "Encounter/f1f727a9-a6be-427e-9c25-efa822e7e865"
    }
  }, {
    "fullUrl": "https://madie.cms.gov/Observation/c151f204-0c87-4096-a71d-c8737cc205c5",
    "resource": {
      "resourceType": "Observation",
      "id": "c151f204-0c87-4096-a71d-c8737cc205c5",
      "meta": {
        "profile": [ "http://hl7.org/fhir/us/qicore/StructureDefinition/qicore-observation-lab" ]
      },
      "status": "final",
      "category": [ {
        "coding": [ {
          "system": "http://terminology.hl7.org/CodeSystem/observation-category",
          "code": "laboratory",
          "display": "laboratory",
          "userSelected": true
        } ]
      } ],
      "code": {
        "coding": [ {
          "system": "http://loinc.org",
          "version": "2.73",
          "code": "26464-8",
          "display": "Leukocytes [#/volume] in Blood",
          "userSelected": true
        } ]
      },
      "subject": {
        "reference": "Patient/cfed70be-9e5a-42f2-822d-133e3e970c3b"
      },
      "effectiveDateTime": "2026-02-01T08:00:00Z",
      "issued": "2026-02-01T08:00:00Z",
      "valueQuantity": {
        "unit": "10*3/u"
      }
    },
    "request": {
      "method": "PUT",
      "url": "Observation/c151f204-0c87-4096-a71d-c8737cc205c5"
    }
  }, {
    "fullUrl": "https://madie.cms.gov/Procedure/0f0cedda-f8d2-4b73-a9a9-820dbc727016",
    "resource": {
      "resourceType": "Procedure",
      "id": "0f0cedda-f8d2-4b73-a9a9-820dbc727016",
      "meta": {
        "profile": [ "http://hl7.org/fhir/us/qicore/StructureDefinition/qicore-procedure" ]
      },
      "extension": [ {
        "url": "http://hl7.org/fhir/us/qicore/StructureDefinition/qicore-recorded",
        "valueDateTime": "2026-02-04T13:35:00Z"
      } ],
      "status": "completed",
      "code": {
        "coding": [ {
          "system": "http://snomed.info/sct",
          "code": "10745001"
        } ]
      },
      "subject": {
        "reference": "Patient/cfed70be-9e5a-42f2-822d-133e3e970c3b"
      },
      "performedPeriod": {
        "start": "2026-02-01T08:00:00Z",
        "end": "2026-02-05T08:15:00Z"
      }
    },
    "request": {
      "method": "PUT",
      "url": "Procedure/0f0cedda-f8d2-4b73-a9a9-820dbc727016"
    }
  }, {
    "fullUrl": "https://madie.cms.gov/Observation/9ecd19f5-525f-49b6-b9a2-307ffea3f8e3",
    "resource": {
      "resourceType": "Observation",
      "id": "9ecd19f5-525f-49b6-b9a2-307ffea3f8e3",
      "meta": {
        "profile": [ "http://hl7.org/fhir/us/qicore/StructureDefinition/qicore-observation-lab" ]
      },
      "status": "final",
      "category": [ {
        "coding": [ {
          "system": "http://terminology.hl7.org/CodeSystem/observation-category",
          "code": "laboratory",
          "display": "laboratory",
          "userSelected": true
        } ]
      } ],
      "code": {
        "coding": [ {
          "system": "http://loinc.org",
          "version": "2.73",
          "code": "26464-8",
          "display": "Leukocytes [#/volume] in Blood",
          "userSelected": true
        } ]
      },
      "subject": {
        "reference": "Patient/cfed70be-9e5a-42f2-822d-133e3e970c3b"
      },
      "effectiveDateTime": "2026-02-01T08:01:00Z",
      "issued": "2026-02-01T08:01:00Z",
      "valueQuantity": {
        "value": 10,
        "unit": "10*3/u"
      }
    },
    "request": {
      "method": "PUT",
      "url": "Observation/9ecd19f5-525f-49b6-b9a2-307ffea3f8e3"
    }
  }, {
    "fullUrl": "https://madie.cms.gov/MeasureReport/0baf05af-9b30-44ee-a5ad-57c0645f437d",
    "resource": {
      "resourceType": "MeasureReport",
      "id": "0baf05af-9b30-44ee-a5ad-57c0645f437d",
      "meta": {
        "profile": [ "http://hl7.org/fhir/us/cqfmeasures/StructureDefinition/test-case-cqfm" ]
      },
      "contained": [ {
        "resourceType": "Parameters",
        "id": "6c7d2574-7b4e-475e-ab0a-c433eea95383-parameters",
        "parameter": [ {
          "name": "subject",
          "valueString": "cfed70be-9e5a-42f2-822d-133e3e970c3b"
        } ]
      } ],
      "extension": [ {
        "url": "http://hl7.org/fhir/StructureDefinition/cqf-inputParameters",
        "valueReference": {
          "reference": "#6c7d2574-7b4e-475e-ab0a-c433eea95383-parameters"
        }
      }, {
        "url": "http://hl7.org/fhir/us/cqfmeasures/StructureDefinition/cqfm-testCaseDescription",
        "valueMarkdown": "First WBC is Null.  2nd WBC is resulted and meets timing parameters"
      } ],
      "modifierExtension": [ {
        "url": "http://hl7.org/fhir/us/cqfmeasures/StructureDefinition/cqfm-isTestCase",
        "valueBoolean": true
      } ],
      "status": "complete",
      "type": "individual",
      "measure": "https://madie.cms.gov/Measure/CMS1028FHIRPCSevereOBComps",
      "period": {
        "start": "2026-01-01",
        "end": "2026-12-31"
      },
      "group": [ {
        "id": "Group_1",
        "population": [ {
          "id": "InitialPopulation_1",
          "code": {
            "coding": [ {
              "system": "http://terminology.hl7.org/CodeSystem/measure-population",
              "code": "initial-population",
              "display": "Initial Population"
            } ]
          },
          "count": 1
        }, {
          "id": "Denominator_1",
          "code": {
            "coding": [ {
              "system": "http://terminology.hl7.org/CodeSystem/measure-population",
              "code": "denominator",
              "display": "Denominator"
            } ]
          },
          "count": 1
        }, {
          "id": "Numerator_1",
          "code": {
            "coding": [ {
              "system": "http://terminology.hl7.org/CodeSystem/measure-population",
              "code": "numerator",
              "display": "Numerator"
            } ]
          },
          "count": 0
        }, {
          "id": "NumeratorExclusion_1",
          "code": {
            "coding": [ {
              "system": "http://terminology.hl7.org/CodeSystem/measure-population",
              "code": "numerator-exclusion",
              "display": "Numerator Exclusion"
            } ]
          },
          "count": 0
        } ],
        "measureScore": {
          "value": 0.0
        }
      }, {
        "id": "Group_2",
        "population": [ {
          "id": "InitialPopulation_2",
          "code": {
            "coding": [ {
              "system": "http://terminology.hl7.org/CodeSystem/measure-population",
              "code": "initial-population",
              "display": "Initial Population"
            } ]
          },
          "count": 1
        }, {
          "id": "Denominator_2",
          "code": {
            "coding": [ {
              "system": "http://terminology.hl7.org/CodeSystem/measure-population",
              "code": "denominator",
              "display": "Denominator"
            } ]
          },
          "count": 1
        }, {
          "id": "Numerator_2",
          "code": {
            "coding": [ {
              "system": "http://terminology.hl7.org/CodeSystem/measure-population",
              "code": "numerator",
              "display": "Numerator"
            } ]
          },
          "count": 0
        }, {
          "id": "NumeratorExclusion_2",
          "code": {
            "coding": [ {
              "system": "http://terminology.hl7.org/CodeSystem/measure-population",
              "code": "numerator-exclusion",
              "display": "Numerator Exclusion"
            } ]
          },
          "count": 0
        } ],
        "measureScore": {
          "value": 0.0
        }
      } ],
      "evaluatedResource": [ {
        "reference": "Patient/cfed70be-9e5a-42f2-822d-133e3e970c3b"
      }, {
        "reference": "Observation/412a524c-ed3a-40a9-b2c7-b84eeb913b3a"
      }, {
        "reference": "Condition/85f1d629-011a-4101-8776-93885a122a9f"
      }, {
        "reference": "Encounter/495785fd-bffc-40ac-95fd-7f73de105310"
      }, {
        "reference": "Encounter/f1f727a9-a6be-427e-9c25-efa822e7e865"
      }, {
        "reference": "Observation/c151f204-0c87-4096-a71d-c8737cc205c5"
      }, {
        "reference": "Procedure/0f0cedda-f8d2-4b73-a9a9-820dbc727016"
      }, {
        "reference": "Observation/9ecd19f5-525f-49b6-b9a2-307ffea3f8e3"
      } ]
    },
    "request": {
      "method": "PUT",
      "url": "MeasureReport/0baf05af-9b30-44ee-a5ad-57c0645f437d"
    }
  } ]
}