{
  "resourceType": "Bundle",
  "id": "62f664415efef5272905e713",
  "type": "transaction",
  "entry": [ {
    "fullUrl": "https://madie.cms.gov/Patient/86761769-1b1b-44c1-81cb-3f034a6a0bc2",
    "resource": {
      "resourceType": "Patient",
      "id": "86761769-1b1b-44c1-81cb-3f034a6a0bc2",
      "meta": {
        "profile": [ "http://hl7.org/fhir/us/qicore/StructureDefinition/qicore-patient" ]
      },
      "extension": [ {
        "url": "http://hl7.org/fhir/us/core/StructureDefinition/us-core-race",
        "extension": [ {
          "url": "ombCategory",
          "valueCoding": {
            "system": "urn:oid:2.16.840.1.113883.6.238",
            "code": "1002-5",
            "display": "American Indian or Alaska Native",
            "userSelected": true
          }
        }, {
          "url": "text",
          "valueString": "American Indian or Alaska Native"
        } ]
      }, {
        "url": "http://hl7.org/fhir/us/core/StructureDefinition/us-core-ethnicity",
        "extension": [ {
          "url": "ombCategory",
          "valueCoding": {
            "system": "urn:oid:2.16.840.1.113883.6.238",
            "code": "2135-2",
            "display": "Hispanic or Latino",
            "userSelected": true
          }
        }, {
          "url": "text",
          "valueString": "Hispanic or Latino"
        } ]
      } ],
      "identifier": [ {
        "type": {
          "coding": [ {
            "system": "http://terminology.hl7.org/CodeSystem/v2-0203",
            "code": "MR"
          } ]
        },
        "system": "https://bonnie-fhir.healthit.gov/",
        "value": "62f664415efef5272905e713"
      } ],
      "name": [ {
        "family": "DENOMPass",
        "given": [ "AdultTelephoneVisit" ]
      } ],
      "gender": "male",
      "birthDate": "2008-01-01"
    },
    "request": {
      "method": "PUT",
      "url": "Patient/86761769-1b1b-44c1-81cb-3f034a6a0bc2"
    }
  }, {
    "fullUrl": "https://madie.cms.gov/Encounter/2723dc25-8181-4f9e-90bb-0f9cc7000d39",
    "resource": {
      "resourceType": "Encounter",
      "id": "2723dc25-8181-4f9e-90bb-0f9cc7000d39",
      "meta": {
        "profile": [ "http://hl7.org/fhir/us/qicore/StructureDefinition/qicore-encounter" ]
      },
      "status": "finished",
      "class": {
        "system": "http://terminology.hl7.org/CodeSystem/v3-ActCode",
        "code": "AMB",
        "display": "ambulatory"
      },
      "type": [ {
        "coding": [ {
          "system": "http://snomed.info/sct",
          "code": "185317003",
          "display": "Telephone encounter (procedure)",
          "userSelected": true
        } ]
      } ],
      "subject": {
        "reference": "Patient/86761769-1b1b-44c1-81cb-3f034a6a0bc2"
      },
      "period": {
        "start": "2026-08-12T08:00:00.000+00:00",
        "end": "2026-08-12T08:15:00.000+00:00"
      }
    },
    "request": {
      "method": "PUT",
      "url": "Encounter/2723dc25-8181-4f9e-90bb-0f9cc7000d39"
    }
  }, {
    "fullUrl": "https://madie.cms.gov/Coverage/4e691d0d-5000-431e-b6e3-840410dd95c9",
    "resource": {
      "resourceType": "Coverage",
      "id": "4e691d0d-5000-431e-b6e3-840410dd95c9",
      "meta": {
        "profile": [ "http://hl7.org/fhir/us/qicore/StructureDefinition/qicore-coverage" ]
      },
      "status": "active",
      "subscriberId": "123456789",
      "beneficiary": {
        "reference": "Patient/86761769-1b1b-44c1-81cb-3f034a6a0bc2"
      },
      "relationship": {
        "coding": [ {
          "system": "http://terminology.hl7.org/CodeSystem/subscriber-relationship",
          "code": "self",
          "display": "Self",
          "userSelected": true
        } ]
      },
      "payor": [ {
        "reference": "Organization/b298d30f-aee5-41ee-b6af-8be76de5bc9e"
      } ]
    },
    "request": {
      "method": "PUT",
      "url": "Coverage/4e691d0d-5000-431e-b6e3-840410dd95c9"
    }
  }, {
    "fullUrl": "https://madie.cms.gov/Organization/b298d30f-aee5-41ee-b6af-8be76de5bc9e",
    "resource": {
      "resourceType": "Organization",
      "id": "b298d30f-aee5-41ee-b6af-8be76de5bc9e",
      "meta": {
        "profile": [ "http://hl7.org/fhir/us/qicore/StructureDefinition/qicore-organization" ]
      },
      "identifier": [ {
        "use": "temp",
        "system": "urn:oid:2.16.840.1.113883.4.4",
        "value": "21-3259825"
      } ],
      "active": true,
      "type": [ {
        "coding": [ {
          "system": "http://terminology.hl7.org/CodeSystem/organization-type",
          "code": "pay",
          "display": "Payer"
        } ]
      } ],
      "name": "Blue Cross Blue Shield of Texas",
      "telecom": [ {
        "system": "phone",
        "value": "(+1) 972-766-6900"
      } ],
      "address": [ {
        "use": "billing",
        "type": "postal",
        "line": [ "P.O. Box 660044" ],
        "city": "Dallas",
        "state": "TX",
        "postalCode": "75266-0044",
        "country": "USA"
      } ]
    },
    "request": {
      "method": "PUT",
      "url": "Organization/b298d30f-aee5-41ee-b6af-8be76de5bc9e"
    }
  }, {
    "fullUrl": "https://madie.cms.gov/Practitioner/25359b4a-3fd0-42a3-810d-4476029a2798",
    "resource": {
      "resourceType": "Practitioner",
      "id": "25359b4a-3fd0-42a3-810d-4476029a2798",
      "meta": {
        "profile": [ "http://hl7.org/fhir/us/qicore/StructureDefinition/qicore-practitioner" ]
      },
      "identifier": [ {
        "system": "http://hl7.org/fhir/sid/us-npi",
        "value": "1234567893"
      } ],
      "name": [ {
        "family": "Evil",
        "prefix": [ "Dr" ]
      } ]
    },
    "request": {
      "method": "PUT",
      "url": "Practitioner/25359b4a-3fd0-42a3-810d-4476029a2798"
    }
  }, {
    "fullUrl": "https://madie.cms.gov/MeasureReport/4f4637c9-9731-4866-9c81-808d6131d36e",
    "resource": {
      "resourceType": "MeasureReport",
      "id": "4f4637c9-9731-4866-9c81-808d6131d36e",
      "meta": {
        "profile": [ "http://hl7.org/fhir/us/cqfmeasures/StructureDefinition/test-case-cqfm" ]
      },
      "contained": [ {
        "resourceType": "Parameters",
        "id": "00f7fd05-8011-474e-893d-22f4c7384acc-parameters",
        "parameter": [ {
          "name": "subject",
          "valueString": "86761769-1b1b-44c1-81cb-3f034a6a0bc2"
        } ]
      } ],
      "extension": [ {
        "url": "http://hl7.org/fhir/StructureDefinition/cqf-inputParameters",
        "valueReference": {
          "reference": "#00f7fd05-8011-474e-893d-22f4c7384acc-parameters"
        }
      }, {
        "url": "http://hl7.org/fhir/us/cqfmeasures/StructureDefinition/cqfm-testCaseDescription",
        "valueMarkdown": "18 yo male with telephone visit"
      } ],
      "modifierExtension": [ {
        "url": "http://hl7.org/fhir/us/cqfmeasures/StructureDefinition/cqfm-isTestCase",
        "valueBoolean": true
      } ],
      "status": "complete",
      "type": "individual",
      "measure": "https://madie.cms.gov/Measure/CMS2FHIRPCSDepressionScreenAndFollowUp",
      "period": {
        "start": "2026-01-01",
        "end": "2026-12-31"
      },
      "group": [ {
        "id": "Group_1",
        "population": [ {
          "id": "InitialPopulation_1",
          "code": {
            "coding": [ {
              "system": "http://terminology.hl7.org/CodeSystem/measure-population",
              "code": "initial-population",
              "display": "Initial Population"
            } ]
          },
          "count": 1
        }, {
          "id": "Denominator_1",
          "code": {
            "coding": [ {
              "system": "http://terminology.hl7.org/CodeSystem/measure-population",
              "code": "denominator",
              "display": "Denominator"
            } ]
          },
          "count": 1
        }, {
          "id": "DenominatorExclusion_1",
          "code": {
            "coding": [ {
              "system": "http://terminology.hl7.org/CodeSystem/measure-population",
              "code": "denominator-exclusion",
              "display": "Denominator Exclusion"
            } ]
          },
          "count": 0
        }, {
          "id": "Numerator_1",
          "code": {
            "coding": [ {
              "system": "http://terminology.hl7.org/CodeSystem/measure-population",
              "code": "numerator",
              "display": "Numerator"
            } ]
          },
          "count": 0
        }, {
          "id": "DenominatorException_1",
          "code": {
            "coding": [ {
              "system": "http://terminology.hl7.org/CodeSystem/measure-population",
              "code": "denominator-exception",
              "display": "Denominator Exception"
            } ]
          },
          "count": 0
        } ],
        "measureScore": {
          "value": 1.0
        }
      } ],
      "evaluatedResource": [ {
        "reference": "Patient/86761769-1b1b-44c1-81cb-3f034a6a0bc2"
      }, {
        "reference": "Encounter/2723dc25-8181-4f9e-90bb-0f9cc7000d39"
      }, {
        "reference": "Coverage/4e691d0d-5000-431e-b6e3-840410dd95c9"
      }, {
        "reference": "Organization/b298d30f-aee5-41ee-b6af-8be76de5bc9e"
      }, {
        "reference": "Practitioner/25359b4a-3fd0-42a3-810d-4476029a2798"
      } ]
    },
    "request": {
      "method": "PUT",
      "url": "MeasureReport/4f4637c9-9731-4866-9c81-808d6131d36e"
    }
  } ]
}