{
  "resourceType": "Bundle",
  "id": "610965b998086b538055c158",
  "type": "transaction",
  "entry": [
    {
      "fullUrl": "https://madie.cms.gov/Patient/63dcf713-7aa2-4c4e-af62-3dbc5b88a04c",
      "resource": {
        "resourceType": "Patient",
        "id": "63dcf713-7aa2-4c4e-af62-3dbc5b88a04c",
        "meta": {
          "profile": [
            "http://hl7.org/fhir/us/qicore/StructureDefinition/qicore-patient"
          ]
        },
        "text": {
          "status": "generated",
          "div": "<div xmlns=\"http://www.w3.org/1999/xhtml\"><div class=\"hapiHeaderText\">LabTestBeforeBirth <b>NUMERFAIL </b></div><table class=\"hapiPropertyTable\"><tbody><tr><td>Identifier</td><td>8de0ab14b056fcd32f87b213d0f959e9c5ee73f04fd5302ce5e21711fa269223</td></tr><tr><td>Date of birth</td><td><span>31 July 1992</span></td></tr></tbody></table></div>"
        },
        "extension": [
          {
            "url": "http://hl7.org/fhir/us/core/StructureDefinition/us-core-race",
            "extension": [
              {
                "url": "ombCategory",
                "valueCoding": {
                  "system": "urn:oid:2.16.840.1.113883.6.238",
                  "code": "1002-5",
                  "display": "American Indian or Alaska Native",
                  "userSelected": true
                }
              },
              {
                "url": "text",
                "valueString": "American Indian or Alaska Native"
              }
            ]
          },
          {
            "url": "http://hl7.org/fhir/us/core/StructureDefinition/us-core-ethnicity",
            "extension": [
              {
                "url": "ombCategory",
                "valueCoding": {
                  "system": "urn:oid:2.16.840.1.113883.6.238",
                  "code": "2135-2",
                  "display": "Hispanic or Latino",
                  "userSelected": true
                }
              },
              {
                "url": "text",
                "valueString": "Hispanic or Latino"
              }
            ]
          }
        ],
        "identifier": [
          {
            "type": {
              "coding": [
                {
                  "system": "http://terminology.hl7.org/CodeSystem/v2-0203",
                  "code": "MR"
                }
              ]
            },
            "system": "https://bonnie-fhir.healthit.gov/",
            "value": "610965b998086b538055c158"
          }
        ],
        "active": true,
        "name": [
          {
            "use": "usual",
            "family": "NUMERFail",
            "given": [
              "LabTestBeforeBirth"
            ]
          }
        ],
        "gender": "male",
        "birthDate": "1993-07-31"
      },
      "request": {
        "method": "PUT",
        "url": "Patient/63dcf713-7aa2-4c4e-af62-3dbc5b88a04c"
      }
    },
    {
      "fullUrl": "https://madie.cms.gov/Encounter/067ce565-6d77-4981-9002-e46e425ae0b6",
      "resource": {
        "resourceType": "Encounter",
        "id": "067ce565-6d77-4981-9002-e46e425ae0b6",
        "meta": {
          "profile": [
            "http://hl7.org/fhir/us/qicore/StructureDefinition/qicore-encounter"
          ]
        },
        "status": "finished",
        "class": {
          "system": "http://terminology.hl7.org/CodeSystem/v3-ActCode",
          "code": "AMB",
          "display": "ambulatory",
          "userSelected": true
        },
        "type": [
          {
            "coding": [
              {
                "system": "http://www.ama-assn.org/go/cpt",
                "code": "99395"
              }
            ]
          }
        ],
        "subject": {
          "reference": "Patient/63dcf713-7aa2-4c4e-af62-3dbc5b88a04c"
        },
        "period": {
          "start": "2025-10-24T08:00:00.000+00:00",
          "end": "2025-10-24T08:15:00.000+00:00"
        }
      },
      "request": {
        "method": "PUT",
        "url": "Encounter/067ce565-6d77-4981-9002-e46e425ae0b6"
      }
    },
    {
      "fullUrl": "https://madie.cms.gov/Observation/ca49c0c8-62f8-4e78-b648-39966f25b99c",
      "resource": {
        "resourceType": "Observation",
        "id": "ca49c0c8-62f8-4e78-b648-39966f25b99c",
        "meta": {
          "profile": [
            "http://hl7.org/fhir/us/qicore/StructureDefinition/qicore-observation"
          ]
        },
        "status": "corrected",
        "category": [
          {
            "coding": [
              {
                "system": "http://terminology.hl7.org/CodeSystem/observation-category",
                "code": "laboratory",
                "display": "Laboratory",
                "userSelected": true
              }
            ]
          }
        ],
        "code": {
          "coding": [
            {
              "system": "http://loinc.org",
              "code": "75622-1"
            }
          ]
        },
        "subject": {
          "reference": "Patient/63dcf713-7aa2-4c4e-af62-3dbc5b88a04c"
        },
        "effectiveDateTime": "1992-10-24T08:00:00.000+00:00",
        "valueBoolean": true
      },
      "request": {
        "method": "PUT",
        "url": "Observation/ca49c0c8-62f8-4e78-b648-39966f25b99c"
      }
    },
    {
      "fullUrl": "https://madie.cms.gov/MeasureReport/ef3db059-3a41-4924-94a7-c8392bdecc55",
      "resource": {
        "resourceType": "MeasureReport",
        "id": "ef3db059-3a41-4924-94a7-c8392bdecc55",
        "meta": {
          "profile": [
            "http://hl7.org/fhir/us/cqfmeasures/StructureDefinition/test-case-cqfm"
          ]
        },
        "contained": [
          {
            "resourceType": "Parameters",
            "id": "113725be-e8fc-4920-949d-31e498b18c86-parameters",
            "parameter": [
              {
                "name": "subject",
                "valueString": "63dcf713-7aa2-4c4e-af62-3dbc5b88a04c"
              }
            ]
          }
        ],
        "extension": [
          {
            "url": "http://hl7.org/fhir/us/cqfmeasures/StructureDefinition/cqfm-inputParameters",
            "valueReference": {
              "reference": "#113725be-e8fc-4920-949d-31e498b18c86-parameters"
            }
          },
          {
            "url": "http://hl7.org/fhir/us/cqfmeasures/StructureDefinition/cqfm-testCaseDescription",
            "valueMarkdown": "Patient 20 at start of MP, qual encounter during MP, lab test before birthdate."
          }
        ],
        "modifierExtension": [
          {
            "url": "http://hl7.org/fhir/us/cqfmeasures/StructureDefinition/cqfm-isTestCase",
            "valueBoolean": true
          }
        ],
        "status": "complete",
        "type": "individual",
        "measure": "https://madie.cms.gov/Measure/HIVScreeningFHIR",
        "period": {
          "start": "2025-01-01",
          "end": "2025-12-31"
        },
        "group": [
          {
            "population": [
              {
                "code": {
                  "coding": [
                    {
                      "system": "http://terminology.hl7.org/CodeSystem/measure-population",
                      "code": "initial-population",
                      "display": "Initial Population"
                    }
                  ]
                },
                "count": 1
              },
              {
                "code": {
                  "coding": [
                    {
                      "system": "http://terminology.hl7.org/CodeSystem/measure-population",
                      "code": "denominator",
                      "display": "Denominator"
                    }
                  ]
                },
                "count": 1
              },
              {
                "code": {
                  "coding": [
                    {
                      "system": "http://terminology.hl7.org/CodeSystem/measure-population",
                      "code": "denominator-exclusion",
                      "display": "Denominator Exclusion"
                    }
                  ]
                },
                "count": 0
              },
              {
                "code": {
                  "coding": [
                    {
                      "system": "http://terminology.hl7.org/CodeSystem/measure-population",
                      "code": "numerator",
                      "display": "Numerator"
                    }
                  ]
                },
                "count": 0
              }
            ]
          }
        ],
        "evaluatedResource": [
          {
            "reference": "Patient/63dcf713-7aa2-4c4e-af62-3dbc5b88a04c"
          },
          {
            "reference": "Encounter/067ce565-6d77-4981-9002-e46e425ae0b6"
          },
          {
            "reference": "Observation/ca49c0c8-62f8-4e78-b648-39966f25b99c"
          }
        ]
      },
      "request": {
        "method": "PUT",
        "url": "MeasureReport/ef3db059-3a41-4924-94a7-c8392bdecc55"
      }
    }
  ]
}