{
  "resourceType": "Bundle",
  "id": "62fd4b660968f8012246b012",
  "type": "transaction",
  "entry": [ {
    "fullUrl": "https://madie.cms.gov/Patient/65d214fa-db56-4076-9ecc-485c31229b0f",
    "resource": {
      "resourceType": "Patient",
      "id": "65d214fa-db56-4076-9ecc-485c31229b0f",
      "meta": {
        "profile": [ "http://hl7.org/fhir/us/qicore/StructureDefinition/qicore-patient" ]
      },
      "extension": [ {
        "url": "http://hl7.org/fhir/us/core/StructureDefinition/us-core-race",
        "extension": [ {
          "url": "ombCategory",
          "valueCoding": {
            "system": "urn:oid:2.16.840.1.113883.6.238",
            "code": "2028-9",
            "display": "Asian",
            "userSelected": true
          }
        }, {
          "url": "text",
          "valueString": "Asian"
        } ]
      }, {
        "url": "http://hl7.org/fhir/us/core/StructureDefinition/us-core-ethnicity",
        "extension": [ {
          "url": "ombCategory",
          "valueCoding": {
            "system": "urn:oid:2.16.840.1.113883.6.238",
            "code": "2186-5",
            "display": "Not Hispanic or Latino",
            "userSelected": true
          }
        }, {
          "url": "text",
          "valueString": "Not Hispanic or Latino"
        } ]
      } ],
      "identifier": [ {
        "type": {
          "coding": [ {
            "system": "http://terminology.hl7.org/CodeSystem/v2-0203",
            "code": "MR"
          } ]
        },
        "system": "https://bonnie-fhir.healthit.gov/",
        "value": "62fd4b660968f8012246b012"
      } ],
      "name": [ {
        "family": "DenomPass",
        "given": [ "EncAndReferralDuringPeriods" ]
      } ],
      "gender": "female",
      "birthDate": "1989-11-29"
    },
    "request": {
      "method": "PUT",
      "url": "Patient/65d214fa-db56-4076-9ecc-485c31229b0f"
    }
  }, {
    "fullUrl": "https://madie.cms.gov/ServiceRequest/b1b9121c-bcf9-4c4a-b753-d0e5bfaf00b6",
    "resource": {
      "resourceType": "ServiceRequest",
      "id": "b1b9121c-bcf9-4c4a-b753-d0e5bfaf00b6",
      "meta": {
        "profile": [ "http://hl7.org/fhir/us/qicore/StructureDefinition/qicore-servicerequest" ]
      },
      "status": "completed",
      "intent": "order",
      "code": {
        "coding": [ {
          "system": "http://snomed.info/sct",
          "version": "2022-03",
          "code": "103696004",
          "display": "Patient referral to specialist (procedure)",
          "userSelected": true
        } ]
      },
      "subject": {
        "reference": "Patient/65d214fa-db56-4076-9ecc-485c31229b0f"
      },
      "authoredOn": "2026-01-01T00:00:00.000+00:00"
    },
    "request": {
      "method": "PUT",
      "url": "ServiceRequest/b1b9121c-bcf9-4c4a-b753-d0e5bfaf00b6"
    }
  }, {
    "fullUrl": "https://madie.cms.gov/Procedure/da25f3c3-0627-462a-95bb-0c5968221ec8",
    "resource": {
      "resourceType": "Procedure",
      "id": "da25f3c3-0627-462a-95bb-0c5968221ec8",
      "meta": {
        "profile": [ "http://hl7.org/fhir/us/qicore/StructureDefinition/qicore-procedure" ]
      },
      "extension": [ {
        "url": "http://hl7.org/fhir/us/qicore/StructureDefinition/qicore-recorded",
        "valueDateTime": "2026-01-01T00:00:00.000+00:00"
      } ],
      "status": "completed",
      "code": {
        "coding": [ {
          "system": "http://www.ama-assn.org/go/cpt",
          "version": "2021",
          "code": "90792",
          "display": "Psychiatric diagnostic evaluation with medical services",
          "userSelected": true
        } ]
      },
      "subject": {
        "reference": "Patient/65d214fa-db56-4076-9ecc-485c31229b0f"
      },
      "performedDateTime": "2026-01-01T00:00:00.000+00:00"
    },
    "request": {
      "method": "PUT",
      "url": "Procedure/da25f3c3-0627-462a-95bb-0c5968221ec8"
    }
  }, {
    "fullUrl": "https://madie.cms.gov/Coverage/51af1e95-4558-43f6-ab7a-b0a30a990ace",
    "resource": {
      "resourceType": "Coverage",
      "id": "51af1e95-4558-43f6-ab7a-b0a30a990ace",
      "meta": {
        "profile": [ "http://hl7.org/fhir/us/qicore/StructureDefinition/qicore-coverage" ]
      },
      "status": "active",
      "beneficiary": {
        "reference": "Patient/65d214fa-db56-4076-9ecc-485c31229b0f"
      },
      "payor": [ {
        "reference": "Organization/be594938-6d87-42a9-ba81-16d49a7dcf30"
      } ]
    },
    "request": {
      "method": "PUT",
      "url": "Coverage/51af1e95-4558-43f6-ab7a-b0a30a990ace"
    }
  }, {
    "fullUrl": "https://madie.cms.gov/Organization/be594938-6d87-42a9-ba81-16d49a7dcf30",
    "resource": {
      "resourceType": "Organization",
      "id": "be594938-6d87-42a9-ba81-16d49a7dcf30",
      "meta": {
        "profile": [ "http://hl7.org/fhir/us/qicore/StructureDefinition/qicore-organization" ]
      },
      "identifier": [ {
        "use": "temp",
        "system": "urn:oid:2.16.840.1.113883.4.4",
        "value": "21-3259825"
      } ],
      "active": true,
      "type": [ {
        "coding": [ {
          "system": "http://terminology.hl7.org/CodeSystem/organization-type",
          "code": "pay",
          "display": "Payer"
        } ]
      } ],
      "name": "Blue Cross Blue Shield of Texas",
      "telecom": [ {
        "system": "phone",
        "value": "(+1) 972-766-6900"
      } ],
      "address": [ {
        "use": "billing",
        "type": "postal",
        "line": [ "P.O. Box 660044" ],
        "city": "Dallas",
        "state": "TX",
        "postalCode": "75266-0044",
        "country": "USA"
      } ]
    },
    "request": {
      "method": "PUT",
      "url": "Organization/be594938-6d87-42a9-ba81-16d49a7dcf30"
    }
  }, {
    "fullUrl": "https://madie.cms.gov/Practitioner/e0145d22-89b0-4e07-859c-413e71e81fc6",
    "resource": {
      "resourceType": "Practitioner",
      "id": "e0145d22-89b0-4e07-859c-413e71e81fc6",
      "meta": {
        "profile": [ "http://hl7.org/fhir/us/qicore/StructureDefinition/qicore-practitioner" ]
      },
      "identifier": [ {
        "system": "http://hl7.org/fhir/sid/us-npi",
        "value": "123456"
      } ],
      "name": [ {
        "family": "Evil",
        "prefix": [ "Dr" ]
      } ]
    },
    "request": {
      "method": "PUT",
      "url": "Practitioner/e0145d22-89b0-4e07-859c-413e71e81fc6"
    }
  }, {
    "fullUrl": "https://madie.cms.gov/MeasureReport/736278ce-bff3-4b6f-965e-a56f2a290ac8",
    "resource": {
      "resourceType": "MeasureReport",
      "id": "736278ce-bff3-4b6f-965e-a56f2a290ac8",
      "meta": {
        "profile": [ "http://hl7.org/fhir/us/cqfmeasures/StructureDefinition/test-case-cqfm" ]
      },
      "contained": [ {
        "resourceType": "Parameters",
        "id": "3ddccaf1-9b5c-4fd4-b5da-f1a05ea04bfa-parameters",
        "parameter": [ {
          "name": "subject",
          "valueString": "65d214fa-db56-4076-9ecc-485c31229b0f"
        } ]
      } ],
      "extension": [ {
        "url": "http://hl7.org/fhir/StructureDefinition/cqf-inputParameters",
        "valueReference": {
          "reference": "#3ddccaf1-9b5c-4fd4-b5da-f1a05ea04bfa-parameters"
        }
      }, {
        "url": "http://hl7.org/fhir/us/cqfmeasures/StructureDefinition/cqfm-testCaseDescription",
        "valueMarkdown": "Encounter first hour of MP, referral made at this time. "
      } ],
      "modifierExtension": [ {
        "url": "http://hl7.org/fhir/us/cqfmeasures/StructureDefinition/cqfm-isTestCase",
        "valueBoolean": true
      } ],
      "status": "complete",
      "type": "individual",
      "measure": "https://madie.cms.gov/Measure/CMS50FHIRCRLReceiptofSpecialistReport",
      "period": {
        "start": "2026-01-01",
        "end": "2026-12-31"
      },
      "group": [ {
        "id": "Group_1",
        "population": [ {
          "id": "InitialPopulation_1",
          "code": {
            "coding": [ {
              "system": "http://terminology.hl7.org/CodeSystem/measure-population",
              "code": "initial-population",
              "display": "Initial Population"
            } ]
          },
          "count": 1
        }, {
          "id": "Denominator_1",
          "code": {
            "coding": [ {
              "system": "http://terminology.hl7.org/CodeSystem/measure-population",
              "code": "denominator",
              "display": "Denominator"
            } ]
          },
          "count": 1
        }, {
          "id": "Numerator_1",
          "code": {
            "coding": [ {
              "system": "http://terminology.hl7.org/CodeSystem/measure-population",
              "code": "numerator",
              "display": "Numerator"
            } ]
          },
          "count": 0
        } ],
        "measureScore": {
          "value": 1.0
        }
      } ],
      "evaluatedResource": [ {
        "reference": "Patient/65d214fa-db56-4076-9ecc-485c31229b0f"
      }, {
        "reference": "ServiceRequest/b1b9121c-bcf9-4c4a-b753-d0e5bfaf00b6"
      }, {
        "reference": "Procedure/da25f3c3-0627-462a-95bb-0c5968221ec8"
      }, {
        "reference": "Coverage/51af1e95-4558-43f6-ab7a-b0a30a990ace"
      }, {
        "reference": "Organization/be594938-6d87-42a9-ba81-16d49a7dcf30"
      }, {
        "reference": "Practitioner/e0145d22-89b0-4e07-859c-413e71e81fc6"
      } ]
    },
    "request": {
      "method": "PUT",
      "url": "MeasureReport/736278ce-bff3-4b6f-965e-a56f2a290ac8"
    }
  } ]
}