{
  "resourceType": "Bundle",
  "id": "tests-NumerPass-OneHospitalizationTwoClaimsWithInjuryPOA-bundle",
  "type": "transaction",
  "entry": [ {
    "fullUrl": "https://madie.cms.gov/Encounter/0850e8f1-b81a-4b4d-b71a-9fe19cec997b",
    "resource": {
      "resourceType": "Encounter",
      "id": "0850e8f1-b81a-4b4d-b71a-9fe19cec997b",
      "meta": {
        "profile": [ "http://hl7.org/fhir/us/qicore/StructureDefinition/qicore-encounter" ]
      },
      "status": "finished",
      "class": {
        "system": "http://terminology.hl7.org/CodeSystem/v3-ActCode",
        "code": "IMP",
        "display": "inpatient encounter"
      },
      "type": [ {
        "coding": [ {
          "system": "http://snomed.info/sct",
          "code": "183452005",
          "display": "Inpatient encounter"
        } ]
      } ],
      "subject": {
        "reference": "Patient/f90151aa-9bd6-4c0c-bed8-5d43fe7fb8bb"
      },
      "period": {
        "start": "2026-10-19T08:30:00.000+00:00",
        "end": "2026-10-21T08:15:00.000+00:00"
      },
      "reasonCode": [ {
        "coding": [ {
          "system": "http://snomed.info/sct",
          "code": "14047009"
        } ]
      }, {
        "coding": [ {
          "system": "http://snomed.info/sct",
          "code": "64859006"
        } ]
      } ]
    },
    "request": {
      "method": "PUT",
      "url": "Encounter/0850e8f1-b81a-4b4d-b71a-9fe19cec997b"
    }
  }, {
    "fullUrl": "https://madie.cms.gov/Encounter/6516ecb2-d5e1-4365-9ef4-8b60a8477712",
    "resource": {
      "resourceType": "Encounter",
      "id": "6516ecb2-d5e1-4365-9ef4-8b60a8477712",
      "meta": {
        "profile": [ "http://hl7.org/fhir/us/qicore/StructureDefinition/qicore-encounter" ]
      },
      "status": "finished",
      "class": {
        "system": "http://terminology.hl7.org/CodeSystem/v3-ActCode",
        "code": "EMER",
        "display": "emergency encounter"
      },
      "type": [ {
        "coding": [ {
          "system": "http://snomed.info/sct",
          "code": "4525004",
          "display": "Emergency Department Visit"
        } ]
      } ],
      "subject": {
        "reference": "Patient/f90151aa-9bd6-4c0c-bed8-5d43fe7fb8bb"
      },
      "period": {
        "start": "2026-10-18T09:15:00.000+00:00",
        "end": "2026-10-19T08:15:00.000+00:00"
      }
    },
    "request": {
      "method": "PUT",
      "url": "Encounter/6516ecb2-d5e1-4365-9ef4-8b60a8477712"
    }
  }, {
    "fullUrl": "https://madie.cms.gov/Patient/f90151aa-9bd6-4c0c-bed8-5d43fe7fb8bb",
    "resource": {
      "resourceType": "Patient",
      "id": "f90151aa-9bd6-4c0c-bed8-5d43fe7fb8bb",
      "meta": {
        "profile": [ "http://hl7.org/fhir/us/qicore/StructureDefinition/qicore-patient" ]
      },
      "extension": [ {
        "url": "http://hl7.org/fhir/us/core/StructureDefinition/us-core-race",
        "extension": [ {
          "url": "ombCategory",
          "valueCoding": {
            "system": "urn:oid:2.16.840.1.113883.6.238",
            "code": "2106-3",
            "display": "White"
          }
        }, {
          "url": "text",
          "valueString": "White"
        } ]
      }, {
        "url": "http://hl7.org/fhir/us/core/StructureDefinition/us-core-ethnicity",
        "extension": [ {
          "url": "ombCategory",
          "valueCoding": {
            "system": "urn:oid:2.16.840.1.113883.6.238",
            "code": "2135-2",
            "display": "Hispanic or Latino"
          }
        }, {
          "url": "text",
          "valueString": "Hispanic or Latino"
        } ]
      }, {
        "url": "http://hl7.org/fhir/us/core/StructureDefinition/us-core-sex",
        "valueCode": "248153007"
      } ],
      "identifier": [ {
        "system": "http://hospital.smarthealthit.org",
        "value": "999999999"
      } ],
      "name": [ {
        "family": "Example",
        "given": [ "Patient" ]
      } ],
      "gender": "female",
      "birthDate": "1956-01-01"
    },
    "request": {
      "method": "PUT",
      "url": "Patient/f90151aa-9bd6-4c0c-bed8-5d43fe7fb8bb"
    }
  }, {
    "fullUrl": "https://madie.cms.gov/Claim/fc266ca5-17ab-4745-aa49-1ab3ee2e7dc7",
    "resource": {
      "resourceType": "Claim",
      "id": "fc266ca5-17ab-4745-aa49-1ab3ee2e7dc7",
      "meta": {
        "profile": [ "http://hl7.org/fhir/us/qicore/StructureDefinition/qicore-claim" ]
      },
      "status": "active",
      "type": {
        "coding": [ {
          "system": "http://terminology.hl7.org/CodeSystem/claim-type",
          "code": "institutional",
          "display": "Institutional"
        } ]
      },
      "use": "claim",
      "patient": {
        "reference": "Patient/f90151aa-9bd6-4c0c-bed8-5d43fe7fb8bb"
      },
      "created": "2026-10-22",
      "priority": {
        "coding": [ {
          "system": "http://terminology.hl7.org/CodeSystem/processpriority",
          "code": "normal"
        } ]
      },
      "diagnosis": [ {
        "sequence": 1,
        "diagnosisCodeableConcept": {
          "coding": [ {
            "system": "http://snomed.info/sct",
            "code": "14047009"
          } ]
        },
        "onAdmission": {
          "coding": [ {
            "system": "https://www.cms.gov/Medicare/Medicare-Fee-for-Service-Payment/HospitalAcqCond/Coding",
            "code": "N"
          } ]
        }
      } ],
      "item": [ {
        "sequence": 1,
        "diagnosisSequence": [ 1, 2 ],
        "encounter": [ {
          "reference": "Encounter/0850e8f1-b81a-4b4d-b71a-9fe19cec997b"
        } ]
      } ]
    },
    "request": {
      "method": "PUT",
      "url": "Claim/fc266ca5-17ab-4745-aa49-1ab3ee2e7dc7"
    }
  }, {
    "fullUrl": "https://madie.cms.gov/Claim/f2b0ba31-3646-4f2b-8a85-c83240125400",
    "resource": {
      "resourceType": "Claim",
      "id": "f2b0ba31-3646-4f2b-8a85-c83240125400",
      "meta": {
        "profile": [ "http://hl7.org/fhir/us/qicore/StructureDefinition/qicore-claim" ]
      },
      "status": "active",
      "type": {
        "coding": [ {
          "system": "http://terminology.hl7.org/CodeSystem/claim-type",
          "code": "institutional",
          "display": "Institutional"
        } ]
      },
      "use": "claim",
      "patient": {
        "reference": "Patient/f90151aa-9bd6-4c0c-bed8-5d43fe7fb8bb"
      },
      "created": "2026-11-01",
      "priority": {
        "coding": [ {
          "system": "http://terminology.hl7.org/CodeSystem/processpriority",
          "code": "normal"
        } ]
      },
      "diagnosis": [ {
        "sequence": 2,
        "diagnosisCodeableConcept": {
          "coding": [ {
            "system": "http://hl7.org/fhir/sid/icd-10-cm",
            "code": "M80.00XA",
            "display": "Age-related osteoporosis with current pathological fracture, unspecified site, initial encounter for fracture"
          } ]
        },
        "onAdmission": {
          "coding": [ {
            "system": "https://www.cms.gov/Medicare/Medicare-Fee-for-Service-Payment/HospitalAcqCond/Coding",
            "code": "Y"
          } ]
        }
      } ],
      "item": [ {
        "sequence": 2,
        "diagnosisSequence": [ 1, 2 ],
        "encounter": [ {
          "reference": "Encounter/0850e8f1-b81a-4b4d-b71a-9fe19cec997b"
        } ]
      } ]
    },
    "request": {
      "method": "PUT",
      "url": "Claim/f2b0ba31-3646-4f2b-8a85-c83240125400"
    }
  }, {
    "fullUrl": "https://madie.cms.gov/MeasureReport/37226e67-a457-46ca-b5dc-20894cbca672",
    "resource": {
      "resourceType": "MeasureReport",
      "id": "37226e67-a457-46ca-b5dc-20894cbca672",
      "meta": {
        "profile": [ "http://hl7.org/fhir/us/cqfmeasures/StructureDefinition/test-case-cqfm" ]
      },
      "contained": [ {
        "resourceType": "Parameters",
        "id": "7853502d-0591-4302-b5f3-f6ccb518320e-parameters",
        "parameter": [ {
          "name": "subject",
          "valueString": "f90151aa-9bd6-4c0c-bed8-5d43fe7fb8bb"
        } ]
      } ],
      "extension": [ {
        "url": "http://hl7.org/fhir/StructureDefinition/cqf-inputParameters",
        "valueReference": {
          "reference": "#7853502d-0591-4302-b5f3-f6ccb518320e-parameters"
        }
      }, {
        "url": "http://hl7.org/fhir/us/cqfmeasures/StructureDefinition/cqfm-testCaseDescription",
        "valueMarkdown": "Test Case - Claim 1 - Fall with No POA\n Claim 2 - Injury with POA\nShould not be in Numerator since the Injury is POA"
      } ],
      "modifierExtension": [ {
        "url": "http://hl7.org/fhir/us/cqfmeasures/StructureDefinition/cqfm-isTestCase",
        "valueBoolean": true
      } ],
      "status": "complete",
      "type": "individual",
      "measure": "https://madie.cms.gov/Measure/CMS1017FHIRHHFI",
      "period": {
        "start": "2026-01-01",
        "end": "2026-12-31"
      },
      "group": [ {
        "id": "Group_1",
        "population": [ {
          "id": "InitialPopulation_1",
          "code": {
            "coding": [ {
              "system": "http://terminology.hl7.org/CodeSystem/measure-population",
              "code": "initial-population",
              "display": "Initial Population"
            } ]
          },
          "count": 1
        }, {
          "id": "Denominator_1",
          "code": {
            "coding": [ {
              "system": "http://terminology.hl7.org/CodeSystem/measure-population",
              "code": "denominator",
              "display": "Denominator"
            } ]
          },
          "count": 1
        }, {
          "id": "DenominatorExclusion_1",
          "code": {
            "coding": [ {
              "system": "http://terminology.hl7.org/CodeSystem/measure-population",
              "code": "denominator-exclusion",
              "display": "Denominator Exclusion"
            } ]
          },
          "count": 0
        }, {
          "id": "Numerator_1",
          "code": {
            "coding": [ {
              "system": "http://terminology.hl7.org/CodeSystem/measure-population",
              "code": "numerator",
              "display": "Numerator"
            } ]
          },
          "count": 0
        }, {
          "id": "NumeratorExclusion_1",
          "code": {
            "coding": [ {
              "system": "http://terminology.hl7.org/CodeSystem/measure-population",
              "code": "numerator-exclusion",
              "display": "Numerator Exclusion"
            } ]
          },
          "count": 0
        }, {
          "id": "MeasureObservation_1_1_1",
          "code": {
            "coding": [ {
              "system": "http://terminology.hl7.org/CodeSystem/measure-population",
              "code": "measure-observation",
              "display": "Measure Observation"
            } ]
          },
          "count": 2
        } ],
        "measureScore": {
          "value": 0.0
        }
      } ],
      "evaluatedResource": [ {
        "reference": "Encounter/0850e8f1-b81a-4b4d-b71a-9fe19cec997b"
      }, {
        "reference": "Encounter/6516ecb2-d5e1-4365-9ef4-8b60a8477712"
      }, {
        "reference": "Patient/f90151aa-9bd6-4c0c-bed8-5d43fe7fb8bb"
      }, {
        "reference": "Claim/fc266ca5-17ab-4745-aa49-1ab3ee2e7dc7"
      }, {
        "reference": "Claim/f2b0ba31-3646-4f2b-8a85-c83240125400"
      } ]
    },
    "request": {
      "method": "PUT",
      "url": "MeasureReport/37226e67-a457-46ca-b5dc-20894cbca672"
    }
  } ]
}