{
  "resourceType": "Bundle",
  "id": "612e6b2e02c62a011f2ecc81",
  "type": "transaction",
  "entry": [ {
    "fullUrl": "https://madie.cms.gov/Patient/525e73f2-77be-49b1-920f-6fc31ef38d22",
    "resource": {
      "resourceType": "Patient",
      "id": "525e73f2-77be-49b1-920f-6fc31ef38d22",
      "meta": {
        "profile": [ "http://hl7.org/fhir/us/qicore/StructureDefinition/qicore-patient" ]
      },
      "text": {
        "status": "generated",
        "div": "<div xmlns=\"http://www.w3.org/1999/xhtml\"><div class=\"hapiHeaderText\">PtRefMOLMWHTaskReject <b>NUMERPASS </b></div><table class=\"hapiPropertyTable\"><tbody><tr><td>Identifier</td><td>bec2580a47ed4bf7691b191e0654b2de</td></tr><tr><td>Date of birth</td><td><span>02 January 1974</span></td></tr></tbody></table></div>"
      },
      "extension": [ {
        "url": "http://hl7.org/fhir/us/core/StructureDefinition/us-core-race",
        "extension": [ {
          "url": "ombCategory",
          "valueCoding": {
            "system": "urn:oid:2.16.840.1.113883.6.238",
            "code": "1002-5",
            "display": "American Indian or Alaska Native",
            "userSelected": true
          }
        }, {
          "url": "text",
          "valueString": "American Indian or Alaska Native"
        } ]
      }, {
        "url": "http://hl7.org/fhir/us/core/StructureDefinition/us-core-ethnicity",
        "extension": [ {
          "url": "ombCategory",
          "valueCoding": {
            "system": "urn:oid:2.16.840.1.113883.6.238",
            "code": "2135-2",
            "display": "Hispanic or Latino",
            "userSelected": true
          }
        }, {
          "url": "text",
          "valueString": "Hispanic or Latino"
        } ]
      } ],
      "identifier": [ {
        "type": {
          "coding": [ {
            "system": "http://terminology.hl7.org/CodeSystem/v2-0203",
            "code": "MR"
          } ]
        },
        "system": "https://bonnie-fhir.healthit.gov/",
        "value": "612e6b2e02c62a011f2ecc81"
      } ],
      "active": true,
      "name": [ {
        "use": "usual",
        "family": "NUMERPass",
        "given": [ "PtRefMOLMWHTaskReject" ]
      } ],
      "gender": "male",
      "birthDate": "1975-01-02"
    },
    "request": {
      "method": "PUT",
      "url": "Patient/525e73f2-77be-49b1-920f-6fc31ef38d22"
    }
  }, {
    "fullUrl": "https://madie.cms.gov/Encounter/52d6458e-377d-46b2-b144-74650eea4ad2",
    "resource": {
      "resourceType": "Encounter",
      "id": "52d6458e-377d-46b2-b144-74650eea4ad2",
      "meta": {
        "profile": [ "http://hl7.org/fhir/us/qicore/StructureDefinition/qicore-encounter" ]
      },
      "status": "finished",
      "class": {
        "system": "http://terminology.hl7.org/CodeSystem/v3-ActCode",
        "code": "IMP",
        "display": "inpatient encounter"
      },
      "type": [ {
        "coding": [ {
          "system": "http://snomed.info/sct",
          "code": "8715000"
        } ]
      } ],
      "subject": {
        "reference": "Patient/525e73f2-77be-49b1-920f-6fc31ef38d22"
      },
      "period": {
        "start": "2026-11-01T08:00:00.000+00:00",
        "end": "2026-11-26T08:15:00.000+00:00"
      },
      "length": {
        "value": 25,
        "unit": "days"
      }
    },
    "request": {
      "method": "PUT",
      "url": "Encounter/52d6458e-377d-46b2-b144-74650eea4ad2"
    }
  }, {
    "fullUrl": "https://madie.cms.gov/Coverage/3b555f6c-7529-4988-aad4-26fc788dc5ac",
    "resource": {
      "resourceType": "Coverage",
      "id": "3b555f6c-7529-4988-aad4-26fc788dc5ac",
      "status": "active",
      "beneficiary": {
        "reference": "Patient/525e73f2-77be-49b1-920f-6fc31ef38d22"
      },
      "period": {
        "start": "1975-01-02T08:00:00.000+00:00"
      },
      "payor": [ {
        "reference": "Organization/477cb735-038d-49fe-8603-a25ea79c510e"
      } ]
    },
    "request": {
      "method": "PUT",
      "url": "Coverage/3b555f6c-7529-4988-aad4-26fc788dc5ac"
    }
  }, {
    "fullUrl": "https://madie.cms.gov/MedicationRequest/ae8eb820-5234-4bf0-bd1b-9411d66ad615",
    "resource": {
      "resourceType": "MedicationRequest",
      "id": "ae8eb820-5234-4bf0-bd1b-9411d66ad615",
      "meta": {
        "profile": [ "http://hl7.org/fhir/us/qicore/StructureDefinition/qicore-medicationrequest" ]
      },
      "status": "active",
      "intent": "order",
      "category": [ {
        "coding": [ {
          "system": "http://terminology.hl7.org/CodeSystem/medicationrequest-category",
          "code": "inpatient"
        } ]
      } ],
      "doNotPerform": false,
      "medicationCodeableConcept": {
        "coding": [ {
          "system": "http://www.nlm.nih.gov/research/umls/rxnorm",
          "code": "978744"
        } ]
      },
      "subject": {
        "reference": "Patient/525e73f2-77be-49b1-920f-6fc31ef38d22"
      },
      "authoredOn": "2026-11-01T08:00:00.000+00:00",
      "requester": {
        "reference": "Practitioner/123456"
      },
      "dosageInstruction": [ {
        "timing": {
          "repeat": {
            "boundsPeriod": {
              "start": "2026-11-03T09:00:00.000+00:00"
            }
          }
        }
      } ]
    },
    "request": {
      "method": "PUT",
      "url": "MedicationRequest/ae8eb820-5234-4bf0-bd1b-9411d66ad615"
    }
  }, {
    "fullUrl": "https://madie.cms.gov/Task/fe50ecef-ca86-4d44-bb8b-749a4b43eed8",
    "resource": {
      "resourceType": "Task",
      "id": "fe50ecef-ca86-4d44-bb8b-749a4b43eed8",
      "meta": {
        "profile": [ "http://hl7.org/fhir/us/qicore/StructureDefinition/qicore-taskrejected" ]
      },
      "status": "rejected",
      "statusReason": {
        "coding": [ {
          "system": "http://snomed.info/sct",
          "code": "443390004",
          "display": "Refusal of treatment by patient (situation)",
          "userSelected": true
        } ]
      },
      "code": {
        "coding": [ {
          "system": "http://hl7.org/fhir/CodeSystem/task-code",
          "code": "fulfill"
        } ]
      },
      "focus": {
        "reference": "MedicationRequest/ae8eb820-5234-4bf0-bd1b-9411d66ad615"
      },
      "executionPeriod": {
        "start": "2026-11-01T09:00:00.000+00:00",
        "end": "2026-11-03T09:00:00.000+00:00"
      }
    },
    "request": {
      "method": "PUT",
      "url": "Task/fe50ecef-ca86-4d44-bb8b-749a4b43eed8"
    }
  }, {
    "fullUrl": "https://madie.cms.gov/Organization/477cb735-038d-49fe-8603-a25ea79c510e",
    "resource": {
      "resourceType": "Organization",
      "id": "477cb735-038d-49fe-8603-a25ea79c510e",
      "meta": {
        "profile": [ "http://hl7.org/fhir/us/qicore/StructureDefinition/qicore-organization" ]
      },
      "identifier": [ {
        "use": "temp",
        "system": "urn:oid:2.16.840.1.113883.4.4",
        "value": "21-3259825"
      } ],
      "active": true,
      "type": [ {
        "coding": [ {
          "system": "http://terminology.hl7.org/CodeSystem/organization-type",
          "code": "pay",
          "display": "Payer"
        } ]
      } ],
      "name": "Blue Cross Blue Shield of Texas",
      "telecom": [ {
        "system": "phone",
        "value": "(+1) 972-766-6900"
      } ],
      "address": [ {
        "use": "billing",
        "type": "postal",
        "line": [ "P.O. Box 660044" ],
        "city": "Dallas",
        "state": "TX",
        "postalCode": "75266-0044",
        "country": "USA"
      } ]
    },
    "request": {
      "method": "PUT",
      "url": "Organization/477cb735-038d-49fe-8603-a25ea79c510e"
    }
  }, {
    "fullUrl": "https://madie.cms.gov/Practitioner/97eddb9d-831a-4e8e-be5d-61439e0b97b9",
    "resource": {
      "resourceType": "Practitioner",
      "id": "97eddb9d-831a-4e8e-be5d-61439e0b97b9",
      "identifier": [ {
        "system": "http://hl7.org/fhir/sid/us-npi",
        "value": "123456"
      } ],
      "name": [ {
        "family": "Evil",
        "prefix": [ "Dr" ]
      } ]
    },
    "request": {
      "method": "PUT",
      "url": "Practitioner/97eddb9d-831a-4e8e-be5d-61439e0b97b9"
    }
  }, {
    "fullUrl": "https://madie.cms.gov/MeasureReport/6a1ac099-8c2b-4216-a565-4fb0529d145d",
    "resource": {
      "resourceType": "MeasureReport",
      "id": "6a1ac099-8c2b-4216-a565-4fb0529d145d",
      "meta": {
        "profile": [ "http://hl7.org/fhir/us/cqfmeasures/StructureDefinition/test-case-cqfm" ]
      },
      "contained": [ {
        "resourceType": "Parameters",
        "id": "b2bb241e-9798-4819-bf3b-cbaad4eba198-parameters",
        "parameter": [ {
          "name": "subject",
          "valueString": "525e73f2-77be-49b1-920f-6fc31ef38d22"
        } ]
      } ],
      "extension": [ {
        "url": "http://hl7.org/fhir/StructureDefinition/cqf-inputParameters",
        "valueReference": {
          "reference": "#b2bb241e-9798-4819-bf3b-cbaad4eba198-parameters"
        }
      }, {
        "url": "http://hl7.org/fhir/us/cqfmeasures/StructureDefinition/cqfm-testCaseDescription",
        "valueMarkdown": "Low Molecular Weight Heparin refused with taskReject profile\n"
      } ],
      "modifierExtension": [ {
        "url": "http://hl7.org/fhir/us/cqfmeasures/StructureDefinition/cqfm-isTestCase",
        "valueBoolean": true
      } ],
      "status": "complete",
      "type": "individual",
      "measure": "https://madie.cms.gov/Measure/CMS108FHIRVTEProphylaxis",
      "period": {
        "start": "2026-01-01",
        "end": "2026-12-31"
      },
      "group": [ {
        "id": "Group_1",
        "population": [ {
          "id": "InitialPopulation_1",
          "code": {
            "coding": [ {
              "system": "http://terminology.hl7.org/CodeSystem/measure-population",
              "code": "initial-population",
              "display": "Initial Population"
            } ]
          },
          "count": 1
        }, {
          "id": "Denominator_1",
          "code": {
            "coding": [ {
              "system": "http://terminology.hl7.org/CodeSystem/measure-population",
              "code": "denominator",
              "display": "Denominator"
            } ]
          },
          "count": 1
        }, {
          "id": "DenominatorExclusion_1",
          "code": {
            "coding": [ {
              "system": "http://terminology.hl7.org/CodeSystem/measure-population",
              "code": "denominator-exclusion",
              "display": "Denominator Exclusion"
            } ]
          },
          "count": 0
        }, {
          "id": "Numerator_1",
          "code": {
            "coding": [ {
              "system": "http://terminology.hl7.org/CodeSystem/measure-population",
              "code": "numerator",
              "display": "Numerator"
            } ]
          },
          "count": 1
        } ],
        "measureScore": {
          "value": 0.0
        }
      } ],
      "evaluatedResource": [ {
        "reference": "Patient/525e73f2-77be-49b1-920f-6fc31ef38d22"
      }, {
        "reference": "Encounter/52d6458e-377d-46b2-b144-74650eea4ad2"
      }, {
        "reference": "Coverage/3b555f6c-7529-4988-aad4-26fc788dc5ac"
      }, {
        "reference": "MedicationRequest/ae8eb820-5234-4bf0-bd1b-9411d66ad615"
      }, {
        "reference": "Task/fe50ecef-ca86-4d44-bb8b-749a4b43eed8"
      }, {
        "reference": "Organization/477cb735-038d-49fe-8603-a25ea79c510e"
      }, {
        "reference": "Practitioner/97eddb9d-831a-4e8e-be5d-61439e0b97b9"
      } ]
    },
    "request": {
      "method": "PUT",
      "url": "MeasureReport/6a1ac099-8c2b-4216-a565-4fb0529d145d"
    }
  } ]
}