{
  "resourceType": "Bundle",
  "id": "60f82c2e98086b570510e299",
  "type": "transaction",
  "entry": [ {
    "fullUrl": "https://madie.cms.gov/Patient/70e86911-43d6-41de-bfb9-933d8f539b98",
    "resource": {
      "resourceType": "Patient",
      "id": "70e86911-43d6-41de-bfb9-933d8f539b98",
      "meta": {
        "profile": [ "http://hl7.org/fhir/us/qicore/StructureDefinition/qicore-patient" ]
      },
      "text": {
        "status": "generated",
        "div": "<div xmlns=\"http://www.w3.org/1999/xhtml\"><div class=\"hapiHeaderText\">INR1minBFDayOfEncStart_NoEDNoObsBFEncDayOf <b>DENEXCEPASS </b></div><table class=\"hapiPropertyTable\"><tbody><tr><td>Identifier</td><td>d5994cf841b7ad6e3a6bba580fb9aaa65e9de71cb0b11577054e2d6bbb469e0f</td></tr><tr><td>Date of birth</td><td><span>26 September 1975</span></td></tr></tbody></table></div>"
      },
      "extension": [ {
        "url": "http://hl7.org/fhir/us/core/StructureDefinition/us-core-race",
        "extension": [ {
          "url": "ombCategory",
          "valueCoding": {
            "system": "urn:oid:2.16.840.1.113883.6.238",
            "code": "2054-5",
            "display": "Black or African American",
            "userSelected": true
          }
        }, {
          "url": "text",
          "valueString": "Black or African American"
        } ]
      }, {
        "url": "http://hl7.org/fhir/us/core/StructureDefinition/us-core-ethnicity",
        "extension": [ {
          "url": "ombCategory",
          "valueCoding": {
            "system": "urn:oid:2.16.840.1.113883.6.238",
            "code": "2186-5",
            "display": "Not Hispanic or Latino",
            "userSelected": true
          }
        }, {
          "url": "text",
          "valueString": "Not Hispanic or Latino"
        } ]
      } ],
      "identifier": [ {
        "type": {
          "coding": [ {
            "system": "http://terminology.hl7.org/CodeSystem/v2-0203",
            "code": "MR"
          } ]
        },
        "system": "https://bonnie-fhir.healthit.gov/",
        "value": "60f82c2e98086b570510e299"
      } ],
      "active": true,
      "name": [ {
        "use": "usual",
        "family": "DENEXCEPass",
        "given": [ "INR1minBFDayOfEncStart_NoEDNoObsBFEncDayOf" ]
      } ],
      "gender": "female",
      "birthDate": "1976-09-26"
    },
    "request": {
      "method": "PUT",
      "url": "Patient/70e86911-43d6-41de-bfb9-933d8f539b98"
    }
  }, {
    "fullUrl": "https://madie.cms.gov/Encounter/35de4da7-2973-428f-bf0e-953f4d07aa4e",
    "resource": {
      "resourceType": "Encounter",
      "id": "35de4da7-2973-428f-bf0e-953f4d07aa4e",
      "meta": {
        "profile": [ "http://hl7.org/fhir/us/qicore/StructureDefinition/qicore-encounter" ]
      },
      "status": "finished",
      "class": {
        "system": "http://terminology.hl7.org/CodeSystem/v3-ActCode",
        "code": "IMP",
        "display": "inpatient encounter",
        "userSelected": true
      },
      "type": [ {
        "coding": [ {
          "system": "http://snomed.info/sct",
          "code": "32485007"
        } ]
      } ],
      "subject": {
        "reference": "Patient/70e86911-43d6-41de-bfb9-933d8f539b98"
      },
      "period": {
        "start": "2026-10-10T06:15:00Z",
        "end": "2026-10-15T11:30:00.000+00:00"
      },
      "length": {
        "value": 5,
        "unit": "days"
      },
      "reasonReference": [ {
        "reference": "Condition/ef450762-2331-4eec-ae83-55be39386d89"
      } ]
    },
    "request": {
      "method": "PUT",
      "url": "Encounter/35de4da7-2973-428f-bf0e-953f4d07aa4e"
    }
  }, {
    "fullUrl": "https://madie.cms.gov/claim/5ca62962b8484628b8de1ec5",
    "resource": {
      "resourceType": "Claim",
      "id": "5ca62962b8484628b8de1ec5",
      "meta": {
        "profile": [ "http://hl7.org/fhir/us/qicore/StructureDefinition/qicore-claim" ]
      },
      "status": "active",
      "type": {
        "coding": [ {
          "system": "http://terminology.hl7.org/CodeSystem/claim-type",
          "code": "institutional"
        } ]
      },
      "use": "claim",
      "patient": {
        "reference": "Patient/d170a0a8-b5ad-4303-b6df-e304dd5f92ad"
      },
      "created": "2026-12-01",
      "provider": {
        "reference": "Practitioner/practitioner-123456"
      },
      "priority": {
        "coding": [ {
          "system": "http://terminology.hl7.org/CodeSystem/processpriority",
          "code": "normal"
        } ]
      },
      "diagnosis": [ {
        "sequence": 1,
        "diagnosisCodeableConcept": {
          "coding": [ {
            "system": "http://hl7.org/fhir/sid/icd-10-cm",
            "code": "I63.00"
          } ]
        },
        "type": [ {
          "coding": [ {
            "system": "http://terminology.hl7.org/CodeSystem/ex-diagnosistype",
            "code": "principal"
          } ]
        } ]
      } ],
      "insurance": [ {
        "sequence": 1,
        "focal": true,
        "coverage": {
          "reference": "Coverage/5fa041661c76ba66d9959367"
        }
      } ],
      "item": [ {
        "sequence": 1,
        "diagnosisSequence": [ 1 ],
        "productOrService": {
          "coding": [ {
            "system": "http://terminology.hl7.org/CodeSystem/ex-USCLS",
            "code": "99555"
          } ]
        },
        "encounter": [ {
          "reference": "Encounter/35de4da7-2973-428f-bf0e-953f4d07aa4e"
        } ]
      } ]
    },
    "request": {
      "method": "PUT",
      "url": "Claim/5ca62962b8484628b8de1ec5"
    }
  }, {
    "fullUrl": "https://madie.cms.gov/Observation/25614ee8-0586-4ead-badc-1e16722b0ccd",
    "resource": {
      "resourceType": "Observation",
      "id": "25614ee8-0586-4ead-badc-1e16722b0ccd",
      "meta": {
        "profile": [ "http://hl7.org/fhir/us/qicore/StructureDefinition/qicore-observation-lab" ]
      },
      "status": "final",
      "category": [ {
        "coding": [ {
          "system": "http://terminology.hl7.org/CodeSystem/observation-category",
          "code": "laboratory",
          "display": "Laboratory"
        } ]
      } ],
      "code": {
        "coding": [ {
          "system": "http://loinc.org",
          "code": "34714-6"
        } ]
      },
      "subject": {
        "reference": "Patient/70e86911-43d6-41de-bfb9-933d8f539b98"
      },
      "effectivePeriod": {
        "start": "2026-10-10T06:15:00Z"
      },
      "issued": "2026-10-10T06:14:00.000+00:00",
      "valueQuantity": {
        "value": 3.6
      }
    },
    "request": {
      "method": "PUT",
      "url": "Observation/25614ee8-0586-4ead-badc-1e16722b0ccd"
    }
  }, {
    "fullUrl": "https://madie.cms.gov/Coverage/2dc3ea09-166b-45f1-8582-27dfcec19b4c",
    "resource": {
      "resourceType": "Coverage",
      "id": "2dc3ea09-166b-45f1-8582-27dfcec19b4c",
      "status": "active",
      "subscriberId": "523435",
      "beneficiary": {
        "reference": "Patient/70e86911-43d6-41de-bfb9-933d8f539b98"
      },
      "relationship": {
        "coding": [ {
          "system": "http://terminology.hl7.org/CodeSystem/subscriber-relationship",
          "code": "self"
        } ]
      },
      "period": {
        "start": "1976-09-26T08:00:00Z"
      },
      "payor": [ {
        "reference": "Organization/6b22095d-0d04-4378-a4ce-d8552f88e696"
      } ]
    },
    "request": {
      "method": "PUT",
      "url": "Coverage/2dc3ea09-166b-45f1-8582-27dfcec19b4c"
    }
  }, {
    "fullUrl": "https://madie.cms.gov/Condition/ef450762-2331-4eec-ae83-55be39386d89",
    "resource": {
      "resourceType": "Condition",
      "id": "ef450762-2331-4eec-ae83-55be39386d89",
      "meta": {
        "profile": [ "http://hl7.org/fhir/us/qicore/StructureDefinition/qicore-condition-encounter-diagnosis" ]
      },
      "clinicalStatus": {
        "coding": [ {
          "system": "http://terminology.hl7.org/CodeSystem/condition-clinical",
          "code": "active"
        } ]
      },
      "verificationStatus": {
        "coding": [ {
          "system": "http://terminology.hl7.org/CodeSystem/condition-ver-status",
          "code": "confirmed"
        } ]
      },
      "category": [ {
        "coding": [ {
          "system": "http://terminology.hl7.org/CodeSystem/condition-category",
          "code": "encounter-diagnosis",
          "display": "Encounter Diagnosis"
        } ]
      } ],
      "code": {
        "coding": [ {
          "system": "http://snomed.info/sct",
          "version": "2020-09",
          "code": "111297002",
          "display": "Nonparalytic stroke (disorder)",
          "userSelected": true
        } ]
      },
      "subject": {
        "reference": "Patient/70e86911-43d6-41de-bfb9-933d8f539b98"
      },
      "recordedDate": "2026-08-06T08:00:00Z"
    },
    "request": {
      "method": "PUT",
      "url": "Condition/ef450762-2331-4eec-ae83-55be39386d89"
    }
  }, {
    "fullUrl": "https://madie.cms.gov/Organization/6b22095d-0d04-4378-a4ce-d8552f88e696",
    "resource": {
      "resourceType": "Organization",
      "id": "6b22095d-0d04-4378-a4ce-d8552f88e696",
      "meta": {
        "profile": [ "http://hl7.org/fhir/us/qicore/StructureDefinition/qicore-organization" ]
      },
      "identifier": [ {
        "use": "temp",
        "system": "urn:oid:2.16.840.1.113883.4.4",
        "value": "21-3259825"
      } ],
      "active": true,
      "type": [ {
        "coding": [ {
          "system": "http://terminology.hl7.org/CodeSystem/organization-type",
          "code": "pay",
          "display": "Payer"
        } ]
      } ],
      "name": "Blue Cross Blue Shield of Texas",
      "telecom": [ {
        "system": "phone",
        "value": "(+1) 972-766-6900"
      } ],
      "address": [ {
        "use": "billing",
        "type": "postal",
        "line": [ "P.O. Box 660044" ],
        "city": "Dallas",
        "state": "TX",
        "postalCode": "75266-0044",
        "country": "USA"
      } ]
    },
    "request": {
      "method": "PUT",
      "url": "Organization/6b22095d-0d04-4378-a4ce-d8552f88e696"
    }
  }, {
    "fullUrl": "https://madie.cms.gov/MeasureReport/1b2345b1-f567-4591-ad72-d6b5b0f7606d",
    "resource": {
      "resourceType": "MeasureReport",
      "id": "1b2345b1-f567-4591-ad72-d6b5b0f7606d",
      "meta": {
        "profile": [ "http://hl7.org/fhir/us/cqfmeasures/StructureDefinition/test-case-cqfm" ]
      },
      "contained": [ {
        "resourceType": "Parameters",
        "id": "0fd97c5e-47d2-4755-8be4-0e84e7bb8f45-parameters",
        "parameter": [ {
          "name": "subject",
          "valueString": "70e86911-43d6-41de-bfb9-933d8f539b98"
        } ]
      } ],
      "extension": [ {
        "url": "http://hl7.org/fhir/StructureDefinition/cqf-inputParameters",
        "valueReference": {
          "reference": "#0fd97c5e-47d2-4755-8be4-0e84e7bb8f45-parameters"
        }
      }, {
        "url": "http://hl7.org/fhir/us/cqfmeasures/StructureDefinition/cqfm-testCaseDescription",
        "valueMarkdown": "Patient receives INR of 3.6 the day of IP start at 1 minute before. No ED. No Obs. Testing Day of operator with HospitalizationWithObservation function.\n"
      } ],
      "modifierExtension": [ {
        "url": "http://hl7.org/fhir/us/cqfmeasures/StructureDefinition/cqfm-isTestCase",
        "valueBoolean": true
      } ],
      "status": "complete",
      "type": "individual",
      "measure": "https://madie.cms.gov/Measure/CMS72FHIRSTKAntithromboticDay2",
      "period": {
        "start": "2026-01-01",
        "end": "2026-12-31"
      },
      "group": [ {
        "id": "Group_1",
        "population": [ {
          "id": "InitialPopulation_1",
          "code": {
            "coding": [ {
              "system": "http://terminology.hl7.org/CodeSystem/measure-population",
              "code": "initial-population",
              "display": "Initial Population"
            } ]
          },
          "count": 1
        }, {
          "id": "Denominator_1",
          "code": {
            "coding": [ {
              "system": "http://terminology.hl7.org/CodeSystem/measure-population",
              "code": "denominator",
              "display": "Denominator"
            } ]
          },
          "count": 1
        }, {
          "id": "DenominatorExclusion_1",
          "code": {
            "coding": [ {
              "system": "http://terminology.hl7.org/CodeSystem/measure-population",
              "code": "denominator-exclusion",
              "display": "Denominator Exclusion"
            } ]
          },
          "count": 0
        }, {
          "id": "Numerator_1",
          "code": {
            "coding": [ {
              "system": "http://terminology.hl7.org/CodeSystem/measure-population",
              "code": "numerator",
              "display": "Numerator"
            } ]
          },
          "count": 0
        }, {
          "id": "DenominatorException_1",
          "code": {
            "coding": [ {
              "system": "http://terminology.hl7.org/CodeSystem/measure-population",
              "code": "denominator-exception",
              "display": "Denominator Exception"
            } ]
          },
          "count": 1
        } ],
        "measureScore": {
          "value": 0.0
        }
      } ],
      "evaluatedResource": [ {
        "reference": "Patient/70e86911-43d6-41de-bfb9-933d8f539b98"
      }, {
        "reference": "Encounter/35de4da7-2973-428f-bf0e-953f4d07aa4e"
      }, {
        "reference": "Claim/5ca62962b8484628b8de1ec5"
      }, {
        "reference": "Observation/25614ee8-0586-4ead-badc-1e16722b0ccd"
      }, {
        "reference": "Coverage/2dc3ea09-166b-45f1-8582-27dfcec19b4c"
      }, {
        "reference": "Condition/ef450762-2331-4eec-ae83-55be39386d89"
      }, {
        "reference": "Organization/6b22095d-0d04-4378-a4ce-d8552f88e696"
      } ]
    },
    "request": {
      "method": "PUT",
      "url": "MeasureReport/1b2345b1-f567-4591-ad72-d6b5b0f7606d"
    }
  } ]
}