{
  "resourceType": "Bundle",
  "id": "216544684685315464",
  "type": "transaction",
  "entry": [ {
    "fullUrl": "https://madie.cms.gov/Patient/b7d36e19-a42e-4b09-a83f-4525cd7de100",
    "resource": {
      "resourceType": "Patient",
      "id": "b7d36e19-a42e-4b09-a83f-4525cd7de100",
      "meta": {
        "profile": [ "http://hl7.org/fhir/us/qicore/StructureDefinition/qicore-patient" ]
      },
      "extension": [ {
        "url": "http://hl7.org/fhir/us/core/StructureDefinition/us-core-race",
        "extension": [ {
          "url": "ombCategory",
          "valueCoding": {
            "system": "urn:oid:2.16.840.1.113883.6.238",
            "code": "1002-5",
            "display": "American Indian or Alaska Native"
          }
        }, {
          "url": "text",
          "valueString": "American Indian or Alaska Native"
        } ]
      }, {
        "url": "http://hl7.org/fhir/us/core/StructureDefinition/us-core-ethnicity",
        "extension": [ {
          "url": "ombCategory",
          "valueCoding": {
            "system": "urn:oid:2.16.840.1.113883.6.238",
            "code": "2186-5",
            "display": "Not Hispanic or Latino"
          }
        }, {
          "url": "text",
          "valueString": "Not Hispanic or Latino"
        } ]
      } ],
      "identifier": [ {
        "type": {
          "coding": [ {
            "system": "http://terminology.hl7.org/CodeSystem/v2-0203",
            "code": "MR"
          } ]
        },
        "system": "https://bonnie-fhir.healthit.gov/",
        "value": "431385494631"
      } ],
      "name": [ {
        "family": "DENEXPass",
        "given": [ "LVADPlcmntSBEEnc" ]
      } ],
      "gender": "male",
      "birthDate": "1969-06-14"
    },
    "request": {
      "method": "PUT",
      "url": "Patient/b7d36e19-a42e-4b09-a83f-4525cd7de100"
    }
  }, {
    "fullUrl": "https://madie.cms.gov/Encounter/2b4a1081-a713-4f89-bf43-cc0cf7e65985",
    "resource": {
      "resourceType": "Encounter",
      "id": "2b4a1081-a713-4f89-bf43-cc0cf7e65985",
      "meta": {
        "profile": [ "http://hl7.org/fhir/us/qicore/StructureDefinition/qicore-encounter" ]
      },
      "status": "finished",
      "class": {
        "system": "http://terminology.hl7.org/CodeSystem/v3-ActCode",
        "code": "AMB",
        "display": "ambulatory"
      },
      "type": [ {
        "coding": [ {
          "system": "http://snomed.info/sct",
          "version": "http://snomed.info/sct/731000124108/version/20240301",
          "code": "281036007",
          "display": "Follow-up consultation (procedure)"
        } ]
      } ],
      "subject": {
        "reference": "Patient/b7d36e19-a42e-4b09-a83f-4525cd7de100"
      },
      "period": {
        "start": "2026-03-31T14:40:00.000+00:00",
        "end": "2026-03-31T14:40:00.000+00:00"
      }
    },
    "request": {
      "method": "PUT",
      "url": "Encounter/2b4a1081-a713-4f89-bf43-cc0cf7e65985"
    }
  }, {
    "fullUrl": "https://madie.cms.gov/Encounter/49f03d7c-80ba-4a72-9088-5534c0c1f543",
    "resource": {
      "resourceType": "Encounter",
      "id": "49f03d7c-80ba-4a72-9088-5534c0c1f543",
      "meta": {
        "profile": [ "http://hl7.org/fhir/us/qicore/StructureDefinition/qicore-encounter" ]
      },
      "status": "finished",
      "class": {
        "system": "http://terminology.hl7.org/CodeSystem/v3-ActCode",
        "code": "AMB",
        "display": "ambulatory"
      },
      "type": [ {
        "coding": [ {
          "system": "http://snomed.info/sct",
          "version": "http://snomed.info/sct/731000124108/version/20240301",
          "code": "281036007",
          "display": "Follow-up consultation (procedure)"
        } ]
      } ],
      "subject": {
        "reference": "Patient/b7d36e19-a42e-4b09-a83f-4525cd7de100"
      },
      "period": {
        "start": "2026-05-15T11:50:00.000+00:00",
        "end": "2026-05-15T11:50:00.000+00:00"
      }
    },
    "request": {
      "method": "PUT",
      "url": "Encounter/49f03d7c-80ba-4a72-9088-5534c0c1f543"
    }
  }, {
    "fullUrl": "https://madie.cms.gov/Condition/a30a795c-0921-41ae-841b-9c302f09fa08",
    "resource": {
      "resourceType": "Condition",
      "id": "a30a795c-0921-41ae-841b-9c302f09fa08",
      "meta": {
        "profile": [ "http://hl7.org/fhir/us/qicore/StructureDefinition/qicore-condition-problems-health-concerns" ]
      },
      "clinicalStatus": {
        "coding": [ {
          "system": "http://terminology.hl7.org/CodeSystem/condition-clinical",
          "code": "active",
          "display": "active"
        } ]
      },
      "verificationStatus": {
        "coding": [ {
          "system": "http://terminology.hl7.org/CodeSystem/condition-ver-status",
          "code": "confirmed",
          "display": "Confirmed"
        } ]
      },
      "category": [ {
        "coding": [ {
          "system": "http://terminology.hl7.org/CodeSystem/condition-category",
          "code": "problem-list-item",
          "display": "Problem List Item"
        } ]
      } ],
      "code": {
        "coding": [ {
          "system": "http://snomed.info/sct",
          "version": "http://snomed.info/sct/731000124108/version/20240301",
          "code": "10091002",
          "display": "High output heart failure (disorder)"
        } ]
      },
      "subject": {
        "reference": "Patient/b7d36e19-a42e-4b09-a83f-4525cd7de100"
      },
      "onsetPeriod": {
        "start": "2025-05-17T10:00:00.000+00:00"
      }
    },
    "request": {
      "method": "PUT",
      "url": "Condition/a30a795c-0921-41ae-841b-9c302f09fa08"
    }
  }, {
    "fullUrl": "https://madie.cms.gov/Condition/e2adde8a-ae23-4b3e-ac67-ca89a0cd4e40",
    "resource": {
      "resourceType": "Condition",
      "id": "e2adde8a-ae23-4b3e-ac67-ca89a0cd4e40",
      "meta": {
        "profile": [ "http://hl7.org/fhir/us/qicore/StructureDefinition/qicore-condition-problems-health-concerns" ]
      },
      "clinicalStatus": {
        "coding": [ {
          "system": "http://terminology.hl7.org/CodeSystem/condition-clinical",
          "code": "active",
          "display": "Active"
        } ]
      },
      "verificationStatus": {
        "coding": [ {
          "system": "http://terminology.hl7.org/CodeSystem/condition-ver-status",
          "code": "confirmed",
          "display": "Confirmed"
        } ]
      },
      "category": [ {
        "coding": [ {
          "system": "http://terminology.hl7.org/CodeSystem/condition-category",
          "code": "problem-list-item",
          "display": "Problem List Item"
        } ]
      } ],
      "code": {
        "coding": [ {
          "system": "http://snomed.info/sct",
          "version": "http://snomed.info/sct/731000124108/version/20240301",
          "code": "991000124109",
          "display": "Severe left ventricular systolic dysfunction (disorder)"
        } ]
      },
      "subject": {
        "reference": "Patient/b7d36e19-a42e-4b09-a83f-4525cd7de100"
      },
      "onsetPeriod": {
        "start": "2026-03-25T16:00:00.000+00:00",
        "end": "2026-03-30T16:00:00.000+00:00"
      }
    },
    "request": {
      "method": "PUT",
      "url": "Condition/e2adde8a-ae23-4b3e-ac67-ca89a0cd4e40"
    }
  }, {
    "fullUrl": "https://madie.cms.gov/Procedure/d9e5e92a-0648-4675-a08a-098c2de0baaa",
    "resource": {
      "resourceType": "Procedure",
      "id": "d9e5e92a-0648-4675-a08a-098c2de0baaa",
      "meta": {
        "profile": [ "http://hl7.org/fhir/us/qicore/StructureDefinition/qicore-procedure" ]
      },
      "extension": [ {
        "url": "http://hl7.org/fhir/us/qicore/StructureDefinition/qicore-recorded",
        "valueDateTime": "2025-09-25T13:00:00.000+00:00"
      } ],
      "status": "completed",
      "code": {
        "coding": [ {
          "system": "http://www.ama-assn.org/go/cpt",
          "version": "2024",
          "code": "33976",
          "display": "Insertion of ventricular assist device; extracorporeal, biventricular"
        } ]
      },
      "subject": {
        "reference": "Patient/b7d36e19-a42e-4b09-a83f-4525cd7de100"
      },
      "performedPeriod": {
        "start": "2025-09-25T11:00:00.000+00:00",
        "end": "2025-09-25T12:00:00.000+00:00"
      }
    },
    "request": {
      "method": "PUT",
      "url": "Procedure/d9e5e92a-0648-4675-a08a-098c2de0baaa"
    }
  }, {
    "fullUrl": "https://madie.cms.gov/MeasureReport/86a3a6a2-025a-4e15-b726-376df8a2b6e8",
    "resource": {
      "resourceType": "MeasureReport",
      "id": "86a3a6a2-025a-4e15-b726-376df8a2b6e8",
      "meta": {
        "profile": [ "http://hl7.org/fhir/us/cqfmeasures/StructureDefinition/test-case-cqfm" ]
      },
      "contained": [ {
        "resourceType": "Parameters",
        "id": "075559cb-8c8e-4d21-b118-c3e569aaedba-parameters",
        "parameter": [ {
          "name": "subject",
          "valueString": "b7d36e19-a42e-4b09-a83f-4525cd7de100"
        } ]
      } ],
      "extension": [ {
        "url": "http://hl7.org/fhir/StructureDefinition/cqf-inputParameters",
        "valueReference": {
          "reference": "#075559cb-8c8e-4d21-b118-c3e569aaedba-parameters"
        }
      }, {
        "url": "http://hl7.org/fhir/us/cqfmeasures/StructureDefinition/cqfm-testCaseDescription",
        "valueMarkdown": "Patient has 2 ambulatory encounters, HF diagnosis and LVSD and meets denominator exclusion with history of Left Ventricular Assisted Device placement."
      } ],
      "modifierExtension": [ {
        "url": "http://hl7.org/fhir/us/cqfmeasures/StructureDefinition/cqfm-isTestCase",
        "valueBoolean": true
      } ],
      "status": "complete",
      "type": "individual",
      "measure": "https://madie.cms.gov/Measure/CMS135FHIRHFACEIorARBorARNIforLVSD",
      "period": {
        "start": "2026-01-01",
        "end": "2026-12-31"
      },
      "group": [ {
        "id": "Group_1",
        "population": [ {
          "id": "InitialPopulation_1",
          "code": {
            "coding": [ {
              "system": "http://terminology.hl7.org/CodeSystem/measure-population",
              "code": "initial-population",
              "display": "Initial Population"
            } ]
          },
          "count": 1
        }, {
          "id": "Denominator_1",
          "code": {
            "coding": [ {
              "system": "http://terminology.hl7.org/CodeSystem/measure-population",
              "code": "denominator",
              "display": "Denominator"
            } ]
          },
          "count": 1
        }, {
          "id": "DenominatorExclusion_1",
          "code": {
            "coding": [ {
              "system": "http://terminology.hl7.org/CodeSystem/measure-population",
              "code": "denominator-exclusion",
              "display": "Denominator Exclusion"
            } ]
          },
          "count": 1
        }, {
          "id": "Numerator_1",
          "code": {
            "coding": [ {
              "system": "http://terminology.hl7.org/CodeSystem/measure-population",
              "code": "numerator",
              "display": "Numerator"
            } ]
          },
          "count": 0
        }, {
          "id": "DenominatorException_1",
          "code": {
            "coding": [ {
              "system": "http://terminology.hl7.org/CodeSystem/measure-population",
              "code": "denominator-exception",
              "display": "Denominator Exception"
            } ]
          },
          "count": 0
        } ],
        "measureScore": {
          "value": 1.0
        }
      } ],
      "evaluatedResource": [ {
        "reference": "Patient/b7d36e19-a42e-4b09-a83f-4525cd7de100"
      }, {
        "reference": "Encounter/2b4a1081-a713-4f89-bf43-cc0cf7e65985"
      }, {
        "reference": "Encounter/49f03d7c-80ba-4a72-9088-5534c0c1f543"
      }, {
        "reference": "Condition/a30a795c-0921-41ae-841b-9c302f09fa08"
      }, {
        "reference": "Condition/e2adde8a-ae23-4b3e-ac67-ca89a0cd4e40"
      }, {
        "reference": "Procedure/d9e5e92a-0648-4675-a08a-098c2de0baaa"
      } ]
    },
    "request": {
      "method": "PUT",
      "url": "MeasureReport/86a3a6a2-025a-4e15-b726-376df8a2b6e8"
    }
  } ]
}