{
  "resourceType": "Bundle",
  "id": "630307cb0968f8012247851f",
  "type": "transaction",
  "entry": [ {
    "fullUrl": "https://madie.cms.gov/Patient/c8f6a83b-060e-4359-a6c0-9f57c8623516",
    "resource": {
      "resourceType": "Patient",
      "id": "c8f6a83b-060e-4359-a6c0-9f57c8623516",
      "meta": {
        "profile": [ "http://hl7.org/fhir/us/qicore/StructureDefinition/qicore-patient" ]
      },
      "extension": [ {
        "url": "http://hl7.org/fhir/us/core/StructureDefinition/us-core-race",
        "extension": [ {
          "url": "ombCategory",
          "valueCoding": {
            "system": "urn:oid:2.16.840.1.113883.6.238",
            "code": "2106-3",
            "display": "White"
          }
        }, {
          "url": "text",
          "valueString": "White"
        } ]
      }, {
        "url": "http://hl7.org/fhir/us/core/StructureDefinition/us-core-ethnicity",
        "extension": [ {
          "url": "ombCategory",
          "valueCoding": {
            "system": "urn:oid:2.16.840.1.113883.6.238",
            "code": "2186-5",
            "display": "Not Hispanic or Latino"
          }
        }, {
          "url": "text",
          "valueString": "Not Hispanic or Latino"
        } ]
      } ],
      "identifier": [ {
        "type": {
          "coding": [ {
            "system": "http://terminology.hl7.org/CodeSystem/v2-0203",
            "code": "MR"
          } ]
        },
        "system": "https://bonnie-fhir.healthit.gov/",
        "value": "630307cb0968f8012247851f"
      } ],
      "name": [ {
        "family": "NUMERPopStrat2Pass",
        "given": [ "AssessmentInRelevantPeriod" ]
      } ],
      "gender": "female",
      "birthDate": "1958-01-01"
    },
    "request": {
      "method": "PUT",
      "url": "Patient/c8f6a83b-060e-4359-a6c0-9f57c8623516"
    }
  }, {
    "fullUrl": "https://madie.cms.gov/Encounter/0e4847fd-32cb-4bce-a0c8-b3154135c284",
    "resource": {
      "resourceType": "Encounter",
      "id": "0e4847fd-32cb-4bce-a0c8-b3154135c284",
      "meta": {
        "profile": [ "http://hl7.org/fhir/us/qicore/StructureDefinition/qicore-encounter" ]
      },
      "status": "finished",
      "class": {
        "system": "http://terminology.hl7.org/CodeSystem/v3-ActCode",
        "code": "AMB",
        "display": "ambulatory"
      },
      "type": [ {
        "coding": [ {
          "system": "http://www.ama-assn.org/go/cpt",
          "version": "2024",
          "code": "90791"
        } ]
      } ],
      "subject": {
        "reference": "Patient/c8f6a83b-060e-4359-a6c0-9f57c8623516"
      },
      "period": {
        "start": "2025-02-25T14:30:00+00:00",
        "end": "2025-02-25T14:50:00+00:00"
      },
      "length": {
        "value": 0,
        "unit": "days"
      }
    },
    "request": {
      "method": "PUT",
      "url": "Encounter/0e4847fd-32cb-4bce-a0c8-b3154135c284"
    }
  }, {
    "fullUrl": "https://madie.cms.gov/Observation/97b9b39f-3b39-48dd-89f0-a5cf3ee8b12b",
    "resource": {
      "resourceType": "Observation",
      "id": "97b9b39f-3b39-48dd-89f0-a5cf3ee8b12b",
      "meta": {
        "profile": [ "http://hl7.org/fhir/us/qicore/StructureDefinition/qicore-observation-screening-assessment" ]
      },
      "status": "final",
      "category": [ {
        "coding": [ {
          "system": "http://terminology.hl7.org/CodeSystem/observation-category",
          "code": "survey",
          "display": "Survey"
        } ]
      } ],
      "code": {
        "coding": [ {
          "system": "http://loinc.org",
          "version": "2.76",
          "code": "44261-6"
        } ]
      },
      "subject": {
        "reference": "Patient/c8f6a83b-060e-4359-a6c0-9f57c8623516"
      },
      "effectiveDateTime": "2025-02-25T14:35:00+00:00",
      "valueInteger": 10
    },
    "request": {
      "method": "PUT",
      "url": "Observation/97b9b39f-3b39-48dd-89f0-a5cf3ee8b12b"
    }
  }, {
    "fullUrl": "https://madie.cms.gov/Observation/dd2c5f90-b3b0-4376-bd72-8ecba201408e",
    "resource": {
      "resourceType": "Observation",
      "id": "dd2c5f90-b3b0-4376-bd72-8ecba201408e",
      "meta": {
        "profile": [ "http://hl7.org/fhir/us/qicore/StructureDefinition/qicore-observation-screening-assessment" ]
      },
      "status": "final",
      "category": [ {
        "coding": [ {
          "system": "http://terminology.hl7.org/CodeSystem/observation-category",
          "code": "survey",
          "display": "Survey"
        } ]
      } ],
      "code": {
        "coding": [ {
          "system": "http://loinc.org",
          "version": "2.76",
          "code": "44261-6"
        } ]
      },
      "subject": {
        "reference": "Patient/c8f6a83b-060e-4359-a6c0-9f57c8623516"
      },
      "effectiveDateTime": "2026-02-19T14:30:00+00:00",
      "valueInteger": 2
    },
    "request": {
      "method": "PUT",
      "url": "Observation/dd2c5f90-b3b0-4376-bd72-8ecba201408e"
    }
  }, {
    "fullUrl": "https://madie.cms.gov/Condition/1b99a6a5-3a03-4158-8faa-dbf2607f6568",
    "resource": {
      "resourceType": "Condition",
      "id": "1b99a6a5-3a03-4158-8faa-dbf2607f6568",
      "meta": {
        "profile": [ "http://hl7.org/fhir/us/qicore/StructureDefinition/qicore-condition-problems-health-concerns" ]
      },
      "clinicalStatus": {
        "coding": [ {
          "system": "http://terminology.hl7.org/CodeSystem/condition-clinical",
          "code": "active",
          "display": "active"
        } ]
      },
      "verificationStatus": {
        "coding": [ {
          "system": "http://terminology.hl7.org/CodeSystem/condition-ver-status",
          "code": "confirmed"
        } ]
      },
      "category": [ {
        "coding": [ {
          "system": "http://terminology.hl7.org/CodeSystem/condition-category",
          "code": "problem-list-item",
          "display": "Problem List Item"
        } ]
      } ],
      "code": {
        "coding": [ {
          "system": "http://hl7.org/fhir/sid/icd-10-cm",
          "version": "2024",
          "code": "F32.9"
        } ]
      },
      "subject": {
        "reference": "Patient/c8f6a83b-060e-4359-a6c0-9f57c8623516"
      },
      "onsetDateTime": "2025-02-25T14:35:00+00:00"
    },
    "request": {
      "method": "PUT",
      "url": "Condition/1b99a6a5-3a03-4158-8faa-dbf2607f6568"
    }
  }, {
    "fullUrl": "https://madie.cms.gov/MeasureReport/b967f42a-a844-4799-9487-4deafb827626",
    "resource": {
      "resourceType": "MeasureReport",
      "id": "b967f42a-a844-4799-9487-4deafb827626",
      "meta": {
        "profile": [ "http://hl7.org/fhir/us/cqfmeasures/StructureDefinition/test-case-cqfm" ]
      },
      "contained": [ {
        "resourceType": "Parameters",
        "id": "95e96942-93db-4f51-903a-adb7f127b046-parameters",
        "parameter": [ {
          "name": "subject",
          "valueString": "c8f6a83b-060e-4359-a6c0-9f57c8623516"
        } ]
      } ],
      "extension": [ {
        "url": "http://hl7.org/fhir/StructureDefinition/cqf-inputParameters",
        "valueReference": {
          "reference": "#95e96942-93db-4f51-903a-adb7f127b046-parameters"
        }
      }, {
        "url": "http://hl7.org/fhir/us/cqfmeasures/StructureDefinition/cqfm-testCaseDescription",
        "valueMarkdown": "Patient has a Major Depression diagnosis, an encounter with PHQ-9>9 during Denom ID period and a PHQ-9<5 during MAP. Patient passes num and falls into strat 2."
      } ],
      "modifierExtension": [ {
        "url": "http://hl7.org/fhir/us/cqfmeasures/StructureDefinition/cqfm-isTestCase",
        "valueBoolean": true
      } ],
      "status": "complete",
      "type": "individual",
      "measure": "https://madie.cms.gov/Measure/CMS159FHIRDepressionRemissionatTwelveMonths",
      "period": {
        "start": "2026-01-01",
        "end": "2026-12-31"
      },
      "group": [ {
        "id": "Group_1",
        "population": [ {
          "id": "InitialPopulation_1",
          "code": {
            "coding": [ {
              "system": "http://terminology.hl7.org/CodeSystem/measure-population",
              "code": "initial-population",
              "display": "Initial Population"
            } ]
          },
          "count": 1
        }, {
          "id": "Denominator_1",
          "code": {
            "coding": [ {
              "system": "http://terminology.hl7.org/CodeSystem/measure-population",
              "code": "denominator",
              "display": "Denominator"
            } ]
          },
          "count": 1
        }, {
          "id": "DenominatorExclusion_1",
          "code": {
            "coding": [ {
              "system": "http://terminology.hl7.org/CodeSystem/measure-population",
              "code": "denominator-exclusion",
              "display": "Denominator Exclusion"
            } ]
          },
          "count": 0
        }, {
          "id": "Numerator_1",
          "code": {
            "coding": [ {
              "system": "http://terminology.hl7.org/CodeSystem/measure-population",
              "code": "numerator",
              "display": "Numerator"
            } ]
          },
          "count": 1
        } ],
        "measureScore": {
          "value": 1.0
        }
      } ],
      "evaluatedResource": [ {
        "reference": "Patient/c8f6a83b-060e-4359-a6c0-9f57c8623516"
      }, {
        "reference": "Encounter/0e4847fd-32cb-4bce-a0c8-b3154135c284"
      }, {
        "reference": "Observation/97b9b39f-3b39-48dd-89f0-a5cf3ee8b12b"
      }, {
        "reference": "Observation/dd2c5f90-b3b0-4376-bd72-8ecba201408e"
      }, {
        "reference": "Condition/1b99a6a5-3a03-4158-8faa-dbf2607f6568"
      } ]
    },
    "request": {
      "method": "PUT",
      "url": "MeasureReport/b967f42a-a844-4799-9487-4deafb827626"
    }
  } ]
}