{
  "resourceType": "Bundle",
  "id": "630307cd0968f801224786f4",
  "type": "transaction",
  "entry": [ {
    "fullUrl": "https://madie.cms.gov/Patient/9879bf57-839e-485e-abf6-51c93a7e31ab",
    "resource": {
      "resourceType": "Patient",
      "id": "9879bf57-839e-485e-abf6-51c93a7e31ab",
      "meta": {
        "profile": [ "http://hl7.org/fhir/us/qicore/StructureDefinition/qicore-patient" ]
      },
      "extension": [ {
        "url": "http://hl7.org/fhir/us/core/StructureDefinition/us-core-race",
        "extension": [ {
          "url": "ombCategory",
          "valueCoding": {
            "system": "urn:oid:2.16.840.1.113883.6.238",
            "code": "2106-3",
            "display": "White"
          }
        }, {
          "url": "text",
          "valueString": "White"
        } ]
      }, {
        "url": "http://hl7.org/fhir/us/core/StructureDefinition/us-core-ethnicity",
        "extension": [ {
          "url": "ombCategory",
          "valueCoding": {
            "system": "urn:oid:2.16.840.1.113883.6.238",
            "code": "2186-5",
            "display": "Not Hispanic or Latino"
          }
        }, {
          "url": "text",
          "valueString": "Not Hispanic or Latino"
        } ]
      } ],
      "identifier": [ {
        "type": {
          "coding": [ {
            "system": "http://terminology.hl7.org/CodeSystem/v2-0203",
            "code": "MR"
          } ]
        },
        "system": "https://bonnie-fhir.healthit.gov/",
        "value": "630307cd0968f801224786f4"
      } ],
      "name": [ {
        "family": "DENOMPopStrat2Pass",
        "given": [ "NoFUAssess" ]
      } ],
      "gender": "female",
      "birthDate": "1946-01-01"
    },
    "request": {
      "method": "PUT",
      "url": "Patient/9879bf57-839e-485e-abf6-51c93a7e31ab"
    }
  }, {
    "fullUrl": "https://madie.cms.gov/Encounter/2394c83e-096c-49be-9b4e-7996a43abf31",
    "resource": {
      "resourceType": "Encounter",
      "id": "2394c83e-096c-49be-9b4e-7996a43abf31",
      "meta": {
        "profile": [ "http://hl7.org/fhir/us/qicore/StructureDefinition/qicore-encounter" ]
      },
      "status": "finished",
      "class": {
        "system": "http://terminology.hl7.org/CodeSystem/v3-ActCode",
        "code": "AMB",
        "display": "ambulatory"
      },
      "type": [ {
        "coding": [ {
          "system": "http://www.ama-assn.org/go/cpt",
          "version": "2024",
          "code": "90791"
        } ]
      } ],
      "subject": {
        "reference": "Patient/9879bf57-839e-485e-abf6-51c93a7e31ab"
      },
      "period": {
        "start": "2025-02-25T14:30:00+00:00",
        "end": "2025-02-25T14:50:00+00:00"
      },
      "length": {
        "value": 0,
        "unit": "days"
      }
    },
    "request": {
      "method": "PUT",
      "url": "Encounter/2394c83e-096c-49be-9b4e-7996a43abf31"
    }
  }, {
    "fullUrl": "https://madie.cms.gov/Observation/7f2dd6cf-8188-4ba3-b959-627ae362be15",
    "resource": {
      "resourceType": "Observation",
      "id": "7f2dd6cf-8188-4ba3-b959-627ae362be15",
      "meta": {
        "profile": [ "http://hl7.org/fhir/us/qicore/StructureDefinition/qicore-observation-screening-assessment" ]
      },
      "status": "final",
      "category": [ {
        "coding": [ {
          "system": "http://terminology.hl7.org/CodeSystem/observation-category",
          "code": "survey",
          "display": "Survey"
        } ]
      } ],
      "code": {
        "coding": [ {
          "system": "http://loinc.org",
          "version": "2.76",
          "code": "44261-6"
        } ]
      },
      "subject": {
        "reference": "Patient/9879bf57-839e-485e-abf6-51c93a7e31ab"
      },
      "effectiveDateTime": "2025-02-25T14:35:00+00:00",
      "valueInteger": 20
    },
    "request": {
      "method": "PUT",
      "url": "Observation/7f2dd6cf-8188-4ba3-b959-627ae362be15"
    }
  }, {
    "fullUrl": "https://madie.cms.gov/Condition/524cd3bd-dbf0-4598-a07c-ceaf6ba84ef4",
    "resource": {
      "resourceType": "Condition",
      "id": "524cd3bd-dbf0-4598-a07c-ceaf6ba84ef4",
      "meta": {
        "profile": [ "http://hl7.org/fhir/us/qicore/StructureDefinition/qicore-condition-problems-health-concerns" ]
      },
      "clinicalStatus": {
        "coding": [ {
          "system": "http://terminology.hl7.org/CodeSystem/condition-clinical",
          "code": "active",
          "display": "active"
        } ]
      },
      "verificationStatus": {
        "coding": [ {
          "system": "http://terminology.hl7.org/CodeSystem/condition-ver-status",
          "code": "confirmed"
        } ]
      },
      "category": [ {
        "coding": [ {
          "system": "http://terminology.hl7.org/CodeSystem/condition-category",
          "code": "problem-list-item",
          "display": "Problem List Item"
        } ]
      } ],
      "code": {
        "coding": [ {
          "system": "http://hl7.org/fhir/sid/icd-10-cm",
          "version": "2024",
          "code": "F32.9"
        } ]
      },
      "subject": {
        "reference": "Patient/9879bf57-839e-485e-abf6-51c93a7e31ab"
      },
      "onsetDateTime": "2025-02-25T14:30:00+00:00"
    },
    "request": {
      "method": "PUT",
      "url": "Condition/524cd3bd-dbf0-4598-a07c-ceaf6ba84ef4"
    }
  }, {
    "fullUrl": "https://madie.cms.gov/MeasureReport/0bf858fa-42ef-4255-b43d-5f7f128e79a1",
    "resource": {
      "resourceType": "MeasureReport",
      "id": "0bf858fa-42ef-4255-b43d-5f7f128e79a1",
      "meta": {
        "profile": [ "http://hl7.org/fhir/us/cqfmeasures/StructureDefinition/test-case-cqfm" ]
      },
      "contained": [ {
        "resourceType": "Parameters",
        "id": "8f5994a2-6d40-4a05-8e0d-fb1df79febca-parameters",
        "parameter": [ {
          "name": "subject",
          "valueString": "9879bf57-839e-485e-abf6-51c93a7e31ab"
        } ]
      } ],
      "extension": [ {
        "url": "http://hl7.org/fhir/StructureDefinition/cqf-inputParameters",
        "valueReference": {
          "reference": "#8f5994a2-6d40-4a05-8e0d-fb1df79febca-parameters"
        }
      }, {
        "url": "http://hl7.org/fhir/us/cqfmeasures/StructureDefinition/cqfm-testCaseDescription",
        "valueMarkdown": "Patient has a Major Depression diagnosis and PHQ-9>9 during the denom ID period. Patient had no follow up assessment before end of MAP. Patient should be in denominator for strat 2.  Note: Stratification issue."
      } ],
      "modifierExtension": [ {
        "url": "http://hl7.org/fhir/us/cqfmeasures/StructureDefinition/cqfm-isTestCase",
        "valueBoolean": true
      } ],
      "status": "complete",
      "type": "individual",
      "measure": "https://madie.cms.gov/Measure/CMS159FHIRDepressionRemissionatTwelveMonths",
      "period": {
        "start": "2026-01-01",
        "end": "2026-12-31"
      },
      "group": [ {
        "id": "Group_1",
        "population": [ {
          "id": "InitialPopulation_1",
          "code": {
            "coding": [ {
              "system": "http://terminology.hl7.org/CodeSystem/measure-population",
              "code": "initial-population",
              "display": "Initial Population"
            } ]
          },
          "count": 1
        }, {
          "id": "Denominator_1",
          "code": {
            "coding": [ {
              "system": "http://terminology.hl7.org/CodeSystem/measure-population",
              "code": "denominator",
              "display": "Denominator"
            } ]
          },
          "count": 1
        }, {
          "id": "DenominatorExclusion_1",
          "code": {
            "coding": [ {
              "system": "http://terminology.hl7.org/CodeSystem/measure-population",
              "code": "denominator-exclusion",
              "display": "Denominator Exclusion"
            } ]
          },
          "count": 0
        }, {
          "id": "Numerator_1",
          "code": {
            "coding": [ {
              "system": "http://terminology.hl7.org/CodeSystem/measure-population",
              "code": "numerator",
              "display": "Numerator"
            } ]
          },
          "count": 0
        } ],
        "measureScore": {
          "value": 1.0
        }
      } ],
      "evaluatedResource": [ {
        "reference": "Patient/9879bf57-839e-485e-abf6-51c93a7e31ab"
      }, {
        "reference": "Encounter/2394c83e-096c-49be-9b4e-7996a43abf31"
      }, {
        "reference": "Observation/7f2dd6cf-8188-4ba3-b959-627ae362be15"
      }, {
        "reference": "Condition/524cd3bd-dbf0-4598-a07c-ceaf6ba84ef4"
      } ]
    },
    "request": {
      "method": "PUT",
      "url": "MeasureReport/0bf858fa-42ef-4255-b43d-5f7f128e79a1"
    }
  } ]
}