{
  "resourceType": "Bundle",
  "id": "6129135502c62a011f2e752c",
  "type": "transaction",
  "entry": [ {
    "fullUrl": "https://madie.cms.gov/Patient/e8e62dbf-ce54-4f04-b2d9-f574b8ded2c4",
    "resource": {
      "resourceType": "Patient",
      "id": "e8e62dbf-ce54-4f04-b2d9-f574b8ded2c4",
      "meta": {
        "profile": [ "http://hl7.org/fhir/us/qicore/StructureDefinition/qicore-patient" ]
      },
      "text": {
        "status": "generated",
        "div": "<div xmlns=\"http://www.w3.org/1999/xhtml\"><div class=\"hapiHeaderText\"> CMOdurDiffEDTestOccur <b>DENEXPASS </b></div><table class=\"hapiPropertyTable\"><tbody><tr><td>Identifier</td><td>8ca2b35206ea67637d1637609c7d085ff3b14c20bc19eae5b26464da239a5345</td></tr><tr><td>Date of birth</td><td><span>21 August 1994</span></td></tr></tbody></table></div>"
      },
      "extension": [ {
        "url": "http://hl7.org/fhir/us/core/StructureDefinition/us-core-race",
        "extension": [ {
          "url": "ombCategory",
          "valueCoding": {
            "system": "urn:oid:2.16.840.1.113883.6.238",
            "code": "1002-5",
            "display": "American Indian or Alaska Native",
            "userSelected": true
          }
        }, {
          "url": "text",
          "valueString": "American Indian or Alaska Native"
        } ]
      }, {
        "url": "http://hl7.org/fhir/us/core/StructureDefinition/us-core-ethnicity",
        "extension": [ {
          "url": "ombCategory",
          "valueCoding": {
            "system": "urn:oid:2.16.840.1.113883.6.238",
            "code": "2135-2",
            "display": "Hispanic or Latino",
            "userSelected": true
          }
        }, {
          "url": "text",
          "valueString": "Hispanic or Latino"
        } ]
      } ],
      "identifier": [ {
        "type": {
          "coding": [ {
            "system": "http://terminology.hl7.org/CodeSystem/v2-0203",
            "code": "MR"
          } ]
        },
        "system": "https://bonnie-fhir.healthit.gov/",
        "value": "6129135502c62a011f2e752c"
      } ],
      "active": true,
      "name": [ {
        "use": "usual",
        "family": "DENEXFail",
        "given": [ "CMOdurDiffEDTestOccur" ]
      } ],
      "gender": "male",
      "birthDate": "1995-08-21"
    },
    "request": {
      "method": "PUT",
      "url": "Patient/e8e62dbf-ce54-4f04-b2d9-f574b8ded2c4"
    }
  }, {
    "fullUrl": "https://madie.cms.gov/Encounter/332b060b-fd2f-49b1-8281-2fe082e73b18",
    "resource": {
      "resourceType": "Encounter",
      "id": "332b060b-fd2f-49b1-8281-2fe082e73b18",
      "meta": {
        "profile": [ "http://hl7.org/fhir/us/qicore/StructureDefinition/qicore-encounter" ]
      },
      "status": "finished",
      "class": {
        "system": "http://terminology.hl7.org/CodeSystem/v3-ActCode",
        "code": "EMER",
        "display": "emergency",
        "userSelected": true
      },
      "type": [ {
        "coding": [ {
          "system": "http://snomed.info/sct",
          "code": "4525004"
        } ]
      } ],
      "subject": {
        "reference": "Patient/e8e62dbf-ce54-4f04-b2d9-f574b8ded2c4"
      },
      "period": {
        "start": "2026-10-10T12:31:00+00:00",
        "end": "2026-10-10T12:46:00.000+00:00"
      },
      "length": {
        "value": 0,
        "unit": "days"
      }
    },
    "request": {
      "method": "PUT",
      "url": "Encounter/332b060b-fd2f-49b1-8281-2fe082e73b18"
    }
  }, {
    "fullUrl": "https://madie.cms.gov/Encounter/f2c8207a-da91-475f-b2a4-91e7c3584908",
    "resource": {
      "resourceType": "Encounter",
      "id": "f2c8207a-da91-475f-b2a4-91e7c3584908",
      "meta": {
        "profile": [ "http://hl7.org/fhir/us/qicore/StructureDefinition/qicore-encounter" ]
      },
      "status": "finished",
      "class": {
        "system": "http://terminology.hl7.org/CodeSystem/v3-ActCode",
        "code": "EMER",
        "display": "emergency",
        "userSelected": true
      },
      "type": [ {
        "coding": [ {
          "system": "http://snomed.info/sct",
          "code": "4525004"
        } ]
      } ],
      "subject": {
        "reference": "Patient/e8e62dbf-ce54-4f04-b2d9-f574b8ded2c4"
      },
      "period": {
        "start": "2026-10-11T10:30:00+00:00",
        "end": "2026-10-11T11:30:00.000+00:00"
      },
      "length": {
        "value": 0,
        "unit": "days"
      }
    },
    "request": {
      "method": "PUT",
      "url": "Encounter/f2c8207a-da91-475f-b2a4-91e7c3584908"
    }
  }, {
    "fullUrl": "https://madie.cms.gov/Encounter/366d6a87-e083-470f-80be-9cfeb3ff7406",
    "resource": {
      "resourceType": "Encounter",
      "id": "366d6a87-e083-470f-80be-9cfeb3ff7406",
      "meta": {
        "profile": [ "http://hl7.org/fhir/us/qicore/StructureDefinition/qicore-encounter" ]
      },
      "status": "finished",
      "class": {
        "system": "http://terminology.hl7.org/CodeSystem/v3-ActCode",
        "code": "IMP",
        "display": "inpatient encounter",
        "userSelected": true
      },
      "type": [ {
        "coding": [ {
          "system": "http://snomed.info/sct",
          "code": "32485007"
        } ]
      } ],
      "subject": {
        "reference": "Patient/e8e62dbf-ce54-4f04-b2d9-f574b8ded2c4"
      },
      "period": {
        "start": "2026-10-11T12:30:00+00:00",
        "end": "2026-10-13T11:30:00.000+00:00"
      },
      "length": {
        "value": 2,
        "unit": "days"
      },
      "diagnosis": [ {
        "condition": {
          "reference": "Condition/58c2ad0a-a76f-46d6-8ddd-796cde6c86ff"
        },
        "use": {
          "coding": [ {
            "system": "http://terminology.hl7.org/CodeSystem/diagnosis-role",
            "code": "billing",
            "display": "Billing"
          } ]
        },
        "rank": 1
      } ]
    },
    "request": {
      "method": "PUT",
      "url": "Encounter/366d6a87-e083-470f-80be-9cfeb3ff7406"
    }
  }, {
    "fullUrl": "https://madie.cms.gov/claim/5ca62962b8484628b8de1ec5",
    "resource": {
      "resourceType": "Claim",
      "id": "5ca62962b8484628b8de1ec5",
      "meta": {
        "profile": [ "http://hl7.org/fhir/us/qicore/StructureDefinition/qicore-claim" ]
      },
      "status": "active",
      "type": {
        "coding": [ {
          "system": "http://terminology.hl7.org/CodeSystem/claim-type",
          "code": "institutional"
        } ]
      },
      "use": "claim",
      "patient": {
        "reference": "Patient/d170a0a8-b5ad-4303-b6df-e304dd5f92ad"
      },
      "created": "2026-12-01",
      "provider": {
        "reference": "Practitioner/practitioner-123456"
      },
      "priority": {
        "coding": [ {
          "system": "http://terminology.hl7.org/CodeSystem/processpriority",
          "code": "normal"
        } ]
      },
      "diagnosis": [ {
        "sequence": 1,
        "diagnosisCodeableConcept": {
          "coding": [ {
            "system": "http://hl7.org/fhir/sid/icd-10-cm",
            "code": "I63.00"
          } ]
        },
        "type": [ {
          "coding": [ {
            "system": "http://terminology.hl7.org/CodeSystem/ex-diagnosistype",
            "code": "principal"
          } ]
        } ]
      } ],
      "insurance": [ {
        "sequence": 1,
        "focal": true,
        "coverage": {
          "reference": "Coverage/5fa041661c76ba66d9959367"
        }
      } ],
      "item": [ {
        "sequence": 1,
        "diagnosisSequence": [ 1 ],
        "productOrService": {
          "coding": [ {
            "system": "http://terminology.hl7.org/CodeSystem/ex-USCLS",
            "code": "99555"
          } ]
        },
        "encounter": [ {
          "reference": "Encounter/366d6a87-e083-470f-80be-9cfeb3ff7406"
        } ]
      } ]
    },
    "request": {
      "method": "PUT",
      "url": "Claim/5ca62962b8484628b8de1ec5"
    }
  }, {
    "fullUrl": "https://madie.cms.gov/ServiceRequest/d288742c-9565-40ab-be15-9390677c2087",
    "resource": {
      "resourceType": "ServiceRequest",
      "id": "d288742c-9565-40ab-be15-9390677c2087",
      "meta": {
        "profile": [ "http://hl7.org/fhir/us/qicore/StructureDefinition/qicore-servicerequest" ]
      },
      "status": "active",
      "intent": "order",
      "code": {
        "coding": [ {
          "system": "http://snomed.info/sct",
          "code": "133918004"
        } ]
      },
      "subject": {
        "reference": "Patient/e8e62dbf-ce54-4f04-b2d9-f574b8ded2c4"
      },
      "authoredOn": "2026-10-11T12:31:00+00:00"
    },
    "request": {
      "method": "PUT",
      "url": "ServiceRequest/d288742c-9565-40ab-be15-9390677c2087"
    }
  }, {
    "fullUrl": "https://madie.cms.gov/Condition/58c2ad0a-a76f-46d6-8ddd-796cde6c86ff",
    "resource": {
      "resourceType": "Condition",
      "id": "58c2ad0a-a76f-46d6-8ddd-796cde6c86ff",
      "meta": {
        "profile": [ "http://hl7.org/fhir/us/qicore/StructureDefinition/qicore-condition" ]
      },
      "clinicalStatus": {
        "coding": [ {
          "system": "http://terminology.hl7.org/CodeSystem/condition-clinical",
          "code": "active"
        } ]
      },
      "verificationStatus": {
        "coding": [ {
          "system": "http://terminology.hl7.org/CodeSystem/condition-ver-status",
          "code": "confirmed"
        } ]
      },
      "category": [ {
        "coding": [ {
          "system": "http://terminology.hl7.org/CodeSystem/condition-category",
          "code": "encounter-diagnosis",
          "display": "Encounter Diagnosis"
        } ]
      } ],
      "code": {
        "coding": [ {
          "system": "http://snomed.info/sct",
          "version": "2020-09",
          "code": "111297002",
          "display": "Nonparalytic stroke (disorder)",
          "userSelected": true
        } ]
      },
      "subject": {
        "reference": "Patient/e8e62dbf-ce54-4f04-b2d9-f574b8ded2c4"
      },
      "recordedDate": "2026-07-14T08:00:00+00:00"
    },
    "request": {
      "method": "PUT",
      "url": "Condition/58c2ad0a-a76f-46d6-8ddd-796cde6c86ff"
    }
  }, {
    "fullUrl": "https://madie.cms.gov/Coverage/fe3e5485-c8db-40ca-8dea-abfc0dade3b0",
    "resource": {
      "resourceType": "Coverage",
      "id": "fe3e5485-c8db-40ca-8dea-abfc0dade3b0",
      "meta": {
        "profile": [ "http://hl7.org/fhir/us/qicore/StructureDefinition/qicore-coverage" ]
      },
      "status": "active",
      "beneficiary": {
        "reference": "Patient/e8e62dbf-ce54-4f04-b2d9-f574b8ded2c4"
      },
      "payor": [ {
        "reference": "Organization/8652c690-5902-43ef-8ad9-8aabb878f497"
      } ]
    },
    "request": {
      "method": "PUT",
      "url": "Coverage/fe3e5485-c8db-40ca-8dea-abfc0dade3b0"
    }
  }, {
    "fullUrl": "https://madie.cms.gov/Organization/8652c690-5902-43ef-8ad9-8aabb878f497",
    "resource": {
      "resourceType": "Organization",
      "id": "8652c690-5902-43ef-8ad9-8aabb878f497",
      "meta": {
        "profile": [ "http://hl7.org/fhir/us/qicore/StructureDefinition/qicore-organization" ]
      },
      "identifier": [ {
        "use": "temp",
        "system": "urn:oid:2.16.840.1.113883.4.4",
        "value": "21-3259825"
      } ],
      "active": true,
      "type": [ {
        "coding": [ {
          "system": "http://terminology.hl7.org/CodeSystem/organization-type",
          "code": "pay",
          "display": "Payer"
        } ]
      } ],
      "name": "Blue Cross Blue Shield of Texas",
      "telecom": [ {
        "system": "phone",
        "value": "(+1) 972-766-6900"
      } ],
      "address": [ {
        "use": "billing",
        "type": "postal",
        "line": [ "P.O. Box 660044" ],
        "city": "Dallas",
        "state": "TX",
        "postalCode": "75266-0044",
        "country": "USA"
      } ]
    },
    "request": {
      "method": "PUT",
      "url": "Organization/8652c690-5902-43ef-8ad9-8aabb878f497"
    }
  }, {
    "fullUrl": "https://madie.cms.gov/MeasureReport/3f95f0cc-01c5-48cf-89b5-41771dad5b4e",
    "resource": {
      "resourceType": "MeasureReport",
      "id": "3f95f0cc-01c5-48cf-89b5-41771dad5b4e",
      "meta": {
        "profile": [ "http://hl7.org/fhir/us/cqfmeasures/StructureDefinition/test-case-cqfm" ]
      },
      "contained": [ {
        "resourceType": "Parameters",
        "id": "41270bd9-3656-4957-ade1-440b06cd5108-parameters",
        "parameter": [ {
          "name": "subject",
          "valueString": "e8e62dbf-ce54-4f04-b2d9-f574b8ded2c4"
        } ]
      } ],
      "extension": [ {
        "url": "http://hl7.org/fhir/StructureDefinition/cqf-inputParameters",
        "valueReference": {
          "reference": "#41270bd9-3656-4957-ade1-440b06cd5108-parameters"
        }
      }, {
        "url": "http://hl7.org/fhir/us/cqfmeasures/StructureDefinition/cqfm-testCaseDescription",
        "valueMarkdown": "Patient receives CMO during inpatient encounter. No ED.  Observation ends 1 min before IP start. Testing day of operator with HospitalizationWithObservation function."
      } ],
      "modifierExtension": [ {
        "url": "http://hl7.org/fhir/us/cqfmeasures/StructureDefinition/cqfm-isTestCase",
        "valueBoolean": true
      } ],
      "status": "complete",
      "type": "individual",
      "measure": "https://madie.cms.gov/Measure/CMS104FHIRSTKDCAntithrombotic",
      "period": {
        "start": "2026-01-01",
        "end": "2026-12-31"
      },
      "group": [ {
        "id": "Group_1",
        "population": [ {
          "id": "InitialPopulation_1",
          "code": {
            "coding": [ {
              "system": "http://terminology.hl7.org/CodeSystem/measure-population",
              "code": "initial-population",
              "display": "Initial Population"
            } ]
          },
          "count": 1
        }, {
          "id": "Denominator_1",
          "code": {
            "coding": [ {
              "system": "http://terminology.hl7.org/CodeSystem/measure-population",
              "code": "denominator",
              "display": "Denominator"
            } ]
          },
          "count": 1
        }, {
          "id": "DenominatorExclusion_1",
          "code": {
            "coding": [ {
              "system": "http://terminology.hl7.org/CodeSystem/measure-population",
              "code": "denominator-exclusion",
              "display": "Denominator Exclusion"
            } ]
          },
          "count": 1
        }, {
          "id": "Numerator_1",
          "code": {
            "coding": [ {
              "system": "http://terminology.hl7.org/CodeSystem/measure-population",
              "code": "numerator",
              "display": "Numerator"
            } ]
          },
          "count": 0
        }, {
          "id": "DenominatorException_1",
          "code": {
            "coding": [ {
              "system": "http://terminology.hl7.org/CodeSystem/measure-population",
              "code": "denominator-exception",
              "display": "Denominator Exception"
            } ]
          },
          "count": 0
        } ],
        "measureScore": {
          "value": 0.0
        }
      } ],
      "evaluatedResource": [ {
        "reference": "Patient/e8e62dbf-ce54-4f04-b2d9-f574b8ded2c4"
      }, {
        "reference": "Encounter/332b060b-fd2f-49b1-8281-2fe082e73b18"
      }, {
        "reference": "Encounter/f2c8207a-da91-475f-b2a4-91e7c3584908"
      }, {
        "reference": "Encounter/366d6a87-e083-470f-80be-9cfeb3ff7406"
      }, {
        "reference": "Claim/5ca62962b8484628b8de1ec5"
      }, {
        "reference": "ServiceRequest/d288742c-9565-40ab-be15-9390677c2087"
      }, {
        "reference": "Condition/58c2ad0a-a76f-46d6-8ddd-796cde6c86ff"
      }, {
        "reference": "Coverage/fe3e5485-c8db-40ca-8dea-abfc0dade3b0"
      }, {
        "reference": "Organization/8652c690-5902-43ef-8ad9-8aabb878f497"
      } ]
    },
    "request": {
      "method": "PUT",
      "url": "MeasureReport/3f95f0cc-01c5-48cf-89b5-41771dad5b4e"
    }
  } ]
}