{
  "resourceType": "Bundle",
  "id": "63487c2f0968f8012254018f",
  "type": "transaction",
  "entry": [ {
    "fullUrl": "https://madie.cms.gov/Patient/84cf7374-22c5-4f60-a594-f70020252dae",
    "resource": {
      "resourceType": "Patient",
      "id": "84cf7374-22c5-4f60-a594-f70020252dae",
      "meta": {
        "profile": [ "http://hl7.org/fhir/us/qicore/StructureDefinition/qicore-patient" ]
      },
      "text": {
        "status": "generated",
        "div": "<div xmlns=\"http://www.w3.org/1999/xhtml\"><div class=\"hapiHeaderText\">AssessPreTerm0RelDate42wksB4DelivDate <b>DENPASS </b></div><table class=\"hapiPropertyTable\"><tbody><tr><td>Identifier</td><td>ae2c858214ff9b1ffdc193923955b0f25c757408279ae2f0e7ea89ca980dbad8</td></tr><tr><td>Date of birth</td><td><span>14 February 1985</span></td></tr></tbody></table></div>"
      },
      "extension": [ {
        "url": "http://hl7.org/fhir/us/core/StructureDefinition/us-core-race",
        "extension": [ {
          "url": "ombCategory",
          "valueCoding": {
            "system": "urn:oid:2.16.840.1.113883.6.238",
            "code": "1002-5",
            "display": "American Indian or Alaska Native",
            "userSelected": true
          }
        }, {
          "url": "text",
          "valueString": "American Indian or Alaska Native"
        } ]
      }, {
        "url": "http://hl7.org/fhir/us/core/StructureDefinition/us-core-ethnicity",
        "extension": [ {
          "url": "ombCategory",
          "valueCoding": {
            "system": "urn:oid:2.16.840.1.113883.6.238",
            "code": "2135-2",
            "display": "Hispanic or Latino",
            "userSelected": true
          }
        }, {
          "url": "text",
          "valueString": "Hispanic or Latino"
        } ]
      } ],
      "identifier": [ {
        "type": {
          "coding": [ {
            "system": "http://terminology.hl7.org/CodeSystem/v2-0203",
            "code": "MR"
          } ]
        },
        "system": "https://bonnie-fhir.healthit.gov/",
        "value": "63487c2f0968f8012254018f"
      } ],
      "active": true,
      "name": [ {
        "use": "usual",
        "family": "DENPass",
        "given": [ "AssessPreTerm0RelDate42wksB4DelivDate" ]
      } ],
      "gender": "female",
      "birthDate": "1998-02-14"
    },
    "request": {
      "method": "PUT",
      "url": "Patient/84cf7374-22c5-4f60-a594-f70020252dae"
    }
  }, {
    "fullUrl": "https://madie.cms.gov/Observation/74fa0952-bfac-41ee-b3f8-a60d7b87517b",
    "resource": {
      "resourceType": "Observation",
      "id": "74fa0952-bfac-41ee-b3f8-a60d7b87517b",
      "meta": {
        "profile": [ "http://hl7.org/fhir/us/qicore/StructureDefinition/qicore-simple-observation" ]
      },
      "status": "final",
      "category": [ {
        "coding": [ {
          "system": "http://terminology.hl7.org/CodeSystem/observation-category",
          "code": "exam",
          "display": "exam",
          "userSelected": true
        } ]
      } ],
      "code": {
        "coding": [ {
          "system": "http://loinc.org",
          "code": "11637-6"
        } ]
      },
      "subject": {
        "reference": "Patient/84cf7374-22c5-4f60-a594-f70020252dae"
      },
      "effectiveDateTime": "2025-08-19T20:00:00.000+00:00",
      "valueInteger": 0
    },
    "request": {
      "method": "PUT",
      "url": "Observation/74fa0952-bfac-41ee-b3f8-a60d7b87517b"
    }
  }, {
    "fullUrl": "https://madie.cms.gov/Observation/1cde7cec-ed97-4f87-8c2d-d4f20bda35df",
    "resource": {
      "resourceType": "Observation",
      "id": "1cde7cec-ed97-4f87-8c2d-d4f20bda35df",
      "meta": {
        "profile": [ "http://hl7.org/fhir/us/qicore/StructureDefinition/qicore-simple-observation" ]
      },
      "status": "final",
      "category": [ {
        "coding": [ {
          "system": "http://terminology.hl7.org/CodeSystem/observation-category",
          "code": "exam",
          "display": "exam",
          "userSelected": true
        } ]
      } ],
      "code": {
        "coding": [ {
          "system": "http://loinc.org",
          "code": "11639-2"
        } ]
      },
      "subject": {
        "reference": "Patient/84cf7374-22c5-4f60-a594-f70020252dae"
      },
      "effectiveDateTime": "2025-09-19T09:00:00.000+00:00",
      "valueInteger": 0
    },
    "request": {
      "method": "PUT",
      "url": "Observation/1cde7cec-ed97-4f87-8c2d-d4f20bda35df"
    }
  }, {
    "fullUrl": "https://madie.cms.gov/Observation/ee4c3e15-a613-48d3-bac7-50fe144d9432",
    "resource": {
      "resourceType": "Observation",
      "id": "ee4c3e15-a613-48d3-bac7-50fe144d9432",
      "meta": {
        "profile": [ "http://hl7.org/fhir/us/qicore/StructureDefinition/qicore-simple-observation" ]
      },
      "status": "final",
      "category": [ {
        "coding": [ {
          "system": "http://terminology.hl7.org/CodeSystem/observation-category",
          "code": "exam",
          "display": "exam",
          "userSelected": true
        } ]
      } ],
      "code": {
        "coding": [ {
          "system": "http://loinc.org",
          "code": "11884-4"
        } ]
      },
      "subject": {
        "reference": "Patient/84cf7374-22c5-4f60-a594-f70020252dae"
      },
      "effectiveDateTime": "2026-06-08T20:00:00.000+00:00",
      "valueQuantity": {
        "value": 37,
        "system": "http://unitsofmeasure.org",
        "code": "wk"
      }
    },
    "request": {
      "method": "PUT",
      "url": "Observation/ee4c3e15-a613-48d3-bac7-50fe144d9432"
    }
  }, {
    "fullUrl": "https://madie.cms.gov/Observation/e37ea77e-7b91-4d7b-b577-e634419b382d",
    "resource": {
      "resourceType": "Observation",
      "id": "e37ea77e-7b91-4d7b-b577-e634419b382d",
      "meta": {
        "profile": [ "http://hl7.org/fhir/us/qicore/StructureDefinition/qicore-simple-observation" ]
      },
      "status": "final",
      "category": [ {
        "coding": [ {
          "system": "http://terminology.hl7.org/CodeSystem/observation-category",
          "code": "exam",
          "display": "exam",
          "userSelected": true
        } ]
      } ],
      "code": {
        "coding": [ {
          "system": "http://loinc.org",
          "code": "93857-1"
        } ]
      },
      "subject": {
        "reference": "Patient/84cf7374-22c5-4f60-a594-f70020252dae"
      },
      "effectiveDateTime": "2026-06-08T20:00:00.000+00:00",
      "valueDateTime": "2026-06-08T20:00:00.000+00:00"
    },
    "request": {
      "method": "PUT",
      "url": "Observation/e37ea77e-7b91-4d7b-b577-e634419b382d"
    }
  }, {
    "fullUrl": "https://madie.cms.gov/Encounter/17a0ec73-a749-4981-a8f2-74150f8c1a69",
    "resource": {
      "resourceType": "Encounter",
      "id": "17a0ec73-a749-4981-a8f2-74150f8c1a69",
      "meta": {
        "profile": [ "http://hl7.org/fhir/us/qicore/StructureDefinition/qicore-encounter" ]
      },
      "status": "finished",
      "class": {
        "system": "http://terminology.hl7.org/CodeSystem/v3-ActCode",
        "code": "IMP",
        "display": "inpatient encounter"
      },
      "type": [ {
        "coding": [ {
          "system": "http://snomed.info/sct",
          "code": "8715000"
        } ]
      } ],
      "subject": {
        "reference": "Patient/84cf7374-22c5-4f60-a594-f70020252dae"
      },
      "period": {
        "start": "2026-06-08T08:00:00.000+00:00",
        "end": "2026-06-10T08:15:00.000+00:00"
      },
      "length": {
        "value": 2,
        "unit": "days"
      },
      "reasonReference": [ {
        "reference": "Condition/ede6d214-b08c-4829-9f0f-f7a5077a8042"
      } ]
    },
    "request": {
      "method": "PUT",
      "url": "Encounter/17a0ec73-a749-4981-a8f2-74150f8c1a69"
    }
  }, {
    "fullUrl": "https://madie.cms.gov/Procedure/707883df-cd30-4e22-af8f-80523291f876",
    "resource": {
      "resourceType": "Procedure",
      "id": "707883df-cd30-4e22-af8f-80523291f876",
      "meta": {
        "profile": [ "http://hl7.org/fhir/us/qicore/StructureDefinition/qicore-procedure" ]
      },
      "extension": [ {
        "url": "http://hl7.org/fhir/us/qicore/StructureDefinition/qicore-recorded",
        "valueDateTime": "2014-04-05T13:35:00.000+00:00"
      } ],
      "status": "completed",
      "code": {
        "coding": [ {
          "system": "http://www.cms.gov/Medicare/Coding/ICD10",
          "code": "10D00Z0"
        }, {
          "system": "http://snomed.info/sct",
          "code": "4504004"
        } ]
      },
      "subject": {
        "reference": "Patient/84cf7374-22c5-4f60-a594-f70020252dae"
      },
      "performedPeriod": {
        "start": "2026-06-08T20:00:00.000+00:00",
        "end": "2026-06-08T20:15:00.000+00:00"
      }
    },
    "request": {
      "method": "PUT",
      "url": "Procedure/707883df-cd30-4e22-af8f-80523291f876"
    }
  }, {
    "fullUrl": "https://madie.cms.gov/Condition/ede6d214-b08c-4829-9f0f-f7a5077a8042",
    "resource": {
      "resourceType": "Condition",
      "id": "ede6d214-b08c-4829-9f0f-f7a5077a8042",
      "meta": {
        "profile": [ "http://hl7.org/fhir/us/qicore/StructureDefinition/qicore-condition-encounter-diagnosis" ]
      },
      "category": [ {
        "coding": [ {
          "system": "http://terminology.hl7.org/CodeSystem/condition-category",
          "code": "encounter-diagnosis",
          "display": "Encounter Diagnosis"
        } ]
      } ],
      "code": {
        "coding": [ {
          "system": "http://snomed.info/sct",
          "version": "2022-09",
          "code": "169826009",
          "display": "Single live birth from singleton pregnancy (finding)",
          "userSelected": true
        } ]
      },
      "subject": {
        "reference": "Patient/84cf7374-22c5-4f60-a594-f70020252dae"
      },
      "encounter": {
        "reference": "Encounter/17a0ec73-a749-4981-a8f2-74150f8c1a69"
      },
      "recordedDate": "2026-10-20T08:00:00.000+00:00"
    },
    "request": {
      "method": "PUT",
      "url": "Condition/ede6d214-b08c-4829-9f0f-f7a5077a8042"
    }
  }, {
    "fullUrl": "https://madie.cms.gov/Coverage/95d0cb1d-622e-4b1e-8864-b4c96744c3fe",
    "resource": {
      "resourceType": "Coverage",
      "id": "95d0cb1d-622e-4b1e-8864-b4c96744c3fe",
      "meta": {
        "profile": [ "http://hl7.org/fhir/us/qicore/StructureDefinition/qicore-coverage" ]
      },
      "status": "active",
      "subscriberId": "523435",
      "beneficiary": {
        "reference": "Patient/84cf7374-22c5-4f60-a594-f70020252dae"
      },
      "relationship": {
        "coding": [ {
          "system": "http://terminology.hl7.org/CodeSystem/subscriber-relationship",
          "code": "self"
        } ]
      },
      "payor": [ {
        "reference": "Organization/871396af-4869-46d2-b0f5-8a714f75e544"
      } ]
    },
    "request": {
      "method": "PUT",
      "url": "Coverage/95d0cb1d-622e-4b1e-8864-b4c96744c3fe"
    }
  }, {
    "fullUrl": "https://madie.cms.gov/Organization/871396af-4869-46d2-b0f5-8a714f75e544",
    "resource": {
      "resourceType": "Organization",
      "id": "871396af-4869-46d2-b0f5-8a714f75e544",
      "meta": {
        "profile": [ "http://hl7.org/fhir/us/qicore/StructureDefinition/qicore-organization" ]
      },
      "identifier": [ {
        "use": "temp",
        "system": "urn:oid:2.16.840.1.113883.4.4",
        "value": "21-3259825"
      } ],
      "active": true,
      "type": [ {
        "coding": [ {
          "system": "http://terminology.hl7.org/CodeSystem/organization-type",
          "code": "pay",
          "display": "Payer"
        } ]
      } ],
      "name": "Blue Cross Blue Shield of Texas",
      "telecom": [ {
        "system": "phone",
        "value": "(+1) 972-766-6900"
      } ],
      "address": [ {
        "use": "billing",
        "type": "postal",
        "line": [ "P.O. Box 660044" ],
        "city": "Dallas",
        "state": "TX",
        "postalCode": "75266-0044",
        "country": "USA"
      } ]
    },
    "request": {
      "method": "PUT",
      "url": "Organization/871396af-4869-46d2-b0f5-8a714f75e544"
    }
  }, {
    "fullUrl": "https://madie.cms.gov/Practitioner/0c992349-b79e-42ee-85db-a8de4e28fb7c",
    "resource": {
      "resourceType": "Practitioner",
      "id": "0c992349-b79e-42ee-85db-a8de4e28fb7c",
      "meta": {
        "profile": [ "http://hl7.org/fhir/us/qicore/StructureDefinition/qicore-practitioner" ]
      },
      "identifier": [ {
        "system": "http://hl7.org/fhir/sid/us-npi",
        "value": "1234567890"
      } ],
      "name": [ {
        "family": "Evil",
        "prefix": [ "Dr" ]
      } ]
    },
    "request": {
      "method": "PUT",
      "url": "Practitioner/0c992349-b79e-42ee-85db-a8de4e28fb7c"
    }
  }, {
    "fullUrl": "https://madie.cms.gov/MeasureReport/38163ba2-14c7-4420-8552-3234ec9b607c",
    "resource": {
      "resourceType": "MeasureReport",
      "id": "38163ba2-14c7-4420-8552-3234ec9b607c",
      "meta": {
        "profile": [ "http://hl7.org/fhir/us/cqfmeasures/StructureDefinition/test-case-cqfm" ]
      },
      "contained": [ {
        "resourceType": "Parameters",
        "id": "8f6c495e-8619-4e16-a397-99d018aad622-parameters",
        "parameter": [ {
          "name": "subject",
          "valueString": "84cf7374-22c5-4f60-a594-f70020252dae"
        } ]
      } ],
      "extension": [ {
        "url": "http://hl7.org/fhir/StructureDefinition/cqf-inputParameters",
        "valueReference": {
          "reference": "#8f6c495e-8619-4e16-a397-99d018aad622-parameters"
        }
      }, {
        "url": "http://hl7.org/fhir/us/cqfmeasures/StructureDefinition/cqfm-testCaseDescription",
        "valueMarkdown": "Preterm Births=0, relevant date  42weeks  and same time prior to delivery date/time\n"
      } ],
      "modifierExtension": [ {
        "url": "http://hl7.org/fhir/us/cqfmeasures/StructureDefinition/cqfm-isTestCase",
        "valueBoolean": true
      } ],
      "status": "complete",
      "type": "individual",
      "measure": "https://madie.cms.gov/Measure/CMS0334FHIRPCCesareanBirth",
      "period": {
        "start": "2026-01-01",
        "end": "2026-12-31"
      },
      "group": [ {
        "id": "Group_1",
        "population": [ {
          "id": "InitialPopulation_1",
          "code": {
            "coding": [ {
              "system": "http://terminology.hl7.org/CodeSystem/measure-population",
              "code": "initial-population",
              "display": "Initial Population"
            } ]
          },
          "count": 1
        }, {
          "id": "Denominator_1",
          "code": {
            "coding": [ {
              "system": "http://terminology.hl7.org/CodeSystem/measure-population",
              "code": "denominator",
              "display": "Denominator"
            } ]
          },
          "count": 1
        }, {
          "id": "DenominatorExclusion_1",
          "code": {
            "coding": [ {
              "system": "http://terminology.hl7.org/CodeSystem/measure-population",
              "code": "denominator-exclusion",
              "display": "Denominator Exclusion"
            } ]
          },
          "count": 0
        }, {
          "id": "Numerator_1",
          "code": {
            "coding": [ {
              "system": "http://terminology.hl7.org/CodeSystem/measure-population",
              "code": "numerator",
              "display": "Numerator"
            } ]
          },
          "count": 1
        } ],
        "measureScore": {
          "value": 0.0
        }
      } ],
      "evaluatedResource": [ {
        "reference": "Patient/84cf7374-22c5-4f60-a594-f70020252dae"
      }, {
        "reference": "Observation/74fa0952-bfac-41ee-b3f8-a60d7b87517b"
      }, {
        "reference": "Observation/1cde7cec-ed97-4f87-8c2d-d4f20bda35df"
      }, {
        "reference": "Observation/ee4c3e15-a613-48d3-bac7-50fe144d9432"
      }, {
        "reference": "Observation/e37ea77e-7b91-4d7b-b577-e634419b382d"
      }, {
        "reference": "Encounter/17a0ec73-a749-4981-a8f2-74150f8c1a69"
      }, {
        "reference": "Procedure/707883df-cd30-4e22-af8f-80523291f876"
      }, {
        "reference": "Condition/ede6d214-b08c-4829-9f0f-f7a5077a8042"
      }, {
        "reference": "Coverage/95d0cb1d-622e-4b1e-8864-b4c96744c3fe"
      }, {
        "reference": "Organization/871396af-4869-46d2-b0f5-8a714f75e544"
      }, {
        "reference": "Practitioner/0c992349-b79e-42ee-85db-a8de4e28fb7c"
      } ]
    },
    "request": {
      "method": "PUT",
      "url": "MeasureReport/38163ba2-14c7-4420-8552-3234ec9b607c"
    }
  } ]
}