{
    "entry": [
        {
            "request": {
                "method": "PUT",
                "url": "Patient/8fe101e0-1bbc-43d4-8c98-fe62f0589027"
            },
            "resource": {
                "identifier": [{
                    "system": "https://bonnie-fhir.healthit.gov/",
                    "type": {"coding": [{
                        "system": "http://terminology.hl7.org/CodeSystem/v2-0203",
                        "code": "MR"
                    }]},
                    "value": "62cc2c0567cd2f796b838aa5"
                }],
                "extension": [
                    {
                        "extension": [
                            {
                                "valueCoding": {
                                    "system": "urn:oid:2.16.840.1.113883.6.238",
                                    "code": "2054-5",
                                    "userSelected": true,
                                    "display": "Black or African American"
                                },
                                "url": "ombCategory"
                            },
                            {
                                "valueString": "Black or African American",
                                "url": "text"
                            }
                        ],
                        "url": "http://hl7.org/fhir/us/core/StructureDefinition/us-core-race"
                    },
                    {
                        "extension": [
                            {
                                "valueCoding": {
                                    "system": "urn:oid:2.16.840.1.113883.6.238",
                                    "code": "2135-2",
                                    "userSelected": true,
                                    "display": "Hispanic or Latino"
                                },
                                "url": "ombCategory"
                            },
                            {
                                "valueString": "Hispanic or Latino",
                                "url": "text"
                            }
                        ],
                        "url": "http://hl7.org/fhir/us/core/StructureDefinition/us-core-ethnicity"
                    }
                ],
                "gender": "male",
                "meta": {"profile": ["http://hl7.org/fhir/us/qicore/StructureDefinition/qicore-patient"]},
                "name": [{
                    "given": ["ElevatedBPNoIntervention"],
                    "family": "NUMERFail"
                }],
                "id": "8fe101e0-1bbc-43d4-8c98-fe62f0589027",
                "birthDate": "2005-01-31",
                "resourceType": "Patient"
            },
            "fullUrl": "https://madie.cms.gov/Patient/8fe101e0-1bbc-43d4-8c98-fe62f0589027"
        },
        {
            "request": {
                "method": "PUT",
                "url": "Encounter/a848c3c0-c8ed-4d95-b740-e88b9b472e51"
            },
            "resource": {
                "period": {
                    "start": "2026-01-01T08:00:00.000+00:00",
                    "end": "2026-01-01T11:30:00.000+00:00"
                },
                "meta": {"profile": ["http://hl7.org/fhir/us/qicore/StructureDefinition/qicore-encounter"]},
                "subject": {"reference": "Patient/8fe101e0-1bbc-43d4-8c98-fe62f0589027"},
                "id": "a848c3c0-c8ed-4d95-b740-e88b9b472e51",
                "type": [{"coding": [{
                    "system": "http://snomed.info/sct",
                    "code": "103705002",
                    "userSelected": true,
                    "display": "Patient status observation (procedure)",
                    "version": "2022-03"
                }]}],
                "class": {
                    "system": "http://terminology.hl7.org/CodeSystem/v3-ActCode",
                    "code": "AMB",
                    "display": "ambulatory"
                },
                "resourceType": "Encounter",
                "status": "finished"
            },
            "fullUrl": "https://madie.cms.gov/Encounter/a848c3c0-c8ed-4d95-b740-e88b9b472e51"
        },
        {
            "request": {
                "method": "PUT",
                "url": "Observation/f382058e-11be-4bac-a9f2-a961e5e8b7eb"
            },
            "resource": {
                "component": [
                    {
                        "code": {
                            "coding": [{
                                "system": "http://loinc.org",
                                "code": "8480-6",
                                "display": "Systolic blood pressure"
                            }],
                            "text": "Systolic blood pressure"
                        },
                        "valueQuantity": {
                            "unit": "mmHg",
                            "system": "http://unitsofmeasure.org",
                            "code": "mm[Hg]",
                            "value": 120
                        }
                    },
                    {
                        "code": {
                            "coding": [{
                                "system": "http://loinc.org",
                                "code": "8462-4",
                                "display": "Diastolic blood pressure"
                            }],
                            "text": "Diastolic blood pressure"
                        },
                        "valueQuantity": {
                            "unit": "mmHg",
                            "system": "http://unitsofmeasure.org",
                            "code": "mm[Hg]",
                            "value": 79
                        }
                    }
                ],
                "code": {
                    "coding": [{
                        "system": "http://loinc.org",
                        "code": "85354-9",
                        "display": "Blood pressure panel with all children optional"
                    }],
                    "text": "Blood pressure systolic and diastolic"
                },
                "effectiveDateTime": "2026-01-01T08:05:00.000+00:00",
                "meta": {"profile": ["http://hl7.org/fhir/us/core/StructureDefinition/us-core-blood-pressure"]},
                "subject": {"reference": "Patient/8fe101e0-1bbc-43d4-8c98-fe62f0589027"},
                "id": "f382058e-11be-4bac-a9f2-a961e5e8b7eb",
                "category": [{
                    "coding": [{
                        "system": "http://terminology.hl7.org/CodeSystem/observation-category",
                        "code": "vital-signs",
                        "display": "Vital Signs"
                    }],
                    "text": "Vital Signs"
                }],
                "resourceType": "Observation",
                "status": "final"
            },
            "fullUrl": "https://madie.cms.gov/Observation/f382058e-11be-4bac-a9f2-a961e5e8b7eb"
        },
        {
            "request": {
                "method": "PUT",
                "url": "Coverage/e3abc9c9-19e4-40d0-ba9e-880807c608ad"
            },
            "resource": {
                "payor": [{"reference": "Organization/aef74a3a-3c5f-46c3-968e-6774a837ab1f"}],
                "beneficiary": {"reference": "Patient/8fe101e0-1bbc-43d4-8c98-fe62f0589027"},
                "meta": {"profile": ["http://hl7.org/fhir/us/qicore/StructureDefinition/qicore-coverage"]},
                "id": "e3abc9c9-19e4-40d0-ba9e-880807c608ad",
                "resourceType": "Coverage",
                "status": "active"
            },
            "fullUrl": "https://madie.cms.gov/Coverage/e3abc9c9-19e4-40d0-ba9e-880807c608ad"
        },
        {
            "request": {
                "method": "PUT",
                "url": "Organization/aef74a3a-3c5f-46c3-968e-6774a837ab1f"
            },
            "resource": {
                "identifier": [{
                    "system": "urn:oid:2.16.840.1.113883.4.4",
                    "use": "temp",
                    "value": "21-3259825"
                }],
                "address": [{
                    "country": "USA",
                    "city": "Dallas",
                    "use": "billing",
                    "line": ["P.O. Box 660044"],
                    "postalCode": "75266-0044",
                    "state": "TX",
                    "type": "postal"
                }],
                "meta": {"profile": ["http://hl7.org/fhir/us/qicore/StructureDefinition/qicore-organization"]},
                "name": "Blue Cross Blue Shield of Texas",
                "active": true,
                "telecom": [{
                    "system": "phone",
                    "value": "(+1) 972-766-6900"
                }],
                "id": "aef74a3a-3c5f-46c3-968e-6774a837ab1f",
                "type": [{"coding": [{
                    "system": "http://terminology.hl7.org/CodeSystem/organization-type",
                    "code": "pay",
                    "display": "Payer"
                }]}],
                "resourceType": "Organization"
            },
            "fullUrl": "https://madie.cms.gov/Organization/aef74a3a-3c5f-46c3-968e-6774a837ab1f"
        },
        {
            "request": {
                "method": "PUT",
                "url": "Practitioner/4799b60f-98a2-40fe-8b6c-0dba9604258b"
            },
            "resource": {
                "identifier": [{
                    "system": "http://hl7.org/fhir/sid/us-npi",
                    "value": "123456"
                }],
                "meta": {"profile": ["http://hl7.org/fhir/us/qicore/StructureDefinition/qicore-practitioner"]},
                "name": [{
                    "prefix": ["Dr"],
                    "family": "Evil"
                }],
                "id": "4799b60f-98a2-40fe-8b6c-0dba9604258b",
                "resourceType": "Practitioner"
            },
            "fullUrl": "https://madie.cms.gov/Practitioner/4799b60f-98a2-40fe-8b6c-0dba9604258b"
        },
        {
            "request": {
                "method": "PUT",
                "url": "MeasureReport/74b1612e-733e-488a-b449-a7ae232095e3"
            },
            "resource": {
                "contained": [{
                    "parameter": [{
                        "valueString": "8fe101e0-1bbc-43d4-8c98-fe62f0589027",
                        "name": "subject"
                    }],
                    "id": "fbb04cdb-4f08-49dd-8181-a3d902482ec2-parameters",
                    "resourceType": "Parameters"
                }],
                "extension": [
                    {
                        "valueReference": {"reference": "#fbb04cdb-4f08-49dd-8181-a3d902482ec2-parameters"},
                        "url": "http://hl7.org/fhir/StructureDefinition/cqf-inputParameters"
                    },
                    {
                        "valueMarkdown": "Age 18 or older with encounter on the first day of the MP, BP reading elevated 120/79, no interventions",
                        "url": "http://hl7.org/fhir/us/cqfmeasures/StructureDefinition/cqfm-testCaseDescription"
                    }
                ],
                "period": {
                    "start": "2026-01-01",
                    "end": "2026-12-31"
                },
                "measure": "https://madie.cms.gov/Measure/CMS22FHIRPCSBPScreeningFollowUp",
                "meta": {"profile": ["http://hl7.org/fhir/us/cqfmeasures/StructureDefinition/test-case-cqfm"]},
                "modifierExtension": [{
                    "valueBoolean": true,
                    "url": "http://hl7.org/fhir/us/cqfmeasures/StructureDefinition/cqfm-isTestCase"
                }],
                "id": "74b1612e-733e-488a-b449-a7ae232095e3",
                "evaluatedResource": [
                    {"reference": "Patient/8fe101e0-1bbc-43d4-8c98-fe62f0589027"},
                    {"reference": "Encounter/a848c3c0-c8ed-4d95-b740-e88b9b472e51"},
                    {"reference": "Observation/f382058e-11be-4bac-a9f2-a961e5e8b7eb"},
                    {"reference": "Coverage/e3abc9c9-19e4-40d0-ba9e-880807c608ad"},
                    {"reference": "Organization/aef74a3a-3c5f-46c3-968e-6774a837ab1f"},
                    {"reference": "Practitioner/4799b60f-98a2-40fe-8b6c-0dba9604258b"}
                ],
                "type": "individual",
                "resourceType": "MeasureReport",
                "status": "complete",
                "group": [{
                    "id": "Group_1",
                    "measureScore": {"value": 0},
                    "population": [
                        {
                            "code": {"coding": [{
                                "system": "http://terminology.hl7.org/CodeSystem/measure-population",
                                "code": "initial-population",
                                "display": "Initial Population"
                            }]},
                            "count": 1,
                            "id": "InitialPopulation_1"
                        },
                        {
                            "code": {"coding": [{
                                "system": "http://terminology.hl7.org/CodeSystem/measure-population",
                                "code": "denominator",
                                "display": "Denominator"
                            }]},
                            "count": 1,
                            "id": "Denominator_1"
                        },
                        {
                            "code": {"coding": [{
                                "system": "http://terminology.hl7.org/CodeSystem/measure-population",
                                "code": "denominator-exclusion",
                                "display": "Denominator Exclusion"
                            }]},
                            "count": 0,
                            "id": "DenominatorExclusion_1"
                        },
                        {
                            "code": {"coding": [{
                                "system": "http://terminology.hl7.org/CodeSystem/measure-population",
                                "code": "numerator",
                                "display": "Numerator"
                            }]},
                            "count": 0,
                            "id": "Numerator_1"
                        },
                        {
                            "code": {"coding": [{
                                "system": "http://terminology.hl7.org/CodeSystem/measure-population",
                                "code": "denominator-exception",
                                "display": "Denominator Exception"
                            }]},
                            "count": 0,
                            "id": "DenominatorException_1"
                        }
                    ]
                }]
            },
            "fullUrl": "https://madie.cms.gov/MeasureReport/74b1612e-733e-488a-b449-a7ae232095e3"
        }
    ],
    "id": "62cc2c0567cd2f796b838aa5",
    "type": "transaction",
    "resourceType": "Bundle"
}