{
  "resourceType": "Bundle",
  "id": "Patient-29-DENEXFail-PalliativeCareSurveyStatusNotFinal",
  "type": "transaction",
  "entry": [ {
    "fullUrl": "https://madie.cms.gov/Patient/8fa86a00-fa67-4dd6-b2d8-6fe23edde9c7",
    "resource": {
      "resourceType": "Patient",
      "id": "8fa86a00-fa67-4dd6-b2d8-6fe23edde9c7",
      "meta": {
        "profile": [ "http://hl7.org/fhir/us/qicore/StructureDefinition/qicore-patient" ]
      },
      "extension": [ {
        "url": "http://hl7.org/fhir/us/core/StructureDefinition/us-core-race",
        "extension": [ {
          "url": "ombCategory",
          "valueCoding": {
            "system": "urn:oid:2.16.840.1.113883.6.238",
            "code": "2028-9",
            "display": "Asian"
          }
        }, {
          "url": "text",
          "valueString": "Asian"
        } ]
      }, {
        "url": "http://hl7.org/fhir/us/core/StructureDefinition/us-core-ethnicity",
        "extension": [ {
          "url": "ombCategory",
          "valueCoding": {
            "system": "urn:oid:2.16.840.1.113883.6.238",
            "code": "2135-2",
            "display": "Hispanic or Latino"
          }
        }, {
          "url": "text",
          "valueString": "Hispanic or Latino"
        } ]
      } ],
      "identifier": [ {
        "system": "http://hospital.smarthealthit.org",
        "value": "999999995"
      } ],
      "name": [ {
        "family": "Bertha",
        "given": [ "Betty" ]
      } ],
      "gender": "female",
      "birthDate": "2007-01-01"
    },
    "request": {
      "method": "PUT",
      "url": "Patient/8fa86a00-fa67-4dd6-b2d8-6fe23edde9c7"
    }
  }, {
    "fullUrl": "https://madie.cms.gov/Encounter/9d3e4ac3-a8ee-4814-b6a5-24abea3e4d31",
    "resource": {
      "resourceType": "Encounter",
      "id": "9d3e4ac3-a8ee-4814-b6a5-24abea3e4d31",
      "meta": {
        "profile": [ "http://hl7.org/fhir/us/qicore/StructureDefinition/qicore-encounter" ]
      },
      "status": "finished",
      "class": {
        "system": "http://terminology.hl7.org/CodeSystem/v3-ActCode",
        "code": "AMB",
        "display": "ambulatory"
      },
      "type": [ {
        "coding": [ {
          "system": "http://snomed.info/sct",
          "code": "185460008",
          "display": "Home visit request by patient (procedure)"
        } ]
      } ],
      "subject": {
        "reference": "Patient/8fa86a00-fa67-4dd6-b2d8-6fe23edde9c7"
      },
      "period": {
        "start": "2026-01-01T00:00:00.000+00:00",
        "end": "2026-01-01T00:15:00.000+00:00"
      }
    },
    "request": {
      "method": "PUT",
      "url": "Encounter/9d3e4ac3-a8ee-4814-b6a5-24abea3e4d31"
    }
  }, {
    "fullUrl": "https://madie.cms.gov/Condition/95e7a230-91dc-40aa-a473-ecdba7515ffa",
    "resource": {
      "resourceType": "Condition",
      "id": "95e7a230-91dc-40aa-a473-ecdba7515ffa",
      "meta": {
        "profile": [ "http://hl7.org/fhir/us/qicore/StructureDefinition/qicore-condition-encounter-diagnosis" ]
      },
      "clinicalStatus": {
        "coding": [ {
          "system": "http://terminology.hl7.org/CodeSystem/condition-clinical",
          "code": "active"
        } ]
      },
      "category": [ {
        "coding": [ {
          "system": "http://terminology.hl7.org/CodeSystem/condition-category",
          "code": "encounter-diagnosis",
          "display": "Encounter Diagnosis"
        } ]
      } ],
      "code": {
        "coding": [ {
          "system": "http://snomed.info/sct",
          "code": "102781000119107",
          "display": "Sensory neuropathy due to type 1 diabetes mellitus (disorder)"
        } ]
      },
      "subject": {
        "reference": "Patient/8fa86a00-fa67-4dd6-b2d8-6fe23edde9c7"
      },
      "onsetDateTime": "2026-01-01T23:59:00.000+00:00"
    },
    "request": {
      "method": "PUT",
      "url": "Condition/95e7a230-91dc-40aa-a473-ecdba7515ffa"
    }
  }, {
    "fullUrl": "https://madie.cms.gov/Observation/8e8181f7-ca92-411c-8410-1cbe4beb7f24",
    "resource": {
      "resourceType": "Observation",
      "id": "8e8181f7-ca92-411c-8410-1cbe4beb7f24",
      "meta": {
        "profile": [ "http://hl7.org/fhir/us/qicore/StructureDefinition/qicore-observation" ]
      },
      "status": "entered-in-error",
      "category": [ {
        "coding": [ {
          "system": "http://terminology.hl7.org/CodeSystem/observation-category",
          "code": "survey"
        } ]
      } ],
      "code": {
        "coding": [ {
          "system": "http://loinc.org",
          "code": "71007-9",
          "display": "Functional Assessment of Chronic Illness Therapy - Palliative Care Questionnaire (FACIT-Pal)"
        } ]
      },
      "subject": {
        "reference": "Patient/8fa86a00-fa67-4dd6-b2d8-6fe23edde9c7"
      },
      "effectivePeriod": {
        "start": "2025-12-31T00:00:00.000+00:00",
        "end": "2026-01-01T01:00:00.000+00:00"
      },
      "valueCodeableConcept": {
        "coding": [ {
          "system": "http://snomed.info/sct",
          "code": "373066001",
          "display": "Yes (qualifier value)"
        } ]
      }
    },
    "request": {
      "method": "PUT",
      "url": "Observation/8e8181f7-ca92-411c-8410-1cbe4beb7f24"
    }
  }, {
    "fullUrl": "https://madie.cms.gov/MeasureReport/69935bec-19a2-4fc0-bebf-28174ce7fee9",
    "resource": {
      "resourceType": "MeasureReport",
      "id": "69935bec-19a2-4fc0-bebf-28174ce7fee9",
      "meta": {
        "profile": [ "http://hl7.org/fhir/us/cqfmeasures/StructureDefinition/test-case-cqfm" ]
      },
      "contained": [ {
        "resourceType": "Parameters",
        "id": "eda39493-0f3a-4a82-83bd-c958bc98f59c-parameters",
        "parameter": [ {
          "name": "subject",
          "valueString": "8fa86a00-fa67-4dd6-b2d8-6fe23edde9c7"
        } ]
      } ],
      "extension": [ {
        "url": "http://hl7.org/fhir/StructureDefinition/cqf-inputParameters",
        "valueReference": {
          "reference": "#eda39493-0f3a-4a82-83bd-c958bc98f59c-parameters"
        }
      }, {
        "url": "http://hl7.org/fhir/us/cqfmeasures/StructureDefinition/cqfm-testCaseDescription",
        "valueMarkdown": "Palliative care survey is not final"
      } ],
      "modifierExtension": [ {
        "url": "http://hl7.org/fhir/us/cqfmeasures/StructureDefinition/cqfm-isTestCase",
        "valueBoolean": true
      } ],
      "status": "complete",
      "type": "individual",
      "measure": "https://madie.cms.gov/Measure/CMS122FHIRDiabetesAssessGreaterThan9Percent",
      "period": {
        "start": "2026-01-01",
        "end": "2026-12-31"
      },
      "group": [ {
        "id": "Group_1",
        "population": [ {
          "id": "InitialPopulation_1",
          "code": {
            "coding": [ {
              "system": "http://terminology.hl7.org/CodeSystem/measure-population",
              "code": "initial-population",
              "display": "Initial Population"
            } ]
          },
          "count": 1
        }, {
          "id": "Denominator_1",
          "code": {
            "coding": [ {
              "system": "http://terminology.hl7.org/CodeSystem/measure-population",
              "code": "denominator",
              "display": "Denominator"
            } ]
          },
          "count": 1
        }, {
          "id": "DenominatorExclusion_1",
          "code": {
            "coding": [ {
              "system": "http://terminology.hl7.org/CodeSystem/measure-population",
              "code": "denominator-exclusion",
              "display": "Denominator Exclusion"
            } ]
          },
          "count": 0
        }, {
          "id": "Numerator_1",
          "code": {
            "coding": [ {
              "system": "http://terminology.hl7.org/CodeSystem/measure-population",
              "code": "numerator",
              "display": "Numerator"
            } ]
          },
          "count": 1
        } ],
        "measureScore": {
          "value": 1.0
        }
      } ],
      "evaluatedResource": [ {
        "reference": "Patient/8fa86a00-fa67-4dd6-b2d8-6fe23edde9c7"
      }, {
        "reference": "Encounter/9d3e4ac3-a8ee-4814-b6a5-24abea3e4d31"
      }, {
        "reference": "Condition/95e7a230-91dc-40aa-a473-ecdba7515ffa"
      }, {
        "reference": "Observation/8e8181f7-ca92-411c-8410-1cbe4beb7f24"
      } ]
    },
    "request": {
      "method": "PUT",
      "url": "MeasureReport/69935bec-19a2-4fc0-bebf-28174ce7fee9"
    }
  } ]
}