{
  "resourceType": "Bundle",
  "id": "6129132302c62a011f2e5ef8",
  "type": "transaction",
  "entry": [ {
    "fullUrl": "https://madie.cms.gov/Patient/e1342986-862c-461b-8963-d545238550ab",
    "resource": {
      "resourceType": "Patient",
      "id": "e1342986-862c-461b-8963-d545238550ab",
      "meta": {
        "profile": [ "http://hl7.org/fhir/us/qicore/StructureDefinition/qicore-patient" ]
      },
      "text": {
        "status": "generated",
        "div": "<div xmlns=\"http://www.w3.org/1999/xhtml\"><div class=\"hapiHeaderText\">NoEncounter <b>IPFAIL </b></div><table class=\"hapiPropertyTable\"><tbody><tr><td>Identifier</td><td>3f8ba9c9e86d8bc227f4bde21d48d898</td></tr><tr><td>Date of birth</td><td><span>21 August 1993</span></td></tr></tbody></table></div>"
      },
      "extension": [ {
        "url": "http://hl7.org/fhir/us/core/StructureDefinition/us-core-race",
        "extension": [ {
          "url": "ombCategory",
          "valueCoding": {
            "system": "urn:oid:2.16.840.1.113883.6.238",
            "code": "1002-5",
            "display": "American Indian or Alaska Native",
            "userSelected": true
          }
        }, {
          "url": "text",
          "valueString": "American Indian or Alaska Native"
        } ]
      }, {
        "url": "http://hl7.org/fhir/us/core/StructureDefinition/us-core-ethnicity",
        "extension": [ {
          "url": "ombCategory",
          "valueCoding": {
            "system": "urn:oid:2.16.840.1.113883.6.238",
            "code": "2135-2",
            "display": "Hispanic or Latino",
            "userSelected": true
          }
        }, {
          "url": "text",
          "valueString": "Hispanic or Latino"
        } ]
      } ],
      "identifier": [ {
        "type": {
          "coding": [ {
            "system": "http://terminology.hl7.org/CodeSystem/v2-0203",
            "code": "MR"
          } ]
        },
        "system": "https://bonnie-fhir.healthit.gov/",
        "value": "6129132302c62a011f2e5ef8"
      } ],
      "active": true,
      "name": [ {
        "use": "usual",
        "family": "IPFail",
        "given": [ "NoEncounter" ]
      } ],
      "gender": "male",
      "birthDate": "2006-08-21"
    },
    "request": {
      "method": "PUT",
      "url": "Patient/e1342986-862c-461b-8963-d545238550ab"
    }
  }, {
    "fullUrl": "https://madie.cms.gov/Coverage/58d2d542-039f-420d-9f89-d3c3f184715e",
    "resource": {
      "resourceType": "Coverage",
      "id": "58d2d542-039f-420d-9f89-d3c3f184715e",
      "meta": {
        "profile": [ "http://hl7.org/fhir/us/qicore/StructureDefinition/qicore-coverage" ]
      },
      "status": "active",
      "beneficiary": {
        "reference": "Patient/e1342986-862c-461b-8963-d545238550ab"
      },
      "payor": [ {
        "reference": "Organization/3a30aa42-d955-4377-9a8c-d2f10d59a324"
      } ]
    },
    "request": {
      "method": "PUT",
      "url": "Coverage/58d2d542-039f-420d-9f89-d3c3f184715e"
    }
  }, {
    "fullUrl": "https://madie.cms.gov/Organization/3a30aa42-d955-4377-9a8c-d2f10d59a324",
    "resource": {
      "resourceType": "Organization",
      "id": "3a30aa42-d955-4377-9a8c-d2f10d59a324",
      "meta": {
        "profile": [ "http://hl7.org/fhir/us/qicore/StructureDefinition/qicore-organization" ]
      },
      "identifier": [ {
        "use": "temp",
        "system": "urn:oid:2.16.840.1.113883.4.4",
        "value": "21-3259825"
      } ],
      "active": true,
      "type": [ {
        "coding": [ {
          "system": "http://terminology.hl7.org/CodeSystem/organization-type",
          "code": "pay",
          "display": "Payer"
        } ]
      } ],
      "name": "Blue Cross Blue Shield of Texas",
      "telecom": [ {
        "system": "phone",
        "value": "(+1) 972-766-6900"
      } ],
      "address": [ {
        "use": "billing",
        "type": "postal",
        "line": [ "P.O. Box 660044" ],
        "city": "Dallas",
        "state": "TX",
        "postalCode": "75266-0044",
        "country": "USA"
      } ]
    },
    "request": {
      "method": "PUT",
      "url": "Organization/3a30aa42-d955-4377-9a8c-d2f10d59a324"
    }
  }, {
    "fullUrl": "https://madie.cms.gov/MeasureReport/c3cf7078-3e07-457b-947d-ca16f57df10e",
    "resource": {
      "resourceType": "MeasureReport",
      "id": "c3cf7078-3e07-457b-947d-ca16f57df10e",
      "meta": {
        "profile": [ "http://hl7.org/fhir/us/cqfmeasures/StructureDefinition/test-case-cqfm" ]
      },
      "contained": [ {
        "resourceType": "Parameters",
        "id": "b25a6ef1-2a2b-4fb4-a104-ed983802b85b-parameters",
        "parameter": [ {
          "name": "subject",
          "valueString": "e1342986-862c-461b-8963-d545238550ab"
        } ]
      } ],
      "extension": [ {
        "url": "http://hl7.org/fhir/StructureDefinition/cqf-inputParameters",
        "valueReference": {
          "reference": "#b25a6ef1-2a2b-4fb4-a104-ed983802b85b-parameters"
        }
      }, {
        "url": "http://hl7.org/fhir/us/cqfmeasures/StructureDefinition/cqfm-testCaseDescription",
        "valueMarkdown": "Patient is 19 with no Encounter Inpatient\n"
      } ],
      "modifierExtension": [ {
        "url": "http://hl7.org/fhir/us/cqfmeasures/StructureDefinition/cqfm-isTestCase",
        "valueBoolean": true
      } ],
      "status": "complete",
      "type": "individual",
      "measure": "https://madie.cms.gov/Measure/CMS104FHIRSTKDCAntithrombotic",
      "period": {
        "start": "2026-01-01",
        "end": "2026-12-31"
      },
      "group": [ {
        "id": "Group_1",
        "population": [ {
          "id": "InitialPopulation_1",
          "code": {
            "coding": [ {
              "system": "http://terminology.hl7.org/CodeSystem/measure-population",
              "code": "initial-population",
              "display": "Initial Population"
            } ]
          },
          "count": 0
        }, {
          "id": "Denominator_1",
          "code": {
            "coding": [ {
              "system": "http://terminology.hl7.org/CodeSystem/measure-population",
              "code": "denominator",
              "display": "Denominator"
            } ]
          },
          "count": 0
        }, {
          "id": "DenominatorExclusion_1",
          "code": {
            "coding": [ {
              "system": "http://terminology.hl7.org/CodeSystem/measure-population",
              "code": "denominator-exclusion",
              "display": "Denominator Exclusion"
            } ]
          },
          "count": 0
        }, {
          "id": "Numerator_1",
          "code": {
            "coding": [ {
              "system": "http://terminology.hl7.org/CodeSystem/measure-population",
              "code": "numerator",
              "display": "Numerator"
            } ]
          },
          "count": 0
        }, {
          "id": "DenominatorException_1",
          "code": {
            "coding": [ {
              "system": "http://terminology.hl7.org/CodeSystem/measure-population",
              "code": "denominator-exception",
              "display": "Denominator Exception"
            } ]
          },
          "count": 0
        } ],
        "measureScore": {
          "value": 0.0
        }
      } ],
      "evaluatedResource": [ {
        "reference": "Patient/e1342986-862c-461b-8963-d545238550ab"
      }, {
        "reference": "Coverage/58d2d542-039f-420d-9f89-d3c3f184715e"
      }, {
        "reference": "Organization/3a30aa42-d955-4377-9a8c-d2f10d59a324"
      } ]
    },
    "request": {
      "method": "PUT",
      "url": "MeasureReport/c3cf7078-3e07-457b-947d-ca16f57df10e"
    }
  } ]
}