{
  "resourceType": "Bundle",
  "id": "6359776b6aee9629c8298235",
  "type": "transaction",
  "entry": [ {
    "fullUrl": "https://madie.cms.gov/Patient/7610c01b-286c-43c9-95fa-bc0e7ed4af0c",
    "resource": {
      "resourceType": "Patient",
      "id": "7610c01b-286c-43c9-95fa-bc0e7ed4af0c",
      "meta": {
        "profile": [ "http://hl7.org/fhir/us/qicore/StructureDefinition/qicore-patient" ]
      },
      "text": {
        "status": "generated",
        "div": "<div xmlns=\"http://www.w3.org/1999/xhtml\"><div class=\"hapiHeaderText\">HematocritIsNull <b>RISKFail </b></div><table class=\"hapiPropertyTable\"><tbody><tr><td>Date of birth</td><td><span>01 February 2004</span></td></tr></tbody></table></div>"
      },
      "extension": [ {
        "url": "http://hl7.org/fhir/us/core/StructureDefinition/us-core-race",
        "extension": [ {
          "url": "ombCategory",
          "valueCoding": {
            "system": "urn:oid:2.16.840.1.113883.6.238",
            "code": "1002-5",
            "display": "American Indian or Alaska Native",
            "userSelected": true
          }
        }, {
          "url": "text",
          "valueString": "American Indian or Alaska Native"
        } ]
      }, {
        "url": "http://hl7.org/fhir/us/core/StructureDefinition/us-core-ethnicity",
        "extension": [ {
          "url": "ombCategory",
          "valueCoding": {
            "system": "urn:oid:2.16.840.1.113883.6.238",
            "code": "2135-2",
            "display": "Hispanic or Latino",
            "userSelected": true
          }
        }, {
          "url": "text",
          "valueString": "Hispanic or Latino"
        } ]
      } ],
      "identifier": [ {
        "type": {
          "coding": [ {
            "system": "http://terminology.hl7.org/CodeSystem/v2-0203",
            "code": "MR"
          } ]
        },
        "system": "https://bonnie-fhir.healthit.gov/",
        "value": "6359776b6aee9629c8298235"
      } ],
      "active": true,
      "name": [ {
        "use": "usual",
        "family": "RISKFail",
        "given": [ "HematocritIsNull" ]
      } ],
      "gender": "female",
      "birthDate": "2005-02-01"
    },
    "request": {
      "method": "PUT",
      "url": "Patient/7610c01b-286c-43c9-95fa-bc0e7ed4af0c"
    }
  }, {
    "fullUrl": "https://madie.cms.gov/Observation/1ecd4c67-5be1-425f-b708-f0a7452cfb68",
    "resource": {
      "resourceType": "Observation",
      "id": "1ecd4c67-5be1-425f-b708-f0a7452cfb68",
      "meta": {
        "profile": [ "http://hl7.org/fhir/us/qicore/StructureDefinition/qicore-simple-observation" ]
      },
      "status": "final",
      "category": [ {
        "coding": [ {
          "system": "http://terminology.hl7.org/CodeSystem/observation-category",
          "code": "exam",
          "display": "exam",
          "userSelected": true
        } ]
      } ],
      "code": {
        "coding": [ {
          "system": "http://loinc.org",
          "code": "93857-1"
        } ]
      },
      "subject": {
        "reference": "Patient/7610c01b-286c-43c9-95fa-bc0e7ed4af0c"
      },
      "effectiveDateTime": "2026-02-01T08:15:00Z",
      "performer": [ {
        "reference": "Organization/example1",
        "display": "Hendricks Country Hospital"
      } ],
      "valueDateTime": "2026-02-01T08:15:00Z"
    },
    "request": {
      "method": "PUT",
      "url": "Observation/1ecd4c67-5be1-425f-b708-f0a7452cfb68"
    }
  }, {
    "fullUrl": "https://madie.cms.gov/Condition/67d9db20-87cc-408a-a345-aec6acaf23d0",
    "resource": {
      "resourceType": "Condition",
      "id": "67d9db20-87cc-408a-a345-aec6acaf23d0",
      "meta": {
        "profile": [ "http://hl7.org/fhir/us/qicore/StructureDefinition/qicore-condition-encounter-diagnosis" ]
      },
      "category": [ {
        "coding": [ {
          "system": "http://terminology.hl7.org/CodeSystem/condition-category",
          "code": "encounter-diagnosis",
          "display": "Encounter Diagnosis"
        } ]
      } ],
      "code": {
        "coding": [ {
          "system": "http://hl7.org/fhir/sid/icd-10-cm",
          "version": "2023",
          "code": "Z3A.21",
          "display": "21 weeks gestation",
          "userSelected": true
        } ]
      },
      "subject": {
        "reference": "Patient/7610c01b-286c-43c9-95fa-bc0e7ed4af0c"
      },
      "recordedDate": "2026-10-26T08:00:00Z"
    },
    "request": {
      "method": "PUT",
      "url": "Condition/67d9db20-87cc-408a-a345-aec6acaf23d0"
    }
  }, {
    "fullUrl": "https://madie.cms.gov/Encounter/fa646b05-7484-4357-8c3c-25d889477311",
    "resource": {
      "resourceType": "Encounter",
      "id": "fa646b05-7484-4357-8c3c-25d889477311",
      "meta": {
        "profile": [ "http://hl7.org/fhir/us/qicore/StructureDefinition/qicore-encounter" ]
      },
      "status": "finished",
      "class": {
        "system": "http://terminology.hl7.org/CodeSystem/v3-ActCode",
        "code": "IMP",
        "display": "inpatient encounter"
      },
      "type": [ {
        "coding": [ {
          "system": "http://snomed.info/sct",
          "code": "183452005"
        } ]
      } ],
      "subject": {
        "reference": "Patient/7610c01b-286c-43c9-95fa-bc0e7ed4af0c"
      },
      "period": {
        "start": "2026-02-01T08:00:00Z",
        "end": "2026-02-05T08:15:00Z"
      },
      "reasonReference": [ {
        "reference": "Condition/67d9db20-87cc-408a-a345-aec6acaf23d0"
      } ]
    },
    "request": {
      "method": "PUT",
      "url": "Encounter/fa646b05-7484-4357-8c3c-25d889477311"
    }
  }, {
    "fullUrl": "https://madie.cms.gov/Encounter/a1bdc993-a86c-4331-ae3c-5dbef6355325",
    "resource": {
      "resourceType": "Encounter",
      "id": "a1bdc993-a86c-4331-ae3c-5dbef6355325",
      "meta": {
        "profile": [ "http://hl7.org/fhir/us/qicore/StructureDefinition/qicore-encounter" ]
      },
      "status": "finished",
      "class": {
        "system": "http://terminology.hl7.org/CodeSystem/v3-ActCode",
        "code": "EMER",
        "display": "emergency"
      },
      "type": [ {
        "coding": [ {
          "system": "http://snomed.info/sct",
          "code": "4525004"
        } ]
      } ],
      "subject": {
        "reference": "Patient/7610c01b-286c-43c9-95fa-bc0e7ed4af0c"
      },
      "period": {
        "start": "2026-02-01T07:00:00Z",
        "end": "2026-02-01T07:59:00Z"
      }
    },
    "request": {
      "method": "PUT",
      "url": "Encounter/a1bdc993-a86c-4331-ae3c-5dbef6355325"
    }
  }, {
    "fullUrl": "https://madie.cms.gov/Procedure/88823f49-23f1-42dd-8579-19b9ec669b99",
    "resource": {
      "resourceType": "Procedure",
      "id": "88823f49-23f1-42dd-8579-19b9ec669b99",
      "meta": {
        "profile": [ "http://hl7.org/fhir/us/qicore/StructureDefinition/qicore-procedure" ]
      },
      "extension": [ {
        "url": "http://hl7.org/fhir/us/qicore/StructureDefinition/qicore-recorded",
        "valueDateTime": "2026-02-04T13:35:00Z"
      } ],
      "status": "completed",
      "code": {
        "coding": [ {
          "system": "http://snomed.info/sct",
          "code": "10745001"
        } ]
      },
      "subject": {
        "reference": "Patient/7610c01b-286c-43c9-95fa-bc0e7ed4af0c"
      },
      "performedPeriod": {
        "start": "2026-02-01T08:00:00Z",
        "end": "2026-02-05T08:15:00Z"
      }
    },
    "request": {
      "method": "PUT",
      "url": "Procedure/88823f49-23f1-42dd-8579-19b9ec669b99"
    }
  }, {
    "fullUrl": "https://madie.cms.gov/Observation/e89185ef-fc0e-4333-b240-0bed2c17af44",
    "resource": {
      "resourceType": "Observation",
      "id": "e89185ef-fc0e-4333-b240-0bed2c17af44",
      "meta": {
        "profile": [ "http://hl7.org/fhir/us/qicore/StructureDefinition/qicore-observation-lab" ]
      },
      "status": "final",
      "category": [ {
        "coding": [ {
          "system": "http://terminology.hl7.org/CodeSystem/observation-category",
          "code": "laboratory",
          "display": "laboratory",
          "userSelected": true
        } ]
      } ],
      "code": {
        "coding": [ {
          "system": "http://loinc.org",
          "version": "2.73",
          "code": "20570-8",
          "display": "Hematocrit [Volume Fraction] in Blood",
          "userSelected": true
        } ]
      },
      "subject": {
        "reference": "Patient/7610c01b-286c-43c9-95fa-bc0e7ed4af0c"
      },
      "effectiveDateTime": "2026-02-01T08:01:00Z",
      "issued": "2026-02-01T08:01:00Z",
      "valueQuantity": {
        "unit": "%"
      }
    },
    "request": {
      "method": "PUT",
      "url": "Observation/e89185ef-fc0e-4333-b240-0bed2c17af44"
    }
  }, {
    "fullUrl": "https://madie.cms.gov/MeasureReport/919d5d63-e798-4d8f-9eca-f2d1896ef071",
    "resource": {
      "resourceType": "MeasureReport",
      "id": "919d5d63-e798-4d8f-9eca-f2d1896ef071",
      "meta": {
        "profile": [ "http://hl7.org/fhir/us/cqfmeasures/StructureDefinition/test-case-cqfm" ]
      },
      "contained": [ {
        "resourceType": "Parameters",
        "id": "bb5c2595-29b9-4639-84b8-b5a1484f10d9-parameters",
        "parameter": [ {
          "name": "subject",
          "valueString": "7610c01b-286c-43c9-95fa-bc0e7ed4af0c"
        } ]
      } ],
      "extension": [ {
        "url": "http://hl7.org/fhir/StructureDefinition/cqf-inputParameters",
        "valueReference": {
          "reference": "#bb5c2595-29b9-4639-84b8-b5a1484f10d9-parameters"
        }
      }, {
        "url": "http://hl7.org/fhir/us/cqfmeasures/StructureDefinition/cqfm-testCaseDescription",
        "valueMarkdown": "Hematocrit is Null"
      } ],
      "modifierExtension": [ {
        "url": "http://hl7.org/fhir/us/cqfmeasures/StructureDefinition/cqfm-isTestCase",
        "valueBoolean": true
      } ],
      "status": "complete",
      "type": "individual",
      "measure": "https://madie.cms.gov/Measure/CMS1028FHIRPCSevereOBComps",
      "period": {
        "start": "2026-01-01",
        "end": "2026-12-31"
      },
      "group": [ {
        "id": "Group_1",
        "population": [ {
          "id": "InitialPopulation_1",
          "code": {
            "coding": [ {
              "system": "http://terminology.hl7.org/CodeSystem/measure-population",
              "code": "initial-population",
              "display": "Initial Population"
            } ]
          },
          "count": 1
        }, {
          "id": "Denominator_1",
          "code": {
            "coding": [ {
              "system": "http://terminology.hl7.org/CodeSystem/measure-population",
              "code": "denominator",
              "display": "Denominator"
            } ]
          },
          "count": 1
        }, {
          "id": "Numerator_1",
          "code": {
            "coding": [ {
              "system": "http://terminology.hl7.org/CodeSystem/measure-population",
              "code": "numerator",
              "display": "Numerator"
            } ]
          },
          "count": 0
        }, {
          "id": "NumeratorExclusion_1",
          "code": {
            "coding": [ {
              "system": "http://terminology.hl7.org/CodeSystem/measure-population",
              "code": "numerator-exclusion",
              "display": "Numerator Exclusion"
            } ]
          },
          "count": 0
        } ],
        "measureScore": {
          "value": 0.0
        }
      }, {
        "id": "Group_2",
        "population": [ {
          "id": "InitialPopulation_2",
          "code": {
            "coding": [ {
              "system": "http://terminology.hl7.org/CodeSystem/measure-population",
              "code": "initial-population",
              "display": "Initial Population"
            } ]
          },
          "count": 1
        }, {
          "id": "Denominator_2",
          "code": {
            "coding": [ {
              "system": "http://terminology.hl7.org/CodeSystem/measure-population",
              "code": "denominator",
              "display": "Denominator"
            } ]
          },
          "count": 1
        }, {
          "id": "Numerator_2",
          "code": {
            "coding": [ {
              "system": "http://terminology.hl7.org/CodeSystem/measure-population",
              "code": "numerator",
              "display": "Numerator"
            } ]
          },
          "count": 0
        }, {
          "id": "NumeratorExclusion_2",
          "code": {
            "coding": [ {
              "system": "http://terminology.hl7.org/CodeSystem/measure-population",
              "code": "numerator-exclusion",
              "display": "Numerator Exclusion"
            } ]
          },
          "count": 0
        } ],
        "measureScore": {
          "value": 0.0
        }
      } ],
      "evaluatedResource": [ {
        "reference": "Patient/7610c01b-286c-43c9-95fa-bc0e7ed4af0c"
      }, {
        "reference": "Observation/1ecd4c67-5be1-425f-b708-f0a7452cfb68"
      }, {
        "reference": "Condition/67d9db20-87cc-408a-a345-aec6acaf23d0"
      }, {
        "reference": "Encounter/fa646b05-7484-4357-8c3c-25d889477311"
      }, {
        "reference": "Encounter/a1bdc993-a86c-4331-ae3c-5dbef6355325"
      }, {
        "reference": "Procedure/88823f49-23f1-42dd-8579-19b9ec669b99"
      }, {
        "reference": "Observation/e89185ef-fc0e-4333-b240-0bed2c17af44"
      } ]
    },
    "request": {
      "method": "PUT",
      "url": "MeasureReport/919d5d63-e798-4d8f-9eca-f2d1896ef071"
    }
  } ]
}