{"resourceType":"Bundle","id":"tests-ba6d787f-d15f-4e22-8ee4-30c12d53aa37-bundle","type":"transaction","entry":[{"resource":{"resourceType":"Patient","id":"ba6d787f-d15f-4e22-8ee4-30c12d53aa37","meta":{"profile":["http://hl7.org/fhir/us/qicore/StructureDefinition/qicore-patient"]},"text":{"status":"generated","div":"<div xmlns=\"http://www.w3.org/1999/xhtml\"><div class=\"hapiHeaderText\">NoEncChemoOrRadTx<b>IPPFailPop1And2</b></div><table class=\"hapiPropertyTable\"><tbody><tr><td>Identifier</td><td>70907baa15b476ae78501f3d66740457</td></tr><tr><td>Date of birth</td><td><span>10 January 1991</span></td></tr></tbody></table></div>"},"extension":[{"url":"http://hl7.org/fhir/us/core/StructureDefinition/us-core-race","extension":[{"url":"ombCategory","valueCoding":{"system":"urn:oid:2.16.840.1.113883.6.238","code":"1002-5","display":"American Indian or Alaska Native","userSelected":true}},{"url":"text","valueString":"American Indian or Alaska Native"}]},{"url":"http://hl7.org/fhir/us/core/StructureDefinition/us-core-ethnicity","extension":[{"url":"ombCategory","valueCoding":{"system":"urn:oid:2.16.840.1.113883.6.238","code":"2135-2","display":"Hispanic or Latino","userSelected":true}},{"url":"text","valueString":"Hispanic or Latino"}]}],"identifier":[{"type":{"coding":[{"system":"http://terminology.hl7.org/CodeSystem/v2-0203","code":"MR"}]},"system":"https://bonnie-fhir.healthit.gov/","value":"62c880eb0111a60120dc21eb"}],"active":true,"name":[{"use":"usual","family":"IPPFailPop1And2","given":["NoEncChemoOrRadTx"]}],"gender":"female","birthDate":"1991-01-10"},"request":{"method":"PUT","url":"Patient/ba6d787f-d15f-4e22-8ee4-30c12d53aa37"}},{"resource":{"resourceType":"MeasureReport","id":"2ddbc587-71f5-418b-acbf-4a0f12bb5e82","meta":{"profile":["http://hl7.org/fhir/us/cqfmeasures/StructureDefinition/test-case-cqfm"]},"contained":[{"resourceType":"Parameters","id":"d0e71a9e-832d-4d3c-9df3-dba97228c253-parameters","parameter":[{"name":"subject","valueString":"ba6d787f-d15f-4e22-8ee4-30c12d53aa37"}]}],"extension":[{"url":"http://hl7.org/fhir/StructureDefinition/cqf-inputParameters","valueReference":{"reference":"#d0e71a9e-832d-4d3c-9df3-dba97228c253-parameters"}},{"url":"http://hl7.org/fhir/us/cqfmeasures/StructureDefinition/cqfm-testCaseDescription","valueMarkdown":"Patient with cancer diagnosis, but no encounter, no chemotherapy or radiation treatment management. \n"}],"modifierExtension":[{"url":"http://hl7.org/fhir/us/cqfmeasures/StructureDefinition/cqfm-isTestCase","valueBoolean":true}],"status":"complete","type":"individual","measure":"https://madie.cms.gov/Measure/OncologyPainIntensityQuantifiedFHIR","period":{"start":"2026-01-01","end":"2026-12-31"},"group":[{"id":"Group_1","population":[{"id":"InitialPopulation_1","code":{"coding":[{"system":"http://terminology.hl7.org/CodeSystem/measure-population","code":"initial-population","display":"Initial Population"}]},"count":0},{"id":"Denominator_1","code":{"coding":[{"system":"http://terminology.hl7.org/CodeSystem/measure-population","code":"denominator","display":"Denominator"}]},"count":0},{"id":"Numerator_1","code":{"coding":[{"system":"http://terminology.hl7.org/CodeSystem/measure-population","code":"numerator","display":"Numerator"}]},"count":0}],"measureScore":{"value":0.0}},{"id":"Group_2","population":[{"id":"InitialPopulation_2","code":{"coding":[{"system":"http://terminology.hl7.org/CodeSystem/measure-population","code":"initial-population","display":"Initial Population"}]},"count":0},{"id":"Denominator_2","code":{"coding":[{"system":"http://terminology.hl7.org/CodeSystem/measure-population","code":"denominator","display":"Denominator"}]},"count":0},{"id":"Numerator_2","code":{"coding":[{"system":"http://terminology.hl7.org/CodeSystem/measure-population","code":"numerator","display":"Numerator"}]},"count":0}],"measureScore":{"value":0.0}}],"evaluatedResource":[{"reference":"Patient/ba6d787f-d15f-4e22-8ee4-30c12d53aa37"},{"reference":"Condition/a8de04b9-007d-4538-83e2-8dabce47462c"},{"reference":"Coverage/613507da-80cc-4eaa-ba1b-5316da723597"},{"reference":"Organization/1a90904c-6272-43ed-97c8-ee5fd8363435"},{"reference":"Practitioner/b8790d49-4955-4ccd-abe5-fbcf9905f240"}]},"request":{"method":"PUT","url":"MeasureReport/2ddbc587-71f5-418b-acbf-4a0f12bb5e82"}},{"resource":{"resourceType":"Practitioner","id":"b8790d49-4955-4ccd-abe5-fbcf9905f240","meta":{"profile":["http://hl7.org/fhir/us/qicore/StructureDefinition/qicore-practitioner"]},"identifier":[{"system":"http://hl7.org/fhir/sid/us-npi","value":"123456"}],"name":[{"family":"Evil","prefix":["Dr"]}]},"request":{"method":"PUT","url":"Practitioner/b8790d49-4955-4ccd-abe5-fbcf9905f240"}},{"resource":{"resourceType":"Organization","id":"1a90904c-6272-43ed-97c8-ee5fd8363435","meta":{"profile":["http://hl7.org/fhir/us/qicore/StructureDefinition/qicore-organization"]},"identifier":[{"use":"temp","system":"urn:oid:2.16.840.1.113883.4.4","value":"21-3259825"}],"active":true,"type":[{"coding":[{"system":"http://terminology.hl7.org/CodeSystem/organization-type","code":"pay","display":"Payer"}]}],"name":"Blue Cross Blue Shield of Texas","telecom":[{"system":"phone","value":"(+1) 972-766-6900"}],"address":[{"use":"billing","type":"postal","line":["P.O. Box 660044"],"city":"Dallas","state":"TX","postalCode":"75266-0044","country":"USA"}]},"request":{"method":"PUT","url":"Organization/1a90904c-6272-43ed-97c8-ee5fd8363435"}},{"resource":{"resourceType":"Condition","id":"a8de04b9-007d-4538-83e2-8dabce47462c","meta":{"profile":["http://hl7.org/fhir/us/qicore/StructureDefinition/qicore-condition"]},"clinicalStatus":{"coding":[{"system":"http://terminology.hl7.org/CodeSystem/condition-clinical","code":"active","display":"active","userSelected":true}]},"verificationStatus":{"coding":[{"system":"http://terminology.hl7.org/CodeSystem/condition-ver-status","code":"confirmed","display":"Confirmed"}]},"category":[{"coding":[{"system":"http://terminology.hl7.org/CodeSystem/condition-category","code":"problem-list-item","display":"Problem List Item"}]}],"code":{"coding":[{"system":"http://snomed.info/sct","code":"443136000"}]},"subject":{"reference":"Patient/ba6d787f-d15f-4e22-8ee4-30c12d53aa37"},"onsetDateTime":"2025-01-02T14:30:00.000Z"},"request":{"method":"PUT","url":"Condition/a8de04b9-007d-4538-83e2-8dabce47462c"}},{"resource":{"resourceType":"Bundle","id":"62c880ec0111a60120dc21f1","type":"transaction","entry":[{"fullUrl":"https://madie.cms.gov/Patient/ba6d787f-d15f-4e22-8ee4-30c12d53aa37","resource":{"resourceType":"Patient","id":"ba6d787f-d15f-4e22-8ee4-30c12d53aa37","meta":{"profile":["http://hl7.org/fhir/us/qicore/StructureDefinition/qicore-patient"]},"text":{"status":"generated","div":"<div xmlns=\"http://www.w3.org/1999/xhtml\"><div class=\"hapiHeaderText\">NoEncChemoOrRadTx<b>IPPFailPop1And2</b></div><table class=\"hapiPropertyTable\"><tbody><tr><td>Identifier</td><td>70907baa15b476ae78501f3d66740457</td></tr><tr><td>Date of birth</td><td><span>10 January 1991</span></td></tr></tbody></table></div>"},"extension":[{"url":"http://hl7.org/fhir/us/core/StructureDefinition/us-core-race","extension":[{"url":"ombCategory","valueCoding":{"system":"urn:oid:2.16.840.1.113883.6.238","code":"1002-5","display":"American Indian or Alaska Native","userSelected":true}},{"url":"text","valueString":"American Indian or Alaska Native"}]},{"url":"http://hl7.org/fhir/us/core/StructureDefinition/us-core-ethnicity","extension":[{"url":"ombCategory","valueCoding":{"system":"urn:oid:2.16.840.1.113883.6.238","code":"2135-2","display":"Hispanic or Latino","userSelected":true}},{"url":"text","valueString":"Hispanic or Latino"}]}],"identifier":[{"type":{"coding":[{"system":"http://terminology.hl7.org/CodeSystem/v2-0203","code":"MR"}]},"system":"https://bonnie-fhir.healthit.gov/","value":"62c880eb0111a60120dc21eb"}],"active":true,"name":[{"use":"usual","family":"IPPFailPop1And2","given":["NoEncChemoOrRadTx"]}],"gender":"female","birthDate":"1991-01-10"},"request":{"method":"PUT","url":"Patient/ba6d787f-d15f-4e22-8ee4-30c12d53aa37"}},{"fullUrl":"https://madie.cms.gov/Condition/a8de04b9-007d-4538-83e2-8dabce47462c","resource":{"resourceType":"Condition","id":"a8de04b9-007d-4538-83e2-8dabce47462c","meta":{"profile":["http://hl7.org/fhir/us/qicore/StructureDefinition/qicore-condition"]},"clinicalStatus":{"coding":[{"system":"http://terminology.hl7.org/CodeSystem/condition-clinical","code":"active","display":"active","userSelected":true}]},"verificationStatus":{"coding":[{"system":"http://terminology.hl7.org/CodeSystem/condition-ver-status","code":"confirmed","display":"Confirmed"}]},"category":[{"coding":[{"system":"http://terminology.hl7.org/CodeSystem/condition-category","code":"problem-list-item","display":"Problem List Item"}]}],"code":{"coding":[{"system":"http://snomed.info/sct","code":"443136000"}]},"subject":{"reference":"Patient/ba6d787f-d15f-4e22-8ee4-30c12d53aa37"},"onsetDateTime":"2025-01-02T14:30:00.000Z"},"request":{"method":"PUT","url":"Condition/a8de04b9-007d-4538-83e2-8dabce47462c"}},{"fullUrl":"https://madie.cms.gov/Coverage/613507da-80cc-4eaa-ba1b-5316da723597","resource":{"resourceType":"Coverage","id":"613507da-80cc-4eaa-ba1b-5316da723597","meta":{"profile":["http://hl7.org/fhir/us/qicore/StructureDefinition/qicore-coverage"]},"status":"active","beneficiary":{"reference":"Patient/ba6d787f-d15f-4e22-8ee4-30c12d53aa37"},"period":{"start":"1991-01-10T08:00:00.000Z"},"payor":[{"reference":"Organization/1a90904c-6272-43ed-97c8-ee5fd8363435"}]},"request":{"method":"PUT","url":"Coverage/613507da-80cc-4eaa-ba1b-5316da723597"}},{"fullUrl":"https://madie.cms.gov/Organization/1a90904c-6272-43ed-97c8-ee5fd8363435","resource":{"resourceType":"Organization","id":"1a90904c-6272-43ed-97c8-ee5fd8363435","meta":{"profile":["http://hl7.org/fhir/us/qicore/StructureDefinition/qicore-organization"]},"identifier":[{"use":"temp","system":"urn:oid:2.16.840.1.113883.4.4","value":"21-3259825"}],"active":true,"type":[{"coding":[{"system":"http://terminology.hl7.org/CodeSystem/organization-type","code":"pay","display":"Payer"}]}],"name":"Blue Cross Blue Shield of Texas","telecom":[{"system":"phone","value":"(+1) 972-766-6900"}],"address":[{"use":"billing","type":"postal","line":["P.O. Box 660044"],"city":"Dallas","state":"TX","postalCode":"75266-0044","country":"USA"}]},"request":{"method":"PUT","url":"Organization/1a90904c-6272-43ed-97c8-ee5fd8363435"}},{"fullUrl":"https://madie.cms.gov/Practitioner/b8790d49-4955-4ccd-abe5-fbcf9905f240","resource":{"resourceType":"Practitioner","id":"b8790d49-4955-4ccd-abe5-fbcf9905f240","meta":{"profile":["http://hl7.org/fhir/us/qicore/StructureDefinition/qicore-practitioner"]},"identifier":[{"system":"http://hl7.org/fhir/sid/us-npi","value":"123456"}],"name":[{"family":"Evil","prefix":["Dr"]}]},"request":{"method":"PUT","url":"Practitioner/b8790d49-4955-4ccd-abe5-fbcf9905f240"}},{"fullUrl":"https://madie.cms.gov/MeasureReport/2ddbc587-71f5-418b-acbf-4a0f12bb5e82","resource":{"resourceType":"MeasureReport","id":"2ddbc587-71f5-418b-acbf-4a0f12bb5e82","meta":{"profile":["http://hl7.org/fhir/us/cqfmeasures/StructureDefinition/test-case-cqfm"]},"contained":[{"resourceType":"Parameters","id":"d0e71a9e-832d-4d3c-9df3-dba97228c253-parameters","parameter":[{"name":"subject","valueString":"ba6d787f-d15f-4e22-8ee4-30c12d53aa37"}]}],"extension":[{"url":"http://hl7.org/fhir/StructureDefinition/cqf-inputParameters","valueReference":{"reference":"#d0e71a9e-832d-4d3c-9df3-dba97228c253-parameters"}},{"url":"http://hl7.org/fhir/us/cqfmeasures/StructureDefinition/cqfm-testCaseDescription","valueMarkdown":"Patient with cancer diagnosis, but no encounter, no chemotherapy or radiation treatment management. \n"}],"modifierExtension":[{"url":"http://hl7.org/fhir/us/cqfmeasures/StructureDefinition/cqfm-isTestCase","valueBoolean":true}],"status":"complete","type":"individual","measure":"https://madie.cms.gov/Measure/OncologyPainIntensityQuantifiedFHIR","period":{"start":"2026-01-01","end":"2026-12-31"},"group":[{"id":"Group_1","population":[{"id":"InitialPopulation_1","code":{"coding":[{"system":"http://terminology.hl7.org/CodeSystem/measure-population","code":"initial-population","display":"Initial Population"}]},"count":0},{"id":"Denominator_1","code":{"coding":[{"system":"http://terminology.hl7.org/CodeSystem/measure-population","code":"denominator","display":"Denominator"}]},"count":0},{"id":"Numerator_1","code":{"coding":[{"system":"http://terminology.hl7.org/CodeSystem/measure-population","code":"numerator","display":"Numerator"}]},"count":0}],"measureScore":{"value":0.0}},{"id":"Group_2","population":[{"id":"InitialPopulation_2","code":{"coding":[{"system":"http://terminology.hl7.org/CodeSystem/measure-population","code":"initial-population","display":"Initial Population"}]},"count":0},{"id":"Denominator_2","code":{"coding":[{"system":"http://terminology.hl7.org/CodeSystem/measure-population","code":"denominator","display":"Denominator"}]},"count":0},{"id":"Numerator_2","code":{"coding":[{"system":"http://terminology.hl7.org/CodeSystem/measure-population","code":"numerator","display":"Numerator"}]},"count":0}],"measureScore":{"value":0.0}}],"evaluatedResource":[{"reference":"Patient/ba6d787f-d15f-4e22-8ee4-30c12d53aa37"},{"reference":"Condition/a8de04b9-007d-4538-83e2-8dabce47462c"},{"reference":"Coverage/613507da-80cc-4eaa-ba1b-5316da723597"},{"reference":"Organization/1a90904c-6272-43ed-97c8-ee5fd8363435"},{"reference":"Practitioner/b8790d49-4955-4ccd-abe5-fbcf9905f240"}]},"request":{"method":"PUT","url":"MeasureReport/2ddbc587-71f5-418b-acbf-4a0f12bb5e82"}}]},"request":{"method":"PUT","url":"Bundle/62c880ec0111a60120dc21f1"}},{"resource":{"resourceType":"Coverage","id":"613507da-80cc-4eaa-ba1b-5316da723597","meta":{"profile":["http://hl7.org/fhir/us/qicore/StructureDefinition/qicore-coverage"]},"status":"active","beneficiary":{"reference":"Patient/ba6d787f-d15f-4e22-8ee4-30c12d53aa37"},"period":{"start":"1991-01-10T08:00:00.000Z"},"payor":[{"reference":"Organization/1a90904c-6272-43ed-97c8-ee5fd8363435"}]},"request":{"method":"PUT","url":"Coverage/613507da-80cc-4eaa-ba1b-5316da723597"}}]}