{"resourceType":"Bundle","id":"tests-bbdccaa6-f3a0-426d-8e77-eff43095cfc9-bundle","type":"transaction","entry":[{"resource":{"resourceType":"Observation","id":"befd7bf6-c393-4b2a-960b-fd47a0aa300a","meta":{"profile":["http://hl7.org/fhir/us/qicore/StructureDefinition/qicore-observation"]},"status":"final","category":[{"coding":[{"system":"http://terminology.hl7.org/CodeSystem/observation-category","code":"survey","display":"Survey"}],"text":"Survey"}],"code":{"coding":[{"system":"http://loinc.org","code":"38208-5","display":"Pain severity - Reported"}],"text":"Pain severity - Reported"},"subject":{"reference":"Patient/bbdccaa6-f3a0-426d-8e77-eff43095cfc9"},"effectivePeriod":{"start":"2025-02-10T08:00:00.000Z","end":"2025-02-10T08:15:00.000Z"},"valueInteger":5},"request":{"method":"PUT","url":"Observation/befd7bf6-c393-4b2a-960b-fd47a0aa300a"}},{"resource":{"resourceType":"Practitioner","id":"2759f797-c98a-4f61-a0f1-05ef1ccf1484","meta":{"profile":["http://hl7.org/fhir/us/qicore/StructureDefinition/qicore-practitioner"]},"identifier":[{"system":"http://hl7.org/fhir/sid/us-npi","value":"123456"}],"name":[{"family":"Evil","prefix":["Dr"]}]},"request":{"method":"PUT","url":"Practitioner/2759f797-c98a-4f61-a0f1-05ef1ccf1484"}},{"resource":{"resourceType":"Encounter","id":"e799bf6b-8bcd-48cd-bac3-0e0b1625f61c","meta":{"profile":["http://hl7.org/fhir/us/qicore/StructureDefinition/qicore-encounter"]},"status":"finished","class":{"system":"http://terminology.hl7.org/CodeSystem/v3-ActCode","code":"AMB","display":"ambulatory","userSelected":true},"type":[{"coding":[{"system":"http://www.ama-assn.org/go/cpt","version":"2023","code":"77427","display":"Radiation treatment management, 5 treatments","userSelected":true}]}],"subject":{"reference":"Patient/bbdccaa6-f3a0-426d-8e77-eff43095cfc9"},"period":{"start":"2025-09-20T11:30:00.000+00:00","end":"2025-09-20T11:30:00.000+00:00"}},"request":{"method":"PUT","url":"Encounter/e799bf6b-8bcd-48cd-bac3-0e0b1625f61c"}},{"resource":{"resourceType":"MeasureReport","id":"72c5975d-143b-45fa-9194-6015eaa822c0","meta":{"profile":["http://hl7.org/fhir/us/cqfmeasures/StructureDefinition/test-case-cqfm"]},"contained":[{"resourceType":"Parameters","id":"15b4897d-ef44-4780-b92e-8aaaf0ca318d-parameters","parameter":[{"name":"subject","valueString":"bbdccaa6-f3a0-426d-8e77-eff43095cfc9"}]}],"extension":[{"url":"http://hl7.org/fhir/StructureDefinition/cqf-inputParameters","valueReference":{"reference":"#15b4897d-ef44-4780-b92e-8aaaf0ca318d-parameters"}},{"url":"http://hl7.org/fhir/us/cqfmeasures/StructureDefinition/cqfm-testCaseDescription","valueMarkdown":"Patient with cancer diagnosis that overlaps radiation treatment management during measurement period. Pain intensity assessment was performed months before radiation treatment management encounter.\n"}],"modifierExtension":[{"url":"http://hl7.org/fhir/us/cqfmeasures/StructureDefinition/cqfm-isTestCase","valueBoolean":true}],"status":"complete","type":"individual","measure":"https://madie.cms.gov/Measure/OncologyPainIntensityQuantifiedFHIR","period":{"start":"2026-01-01","end":"2026-12-31"},"group":[{"id":"Group_1","population":[{"id":"InitialPopulation_1","code":{"coding":[{"system":"http://terminology.hl7.org/CodeSystem/measure-population","code":"initial-population","display":"Initial Population"}]},"count":0},{"id":"Denominator_1","code":{"coding":[{"system":"http://terminology.hl7.org/CodeSystem/measure-population","code":"denominator","display":"Denominator"}]},"count":0},{"id":"Numerator_1","code":{"coding":[{"system":"http://terminology.hl7.org/CodeSystem/measure-population","code":"numerator","display":"Numerator"}]},"count":0}],"measureScore":{"value":0.0}},{"id":"Group_2","population":[{"id":"InitialPopulation_2","code":{"coding":[{"system":"http://terminology.hl7.org/CodeSystem/measure-population","code":"initial-population","display":"Initial Population"}]},"count":1},{"id":"Denominator_2","code":{"coding":[{"system":"http://terminology.hl7.org/CodeSystem/measure-population","code":"denominator","display":"Denominator"}]},"count":1},{"id":"Numerator_2","code":{"coding":[{"system":"http://terminology.hl7.org/CodeSystem/measure-population","code":"numerator","display":"Numerator"}]},"count":0}],"measureScore":{"value":0.0}}],"evaluatedResource":[{"reference":"Patient/bbdccaa6-f3a0-426d-8e77-eff43095cfc9"},{"reference":"Observation/befd7bf6-c393-4b2a-960b-fd47a0aa300a"},{"reference":"Condition/d04ce652-393a-48b0-b6af-430944262610"},{"reference":"Coverage/fe1f830f-af32-4da2-9d73-42aa0aca1e0c"},{"reference":"Encounter/e799bf6b-8bcd-48cd-bac3-0e0b1625f61c"},{"reference":"Organization/be55d835-5681-4a07-a760-bc7a9c301271"},{"reference":"Practitioner/2759f797-c98a-4f61-a0f1-05ef1ccf1484"}]},"request":{"method":"PUT","url":"MeasureReport/72c5975d-143b-45fa-9194-6015eaa822c0"}},{"resource":{"resourceType":"Organization","id":"be55d835-5681-4a07-a760-bc7a9c301271","meta":{"profile":["http://hl7.org/fhir/us/qicore/StructureDefinition/qicore-organization"]},"identifier":[{"use":"temp","system":"urn:oid:2.16.840.1.113883.4.4","value":"21-3259825"}],"active":true,"type":[{"coding":[{"system":"http://terminology.hl7.org/CodeSystem/organization-type","code":"pay","display":"Payer"}]}],"name":"Blue Cross Blue Shield of Texas","telecom":[{"system":"phone","value":"(+1) 972-766-6900"}],"address":[{"use":"billing","type":"postal","line":["P.O. Box 660044"],"city":"Dallas","state":"TX","postalCode":"75266-0044","country":"USA"}]},"request":{"method":"PUT","url":"Organization/be55d835-5681-4a07-a760-bc7a9c301271"}},{"resource":{"resourceType":"Patient","id":"bbdccaa6-f3a0-426d-8e77-eff43095cfc9","meta":{"profile":["http://hl7.org/fhir/us/qicore/StructureDefinition/qicore-patient"]},"text":{"status":"generated","div":"<div xmlns=\"http://www.w3.org/1999/xhtml\"><div class=\"hapiHeaderText\">PainAssessPriorRadTx<b>NUMERFailPop2</b></div><table class=\"hapiPropertyTable\"><tbody><tr><td>Identifier</td><td>c8dceba3c1a4e57c39b8866880103c78</td></tr><tr><td>Date of birth</td><td><span>10 February 1951</span></td></tr></tbody></table></div>"},"extension":[{"url":"http://hl7.org/fhir/us/core/StructureDefinition/us-core-race","extension":[{"url":"ombCategory","valueCoding":{"system":"urn:oid:2.16.840.1.113883.6.238","code":"1002-5","display":"American Indian or Alaska Native","userSelected":true}},{"url":"text","valueString":"American Indian or Alaska Native"}]},{"url":"http://hl7.org/fhir/us/core/StructureDefinition/us-core-ethnicity","extension":[{"url":"ombCategory","valueCoding":{"system":"urn:oid:2.16.840.1.113883.6.238","code":"2135-2","display":"Hispanic or Latino","userSelected":true}},{"url":"text","valueString":"Hispanic or Latino"}]}],"identifier":[{"type":{"coding":[{"system":"http://terminology.hl7.org/CodeSystem/v2-0203","code":"MR"}]},"system":"https://bonnie-fhir.healthit.gov/","value":"62c880ec0111a60120dc21f6"}],"active":true,"name":[{"use":"usual","family":"NUMERFailPop2","given":["PainAssessPriorRadTx"]}],"gender":"male","birthDate":"1951-02-10"},"request":{"method":"PUT","url":"Patient/bbdccaa6-f3a0-426d-8e77-eff43095cfc9"}},{"resource":{"resourceType":"Condition","id":"d04ce652-393a-48b0-b6af-430944262610","meta":{"profile":["http://hl7.org/fhir/us/qicore/StructureDefinition/qicore-condition"]},"clinicalStatus":{"coding":[{"system":"http://terminology.hl7.org/CodeSystem/condition-clinical","code":"active","display":"active","userSelected":true}]},"verificationStatus":{"coding":[{"system":"http://terminology.hl7.org/CodeSystem/condition-ver-status","code":"confirmed","display":"Confirmed"}]},"category":[{"coding":[{"system":"http://terminology.hl7.org/CodeSystem/condition-category","code":"problem-list-item","display":"Problem List Item"}]}],"code":{"coding":[{"system":"http://snomed.info/sct","code":"107691000119101"}]},"subject":{"reference":"Patient/bbdccaa6-f3a0-426d-8e77-eff43095cfc9"},"onsetDateTime":"2021-09-12T10:45:00.000Z"},"request":{"method":"PUT","url":"Condition/d04ce652-393a-48b0-b6af-430944262610"}},{"resource":{"resourceType":"Bundle","id":"62c880ec0111a60120dc21f6","type":"transaction","entry":[{"fullUrl":"https://madie.cms.gov/Patient/bbdccaa6-f3a0-426d-8e77-eff43095cfc9","resource":{"resourceType":"Patient","id":"bbdccaa6-f3a0-426d-8e77-eff43095cfc9","meta":{"profile":["http://hl7.org/fhir/us/qicore/StructureDefinition/qicore-patient"]},"text":{"status":"generated","div":"<div xmlns=\"http://www.w3.org/1999/xhtml\"><div class=\"hapiHeaderText\">PainAssessPriorRadTx<b>NUMERFailPop2</b></div><table class=\"hapiPropertyTable\"><tbody><tr><td>Identifier</td><td>c8dceba3c1a4e57c39b8866880103c78</td></tr><tr><td>Date of birth</td><td><span>10 February 1951</span></td></tr></tbody></table></div>"},"extension":[{"url":"http://hl7.org/fhir/us/core/StructureDefinition/us-core-race","extension":[{"url":"ombCategory","valueCoding":{"system":"urn:oid:2.16.840.1.113883.6.238","code":"1002-5","display":"American Indian or Alaska Native","userSelected":true}},{"url":"text","valueString":"American Indian or Alaska Native"}]},{"url":"http://hl7.org/fhir/us/core/StructureDefinition/us-core-ethnicity","extension":[{"url":"ombCategory","valueCoding":{"system":"urn:oid:2.16.840.1.113883.6.238","code":"2135-2","display":"Hispanic or Latino","userSelected":true}},{"url":"text","valueString":"Hispanic or Latino"}]}],"identifier":[{"type":{"coding":[{"system":"http://terminology.hl7.org/CodeSystem/v2-0203","code":"MR"}]},"system":"https://bonnie-fhir.healthit.gov/","value":"62c880ec0111a60120dc21f6"}],"active":true,"name":[{"use":"usual","family":"NUMERFailPop2","given":["PainAssessPriorRadTx"]}],"gender":"male","birthDate":"1951-02-10"},"request":{"method":"PUT","url":"Patient/bbdccaa6-f3a0-426d-8e77-eff43095cfc9"}},{"fullUrl":"https://madie.cms.gov/Observation/befd7bf6-c393-4b2a-960b-fd47a0aa300a","resource":{"resourceType":"Observation","id":"befd7bf6-c393-4b2a-960b-fd47a0aa300a","meta":{"profile":["http://hl7.org/fhir/us/qicore/StructureDefinition/qicore-observation"]},"status":"final","category":[{"coding":[{"system":"http://terminology.hl7.org/CodeSystem/observation-category","code":"survey","display":"Survey"}],"text":"Survey"}],"code":{"coding":[{"system":"http://loinc.org","code":"38208-5","display":"Pain severity - Reported"}],"text":"Pain severity - Reported"},"subject":{"reference":"Patient/bbdccaa6-f3a0-426d-8e77-eff43095cfc9"},"effectivePeriod":{"start":"2025-02-10T08:00:00.000Z","end":"2025-02-10T08:15:00.000Z"},"valueInteger":5},"request":{"method":"PUT","url":"Observation/befd7bf6-c393-4b2a-960b-fd47a0aa300a"}},{"fullUrl":"https://madie.cms.gov/Condition/d04ce652-393a-48b0-b6af-430944262610","resource":{"resourceType":"Condition","id":"d04ce652-393a-48b0-b6af-430944262610","meta":{"profile":["http://hl7.org/fhir/us/qicore/StructureDefinition/qicore-condition"]},"clinicalStatus":{"coding":[{"system":"http://terminology.hl7.org/CodeSystem/condition-clinical","code":"active","display":"active","userSelected":true}]},"verificationStatus":{"coding":[{"system":"http://terminology.hl7.org/CodeSystem/condition-ver-status","code":"confirmed","display":"Confirmed"}]},"category":[{"coding":[{"system":"http://terminology.hl7.org/CodeSystem/condition-category","code":"problem-list-item","display":"Problem List Item"}]}],"code":{"coding":[{"system":"http://snomed.info/sct","code":"107691000119101"}]},"subject":{"reference":"Patient/bbdccaa6-f3a0-426d-8e77-eff43095cfc9"},"onsetDateTime":"2021-09-12T10:45:00.000Z"},"request":{"method":"PUT","url":"Condition/d04ce652-393a-48b0-b6af-430944262610"}},{"fullUrl":"https://madie.cms.gov/Coverage/fe1f830f-af32-4da2-9d73-42aa0aca1e0c","resource":{"resourceType":"Coverage","id":"fe1f830f-af32-4da2-9d73-42aa0aca1e0c","meta":{"profile":["http://hl7.org/fhir/us/qicore/StructureDefinition/qicore-coverage"]},"status":"active","beneficiary":{"reference":"Patient/bbdccaa6-f3a0-426d-8e77-eff43095cfc9"},"period":{"start":"1951-02-10T08:00:00.000Z"},"payor":[{"reference":"Organization/be55d835-5681-4a07-a760-bc7a9c301271"}]},"request":{"method":"PUT","url":"Coverage/fe1f830f-af32-4da2-9d73-42aa0aca1e0c"}},{"fullUrl":"https://madie.cms.gov/Encounter/e799bf6b-8bcd-48cd-bac3-0e0b1625f61c","resource":{"resourceType":"Encounter","id":"e799bf6b-8bcd-48cd-bac3-0e0b1625f61c","meta":{"profile":["http://hl7.org/fhir/us/qicore/StructureDefinition/qicore-encounter"]},"status":"finished","class":{"system":"http://terminology.hl7.org/CodeSystem/v3-ActCode","code":"AMB","display":"ambulatory","userSelected":true},"type":[{"coding":[{"system":"http://www.ama-assn.org/go/cpt","version":"2023","code":"77427","display":"Radiation treatment management, 5 treatments","userSelected":true}]}],"subject":{"reference":"Patient/bbdccaa6-f3a0-426d-8e77-eff43095cfc9"},"period":{"start":"2025-09-20T11:30:00.000+00:00","end":"2025-09-20T11:30:00.000+00:00"}},"request":{"method":"PUT","url":"Encounter/e799bf6b-8bcd-48cd-bac3-0e0b1625f61c"}},{"fullUrl":"https://madie.cms.gov/Organization/be55d835-5681-4a07-a760-bc7a9c301271","resource":{"resourceType":"Organization","id":"be55d835-5681-4a07-a760-bc7a9c301271","meta":{"profile":["http://hl7.org/fhir/us/qicore/StructureDefinition/qicore-organization"]},"identifier":[{"use":"temp","system":"urn:oid:2.16.840.1.113883.4.4","value":"21-3259825"}],"active":true,"type":[{"coding":[{"system":"http://terminology.hl7.org/CodeSystem/organization-type","code":"pay","display":"Payer"}]}],"name":"Blue Cross Blue Shield of Texas","telecom":[{"system":"phone","value":"(+1) 972-766-6900"}],"address":[{"use":"billing","type":"postal","line":["P.O. Box 660044"],"city":"Dallas","state":"TX","postalCode":"75266-0044","country":"USA"}]},"request":{"method":"PUT","url":"Organization/be55d835-5681-4a07-a760-bc7a9c301271"}},{"fullUrl":"https://madie.cms.gov/Practitioner/2759f797-c98a-4f61-a0f1-05ef1ccf1484","resource":{"resourceType":"Practitioner","id":"2759f797-c98a-4f61-a0f1-05ef1ccf1484","meta":{"profile":["http://hl7.org/fhir/us/qicore/StructureDefinition/qicore-practitioner"]},"identifier":[{"system":"http://hl7.org/fhir/sid/us-npi","value":"123456"}],"name":[{"family":"Evil","prefix":["Dr"]}]},"request":{"method":"PUT","url":"Practitioner/2759f797-c98a-4f61-a0f1-05ef1ccf1484"}},{"fullUrl":"https://madie.cms.gov/MeasureReport/72c5975d-143b-45fa-9194-6015eaa822c0","resource":{"resourceType":"MeasureReport","id":"72c5975d-143b-45fa-9194-6015eaa822c0","meta":{"profile":["http://hl7.org/fhir/us/cqfmeasures/StructureDefinition/test-case-cqfm"]},"contained":[{"resourceType":"Parameters","id":"15b4897d-ef44-4780-b92e-8aaaf0ca318d-parameters","parameter":[{"name":"subject","valueString":"bbdccaa6-f3a0-426d-8e77-eff43095cfc9"}]}],"extension":[{"url":"http://hl7.org/fhir/StructureDefinition/cqf-inputParameters","valueReference":{"reference":"#15b4897d-ef44-4780-b92e-8aaaf0ca318d-parameters"}},{"url":"http://hl7.org/fhir/us/cqfmeasures/StructureDefinition/cqfm-testCaseDescription","valueMarkdown":"Patient with cancer diagnosis that overlaps radiation treatment management during measurement period. Pain intensity assessment was performed months before radiation treatment management encounter.\n"}],"modifierExtension":[{"url":"http://hl7.org/fhir/us/cqfmeasures/StructureDefinition/cqfm-isTestCase","valueBoolean":true}],"status":"complete","type":"individual","measure":"https://madie.cms.gov/Measure/OncologyPainIntensityQuantifiedFHIR","period":{"start":"2026-01-01","end":"2026-12-31"},"group":[{"id":"Group_1","population":[{"id":"InitialPopulation_1","code":{"coding":[{"system":"http://terminology.hl7.org/CodeSystem/measure-population","code":"initial-population","display":"Initial Population"}]},"count":0},{"id":"Denominator_1","code":{"coding":[{"system":"http://terminology.hl7.org/CodeSystem/measure-population","code":"denominator","display":"Denominator"}]},"count":0},{"id":"Numerator_1","code":{"coding":[{"system":"http://terminology.hl7.org/CodeSystem/measure-population","code":"numerator","display":"Numerator"}]},"count":0}],"measureScore":{"value":0.0}},{"id":"Group_2","population":[{"id":"InitialPopulation_2","code":{"coding":[{"system":"http://terminology.hl7.org/CodeSystem/measure-population","code":"initial-population","display":"Initial Population"}]},"count":1},{"id":"Denominator_2","code":{"coding":[{"system":"http://terminology.hl7.org/CodeSystem/measure-population","code":"denominator","display":"Denominator"}]},"count":1},{"id":"Numerator_2","code":{"coding":[{"system":"http://terminology.hl7.org/CodeSystem/measure-population","code":"numerator","display":"Numerator"}]},"count":0}],"measureScore":{"value":0.0}}],"evaluatedResource":[{"reference":"Patient/bbdccaa6-f3a0-426d-8e77-eff43095cfc9"},{"reference":"Observation/befd7bf6-c393-4b2a-960b-fd47a0aa300a"},{"reference":"Condition/d04ce652-393a-48b0-b6af-430944262610"},{"reference":"Coverage/fe1f830f-af32-4da2-9d73-42aa0aca1e0c"},{"reference":"Encounter/e799bf6b-8bcd-48cd-bac3-0e0b1625f61c"},{"reference":"Organization/be55d835-5681-4a07-a760-bc7a9c301271"},{"reference":"Practitioner/2759f797-c98a-4f61-a0f1-05ef1ccf1484"}]},"request":{"method":"PUT","url":"MeasureReport/72c5975d-143b-45fa-9194-6015eaa822c0"}}]},"request":{"method":"PUT","url":"Bundle/62c880ec0111a60120dc21f6"}},{"resource":{"resourceType":"Coverage","id":"fe1f830f-af32-4da2-9d73-42aa0aca1e0c","meta":{"profile":["http://hl7.org/fhir/us/qicore/StructureDefinition/qicore-coverage"]},"status":"active","beneficiary":{"reference":"Patient/bbdccaa6-f3a0-426d-8e77-eff43095cfc9"},"period":{"start":"1951-02-10T08:00:00.000Z"},"payor":[{"reference":"Organization/be55d835-5681-4a07-a760-bc7a9c301271"}]},"request":{"method":"PUT","url":"Coverage/fe1f830f-af32-4da2-9d73-42aa0aca1e0c"}}]}