{"resourceType":"Bundle","id":"tests-f0f73fe9-f8ae-4994-911f-1745e5efbce3-bundle","type":"transaction","entry":[{"resource":{"resourceType":"Encounter","id":"45260914-33c0-44f4-861d-df230ade9197","meta":{"profile":["http://hl7.org/fhir/us/qicore/StructureDefinition/qicore-encounter"]},"status":"finished","class":{"system":"http://terminology.hl7.org/CodeSystem/v3-ActCode","code":"AMB","display":"ambulatory","userSelected":true},"type":[{"coding":[{"system":"http://www.ama-assn.org/go/cpt","code":"99213"}]}],"subject":{"reference":"Patient/f0f73fe9-f8ae-4994-911f-1745e5efbce3"},"period":{"start":"2025-02-11T11:45:00.000Z","end":"2025-02-11T11:45:00.000Z"}},"request":{"method":"PUT","url":"Encounter/45260914-33c0-44f4-861d-df230ade9197"}},{"resource":{"resourceType":"Coverage","id":"199f1aa3-c688-400f-ac4c-c39aee69f0f8","meta":{"profile":["http://hl7.org/fhir/us/qicore/StructureDefinition/qicore-coverage"]},"status":"active","beneficiary":{"reference":"Patient/f0f73fe9-f8ae-4994-911f-1745e5efbce3"},"period":{"start":"1966-05-15T08:00:00.000Z"},"payor":[{"reference":"Organization/a6e43fc0-4a3f-4abb-93df-61879aa6e53d"}]},"request":{"method":"PUT","url":"Coverage/199f1aa3-c688-400f-ac4c-c39aee69f0f8"}},{"resource":{"resourceType":"Patient","id":"f0f73fe9-f8ae-4994-911f-1745e5efbce3","meta":{"profile":["http://hl7.org/fhir/us/qicore/StructureDefinition/qicore-patient"]},"text":{"status":"generated","div":"<div xmlns=\"http://www.w3.org/1999/xhtml\"><div class=\"hapiHeaderText\">CancerDxEndsPriorOfficeEnc<b>IPPFAILPOP1</b></div><table class=\"hapiPropertyTable\"><tbody><tr><td>Identifier</td><td>2c49e0586ead45a42884f353188a6a41</td></tr><tr><td>Date of birth</td><td><span>15 May 1966</span></td></tr></tbody></table></div>"},"extension":[{"url":"http://hl7.org/fhir/us/core/StructureDefinition/us-core-race","extension":[{"url":"ombCategory","valueCoding":{"system":"urn:oid:2.16.840.1.113883.6.238","code":"1002-5","display":"American Indian or Alaska Native","userSelected":true}},{"url":"text","valueString":"American Indian or Alaska Native"}]},{"url":"http://hl7.org/fhir/us/core/StructureDefinition/us-core-ethnicity","extension":[{"url":"ombCategory","valueCoding":{"system":"urn:oid:2.16.840.1.113883.6.238","code":"2135-2","display":"Hispanic or Latino","userSelected":true}},{"url":"text","valueString":"Hispanic or Latino"}]}],"identifier":[{"type":{"coding":[{"system":"http://terminology.hl7.org/CodeSystem/v2-0203","code":"MR"}]},"system":"https://bonnie-fhir.healthit.gov/","value":"62c880ec0111a60120dc220b"}],"active":true,"name":[{"use":"usual","family":"IPPFailPop1","given":["CancerDxEndsPriorEnc"]}],"gender":"male","birthDate":"1966-05-15"},"request":{"method":"PUT","url":"Patient/f0f73fe9-f8ae-4994-911f-1745e5efbce3"}},{"resource":{"resourceType":"Bundle","id":"62c880ec0111a60120dc220b","type":"transaction","entry":[{"fullUrl":"https://madie.cms.gov/Patient/f0f73fe9-f8ae-4994-911f-1745e5efbce3","resource":{"resourceType":"Patient","id":"f0f73fe9-f8ae-4994-911f-1745e5efbce3","meta":{"profile":["http://hl7.org/fhir/us/qicore/StructureDefinition/qicore-patient"]},"text":{"status":"generated","div":"<div xmlns=\"http://www.w3.org/1999/xhtml\"><div class=\"hapiHeaderText\">CancerDxEndsPriorOfficeEnc<b>IPPFAILPOP1</b></div><table class=\"hapiPropertyTable\"><tbody><tr><td>Identifier</td><td>2c49e0586ead45a42884f353188a6a41</td></tr><tr><td>Date of birth</td><td><span>15 May 1966</span></td></tr></tbody></table></div>"},"extension":[{"url":"http://hl7.org/fhir/us/core/StructureDefinition/us-core-race","extension":[{"url":"ombCategory","valueCoding":{"system":"urn:oid:2.16.840.1.113883.6.238","code":"1002-5","display":"American Indian or Alaska Native","userSelected":true}},{"url":"text","valueString":"American Indian or Alaska Native"}]},{"url":"http://hl7.org/fhir/us/core/StructureDefinition/us-core-ethnicity","extension":[{"url":"ombCategory","valueCoding":{"system":"urn:oid:2.16.840.1.113883.6.238","code":"2135-2","display":"Hispanic or Latino","userSelected":true}},{"url":"text","valueString":"Hispanic or Latino"}]}],"identifier":[{"type":{"coding":[{"system":"http://terminology.hl7.org/CodeSystem/v2-0203","code":"MR"}]},"system":"https://bonnie-fhir.healthit.gov/","value":"62c880ec0111a60120dc220b"}],"active":true,"name":[{"use":"usual","family":"IPPFailPop1","given":["CancerDxEndsPriorEnc"]}],"gender":"male","birthDate":"1966-05-15"},"request":{"method":"PUT","url":"Patient/f0f73fe9-f8ae-4994-911f-1745e5efbce3"}},{"fullUrl":"https://madie.cms.gov/Condition/7f08a62c-e0ff-47ff-bf5a-9e82f0d93b2a","resource":{"resourceType":"Condition","id":"7f08a62c-e0ff-47ff-bf5a-9e82f0d93b2a","meta":{"profile":["http://hl7.org/fhir/us/qicore/StructureDefinition/qicore-condition"]},"clinicalStatus":{"coding":[{"system":"http://terminology.hl7.org/CodeSystem/condition-clinical","code":"remission","display":"remission","userSelected":true}]},"verificationStatus":{"coding":[{"system":"http://terminology.hl7.org/CodeSystem/condition-ver-status","code":"confirmed","display":"Confirmed"}]},"category":[{"coding":[{"system":"http://terminology.hl7.org/CodeSystem/condition-category","code":"problem-list-item","display":"Problem List Item"}]}],"code":{"coding":[{"system":"http://snomed.info/sct","code":"278453007"}]},"subject":{"reference":"Patient/f0f73fe9-f8ae-4994-911f-1745e5efbce3"},"onsetDateTime":"2025-01-02T14:00:00.000Z","abatementDateTime":"2025-02-10T14:45:00.000Z"},"request":{"method":"PUT","url":"Condition/7f08a62c-e0ff-47ff-bf5a-9e82f0d93b2a"}},{"fullUrl":"https://madie.cms.gov/Encounter/45260914-33c0-44f4-861d-df230ade9197","resource":{"resourceType":"Encounter","id":"45260914-33c0-44f4-861d-df230ade9197","meta":{"profile":["http://hl7.org/fhir/us/qicore/StructureDefinition/qicore-encounter"]},"status":"finished","class":{"system":"http://terminology.hl7.org/CodeSystem/v3-ActCode","code":"AMB","display":"ambulatory","userSelected":true},"type":[{"coding":[{"system":"http://www.ama-assn.org/go/cpt","code":"99213"}]}],"subject":{"reference":"Patient/f0f73fe9-f8ae-4994-911f-1745e5efbce3"},"period":{"start":"2025-02-11T11:45:00.000Z","end":"2025-02-11T11:45:00.000Z"}},"request":{"method":"PUT","url":"Encounter/45260914-33c0-44f4-861d-df230ade9197"}},{"fullUrl":"https://madie.cms.gov/Coverage/199f1aa3-c688-400f-ac4c-c39aee69f0f8","resource":{"resourceType":"Coverage","id":"199f1aa3-c688-400f-ac4c-c39aee69f0f8","meta":{"profile":["http://hl7.org/fhir/us/qicore/StructureDefinition/qicore-coverage"]},"status":"active","beneficiary":{"reference":"Patient/f0f73fe9-f8ae-4994-911f-1745e5efbce3"},"period":{"start":"1966-05-15T08:00:00.000Z"},"payor":[{"reference":"Organization/a6e43fc0-4a3f-4abb-93df-61879aa6e53d"}]},"request":{"method":"PUT","url":"Coverage/199f1aa3-c688-400f-ac4c-c39aee69f0f8"}},{"fullUrl":"https://madie.cms.gov/Procedure/0cfd6700-6879-462c-8251-b305ab414c64","resource":{"resourceType":"Procedure","id":"0cfd6700-6879-462c-8251-b305ab414c64","meta":{"profile":["http://hl7.org/fhir/us/qicore/StructureDefinition/qicore-procedure"]},"extension":[{"url":"http://hl7.org/fhir/us/qicore/StructureDefinition/qicore-recorded","valueDateTime":"2025-02-11T10:55:00.000Z"}],"status":"completed","code":{"coding":[{"system":"http://www.ama-assn.org/go/cpt","code":"96446"}]},"subject":{"reference":"Patient/f0f73fe9-f8ae-4994-911f-1745e5efbce3"},"performedPeriod":{"start":"2025-02-11T10:50:00.000Z","end":"2025-02-11T10:50:00.000Z"}},"request":{"method":"PUT","url":"Procedure/0cfd6700-6879-462c-8251-b305ab414c64"}},{"fullUrl":"https://madie.cms.gov/Procedure/4cad8e59-81eb-4dc2-a993-0886aa7006bd","resource":{"resourceType":"Procedure","id":"4cad8e59-81eb-4dc2-a993-0886aa7006bd","meta":{"profile":["http://hl7.org/fhir/us/qicore/StructureDefinition/qicore-procedure"]},"extension":[{"url":"http://hl7.org/fhir/us/qicore/StructureDefinition/qicore-recorded","valueDateTime":"2025-02-23T11:50:00.000Z"}],"status":"completed","code":{"coding":[{"system":"http://www.ama-assn.org/go/cpt","code":"96446"}]},"subject":{"reference":"Patient/f0f73fe9-f8ae-4994-911f-1745e5efbce3"},"performedPeriod":{"start":"2025-02-23T11:45:00.000Z","end":"2025-02-23T11:45:00.000Z"}},"request":{"method":"PUT","url":"Procedure/4cad8e59-81eb-4dc2-a993-0886aa7006bd"}},{"fullUrl":"https://madie.cms.gov/Organization/a6e43fc0-4a3f-4abb-93df-61879aa6e53d","resource":{"resourceType":"Organization","id":"a6e43fc0-4a3f-4abb-93df-61879aa6e53d","meta":{"profile":["http://hl7.org/fhir/us/qicore/StructureDefinition/qicore-organization"]},"identifier":[{"use":"temp","system":"urn:oid:2.16.840.1.113883.4.4","value":"21-3259825"}],"active":true,"type":[{"coding":[{"system":"http://terminology.hl7.org/CodeSystem/organization-type","code":"pay","display":"Payer"}]}],"name":"Blue Cross Blue Shield of Texas","telecom":[{"system":"phone","value":"(+1) 972-766-6900"}],"address":[{"use":"billing","type":"postal","line":["P.O. Box 660044"],"city":"Dallas","state":"TX","postalCode":"75266-0044","country":"USA"}]},"request":{"method":"PUT","url":"Organization/a6e43fc0-4a3f-4abb-93df-61879aa6e53d"}},{"fullUrl":"https://madie.cms.gov/Practitioner/0ed1041a-ba40-4dc1-9363-10f6d9a23fb4","resource":{"resourceType":"Practitioner","id":"0ed1041a-ba40-4dc1-9363-10f6d9a23fb4","meta":{"profile":["http://hl7.org/fhir/us/qicore/StructureDefinition/qicore-practitioner"]},"identifier":[{"system":"http://hl7.org/fhir/sid/us-npi","value":"123456"}],"name":[{"family":"Evil","prefix":["Dr"]}]},"request":{"method":"PUT","url":"Practitioner/0ed1041a-ba40-4dc1-9363-10f6d9a23fb4"}},{"fullUrl":"https://madie.cms.gov/MeasureReport/7c31dcf7-0458-49eb-8554-5d17e8c1fbdb","resource":{"resourceType":"MeasureReport","id":"7c31dcf7-0458-49eb-8554-5d17e8c1fbdb","meta":{"profile":["http://hl7.org/fhir/us/cqfmeasures/StructureDefinition/test-case-cqfm"]},"contained":[{"resourceType":"Parameters","id":"f64b8acc-77a1-40e3-9b59-07fb534c4b22-parameters","parameter":[{"name":"subject","valueString":"f0f73fe9-f8ae-4994-911f-1745e5efbce3"}]}],"extension":[{"url":"http://hl7.org/fhir/StructureDefinition/cqf-inputParameters","valueReference":{"reference":"#f64b8acc-77a1-40e3-9b59-07fb534c4b22-parameters"}},{"url":"http://hl7.org/fhir/us/cqfmeasures/StructureDefinition/cqfm-testCaseDescription","valueMarkdown":"Patient with cancer diagnosis ending before office visit.\n"}],"modifierExtension":[{"url":"http://hl7.org/fhir/us/cqfmeasures/StructureDefinition/cqfm-isTestCase","valueBoolean":true}],"status":"complete","type":"individual","measure":"https://madie.cms.gov/Measure/OncologyPainIntensityQuantifiedFHIR","period":{"start":"2026-01-01","end":"2026-12-31"},"group":[{"id":"Group_1","population":[{"id":"InitialPopulation_1","code":{"coding":[{"system":"http://terminology.hl7.org/CodeSystem/measure-population","code":"initial-population","display":"Initial Population"}]},"count":0},{"id":"Denominator_1","code":{"coding":[{"system":"http://terminology.hl7.org/CodeSystem/measure-population","code":"denominator","display":"Denominator"}]},"count":0},{"id":"Numerator_1","code":{"coding":[{"system":"http://terminology.hl7.org/CodeSystem/measure-population","code":"numerator","display":"Numerator"}]},"count":0}],"measureScore":{"value":0.0}},{"id":"Group_2","population":[{"id":"InitialPopulation_2","code":{"coding":[{"system":"http://terminology.hl7.org/CodeSystem/measure-population","code":"initial-population","display":"Initial Population"}]},"count":0},{"id":"Denominator_2","code":{"coding":[{"system":"http://terminology.hl7.org/CodeSystem/measure-population","code":"denominator","display":"Denominator"}]},"count":0},{"id":"Numerator_2","code":{"coding":[{"system":"http://terminology.hl7.org/CodeSystem/measure-population","code":"numerator","display":"Numerator"}]},"count":0}],"measureScore":{"value":0.0}}],"evaluatedResource":[{"reference":"Patient/f0f73fe9-f8ae-4994-911f-1745e5efbce3"},{"reference":"Condition/7f08a62c-e0ff-47ff-bf5a-9e82f0d93b2a"},{"reference":"Encounter/45260914-33c0-44f4-861d-df230ade9197"},{"reference":"Coverage/199f1aa3-c688-400f-ac4c-c39aee69f0f8"},{"reference":"Procedure/0cfd6700-6879-462c-8251-b305ab414c64"},{"reference":"Procedure/4cad8e59-81eb-4dc2-a993-0886aa7006bd"},{"reference":"Organization/a6e43fc0-4a3f-4abb-93df-61879aa6e53d"},{"reference":"Practitioner/0ed1041a-ba40-4dc1-9363-10f6d9a23fb4"}]},"request":{"method":"PUT","url":"MeasureReport/7c31dcf7-0458-49eb-8554-5d17e8c1fbdb"}}]},"request":{"method":"PUT","url":"Bundle/62c880ec0111a60120dc220b"}},{"resource":{"resourceType":"Condition","id":"7f08a62c-e0ff-47ff-bf5a-9e82f0d93b2a","meta":{"profile":["http://hl7.org/fhir/us/qicore/StructureDefinition/qicore-condition"]},"clinicalStatus":{"coding":[{"system":"http://terminology.hl7.org/CodeSystem/condition-clinical","code":"remission","display":"remission","userSelected":true}]},"verificationStatus":{"coding":[{"system":"http://terminology.hl7.org/CodeSystem/condition-ver-status","code":"confirmed","display":"Confirmed"}]},"category":[{"coding":[{"system":"http://terminology.hl7.org/CodeSystem/condition-category","code":"problem-list-item","display":"Problem List Item"}]}],"code":{"coding":[{"system":"http://snomed.info/sct","code":"278453007"}]},"subject":{"reference":"Patient/f0f73fe9-f8ae-4994-911f-1745e5efbce3"},"onsetDateTime":"2025-01-02T14:00:00.000Z","abatementDateTime":"2025-02-10T14:45:00.000Z"},"request":{"method":"PUT","url":"Condition/7f08a62c-e0ff-47ff-bf5a-9e82f0d93b2a"}},{"resource":{"resourceType":"MeasureReport","id":"7c31dcf7-0458-49eb-8554-5d17e8c1fbdb","meta":{"profile":["http://hl7.org/fhir/us/cqfmeasures/StructureDefinition/test-case-cqfm"]},"contained":[{"resourceType":"Parameters","id":"f64b8acc-77a1-40e3-9b59-07fb534c4b22-parameters","parameter":[{"name":"subject","valueString":"f0f73fe9-f8ae-4994-911f-1745e5efbce3"}]}],"extension":[{"url":"http://hl7.org/fhir/StructureDefinition/cqf-inputParameters","valueReference":{"reference":"#f64b8acc-77a1-40e3-9b59-07fb534c4b22-parameters"}},{"url":"http://hl7.org/fhir/us/cqfmeasures/StructureDefinition/cqfm-testCaseDescription","valueMarkdown":"Patient with cancer diagnosis ending before office visit.\n"}],"modifierExtension":[{"url":"http://hl7.org/fhir/us/cqfmeasures/StructureDefinition/cqfm-isTestCase","valueBoolean":true}],"status":"complete","type":"individual","measure":"https://madie.cms.gov/Measure/OncologyPainIntensityQuantifiedFHIR","period":{"start":"2026-01-01","end":"2026-12-31"},"group":[{"id":"Group_1","population":[{"id":"InitialPopulation_1","code":{"coding":[{"system":"http://terminology.hl7.org/CodeSystem/measure-population","code":"initial-population","display":"Initial Population"}]},"count":0},{"id":"Denominator_1","code":{"coding":[{"system":"http://terminology.hl7.org/CodeSystem/measure-population","code":"denominator","display":"Denominator"}]},"count":0},{"id":"Numerator_1","code":{"coding":[{"system":"http://terminology.hl7.org/CodeSystem/measure-population","code":"numerator","display":"Numerator"}]},"count":0}],"measureScore":{"value":0.0}},{"id":"Group_2","population":[{"id":"InitialPopulation_2","code":{"coding":[{"system":"http://terminology.hl7.org/CodeSystem/measure-population","code":"initial-population","display":"Initial Population"}]},"count":0},{"id":"Denominator_2","code":{"coding":[{"system":"http://terminology.hl7.org/CodeSystem/measure-population","code":"denominator","display":"Denominator"}]},"count":0},{"id":"Numerator_2","code":{"coding":[{"system":"http://terminology.hl7.org/CodeSystem/measure-population","code":"numerator","display":"Numerator"}]},"count":0}],"measureScore":{"value":0.0}}],"evaluatedResource":[{"reference":"Patient/f0f73fe9-f8ae-4994-911f-1745e5efbce3"},{"reference":"Condition/7f08a62c-e0ff-47ff-bf5a-9e82f0d93b2a"},{"reference":"Encounter/45260914-33c0-44f4-861d-df230ade9197"},{"reference":"Coverage/199f1aa3-c688-400f-ac4c-c39aee69f0f8"},{"reference":"Procedure/0cfd6700-6879-462c-8251-b305ab414c64"},{"reference":"Procedure/4cad8e59-81eb-4dc2-a993-0886aa7006bd"},{"reference":"Organization/a6e43fc0-4a3f-4abb-93df-61879aa6e53d"},{"reference":"Practitioner/0ed1041a-ba40-4dc1-9363-10f6d9a23fb4"}]},"request":{"method":"PUT","url":"MeasureReport/7c31dcf7-0458-49eb-8554-5d17e8c1fbdb"}},{"resource":{"resourceType":"Procedure","id":"0cfd6700-6879-462c-8251-b305ab414c64","meta":{"profile":["http://hl7.org/fhir/us/qicore/StructureDefinition/qicore-procedure"]},"extension":[{"url":"http://hl7.org/fhir/us/qicore/StructureDefinition/qicore-recorded","valueDateTime":"2025-02-11T10:55:00.000Z"}],"status":"completed","code":{"coding":[{"system":"http://www.ama-assn.org/go/cpt","code":"96446"}]},"subject":{"reference":"Patient/f0f73fe9-f8ae-4994-911f-1745e5efbce3"},"performedPeriod":{"start":"2025-02-11T10:50:00.000Z","end":"2025-02-11T10:50:00.000Z"}},"request":{"method":"PUT","url":"Procedure/0cfd6700-6879-462c-8251-b305ab414c64"}},{"resource":{"resourceType":"Procedure","id":"4cad8e59-81eb-4dc2-a993-0886aa7006bd","meta":{"profile":["http://hl7.org/fhir/us/qicore/StructureDefinition/qicore-procedure"]},"extension":[{"url":"http://hl7.org/fhir/us/qicore/StructureDefinition/qicore-recorded","valueDateTime":"2025-02-23T11:50:00.000Z"}],"status":"completed","code":{"coding":[{"system":"http://www.ama-assn.org/go/cpt","code":"96446"}]},"subject":{"reference":"Patient/f0f73fe9-f8ae-4994-911f-1745e5efbce3"},"performedPeriod":{"start":"2025-02-23T11:45:00.000Z","end":"2025-02-23T11:45:00.000Z"}},"request":{"method":"PUT","url":"Procedure/4cad8e59-81eb-4dc2-a993-0886aa7006bd"}},{"resource":{"resourceType":"Practitioner","id":"0ed1041a-ba40-4dc1-9363-10f6d9a23fb4","meta":{"profile":["http://hl7.org/fhir/us/qicore/StructureDefinition/qicore-practitioner"]},"identifier":[{"system":"http://hl7.org/fhir/sid/us-npi","value":"123456"}],"name":[{"family":"Evil","prefix":["Dr"]}]},"request":{"method":"PUT","url":"Practitioner/0ed1041a-ba40-4dc1-9363-10f6d9a23fb4"}},{"resource":{"resourceType":"Organization","id":"a6e43fc0-4a3f-4abb-93df-61879aa6e53d","meta":{"profile":["http://hl7.org/fhir/us/qicore/StructureDefinition/qicore-organization"]},"identifier":[{"use":"temp","system":"urn:oid:2.16.840.1.113883.4.4","value":"21-3259825"}],"active":true,"type":[{"coding":[{"system":"http://terminology.hl7.org/CodeSystem/organization-type","code":"pay","display":"Payer"}]}],"name":"Blue Cross Blue Shield of Texas","telecom":[{"system":"phone","value":"(+1) 972-766-6900"}],"address":[{"use":"billing","type":"postal","line":["P.O. Box 660044"],"city":"Dallas","state":"TX","postalCode":"75266-0044","country":"USA"}]},"request":{"method":"PUT","url":"Organization/a6e43fc0-4a3f-4abb-93df-61879aa6e53d"}}]}