{"resourceType":"Bundle","id":"tests-6c1a8557-73be-4026-9ec6-f0699bfcbfda-bundle","type":"transaction","entry":[{"resource":{"resourceType":"Bundle","id":"62c880ec0111a60120dc2207","type":"transaction","entry":[{"fullUrl":"https://madie.cms.gov/Patient/6c1a8557-73be-4026-9ec6-f0699bfcbfda","resource":{"resourceType":"Patient","id":"6c1a8557-73be-4026-9ec6-f0699bfcbfda","meta":{"profile":["http://hl7.org/fhir/us/qicore/StructureDefinition/qicore-patient"]},"text":{"status":"generated","div":"<div xmlns=\"http://www.w3.org/1999/xhtml\"><div class=\"hapiHeaderText\">CancerDxStartsAfterEncAndChemo<b>IPPFailPop1</b></div><table class=\"hapiPropertyTable\"><tbody><tr><td>Identifier</td><td>972778dfe42618990e47340420092399</td></tr><tr><td>Date of birth</td><td><span>17 August 1951</span></td></tr></tbody></table></div>"},"extension":[{"url":"http://hl7.org/fhir/us/core/StructureDefinition/us-core-race","extension":[{"url":"ombCategory","valueCoding":{"system":"urn:oid:2.16.840.1.113883.6.238","code":"2054-5","display":"Black or African American","userSelected":true}},{"url":"text","valueString":"Black or African American"}]},{"url":"http://hl7.org/fhir/us/core/StructureDefinition/us-core-ethnicity","extension":[{"url":"ombCategory","valueCoding":{"system":"urn:oid:2.16.840.1.113883.6.238","code":"2186-5","display":"Not Hispanic or Latino","userSelected":true}},{"url":"text","valueString":"Not Hispanic or Latino"}]}],"identifier":[{"type":{"coding":[{"system":"http://terminology.hl7.org/CodeSystem/v2-0203","code":"MR"}]},"system":"https://bonnie-fhir.healthit.gov/","value":"62c880ec0111a60120dc2207"}],"active":true,"name":[{"use":"usual","family":"IPPFailPop1","given":["CancerDxStartsAfterEncAndChemo"]}],"gender":"female","birthDate":"1951-08-17"},"request":{"method":"PUT","url":"Patient/6c1a8557-73be-4026-9ec6-f0699bfcbfda"}},{"fullUrl":"https://madie.cms.gov/Condition/cae13729-ecb4-4ce2-a4ab-0eaf36f0c823","resource":{"resourceType":"Condition","id":"cae13729-ecb4-4ce2-a4ab-0eaf36f0c823","meta":{"profile":["http://hl7.org/fhir/us/qicore/StructureDefinition/qicore-condition"]},"clinicalStatus":{"coding":[{"system":"http://terminology.hl7.org/CodeSystem/condition-clinical","code":"active","display":"active"}]},"verificationStatus":{"coding":[{"system":"http://terminology.hl7.org/CodeSystem/condition-ver-status","code":"confirmed","display":"Confirmed"}]},"category":[{"coding":[{"system":"http://terminology.hl7.org/CodeSystem/condition-category","code":"problem-list-item","display":"Problem List Item"}]}],"code":{"coding":[{"system":"http://hl7.org/fhir/sid/icd-10-cm","code":"C00.0"}]},"subject":{"reference":"Patient/6c1a8557-73be-4026-9ec6-f0699bfcbfda"},"onsetDateTime":"2025-11-24T08:00:00.000Z"},"request":{"method":"PUT","url":"Condition/cae13729-ecb4-4ce2-a4ab-0eaf36f0c823"}},{"fullUrl":"https://madie.cms.gov/Encounter/d14e3cd2-479a-4795-ab5e-6931be791293","resource":{"resourceType":"Encounter","id":"d14e3cd2-479a-4795-ab5e-6931be791293","meta":{"profile":["http://hl7.org/fhir/us/qicore/StructureDefinition/qicore-encounter"]},"status":"finished","class":{"system":"http://terminology.hl7.org/CodeSystem/v3-ActCode","code":"AMB","display":"ambulatory","userSelected":true},"type":[{"coding":[{"system":"http://www.ama-assn.org/go/cpt","code":"99213"}]}],"subject":{"reference":"Patient/6c1a8557-73be-4026-9ec6-f0699bfcbfda"},"period":{"start":"2025-05-25T14:20:00.000Z","end":"2025-05-25T14:20:00.000Z"}},"request":{"method":"PUT","url":"Encounter/d14e3cd2-479a-4795-ab5e-6931be791293"}},{"fullUrl":"https://madie.cms.gov/Coverage/6e49fbcf-e7c1-4b02-8f1b-34486df76039","resource":{"resourceType":"Coverage","id":"6e49fbcf-e7c1-4b02-8f1b-34486df76039","meta":{"profile":["http://hl7.org/fhir/us/qicore/StructureDefinition/qicore-coverage"]},"status":"active","beneficiary":{"reference":"Patient/6c1a8557-73be-4026-9ec6-f0699bfcbfda"},"period":{"start":"1951-08-17T08:00:00.000Z"},"payor":[{"reference":"Organization/45c064b9-a6ed-41bb-b988-e321ecaa6ded"}]},"request":{"method":"PUT","url":"Coverage/6e49fbcf-e7c1-4b02-8f1b-34486df76039"}},{"fullUrl":"https://madie.cms.gov/Procedure/d8cce7d0-1a47-4a63-a34a-d4b871819f89","resource":{"resourceType":"Procedure","id":"d8cce7d0-1a47-4a63-a34a-d4b871819f89","meta":{"profile":["http://hl7.org/fhir/us/qicore/StructureDefinition/qicore-procedure"]},"extension":[{"url":"http://hl7.org/fhir/us/qicore/StructureDefinition/qicore-recorded","valueDateTime":"2025-04-20T11:35:00.000Z"}],"status":"completed","code":{"coding":[{"system":"http://snomed.info/sct","code":"169396008"}]},"subject":{"reference":"Patient/6c1a8557-73be-4026-9ec6-f0699bfcbfda"},"performedPeriod":{"start":"2025-04-20T11:00:00.000Z","end":"2025-04-20T11:00:00.000Z"}},"request":{"method":"PUT","url":"Procedure/d8cce7d0-1a47-4a63-a34a-d4b871819f89"}},{"fullUrl":"https://madie.cms.gov/Procedure/fcd09c92-a666-4ef9-899b-7aa677cc2050","resource":{"resourceType":"Procedure","id":"fcd09c92-a666-4ef9-899b-7aa677cc2050","meta":{"profile":["http://hl7.org/fhir/us/qicore/StructureDefinition/qicore-procedure"]},"extension":[{"url":"http://hl7.org/fhir/us/qicore/StructureDefinition/qicore-recorded","valueDateTime":"2025-06-10T14:50:00.000Z"}],"status":"completed","code":{"coding":[{"system":"http://snomed.info/sct","code":"169396008"}]},"subject":{"reference":"Patient/6c1a8557-73be-4026-9ec6-f0699bfcbfda"},"performedPeriod":{"start":"2025-06-10T14:45:00.000Z","end":"2025-06-10T14:45:00.000Z"}},"request":{"method":"PUT","url":"Procedure/fcd09c92-a666-4ef9-899b-7aa677cc2050"}},{"fullUrl":"https://madie.cms.gov/Organization/45c064b9-a6ed-41bb-b988-e321ecaa6ded","resource":{"resourceType":"Organization","id":"45c064b9-a6ed-41bb-b988-e321ecaa6ded","meta":{"profile":["http://hl7.org/fhir/us/qicore/StructureDefinition/qicore-organization"]},"identifier":[{"use":"temp","system":"urn:oid:2.16.840.1.113883.4.4","value":"21-3259825"}],"active":true,"type":[{"coding":[{"system":"http://terminology.hl7.org/CodeSystem/organization-type","code":"pay","display":"Payer"}]}],"name":"Blue Cross Blue Shield of Texas","telecom":[{"system":"phone","value":"(+1) 972-766-6900"}],"address":[{"use":"billing","type":"postal","line":["P.O. Box 660044"],"city":"Dallas","state":"TX","postalCode":"75266-0044","country":"USA"}]},"request":{"method":"PUT","url":"Organization/45c064b9-a6ed-41bb-b988-e321ecaa6ded"}},{"fullUrl":"https://madie.cms.gov/Practitioner/47ba0dc8-9c6c-42e3-8574-3b32961808c3","resource":{"resourceType":"Practitioner","id":"47ba0dc8-9c6c-42e3-8574-3b32961808c3","meta":{"profile":["http://hl7.org/fhir/us/qicore/StructureDefinition/qicore-practitioner"]},"identifier":[{"system":"http://hl7.org/fhir/sid/us-npi","value":"123456"}],"name":[{"family":"Evil","prefix":["Dr"]}]},"request":{"method":"PUT","url":"Practitioner/47ba0dc8-9c6c-42e3-8574-3b32961808c3"}},{"fullUrl":"https://madie.cms.gov/MeasureReport/e46e6347-c30c-4288-a4e3-ec6f7ae9be57","resource":{"resourceType":"MeasureReport","id":"e46e6347-c30c-4288-a4e3-ec6f7ae9be57","meta":{"profile":["http://hl7.org/fhir/us/cqfmeasures/StructureDefinition/test-case-cqfm"]},"contained":[{"resourceType":"Parameters","id":"7de23c25-12ca-44cc-b0f9-659b26377264-parameters","parameter":[{"name":"subject","valueString":"6c1a8557-73be-4026-9ec6-f0699bfcbfda"}]}],"extension":[{"url":"http://hl7.org/fhir/StructureDefinition/cqf-inputParameters","valueReference":{"reference":"#7de23c25-12ca-44cc-b0f9-659b26377264-parameters"}},{"url":"http://hl7.org/fhir/us/cqfmeasures/StructureDefinition/cqfm-testCaseDescription","valueMarkdown":"Patient with cancer diagnosis that starts after office visit and chemotherapy. \n"}],"modifierExtension":[{"url":"http://hl7.org/fhir/us/cqfmeasures/StructureDefinition/cqfm-isTestCase","valueBoolean":true}],"status":"complete","type":"individual","measure":"https://madie.cms.gov/Measure/OncologyPainIntensityQuantifiedFHIR","period":{"start":"2026-01-01","end":"2026-12-31"},"group":[{"id":"Group_1","population":[{"id":"InitialPopulation_1","code":{"coding":[{"system":"http://terminology.hl7.org/CodeSystem/measure-population","code":"initial-population","display":"Initial Population"}]},"count":0},{"id":"Denominator_1","code":{"coding":[{"system":"http://terminology.hl7.org/CodeSystem/measure-population","code":"denominator","display":"Denominator"}]},"count":0},{"id":"Numerator_1","code":{"coding":[{"system":"http://terminology.hl7.org/CodeSystem/measure-population","code":"numerator","display":"Numerator"}]},"count":0}],"measureScore":{"value":0.0}},{"id":"Group_2","population":[{"id":"InitialPopulation_2","code":{"coding":[{"system":"http://terminology.hl7.org/CodeSystem/measure-population","code":"initial-population","display":"Initial Population"}]},"count":0},{"id":"Denominator_2","code":{"coding":[{"system":"http://terminology.hl7.org/CodeSystem/measure-population","code":"denominator","display":"Denominator"}]},"count":0},{"id":"Numerator_2","code":{"coding":[{"system":"http://terminology.hl7.org/CodeSystem/measure-population","code":"numerator","display":"Numerator"}]},"count":0}],"measureScore":{"value":0.0}}],"evaluatedResource":[{"reference":"Patient/6c1a8557-73be-4026-9ec6-f0699bfcbfda"},{"reference":"Condition/cae13729-ecb4-4ce2-a4ab-0eaf36f0c823"},{"reference":"Encounter/d14e3cd2-479a-4795-ab5e-6931be791293"},{"reference":"Coverage/6e49fbcf-e7c1-4b02-8f1b-34486df76039"},{"reference":"Procedure/d8cce7d0-1a47-4a63-a34a-d4b871819f89"},{"reference":"Procedure/fcd09c92-a666-4ef9-899b-7aa677cc2050"},{"reference":"Organization/45c064b9-a6ed-41bb-b988-e321ecaa6ded"},{"reference":"Practitioner/47ba0dc8-9c6c-42e3-8574-3b32961808c3"}]},"request":{"method":"PUT","url":"MeasureReport/e46e6347-c30c-4288-a4e3-ec6f7ae9be57"}}]},"request":{"method":"PUT","url":"Bundle/62c880ec0111a60120dc2207"}},{"resource":{"resourceType":"Procedure","id":"d8cce7d0-1a47-4a63-a34a-d4b871819f89","meta":{"profile":["http://hl7.org/fhir/us/qicore/StructureDefinition/qicore-procedure"]},"extension":[{"url":"http://hl7.org/fhir/us/qicore/StructureDefinition/qicore-recorded","valueDateTime":"2025-04-20T11:35:00.000Z"}],"status":"completed","code":{"coding":[{"system":"http://snomed.info/sct","code":"169396008"}]},"subject":{"reference":"Patient/6c1a8557-73be-4026-9ec6-f0699bfcbfda"},"performedPeriod":{"start":"2025-04-20T11:00:00.000Z","end":"2025-04-20T11:00:00.000Z"}},"request":{"method":"PUT","url":"Procedure/d8cce7d0-1a47-4a63-a34a-d4b871819f89"}},{"resource":{"resourceType":"Patient","id":"6c1a8557-73be-4026-9ec6-f0699bfcbfda","meta":{"profile":["http://hl7.org/fhir/us/qicore/StructureDefinition/qicore-patient"]},"text":{"status":"generated","div":"<div xmlns=\"http://www.w3.org/1999/xhtml\"><div class=\"hapiHeaderText\">CancerDxStartsAfterEncAndChemo<b>IPPFailPop1</b></div><table class=\"hapiPropertyTable\"><tbody><tr><td>Identifier</td><td>972778dfe42618990e47340420092399</td></tr><tr><td>Date of birth</td><td><span>17 August 1951</span></td></tr></tbody></table></div>"},"extension":[{"url":"http://hl7.org/fhir/us/core/StructureDefinition/us-core-race","extension":[{"url":"ombCategory","valueCoding":{"system":"urn:oid:2.16.840.1.113883.6.238","code":"2054-5","display":"Black or African American","userSelected":true}},{"url":"text","valueString":"Black or African American"}]},{"url":"http://hl7.org/fhir/us/core/StructureDefinition/us-core-ethnicity","extension":[{"url":"ombCategory","valueCoding":{"system":"urn:oid:2.16.840.1.113883.6.238","code":"2186-5","display":"Not Hispanic or Latino","userSelected":true}},{"url":"text","valueString":"Not Hispanic or Latino"}]}],"identifier":[{"type":{"coding":[{"system":"http://terminology.hl7.org/CodeSystem/v2-0203","code":"MR"}]},"system":"https://bonnie-fhir.healthit.gov/","value":"62c880ec0111a60120dc2207"}],"active":true,"name":[{"use":"usual","family":"IPPFailPop1","given":["CancerDxStartsAfterEncAndChemo"]}],"gender":"female","birthDate":"1951-08-17"},"request":{"method":"PUT","url":"Patient/6c1a8557-73be-4026-9ec6-f0699bfcbfda"}},{"resource":{"resourceType":"Encounter","id":"d14e3cd2-479a-4795-ab5e-6931be791293","meta":{"profile":["http://hl7.org/fhir/us/qicore/StructureDefinition/qicore-encounter"]},"status":"finished","class":{"system":"http://terminology.hl7.org/CodeSystem/v3-ActCode","code":"AMB","display":"ambulatory","userSelected":true},"type":[{"coding":[{"system":"http://www.ama-assn.org/go/cpt","code":"99213"}]}],"subject":{"reference":"Patient/6c1a8557-73be-4026-9ec6-f0699bfcbfda"},"period":{"start":"2025-05-25T14:20:00.000Z","end":"2025-05-25T14:20:00.000Z"}},"request":{"method":"PUT","url":"Encounter/d14e3cd2-479a-4795-ab5e-6931be791293"}},{"resource":{"resourceType":"Procedure","id":"fcd09c92-a666-4ef9-899b-7aa677cc2050","meta":{"profile":["http://hl7.org/fhir/us/qicore/StructureDefinition/qicore-procedure"]},"extension":[{"url":"http://hl7.org/fhir/us/qicore/StructureDefinition/qicore-recorded","valueDateTime":"2025-06-10T14:50:00.000Z"}],"status":"completed","code":{"coding":[{"system":"http://snomed.info/sct","code":"169396008"}]},"subject":{"reference":"Patient/6c1a8557-73be-4026-9ec6-f0699bfcbfda"},"performedPeriod":{"start":"2025-06-10T14:45:00.000Z","end":"2025-06-10T14:45:00.000Z"}},"request":{"method":"PUT","url":"Procedure/fcd09c92-a666-4ef9-899b-7aa677cc2050"}},{"resource":{"resourceType":"Coverage","id":"6e49fbcf-e7c1-4b02-8f1b-34486df76039","meta":{"profile":["http://hl7.org/fhir/us/qicore/StructureDefinition/qicore-coverage"]},"status":"active","beneficiary":{"reference":"Patient/6c1a8557-73be-4026-9ec6-f0699bfcbfda"},"period":{"start":"1951-08-17T08:00:00.000Z"},"payor":[{"reference":"Organization/45c064b9-a6ed-41bb-b988-e321ecaa6ded"}]},"request":{"method":"PUT","url":"Coverage/6e49fbcf-e7c1-4b02-8f1b-34486df76039"}},{"resource":{"resourceType":"Practitioner","id":"47ba0dc8-9c6c-42e3-8574-3b32961808c3","meta":{"profile":["http://hl7.org/fhir/us/qicore/StructureDefinition/qicore-practitioner"]},"identifier":[{"system":"http://hl7.org/fhir/sid/us-npi","value":"123456"}],"name":[{"family":"Evil","prefix":["Dr"]}]},"request":{"method":"PUT","url":"Practitioner/47ba0dc8-9c6c-42e3-8574-3b32961808c3"}},{"resource":{"resourceType":"Organization","id":"45c064b9-a6ed-41bb-b988-e321ecaa6ded","meta":{"profile":["http://hl7.org/fhir/us/qicore/StructureDefinition/qicore-organization"]},"identifier":[{"use":"temp","system":"urn:oid:2.16.840.1.113883.4.4","value":"21-3259825"}],"active":true,"type":[{"coding":[{"system":"http://terminology.hl7.org/CodeSystem/organization-type","code":"pay","display":"Payer"}]}],"name":"Blue Cross Blue Shield of Texas","telecom":[{"system":"phone","value":"(+1) 972-766-6900"}],"address":[{"use":"billing","type":"postal","line":["P.O. Box 660044"],"city":"Dallas","state":"TX","postalCode":"75266-0044","country":"USA"}]},"request":{"method":"PUT","url":"Organization/45c064b9-a6ed-41bb-b988-e321ecaa6ded"}},{"resource":{"resourceType":"MeasureReport","id":"e46e6347-c30c-4288-a4e3-ec6f7ae9be57","meta":{"profile":["http://hl7.org/fhir/us/cqfmeasures/StructureDefinition/test-case-cqfm"]},"contained":[{"resourceType":"Parameters","id":"7de23c25-12ca-44cc-b0f9-659b26377264-parameters","parameter":[{"name":"subject","valueString":"6c1a8557-73be-4026-9ec6-f0699bfcbfda"}]}],"extension":[{"url":"http://hl7.org/fhir/StructureDefinition/cqf-inputParameters","valueReference":{"reference":"#7de23c25-12ca-44cc-b0f9-659b26377264-parameters"}},{"url":"http://hl7.org/fhir/us/cqfmeasures/StructureDefinition/cqfm-testCaseDescription","valueMarkdown":"Patient with cancer diagnosis that starts after office visit and chemotherapy. \n"}],"modifierExtension":[{"url":"http://hl7.org/fhir/us/cqfmeasures/StructureDefinition/cqfm-isTestCase","valueBoolean":true}],"status":"complete","type":"individual","measure":"https://madie.cms.gov/Measure/OncologyPainIntensityQuantifiedFHIR","period":{"start":"2026-01-01","end":"2026-12-31"},"group":[{"id":"Group_1","population":[{"id":"InitialPopulation_1","code":{"coding":[{"system":"http://terminology.hl7.org/CodeSystem/measure-population","code":"initial-population","display":"Initial Population"}]},"count":0},{"id":"Denominator_1","code":{"coding":[{"system":"http://terminology.hl7.org/CodeSystem/measure-population","code":"denominator","display":"Denominator"}]},"count":0},{"id":"Numerator_1","code":{"coding":[{"system":"http://terminology.hl7.org/CodeSystem/measure-population","code":"numerator","display":"Numerator"}]},"count":0}],"measureScore":{"value":0.0}},{"id":"Group_2","population":[{"id":"InitialPopulation_2","code":{"coding":[{"system":"http://terminology.hl7.org/CodeSystem/measure-population","code":"initial-population","display":"Initial Population"}]},"count":0},{"id":"Denominator_2","code":{"coding":[{"system":"http://terminology.hl7.org/CodeSystem/measure-population","code":"denominator","display":"Denominator"}]},"count":0},{"id":"Numerator_2","code":{"coding":[{"system":"http://terminology.hl7.org/CodeSystem/measure-population","code":"numerator","display":"Numerator"}]},"count":0}],"measureScore":{"value":0.0}}],"evaluatedResource":[{"reference":"Patient/6c1a8557-73be-4026-9ec6-f0699bfcbfda"},{"reference":"Condition/cae13729-ecb4-4ce2-a4ab-0eaf36f0c823"},{"reference":"Encounter/d14e3cd2-479a-4795-ab5e-6931be791293"},{"reference":"Coverage/6e49fbcf-e7c1-4b02-8f1b-34486df76039"},{"reference":"Procedure/d8cce7d0-1a47-4a63-a34a-d4b871819f89"},{"reference":"Procedure/fcd09c92-a666-4ef9-899b-7aa677cc2050"},{"reference":"Organization/45c064b9-a6ed-41bb-b988-e321ecaa6ded"},{"reference":"Practitioner/47ba0dc8-9c6c-42e3-8574-3b32961808c3"}]},"request":{"method":"PUT","url":"MeasureReport/e46e6347-c30c-4288-a4e3-ec6f7ae9be57"}},{"resource":{"resourceType":"Condition","id":"cae13729-ecb4-4ce2-a4ab-0eaf36f0c823","meta":{"profile":["http://hl7.org/fhir/us/qicore/StructureDefinition/qicore-condition"]},"clinicalStatus":{"coding":[{"system":"http://terminology.hl7.org/CodeSystem/condition-clinical","code":"active","display":"active"}]},"verificationStatus":{"coding":[{"system":"http://terminology.hl7.org/CodeSystem/condition-ver-status","code":"confirmed","display":"Confirmed"}]},"category":[{"coding":[{"system":"http://terminology.hl7.org/CodeSystem/condition-category","code":"problem-list-item","display":"Problem List Item"}]}],"code":{"coding":[{"system":"http://hl7.org/fhir/sid/icd-10-cm","code":"C00.0"}]},"subject":{"reference":"Patient/6c1a8557-73be-4026-9ec6-f0699bfcbfda"},"onsetDateTime":"2025-11-24T08:00:00.000Z"},"request":{"method":"PUT","url":"Condition/cae13729-ecb4-4ce2-a4ab-0eaf36f0c823"}}]}