{
  "resourceType": "Bundle",
  "id": "61168b8798086b77ef9c5ecc",
  "type": "transaction",
  "entry": [ {
    "fullUrl": "https://madie.cms.gov/Patient/41ae0086-ac99-4a31-9546-21b054bbf7d8",
    "resource": {
      "resourceType": "Patient",
      "id": "41ae0086-ac99-4a31-9546-21b054bbf7d8",
      "meta": {
        "profile": [ "http://hl7.org/fhir/us/qicore/StructureDefinition/qicore-patient" ]
      },
      "extension": [ {
        "url": "http://hl7.org/fhir/us/core/StructureDefinition/us-core-race",
        "extension": [ {
          "url": "ombCategory",
          "valueCoding": {
            "system": "urn:oid:2.16.840.1.113883.6.238",
            "code": "2076-8",
            "display": "Native Hawaiian or Other Pacific Islander",
            "userSelected": true
          }
        }, {
          "url": "text",
          "valueString": "Native Hawaiian or Other Pacific Islander"
        } ]
      }, {
        "url": "http://hl7.org/fhir/us/core/StructureDefinition/us-core-ethnicity",
        "extension": [ {
          "url": "ombCategory",
          "valueCoding": {
            "system": "urn:oid:2.16.840.1.113883.6.238",
            "code": "2186-5",
            "display": "Not Hispanic or Latino",
            "userSelected": true
          }
        }, {
          "url": "text",
          "valueString": "Not Hispanic or Latino"
        } ]
      } ],
      "identifier": [ {
        "type": {
          "coding": [ {
            "system": "http://terminology.hl7.org/CodeSystem/v2-0203",
            "code": "MR"
          } ]
        },
        "system": "https://bonnie-fhir.healthit.gov/",
        "value": "61168b8798086b77ef9c5ecc"
      } ],
      "active": true,
      "name": [ {
        "use": "usual",
        "family": "DENEXCEPPass",
        "given": [ "CommEdemaPresentNotDonePR" ]
      } ],
      "gender": "male",
      "birthDate": "1981-01-14"
    },
    "request": {
      "method": "PUT",
      "url": "Patient/41ae0086-ac99-4a31-9546-21b054bbf7d8"
    }
  }, {
    "fullUrl": "https://madie.cms.gov/Communication/2ca1e95c-ce39-417d-9bff-2dc73fc3e80c",
    "resource": {
      "resourceType": "Communication",
      "id": "2ca1e95c-ce39-417d-9bff-2dc73fc3e80c",
      "meta": {
        "profile": [ "http://hl7.org/fhir/us/qicore/StructureDefinition/qicore-communicationnotdone" ]
      },
      "extension": [ {
        "url": "http://hl7.org/fhir/us/qicore/StructureDefinition/qicore-recorded",
        "valueDateTime": "2014-07-02T15:00:00.000+00:00"
      } ],
      "modifierExtension": [ {
        "url": "http://hl7.org/fhir/us/qicore/StructureDefinition/qicore-notDone",
        "valueBoolean": true
      }, {
        "url": "http://hl7.org/fhir/us/qicore/StructureDefinition/qicore-notDone",
        "valueBoolean": true
      } ],
      "status": "not-done",
      "statusReason": {
        "coding": [ {
          "system": "http://snomed.info/sct",
          "version": "http://snomed.info/sct/731000124108/version/20230301",
          "code": "183945002",
          "display": "Procedure declined for religious reason (situation)"
        } ]
      },
      "subject": {
        "reference": "Patient/41ae0086-ac99-4a31-9546-21b054bbf7d8"
      },
      "sent": "2026-07-09T08:00:00.000+00:00",
      "reasonCode": [ {
        "coding": [ {
          "system": "http://snomed.info/sct",
          "version": "http://snomed.info/sct/731000124108/version/20230301",
          "code": "312911008",
          "display": "Clinically significant macular edema (disorder)"
        } ]
      } ]
    },
    "request": {
      "method": "PUT",
      "url": "Communication/2ca1e95c-ce39-417d-9bff-2dc73fc3e80c"
    }
  }, {
    "fullUrl": "https://madie.cms.gov/Condition/7129c0ce-47b1-40cd-8656-3ba3a82eb193",
    "resource": {
      "resourceType": "Condition",
      "id": "7129c0ce-47b1-40cd-8656-3ba3a82eb193",
      "meta": {
        "profile": [ "http://hl7.org/fhir/us/qicore/StructureDefinition/qicore-condition-problems-health-concerns" ]
      },
      "clinicalStatus": {
        "coding": [ {
          "system": "http://terminology.hl7.org/CodeSystem/condition-clinical",
          "code": "active",
          "display": "active",
          "userSelected": true
        } ]
      },
      "category": [ {
        "coding": [ {
          "system": "http://terminology.hl7.org/CodeSystem/condition-category",
          "code": "problem-list-item",
          "display": "Problem List Item"
        } ]
      } ],
      "code": {
        "coding": [ {
          "system": "http://snomed.info/sct",
          "version": "http://snomed.info/sct/731000124108/version/202303",
          "code": "193349004"
        }, {
          "system": "http://hl7.org/fhir/sid/icd-10-cm",
          "version": "2023",
          "code": "E08.311"
        } ]
      },
      "subject": {
        "reference": "Patient/41ae0086-ac99-4a31-9546-21b054bbf7d8"
      },
      "onsetDateTime": "2023-07-01T15:00:00.000+00:00"
    },
    "request": {
      "method": "PUT",
      "url": "Condition/7129c0ce-47b1-40cd-8656-3ba3a82eb193"
    }
  }, {
    "fullUrl": "https://madie.cms.gov/Observation/56dbff9a-64e6-41c1-bcbe-8f32448e0088",
    "resource": {
      "resourceType": "Observation",
      "id": "56dbff9a-64e6-41c1-bcbe-8f32448e0088",
      "meta": {
        "profile": [ "http://hl7.org/fhir/us/qicore/StructureDefinition/qicore-observation-clinical-result" ]
      },
      "status": "final",
      "category": [ {
        "coding": [ {
          "system": "http://terminology.hl7.org/CodeSystem/observation-category",
          "code": "vital-signs",
          "display": "Vital Signs"
        } ]
      } ],
      "code": {
        "coding": [ {
          "system": "http://loinc.org",
          "version": "2.73",
          "code": "32451-7"
        } ]
      },
      "subject": {
        "reference": "Patient/41ae0086-ac99-4a31-9546-21b054bbf7d8"
      },
      "effectiveDateTime": "2026-07-09T08:00:00.000+00:00",
      "valueBoolean": true
    },
    "request": {
      "method": "PUT",
      "url": "Observation/56dbff9a-64e6-41c1-bcbe-8f32448e0088"
    }
  }, {
    "fullUrl": "https://madie.cms.gov/Encounter/eed4ff97-271d-4b44-8258-0439ef64c2cc",
    "resource": {
      "resourceType": "Encounter",
      "id": "eed4ff97-271d-4b44-8258-0439ef64c2cc",
      "meta": {
        "profile": [ "http://hl7.org/fhir/us/qicore/StructureDefinition/qicore-encounter" ]
      },
      "status": "finished",
      "class": {
        "system": "http://terminology.hl7.org/CodeSystem/v3-ActCode",
        "code": "AMB"
      },
      "type": [ {
        "coding": [ {
          "system": "http://www.ama-assn.org/go/cpt",
          "version": "2023",
          "code": "99205"
        } ]
      } ],
      "subject": {
        "reference": "Patient/41ae0086-ac99-4a31-9546-21b054bbf7d8"
      },
      "period": {
        "start": "2026-07-02T15:00:00.000+00:00",
        "end": "2026-08-02T16:00:00.000+00:00"
      }
    },
    "request": {
      "method": "PUT",
      "url": "Encounter/eed4ff97-271d-4b44-8258-0439ef64c2cc"
    }
  }, {
    "fullUrl": "https://madie.cms.gov/Communication/b92985da-3a50-4d55-a534-9f1c113bc511",
    "resource": {
      "resourceType": "Communication",
      "id": "b92985da-3a50-4d55-a534-9f1c113bc511",
      "meta": {
        "profile": [ "http://hl7.org/fhir/us/qicore/StructureDefinition/qicore-communicationnotdone" ]
      },
      "extension": [ {
        "url": "http://hl7.org/fhir/us/qicore/StructureDefinition/qicore-recorded",
        "valueDateTime": "2026-07-09T08:00:00.000+00:00"
      } ],
      "status": "not-done",
      "statusReason": {
        "coding": [ {
          "system": "http://snomed.info/sct",
          "version": "http://snomed.info/sct/731000124108/version/20230301",
          "code": "183945002",
          "display": "Procedure declined for religious reason (situation)"
        } ]
      },
      "category": [ {
        "coding": [ {
          "system": "http://snomed.info/sct",
          "code": "428341000124108",
          "display": "Macular edema absent (situation)",
          "userSelected": true
        } ]
      } ],
      "sent": "2026-07-09T08:00:00.000+00:00",
      "reasonCode": [ {
        "coding": [ {
          "system": "http://snomed.info/sct",
          "version": "http://snomed.info/sct/731000124108/version/202303",
          "code": "428341000124108",
          "display": "Macular edema absent (situation)"
        } ]
      } ]
    },
    "request": {
      "method": "PUT",
      "url": "Communication/b92985da-3a50-4d55-a534-9f1c113bc511"
    }
  }, {
    "fullUrl": "https://madie.cms.gov/MeasureReport/22ba84d7-8487-442a-bdb6-cb5a8c767443",
    "resource": {
      "resourceType": "MeasureReport",
      "id": "22ba84d7-8487-442a-bdb6-cb5a8c767443",
      "meta": {
        "profile": [ "http://hl7.org/fhir/us/cqfmeasures/StructureDefinition/test-case-cqfm" ]
      },
      "contained": [ {
        "resourceType": "Parameters",
        "id": "262263b0-d871-47ab-9632-86bc3a58fa13-parameters",
        "parameter": [ {
          "name": "subject",
          "valueString": "41ae0086-ac99-4a31-9546-21b054bbf7d8"
        } ]
      } ],
      "extension": [ {
        "url": "http://hl7.org/fhir/StructureDefinition/cqf-inputParameters",
        "valueReference": {
          "reference": "#262263b0-d871-47ab-9632-86bc3a58fa13-parameters"
        }
      }, {
        "url": "http://hl7.org/fhir/us/cqfmeasures/StructureDefinition/cqfm-testCaseDescription",
        "valueMarkdown": "Communication of Edema Present not Done for Patient Reasons meeting Denominator Exception"
      } ],
      "modifierExtension": [ {
        "url": "http://hl7.org/fhir/us/cqfmeasures/StructureDefinition/cqfm-isTestCase",
        "valueBoolean": true
      } ],
      "status": "complete",
      "type": "individual",
      "measure": "https://madie.cms.gov/Measure/CMS142FHIRDRCommunicationWithPhysicianManagingDiabetes",
      "period": {
        "start": "2026-01-01",
        "end": "2026-12-31"
      },
      "group": [ {
        "id": "Group_1",
        "population": [ {
          "id": "InitialPopulation_1",
          "code": {
            "coding": [ {
              "system": "http://terminology.hl7.org/CodeSystem/measure-population",
              "code": "initial-population",
              "display": "Initial Population"
            } ]
          },
          "count": 1
        }, {
          "id": "Denominator_1",
          "code": {
            "coding": [ {
              "system": "http://terminology.hl7.org/CodeSystem/measure-population",
              "code": "denominator",
              "display": "Denominator"
            } ]
          },
          "count": 1
        }, {
          "id": "Numerator_1",
          "code": {
            "coding": [ {
              "system": "http://terminology.hl7.org/CodeSystem/measure-population",
              "code": "numerator",
              "display": "Numerator"
            } ]
          },
          "count": 0
        }, {
          "id": "DenominatorException_1",
          "code": {
            "coding": [ {
              "system": "http://terminology.hl7.org/CodeSystem/measure-population",
              "code": "denominator-exception",
              "display": "Denominator Exception"
            } ]
          },
          "count": 1
        } ],
        "measureScore": {
          "value": 1.0
        }
      } ],
      "evaluatedResource": [ {
        "reference": "Patient/41ae0086-ac99-4a31-9546-21b054bbf7d8"
      }, {
        "reference": "Communication/2ca1e95c-ce39-417d-9bff-2dc73fc3e80c"
      }, {
        "reference": "Condition/7129c0ce-47b1-40cd-8656-3ba3a82eb193"
      }, {
        "reference": "Observation/56dbff9a-64e6-41c1-bcbe-8f32448e0088"
      }, {
        "reference": "Encounter/eed4ff97-271d-4b44-8258-0439ef64c2cc"
      }, {
        "reference": "Communication/b92985da-3a50-4d55-a534-9f1c113bc511"
      } ]
    },
    "request": {
      "method": "PUT",
      "url": "MeasureReport/22ba84d7-8487-442a-bdb6-cb5a8c767443"
    }
  } ]
}