{"resourceType":"Bundle","id":"tests-a11dce52-c6b3-46e5-bc01-8994b0c8f471-bundle","type":"transaction","entry":[{"resource":{"resourceType":"Coverage","id":"3e797460-2dba-4bb6-a176-f4b3768afc15","meta":{"profile":["http://hl7.org/fhir/us/qicore/StructureDefinition/qicore-coverage"]},"identifier":[{"type":{"coding":[{"system":"http://terminology.hl7.org/CodeSystem/v2-0203","code":"MB"}]}}],"status":"active","beneficiary":{"reference":"Patient/a11dce52-c6b3-46e5-bc01-8994b0c8f471"},"relationship":{"coding":[{"system":"http://terminology.hl7.org/CodeSystem/subscriber-relationship","code":"self"}]},"payor":[{"reference":"Organization/a0fe7f08-4472-4ab5-aa47-10cbda4dcf5d"}]},"request":{"method":"PUT","url":"Coverage/3e797460-2dba-4bb6-a176-f4b3768afc15"}},{"resource":{"resourceType":"Patient","id":"a11dce52-c6b3-46e5-bc01-8994b0c8f471","meta":{"profile":["http://hl7.org/fhir/us/qicore/StructureDefinition/qicore-patient"]},"extension":[{"url":"http://hl7.org/fhir/us/core/StructureDefinition/us-core-race","extension":[{"url":"ombCategory","valueCoding":{"system":"urn:oid:2.16.840.1.113883.6.238","code":"1002-5","display":"American Indian or Alaska Native","userSelected":true}},{"url":"text","valueString":"American Indian or Alaska Native"}]},{"url":"http://hl7.org/fhir/us/core/StructureDefinition/us-core-ethnicity","extension":[{"url":"ombCategory","valueCoding":{"system":"urn:oid:2.16.840.1.113883.6.238","code":"2135-2","display":"Hispanic or Latino","userSelected":true}},{"url":"text","valueString":"Hispanic or Latino"}]},{"url":"http://hl7.org/fhir/us/core/StructureDefinition/us-core-sex","valueCode":"248153007"}],"identifier":[{"type":{"coding":[{"system":"http://terminology.hl7.org/CodeSystem/v2-0203","code":"MR"}]},"system":"https://bonnie-fhir.healthit.gov/","value":"661476b015ed5841a5547ebf"}],"name":[{"family":"NUMEXStrat4Pass","given":["TransferToRehabNotACFDischargeDisposition"]}],"gender":"male","birthDate":"2009-01-01"},"request":{"method":"PUT","url":"Patient/a11dce52-c6b3-46e5-bc01-8994b0c8f471"}},{"resource":{"resourceType":"MeasureReport","id":"a0137e69-814b-4255-bd1d-02d31683b4e4","meta":{"profile":["http://hl7.org/fhir/us/cqfmeasures/StructureDefinition/test-case-cqfm"]},"contained":[{"resourceType":"Parameters","id":"05d53f15-b722-42c9-93ce-f470642888df-parameters","parameter":[{"name":"subject","valueString":"a11dce52-c6b3-46e5-bc01-8994b0c8f471"}]}],"extension":[{"url":"http://hl7.org/fhir/StructureDefinition/cqf-inputParameters","valueReference":{"reference":"#05d53f15-b722-42c9-93ce-f470642888df-parameters"}},{"url":"http://hl7.org/fhir/us/cqfmeasures/StructureDefinition/cqfm-testCaseDescription","valueMarkdown":"Enc 1st day of MP, has behavioral health disorder, EDLOS 481 minutes, fails transfer d/t rehab not in Discharge to ACF"}],"modifierExtension":[{"url":"http://hl7.org/fhir/us/cqfmeasures/StructureDefinition/cqfm-isTestCase","valueBoolean":true}],"status":"complete","type":"individual","measure":"https://madie.cms.gov/Measure/CMS1264FHIRECATREHQR","period":{"start":"2027-01-01","end":"2027-12-31"},"group":[{"id":"Group_1","population":[{"id":"InitialPopulation_1","code":{"coding":[{"system":"http://terminology.hl7.org/CodeSystem/measure-population","code":"initial-population","display":"Initial Population"}]},"count":1},{"id":"Denominator_1","code":{"coding":[{"system":"http://terminology.hl7.org/CodeSystem/measure-population","code":"denominator","display":"Denominator"}]},"count":1},{"id":"Numerator_1","code":{"coding":[{"system":"http://terminology.hl7.org/CodeSystem/measure-population","code":"numerator","display":"Numerator"}]},"count":1}],"measureScore":{"value":0.0},"stratifier":[{"id":"Stratification_1_1","code":[{"text":"Strata-1"}],"stratum":[{"value":{"text":"Strata-1"},"population":[{"id":"InitialPopulation_1","code":{"coding":[{"system":"http://terminology.hl7.org/CodeSystem/measure-population","code":"initial-population","display":"Initial Population"}]},"count":0},{"id":"Denominator_1","code":{"coding":[{"system":"http://terminology.hl7.org/CodeSystem/measure-population","code":"denominator","display":"Denominator"}]},"count":0},{"id":"Numerator_1","code":{"coding":[{"system":"http://terminology.hl7.org/CodeSystem/measure-population","code":"numerator","display":"Numerator"}]},"count":0}]}]},{"id":"Stratification_1_2","code":[{"text":"Strata-2"}],"stratum":[{"value":{"text":"Strata-2"},"population":[{"id":"InitialPopulation_1","code":{"coding":[{"system":"http://terminology.hl7.org/CodeSystem/measure-population","code":"initial-population","display":"Initial Population"}]},"count":0},{"id":"Denominator_1","code":{"coding":[{"system":"http://terminology.hl7.org/CodeSystem/measure-population","code":"denominator","display":"Denominator"}]},"count":0},{"id":"Numerator_1","code":{"coding":[{"system":"http://terminology.hl7.org/CodeSystem/measure-population","code":"numerator","display":"Numerator"}]},"count":0}]}]},{"id":"Stratification_1_3","code":[{"text":"Strata-3"}],"stratum":[{"value":{"text":"Strata-3"},"population":[{"id":"InitialPopulation_1","code":{"coding":[{"system":"http://terminology.hl7.org/CodeSystem/measure-population","code":"initial-population","display":"Initial Population"}]},"count":0},{"id":"Denominator_1","code":{"coding":[{"system":"http://terminology.hl7.org/CodeSystem/measure-population","code":"denominator","display":"Denominator"}]},"count":0},{"id":"Numerator_1","code":{"coding":[{"system":"http://terminology.hl7.org/CodeSystem/measure-population","code":"numerator","display":"Numerator"}]},"count":0}]}]},{"id":"Stratification_1_4","code":[{"text":"Strata-4"}],"stratum":[{"value":{"text":"Strata-4"},"population":[{"id":"InitialPopulation_1","code":{"coding":[{"system":"http://terminology.hl7.org/CodeSystem/measure-population","code":"initial-population","display":"Initial Population"}]},"count":1},{"id":"Denominator_1","code":{"coding":[{"system":"http://terminology.hl7.org/CodeSystem/measure-population","code":"denominator","display":"Denominator"}]},"count":1},{"id":"Numerator_1","code":{"coding":[{"system":"http://terminology.hl7.org/CodeSystem/measure-population","code":"numerator","display":"Numerator"}]},"count":1}]}]}]}],"evaluatedResource":[{"reference":"Patient/a11dce52-c6b3-46e5-bc01-8994b0c8f471"},{"reference":"Encounter/d92dc9cf-a3d5-4b4f-afe3-f5bbf4c54e87"},{"reference":"Condition/9dbdcc7b-7dae-4fcf-99f2-799fde777324"},{"reference":"Location/2aabee7c-fde7-4f70-88d0-eed74885a925"},{"reference":"Claim/ClaimBehavior-NotSubsAbuse"},{"reference":"Coverage/3e797460-2dba-4bb6-a176-f4b3768afc15"},{"reference":"Organization/a0fe7f08-4472-4ab5-aa47-10cbda4dcf5d"},{"reference":"Practitioner/c9b8de7a-3e5a-43e0-88e6-0cc3a53a9011"}]},"request":{"method":"PUT","url":"MeasureReport/a0137e69-814b-4255-bd1d-02d31683b4e4"}},{"resource":{"resourceType":"Condition","id":"9dbdcc7b-7dae-4fcf-99f2-799fde777324","meta":{"profile":["http://hl7.org/fhir/us/qicore/StructureDefinition/qicore-condition-encounter-diagnosis"]},"category":[{"coding":[{"system":"http://terminology.hl7.org/CodeSystem/condition-category","code":"encounter-diagnosis","display":"Encounter Diagnosis"}]}],"code":{"coding":[{"system":"http://snomed.info/sct","version":"2023-09","code":"66344007","display":"Recurrent major depression (disorder)","userSelected":true}]},"subject":{"reference":"Patient/a11dce52-c6b3-46e5-bc01-8994b0c8f471"},"recordedDate":"2027-05-01T08:00:00.000+00:00"},"request":{"method":"PUT","url":"Condition/9dbdcc7b-7dae-4fcf-99f2-799fde777324"}},{"resource":{"resourceType":"Practitioner","id":"c9b8de7a-3e5a-43e0-88e6-0cc3a53a9011","meta":{"profile":["http://hl7.org/fhir/us/qicore/StructureDefinition/qicore-practitioner"]},"identifier":[{"system":"http://hl7.org/fhir/sid/us-npi","value":"9999999896"}],"name":[{"family":"Evil","prefix":["Dr"]}]},"request":{"method":"PUT","url":"Practitioner/c9b8de7a-3e5a-43e0-88e6-0cc3a53a9011"}},{"resource":{"resourceType":"Location","id":"2aabee7c-fde7-4f70-88d0-eed74885a925","meta":{"profile":["http://hl7.org/fhir/us/qicore/StructureDefinition/qicore-location"]},"identifier":[{"use":"usual","system":"http://exampleoflocation.com","value":"B1-S.F2"}],"name":"Emergency Department","type":[{"coding":[{"system":"https://www.cdc.gov/nhsn/cdaportal/terminology/codesystem/hsloc.html","version":"2022","code":"1108-0","display":"Emergency Department","userSelected":true}]}]},"request":{"method":"PUT","url":"Location/2aabee7c-fde7-4f70-88d0-eed74885a925"}},{"resource":{"resourceType":"Encounter","id":"d92dc9cf-a3d5-4b4f-afe3-f5bbf4c54e87","meta":{"profile":["http://hl7.org/fhir/us/qicore/StructureDefinition/qicore-encounter"]},"status":"finished","class":{"system":"http://terminology.hl7.org/CodeSystem/v3-ActCode","code":"EMER","display":"emergency department"},"type":[{"coding":[{"system":"http://snomed.info/sct","version":"2023-09","code":"4525004","display":"Discharge to rehabilitation facility (procedure)","userSelected":true}]}],"subject":{"reference":"Patient/a11dce52-c6b3-46e5-bc01-8994b0c8f471"},"period":{"start":"2027-05-01T06:00:00.000+00:00","end":"2027-05-01T14:01:00.000+00:00"},"diagnosis":[{"condition":{"reference":"Condition/9dbdcc7b-7dae-4fcf-99f2-799fde777324"},"use":{"coding":[{"system":"http://terminology.hl7.org/CodeSystem/diagnosis-role","code":"billing"}]},"rank":1}],"hospitalization":{"dischargeDisposition":{"coding":[{"system":"http://snomed.info/sct","code":"433591000124103","display":"Discharge to rehabilitation center","userSelected":true}]}},"location":[{"location":{"reference":"Location/2aabee7c-fde7-4f70-88d0-eed74885a925"},"period":{"start":"2027-05-01T06:00:00.000+00:00","end":"2027-05-01T14:01:00.000+00:00"}}]},"request":{"method":"PUT","url":"Encounter/d92dc9cf-a3d5-4b4f-afe3-f5bbf4c54e87"}},{"resource":{"resourceType":"Bundle","id":"661476b015ed5841a5547ebf","type":"transaction","entry":[{"fullUrl":"https://madie.cms.gov/Patient/a11dce52-c6b3-46e5-bc01-8994b0c8f471","resource":{"resourceType":"Patient","id":"a11dce52-c6b3-46e5-bc01-8994b0c8f471","meta":{"profile":["http://hl7.org/fhir/us/qicore/StructureDefinition/qicore-patient"]},"extension":[{"url":"http://hl7.org/fhir/us/core/StructureDefinition/us-core-race","extension":[{"url":"ombCategory","valueCoding":{"system":"urn:oid:2.16.840.1.113883.6.238","code":"1002-5","display":"American Indian or Alaska Native","userSelected":true}},{"url":"text","valueString":"American Indian or Alaska Native"}]},{"url":"http://hl7.org/fhir/us/core/StructureDefinition/us-core-ethnicity","extension":[{"url":"ombCategory","valueCoding":{"system":"urn:oid:2.16.840.1.113883.6.238","code":"2135-2","display":"Hispanic or Latino","userSelected":true}},{"url":"text","valueString":"Hispanic or Latino"}]},{"url":"http://hl7.org/fhir/us/core/StructureDefinition/us-core-sex","valueCode":"248153007"}],"identifier":[{"type":{"coding":[{"system":"http://terminology.hl7.org/CodeSystem/v2-0203","code":"MR"}]},"system":"https://bonnie-fhir.healthit.gov/","value":"661476b015ed5841a5547ebf"}],"name":[{"family":"NUMEXStrat4Pass","given":["TransferToRehabNotACFDischargeDisposition"]}],"gender":"male","birthDate":"2009-01-01"},"request":{"method":"PUT","url":"Patient/a11dce52-c6b3-46e5-bc01-8994b0c8f471"}},{"fullUrl":"https://madie.cms.gov/Encounter/d92dc9cf-a3d5-4b4f-afe3-f5bbf4c54e87","resource":{"resourceType":"Encounter","id":"d92dc9cf-a3d5-4b4f-afe3-f5bbf4c54e87","meta":{"profile":["http://hl7.org/fhir/us/qicore/StructureDefinition/qicore-encounter"]},"status":"finished","class":{"system":"http://terminology.hl7.org/CodeSystem/v3-ActCode","code":"EMER","display":"emergency department"},"type":[{"coding":[{"system":"http://snomed.info/sct","version":"2023-09","code":"4525004","display":"Discharge to rehabilitation facility (procedure)","userSelected":true}]}],"subject":{"reference":"Patient/a11dce52-c6b3-46e5-bc01-8994b0c8f471"},"period":{"start":"2027-05-01T06:00:00.000+00:00","end":"2027-05-01T14:01:00.000+00:00"},"diagnosis":[{"condition":{"reference":"Condition/9dbdcc7b-7dae-4fcf-99f2-799fde777324"},"use":{"coding":[{"system":"http://terminology.hl7.org/CodeSystem/diagnosis-role","code":"billing"}]},"rank":1}],"hospitalization":{"dischargeDisposition":{"coding":[{"system":"http://snomed.info/sct","code":"433591000124103","display":"Discharge to rehabilitation center","userSelected":true}]}},"location":[{"location":{"reference":"Location/2aabee7c-fde7-4f70-88d0-eed74885a925"},"period":{"start":"2027-05-01T06:00:00.000+00:00","end":"2027-05-01T14:01:00.000+00:00"}}]},"request":{"method":"PUT","url":"Encounter/d92dc9cf-a3d5-4b4f-afe3-f5bbf4c54e87"}},{"fullUrl":"https://madie.cms.gov/Condition/9dbdcc7b-7dae-4fcf-99f2-799fde777324","resource":{"resourceType":"Condition","id":"9dbdcc7b-7dae-4fcf-99f2-799fde777324","meta":{"profile":["http://hl7.org/fhir/us/qicore/StructureDefinition/qicore-condition-encounter-diagnosis"]},"category":[{"coding":[{"system":"http://terminology.hl7.org/CodeSystem/condition-category","code":"encounter-diagnosis","display":"Encounter Diagnosis"}]}],"code":{"coding":[{"system":"http://snomed.info/sct","version":"2023-09","code":"66344007","display":"Recurrent major depression (disorder)","userSelected":true}]},"subject":{"reference":"Patient/a11dce52-c6b3-46e5-bc01-8994b0c8f471"},"recordedDate":"2027-05-01T08:00:00.000+00:00"},"request":{"method":"PUT","url":"Condition/9dbdcc7b-7dae-4fcf-99f2-799fde777324"}},{"fullUrl":"https://madie.cms.gov/Location/2aabee7c-fde7-4f70-88d0-eed74885a925","resource":{"resourceType":"Location","id":"2aabee7c-fde7-4f70-88d0-eed74885a925","meta":{"profile":["http://hl7.org/fhir/us/qicore/StructureDefinition/qicore-location"]},"identifier":[{"use":"usual","system":"http://exampleoflocation.com","value":"B1-S.F2"}],"name":"Emergency Department","type":[{"coding":[{"system":"https://www.cdc.gov/nhsn/cdaportal/terminology/codesystem/hsloc.html","version":"2022","code":"1108-0","display":"Emergency Department","userSelected":true}]}]},"request":{"method":"PUT","url":"Location/2aabee7c-fde7-4f70-88d0-eed74885a925"}},{"fullUrl":"https://madie.cms.gov/claim/ClaimBehavior-NotSubsAbuse","resource":{"resourceType":"Claim","id":"ClaimBehavior-NotSubsAbuse","meta":{"profile":["http://hl7.org/fhir/us/qicore/StructureDefinition/qicore-claim"]},"status":"active","type":{"coding":[{"system":"http://terminology.hl7.org/CodeSystem/claim-type","code":"institutional"}]},"use":"claim","patient":{"reference":"Patient/a11dce52-c6b3-46e5-bc01-8994b0c8f471"},"created":"2027-05-01","provider":{"reference":"Practitioner/practitioner-123456"},"priority":{"coding":[{"system":"http://terminology.hl7.org/CodeSystem/processpriority","code":"normal"}]},"diagnosis":[{"sequence":1,"diagnosisReference":{"reference":"Condition/9dbdcc7b-7dae-4fcf-99f2-799fde777324"},"type":[{"coding":[{"system":"http://terminology.hl7.org/CodeSystem/ex-diagnosistype","code":"principal"}]}]}],"insurance":[{"sequence":1,"focal":true,"coverage":{"reference":"Coverage/1"}}],"item":[{"sequence":1,"diagnosisSequence":[1],"productOrService":{"coding":[{"system":"http://terminology.hl7.org/CodeSystem/ex-USCLS","code":"99555"}]},"encounter":[{"reference":"Encounter/d92dc9cf-a3d5-4b4f-afe3-f5bbf4c54e87"}]}]},"request":{"method":"PUT","url":"Claim/ClaimBehavior-NotSubsAbuse"}},{"fullUrl":"https://madie.cms.gov/Coverage/3e797460-2dba-4bb6-a176-f4b3768afc15","resource":{"resourceType":"Coverage","id":"3e797460-2dba-4bb6-a176-f4b3768afc15","meta":{"profile":["http://hl7.org/fhir/us/qicore/StructureDefinition/qicore-coverage"]},"identifier":[{"type":{"coding":[{"system":"http://terminology.hl7.org/CodeSystem/v2-0203","code":"MB"}]}}],"status":"active","beneficiary":{"reference":"Patient/a11dce52-c6b3-46e5-bc01-8994b0c8f471"},"relationship":{"coding":[{"system":"http://terminology.hl7.org/CodeSystem/subscriber-relationship","code":"self"}]},"payor":[{"reference":"Organization/a0fe7f08-4472-4ab5-aa47-10cbda4dcf5d"}]},"request":{"method":"PUT","url":"Coverage/3e797460-2dba-4bb6-a176-f4b3768afc15"}},{"fullUrl":"https://madie.cms.gov/Organization/a0fe7f08-4472-4ab5-aa47-10cbda4dcf5d","resource":{"resourceType":"Organization","id":"a0fe7f08-4472-4ab5-aa47-10cbda4dcf5d","meta":{"profile":["http://hl7.org/fhir/us/qicore/StructureDefinition/qicore-organization"]},"identifier":[{"use":"temp","system":"urn:oid:2.16.840.1.113883.4.4","value":"21-3259825"}],"active":true,"type":[{"coding":[{"system":"http://terminology.hl7.org/CodeSystem/organization-type","code":"pay","display":"Payer"}]}],"name":"Blue Cross Blue Shield of Texas","telecom":[{"system":"phone","value":"(+1) 972-766-6900"}],"address":[{"use":"billing","type":"postal","line":["P.O. Box 660044"],"city":"Dallas","state":"TX","postalCode":"75266-0044","country":"USA"}]},"request":{"method":"PUT","url":"Organization/a0fe7f08-4472-4ab5-aa47-10cbda4dcf5d"}},{"fullUrl":"https://madie.cms.gov/Practitioner/c9b8de7a-3e5a-43e0-88e6-0cc3a53a9011","resource":{"resourceType":"Practitioner","id":"c9b8de7a-3e5a-43e0-88e6-0cc3a53a9011","meta":{"profile":["http://hl7.org/fhir/us/qicore/StructureDefinition/qicore-practitioner"]},"identifier":[{"system":"http://hl7.org/fhir/sid/us-npi","value":"9999999896"}],"name":[{"family":"Evil","prefix":["Dr"]}]},"request":{"method":"PUT","url":"Practitioner/c9b8de7a-3e5a-43e0-88e6-0cc3a53a9011"}},{"fullUrl":"https://madie.cms.gov/MeasureReport/a0137e69-814b-4255-bd1d-02d31683b4e4","resource":{"resourceType":"MeasureReport","id":"a0137e69-814b-4255-bd1d-02d31683b4e4","meta":{"profile":["http://hl7.org/fhir/us/cqfmeasures/StructureDefinition/test-case-cqfm"]},"contained":[{"resourceType":"Parameters","id":"05d53f15-b722-42c9-93ce-f470642888df-parameters","parameter":[{"name":"subject","valueString":"a11dce52-c6b3-46e5-bc01-8994b0c8f471"}]}],"extension":[{"url":"http://hl7.org/fhir/StructureDefinition/cqf-inputParameters","valueReference":{"reference":"#05d53f15-b722-42c9-93ce-f470642888df-parameters"}},{"url":"http://hl7.org/fhir/us/cqfmeasures/StructureDefinition/cqfm-testCaseDescription","valueMarkdown":"Enc 1st day of MP, has behavioral health disorder, EDLOS 481 minutes, fails transfer d/t rehab not in Discharge to ACF"}],"modifierExtension":[{"url":"http://hl7.org/fhir/us/cqfmeasures/StructureDefinition/cqfm-isTestCase","valueBoolean":true}],"status":"complete","type":"individual","measure":"https://madie.cms.gov/Measure/CMS1264FHIRECATREHQR","period":{"start":"2027-01-01","end":"2027-12-31"},"group":[{"id":"Group_1","population":[{"id":"InitialPopulation_1","code":{"coding":[{"system":"http://terminology.hl7.org/CodeSystem/measure-population","code":"initial-population","display":"Initial Population"}]},"count":1},{"id":"Denominator_1","code":{"coding":[{"system":"http://terminology.hl7.org/CodeSystem/measure-population","code":"denominator","display":"Denominator"}]},"count":1},{"id":"Numerator_1","code":{"coding":[{"system":"http://terminology.hl7.org/CodeSystem/measure-population","code":"numerator","display":"Numerator"}]},"count":1}],"measureScore":{"value":0.0},"stratifier":[{"id":"Stratification_1_1","code":[{"text":"Strata-1"}],"stratum":[{"value":{"text":"Strata-1"},"population":[{"id":"InitialPopulation_1","code":{"coding":[{"system":"http://terminology.hl7.org/CodeSystem/measure-population","code":"initial-population","display":"Initial Population"}]},"count":0},{"id":"Denominator_1","code":{"coding":[{"system":"http://terminology.hl7.org/CodeSystem/measure-population","code":"denominator","display":"Denominator"}]},"count":0},{"id":"Numerator_1","code":{"coding":[{"system":"http://terminology.hl7.org/CodeSystem/measure-population","code":"numerator","display":"Numerator"}]},"count":0}]}]},{"id":"Stratification_1_2","code":[{"text":"Strata-2"}],"stratum":[{"value":{"text":"Strata-2"},"population":[{"id":"InitialPopulation_1","code":{"coding":[{"system":"http://terminology.hl7.org/CodeSystem/measure-population","code":"initial-population","display":"Initial Population"}]},"count":0},{"id":"Denominator_1","code":{"coding":[{"system":"http://terminology.hl7.org/CodeSystem/measure-population","code":"denominator","display":"Denominator"}]},"count":0},{"id":"Numerator_1","code":{"coding":[{"system":"http://terminology.hl7.org/CodeSystem/measure-population","code":"numerator","display":"Numerator"}]},"count":0}]}]},{"id":"Stratification_1_3","code":[{"text":"Strata-3"}],"stratum":[{"value":{"text":"Strata-3"},"population":[{"id":"InitialPopulation_1","code":{"coding":[{"system":"http://terminology.hl7.org/CodeSystem/measure-population","code":"initial-population","display":"Initial Population"}]},"count":0},{"id":"Denominator_1","code":{"coding":[{"system":"http://terminology.hl7.org/CodeSystem/measure-population","code":"denominator","display":"Denominator"}]},"count":0},{"id":"Numerator_1","code":{"coding":[{"system":"http://terminology.hl7.org/CodeSystem/measure-population","code":"numerator","display":"Numerator"}]},"count":0}]}]},{"id":"Stratification_1_4","code":[{"text":"Strata-4"}],"stratum":[{"value":{"text":"Strata-4"},"population":[{"id":"InitialPopulation_1","code":{"coding":[{"system":"http://terminology.hl7.org/CodeSystem/measure-population","code":"initial-population","display":"Initial Population"}]},"count":1},{"id":"Denominator_1","code":{"coding":[{"system":"http://terminology.hl7.org/CodeSystem/measure-population","code":"denominator","display":"Denominator"}]},"count":1},{"id":"Numerator_1","code":{"coding":[{"system":"http://terminology.hl7.org/CodeSystem/measure-population","code":"numerator","display":"Numerator"}]},"count":1}]}]}]}],"evaluatedResource":[{"reference":"Patient/a11dce52-c6b3-46e5-bc01-8994b0c8f471"},{"reference":"Encounter/d92dc9cf-a3d5-4b4f-afe3-f5bbf4c54e87"},{"reference":"Condition/9dbdcc7b-7dae-4fcf-99f2-799fde777324"},{"reference":"Location/2aabee7c-fde7-4f70-88d0-eed74885a925"},{"reference":"Claim/ClaimBehavior-NotSubsAbuse"},{"reference":"Coverage/3e797460-2dba-4bb6-a176-f4b3768afc15"},{"reference":"Organization/a0fe7f08-4472-4ab5-aa47-10cbda4dcf5d"},{"reference":"Practitioner/c9b8de7a-3e5a-43e0-88e6-0cc3a53a9011"}]},"request":{"method":"PUT","url":"MeasureReport/a0137e69-814b-4255-bd1d-02d31683b4e4"}}]},"request":{"method":"PUT","url":"Bundle/661476b015ed5841a5547ebf"}},{"resource":{"resourceType":"Claim","id":"ClaimBehavior-NotSubsAbuse","meta":{"profile":["http://hl7.org/fhir/us/qicore/StructureDefinition/qicore-claim"]},"status":"active","type":{"coding":[{"system":"http://terminology.hl7.org/CodeSystem/claim-type","code":"institutional"}]},"use":"claim","patient":{"reference":"Patient/a11dce52-c6b3-46e5-bc01-8994b0c8f471"},"created":"2027-05-01","provider":{"reference":"Practitioner/practitioner-123456"},"priority":{"coding":[{"system":"http://terminology.hl7.org/CodeSystem/processpriority","code":"normal"}]},"diagnosis":[{"sequence":1,"diagnosisReference":{"reference":"Condition/9dbdcc7b-7dae-4fcf-99f2-799fde777324"},"type":[{"coding":[{"system":"http://terminology.hl7.org/CodeSystem/ex-diagnosistype","code":"principal"}]}]}],"insurance":[{"sequence":1,"focal":true,"coverage":{"reference":"Coverage/1"}}],"item":[{"sequence":1,"diagnosisSequence":[1],"productOrService":{"coding":[{"system":"http://terminology.hl7.org/CodeSystem/ex-USCLS","code":"99555"}]},"encounter":[{"reference":"Encounter/d92dc9cf-a3d5-4b4f-afe3-f5bbf4c54e87"}]}]},"request":{"method":"PUT","url":"Claim/ClaimBehavior-NotSubsAbuse"}},{"resource":{"resourceType":"Organization","id":"a0fe7f08-4472-4ab5-aa47-10cbda4dcf5d","meta":{"profile":["http://hl7.org/fhir/us/qicore/StructureDefinition/qicore-organization"]},"identifier":[{"use":"temp","system":"urn:oid:2.16.840.1.113883.4.4","value":"21-3259825"}],"active":true,"type":[{"coding":[{"system":"http://terminology.hl7.org/CodeSystem/organization-type","code":"pay","display":"Payer"}]}],"name":"Blue Cross Blue Shield of Texas","telecom":[{"system":"phone","value":"(+1) 972-766-6900"}],"address":[{"use":"billing","type":"postal","line":["P.O. Box 660044"],"city":"Dallas","state":"TX","postalCode":"75266-0044","country":"USA"}]},"request":{"method":"PUT","url":"Organization/a0fe7f08-4472-4ab5-aa47-10cbda4dcf5d"}}]}