{"resourceType":"Bundle","id":"tests-404c928b-a752-4792-91c4-8a1fd0656759-bundle","type":"transaction","entry":[{"resource":{"resourceType":"Location","id":"1839972a-7642-43bd-8cf3-be36a30fd312","meta":{"profile":["http://hl7.org/fhir/us/qicore/StructureDefinition/qicore-location"]},"identifier":[{"use":"usual","system":"http://exampleoflocation.com","value":"B1-S.F2"}],"name":"Emergency Department","type":[{"coding":[{"system":"https://www.cdc.gov/nhsn/cdaportal/terminology/codesystem/hsloc.html","version":"2022","code":"1108-0","display":"Emergency Department","userSelected":true}]}]},"request":{"method":"PUT","url":"Location/1839972a-7642-43bd-8cf3-be36a30fd312"}},{"resource":{"resourceType":"Organization","id":"5c6f9aa4-28d5-425f-87c9-24e6de212a08","meta":{"profile":["http://hl7.org/fhir/us/qicore/StructureDefinition/qicore-organization"]},"identifier":[{"use":"temp","system":"urn:oid:2.16.840.1.113883.4.4","value":"21-3259825"}],"active":true,"type":[{"coding":[{"system":"http://terminology.hl7.org/CodeSystem/organization-type","code":"pay","display":"Payer"}]}],"name":"Blue Cross Blue Shield of Texas","telecom":[{"system":"phone","value":"(+1) 972-766-6900"}],"address":[{"use":"billing","type":"postal","line":["P.O. Box 660044"],"city":"Dallas","state":"TX","postalCode":"75266-0044","country":"USA"}]},"request":{"method":"PUT","url":"Organization/5c6f9aa4-28d5-425f-87c9-24e6de212a08"}},{"resource":{"resourceType":"Location","id":"7f205a90-a3ef-4e76-8570-bcfe86f7235b","meta":{"profile":["http://hl7.org/fhir/us/qicore/StructureDefinition/qicore-location"]},"identifier":[{"use":"usual","system":"http://exampleoflocation.com","value":"B1-S.F2"}],"name":"Emergency Department","type":[{"coding":[{"system":"https://www.cdc.gov/nhsn/cdaportal/terminology/codesystem/hsloc.html","version":"2022","code":"1209-6","display":"Treatment Room"}]}]},"request":{"method":"PUT","url":"Location/7f205a90-a3ef-4e76-8570-bcfe86f7235b"}},{"resource":{"resourceType":"Patient","id":"404c928b-a752-4792-91c4-8a1fd0656759","meta":{"profile":["http://hl7.org/fhir/us/qicore/StructureDefinition/qicore-patient"]},"extension":[{"url":"http://hl7.org/fhir/us/core/StructureDefinition/us-core-race","extension":[{"url":"ombCategory","valueCoding":{"system":"urn:oid:2.16.840.1.113883.6.238","code":"2076-8","display":"Native Hawaiian or Other Pacific Islander","userSelected":true}},{"url":"text","valueString":"Native Hawaiian or Other Pacific Islander"}]},{"url":"http://hl7.org/fhir/us/core/StructureDefinition/us-core-ethnicity","extension":[{"url":"ombCategory","valueCoding":{"system":"urn:oid:2.16.840.1.113883.6.238","code":"2186-5","display":"Not Hispanic or Latino","userSelected":true}},{"url":"text","valueString":"Not Hispanic or Latino"}]},{"url":"http://hl7.org/fhir/us/core/StructureDefinition/us-core-sex","valueCode":"248153007"}],"identifier":[{"type":{"coding":[{"system":"http://terminology.hl7.org/CodeSystem/v2-0203","code":"MR"}]},"system":"https://bonnie-fhir.healthit.gov/","value":"661579e3db207d74c03b8a54"}],"name":[{"family":"NUMERStrat4Pass","given":["EDEncounterStatusFinished"]}],"gender":"female","birthDate":"2008-12-31"},"request":{"method":"PUT","url":"Patient/404c928b-a752-4792-91c4-8a1fd0656759"}},{"resource":{"resourceType":"MeasureReport","id":"3e6697e0-791f-4f04-9463-bb3c2c7037f8","meta":{"profile":["http://hl7.org/fhir/us/cqfmeasures/StructureDefinition/test-case-cqfm"]},"contained":[{"resourceType":"Parameters","id":"08d5a8b6-2f4a-4dbc-9465-3d11cf36599d-parameters","parameter":[{"name":"subject","valueString":"404c928b-a752-4792-91c4-8a1fd0656759"}]}],"extension":[{"url":"http://hl7.org/fhir/StructureDefinition/cqf-inputParameters","valueReference":{"reference":"#08d5a8b6-2f4a-4dbc-9465-3d11cf36599d-parameters"}},{"url":"http://hl7.org/fhir/us/cqfmeasures/StructureDefinition/cqfm-testCaseDescription","valueMarkdown":"Enc 1st day of MP, in ED only 40 mins. "}],"modifierExtension":[{"url":"http://hl7.org/fhir/us/cqfmeasures/StructureDefinition/cqfm-isTestCase","valueBoolean":true}],"status":"complete","type":"individual","measure":"https://madie.cms.gov/Measure/CMS1264FHIRECATREHQR","period":{"start":"2027-01-01","end":"2027-12-31"},"group":[{"id":"Group_1","population":[{"id":"InitialPopulation_1","code":{"coding":[{"system":"http://terminology.hl7.org/CodeSystem/measure-population","code":"initial-population","display":"Initial Population"}]},"count":1},{"id":"Denominator_1","code":{"coding":[{"system":"http://terminology.hl7.org/CodeSystem/measure-population","code":"denominator","display":"Denominator"}]},"count":1},{"id":"Numerator_1","code":{"coding":[{"system":"http://terminology.hl7.org/CodeSystem/measure-population","code":"numerator","display":"Numerator"}]},"count":0}],"measureScore":{"value":0.0},"stratifier":[{"id":"Stratification_1_1","code":[{"text":"Strata-1"}],"stratum":[{"value":{"text":"Strata-1"},"population":[{"id":"InitialPopulation_1","code":{"coding":[{"system":"http://terminology.hl7.org/CodeSystem/measure-population","code":"initial-population","display":"Initial Population"}]},"count":0},{"id":"Denominator_1","code":{"coding":[{"system":"http://terminology.hl7.org/CodeSystem/measure-population","code":"denominator","display":"Denominator"}]},"count":0},{"id":"Numerator_1","code":{"coding":[{"system":"http://terminology.hl7.org/CodeSystem/measure-population","code":"numerator","display":"Numerator"}]},"count":0}]}]},{"id":"Stratification_1_2","code":[{"text":"Strata-2"}],"stratum":[{"value":{"text":"Strata-2"},"population":[{"id":"InitialPopulation_1","code":{"coding":[{"system":"http://terminology.hl7.org/CodeSystem/measure-population","code":"initial-population","display":"Initial Population"}]},"count":0},{"id":"Denominator_1","code":{"coding":[{"system":"http://terminology.hl7.org/CodeSystem/measure-population","code":"denominator","display":"Denominator"}]},"count":0},{"id":"Numerator_1","code":{"coding":[{"system":"http://terminology.hl7.org/CodeSystem/measure-population","code":"numerator","display":"Numerator"}]},"count":0}]}]},{"id":"Stratification_1_3","code":[{"text":"Strata-3"}],"stratum":[{"value":{"text":"Strata-3"},"population":[{"id":"InitialPopulation_1","code":{"coding":[{"system":"http://terminology.hl7.org/CodeSystem/measure-population","code":"initial-population","display":"Initial Population"}]},"count":0},{"id":"Denominator_1","code":{"coding":[{"system":"http://terminology.hl7.org/CodeSystem/measure-population","code":"denominator","display":"Denominator"}]},"count":0},{"id":"Numerator_1","code":{"coding":[{"system":"http://terminology.hl7.org/CodeSystem/measure-population","code":"numerator","display":"Numerator"}]},"count":0}]}]},{"id":"Stratification_1_4","code":[{"text":"Strata-4"}],"stratum":[{"value":{"text":"Strata-4"},"population":[{"id":"InitialPopulation_1","code":{"coding":[{"system":"http://terminology.hl7.org/CodeSystem/measure-population","code":"initial-population","display":"Initial Population"}]},"count":1},{"id":"Denominator_1","code":{"coding":[{"system":"http://terminology.hl7.org/CodeSystem/measure-population","code":"denominator","display":"Denominator"}]},"count":1},{"id":"Numerator_1","code":{"coding":[{"system":"http://terminology.hl7.org/CodeSystem/measure-population","code":"numerator","display":"Numerator"}]},"count":0}]}]}]}],"evaluatedResource":[{"reference":"Patient/404c928b-a752-4792-91c4-8a1fd0656759"},{"reference":"Encounter/c4f38c9c-358a-4a7a-ac42-18d29cd826c3"},{"reference":"Location/84835317-a2fa-4bf1-a253-8df34cf9009c"},{"reference":"Location/6cb3512b-30ae-4a8d-9d16-7cd3a10e77c9"},{"reference":"Condition/5f5bccfe-3bfd-41c7-9999-ef35d4b69d71"},{"reference":"Location/1839972a-7642-43bd-8cf3-be36a30fd312"},{"reference":"Location/7f205a90-a3ef-4e76-8570-bcfe86f7235b"},{"reference":"Claim/ClaimBehavior-NotSubsAbuse"},{"reference":"Coverage/e1ad52b8-c32f-4f1a-90cc-674fd2d547c3"},{"reference":"Organization/5c6f9aa4-28d5-425f-87c9-24e6de212a08"},{"reference":"Practitioner/cc55ba40-c94a-44f4-a102-e9e48362cba6"}]},"request":{"method":"PUT","url":"MeasureReport/3e6697e0-791f-4f04-9463-bb3c2c7037f8"}},{"resource":{"resourceType":"Location","id":"6cb3512b-30ae-4a8d-9d16-7cd3a10e77c9","meta":{"profile":["http://hl7.org/fhir/us/qicore/StructureDefinition/qicore-location"]},"identifier":[{"use":"usual","system":"http://exampleoflocation.com","value":"B1-S.F2"}],"name":"Emergency Department","type":[{"coding":[{"system":"https://www.cdc.gov/nhsn/cdaportal/terminology/codesystem/hsloc.html","version":"2022","code":"1209-6","display":"Treatment Room","userSelected":true}]}]},"request":{"method":"PUT","url":"Location/6cb3512b-30ae-4a8d-9d16-7cd3a10e77c9"}},{"resource":{"resourceType":"Practitioner","id":"cc55ba40-c94a-44f4-a102-e9e48362cba6","meta":{"profile":["http://hl7.org/fhir/us/qicore/StructureDefinition/qicore-practitioner"]},"identifier":[{"system":"http://hl7.org/fhir/sid/us-npi","value":"9999999896"}],"name":[{"family":"Evil","prefix":["Dr"]}]},"request":{"method":"PUT","url":"Practitioner/cc55ba40-c94a-44f4-a102-e9e48362cba6"}},{"resource":{"resourceType":"Bundle","id":"661579e3db207d74c03b8a54","type":"transaction","entry":[{"fullUrl":"https://madie.cms.gov/Patient/404c928b-a752-4792-91c4-8a1fd0656759","resource":{"resourceType":"Patient","id":"404c928b-a752-4792-91c4-8a1fd0656759","meta":{"profile":["http://hl7.org/fhir/us/qicore/StructureDefinition/qicore-patient"]},"extension":[{"url":"http://hl7.org/fhir/us/core/StructureDefinition/us-core-race","extension":[{"url":"ombCategory","valueCoding":{"system":"urn:oid:2.16.840.1.113883.6.238","code":"2076-8","display":"Native Hawaiian or Other Pacific Islander","userSelected":true}},{"url":"text","valueString":"Native Hawaiian or Other Pacific Islander"}]},{"url":"http://hl7.org/fhir/us/core/StructureDefinition/us-core-ethnicity","extension":[{"url":"ombCategory","valueCoding":{"system":"urn:oid:2.16.840.1.113883.6.238","code":"2186-5","display":"Not Hispanic or Latino","userSelected":true}},{"url":"text","valueString":"Not Hispanic or Latino"}]},{"url":"http://hl7.org/fhir/us/core/StructureDefinition/us-core-sex","valueCode":"248153007"}],"identifier":[{"type":{"coding":[{"system":"http://terminology.hl7.org/CodeSystem/v2-0203","code":"MR"}]},"system":"https://bonnie-fhir.healthit.gov/","value":"661579e3db207d74c03b8a54"}],"name":[{"family":"NUMERStrat4Pass","given":["EDEncounterStatusFinished"]}],"gender":"female","birthDate":"2008-12-31"},"request":{"method":"PUT","url":"Patient/404c928b-a752-4792-91c4-8a1fd0656759"}},{"fullUrl":"https://madie.cms.gov/Encounter/c4f38c9c-358a-4a7a-ac42-18d29cd826c3","resource":{"resourceType":"Encounter","id":"c4f38c9c-358a-4a7a-ac42-18d29cd826c3","meta":{"profile":["http://hl7.org/fhir/us/qicore/StructureDefinition/qicore-encounter"]},"status":"finished","class":{"system":"http://terminology.hl7.org/CodeSystem/v3-ActCode","code":"EMER","display":"emergency"},"type":[{"coding":[{"system":"http://snomed.info/sct","version":"2023-09","code":"4525004","display":"Emergency department patient visit (procedure)","userSelected":true}]}],"subject":{"reference":"Patient/404c928b-a752-4792-91c4-8a1fd0656759"},"period":{"start":"2027-05-01T08:00:00.000+00:00","end":"2027-05-01T08:40:00.000+00:00"},"diagnosis":[{"condition":{"reference":"Condition/5f5bccfe-3bfd-41c7-9999-ef35d4b69d71"},"use":{"coding":[{"system":"http://terminology.hl7.org/CodeSystem/diagnosis-role","code":"billing"}]},"rank":1}],"location":[{"location":{"reference":"Location/84835317-a2fa-4bf1-a253-8df34cf9009c"},"period":{"start":"2027-05-01T07:45:00.000+00:00","end":"2027-05-01T08:15:00.000+00:00"}},{"location":{"reference":"Location/6cb3512b-30ae-4a8d-9d16-7cd3a10e77c9"},"period":{"start":"2027-05-01T08:30:00.000+00:00","end":"2027-05-01T08:40:00.000+00:00"}}]},"request":{"method":"PUT","url":"Encounter/c4f38c9c-358a-4a7a-ac42-18d29cd826c3"}},{"fullUrl":"https://madie.cms.gov/Location/84835317-a2fa-4bf1-a253-8df34cf9009c","resource":{"resourceType":"Location","id":"84835317-a2fa-4bf1-a253-8df34cf9009c","meta":{"profile":["http://hl7.org/fhir/us/qicore/StructureDefinition/qicore-location"]},"identifier":[{"use":"usual","system":"http://exampleoflocation.com","value":"B1-S.F1"}],"name":"Emergency Department","type":[{"coding":[{"system":"https://www.cdc.gov/nhsn/cdaportal/terminology/codesystem/hsloc.html","version":"2022","code":"1108-0","display":"Emergency Department","userSelected":true}]}]},"request":{"method":"PUT","url":"Location/84835317-a2fa-4bf1-a253-8df34cf9009c"}},{"fullUrl":"https://madie.cms.gov/Location/6cb3512b-30ae-4a8d-9d16-7cd3a10e77c9","resource":{"resourceType":"Location","id":"6cb3512b-30ae-4a8d-9d16-7cd3a10e77c9","meta":{"profile":["http://hl7.org/fhir/us/qicore/StructureDefinition/qicore-location"]},"identifier":[{"use":"usual","system":"http://exampleoflocation.com","value":"B1-S.F2"}],"name":"Emergency Department","type":[{"coding":[{"system":"https://www.cdc.gov/nhsn/cdaportal/terminology/codesystem/hsloc.html","version":"2022","code":"1209-6","display":"Treatment Room","userSelected":true}]}]},"request":{"method":"PUT","url":"Location/6cb3512b-30ae-4a8d-9d16-7cd3a10e77c9"}},{"fullUrl":"https://madie.cms.gov/Condition/5f5bccfe-3bfd-41c7-9999-ef35d4b69d71","resource":{"resourceType":"Condition","id":"5f5bccfe-3bfd-41c7-9999-ef35d4b69d71","meta":{"profile":["http://hl7.org/fhir/us/qicore/StructureDefinition/qicore-condition-encounter-diagnosis"]},"category":[{"coding":[{"system":"http://terminology.hl7.org/CodeSystem/condition-category","code":"encounter-diagnosis","display":"Encounter Diagnosis"}]}],"code":{"coding":[{"system":"http://snomed.info/sct","version":"2023-09","code":"10349009","display":"Multi-infarct dementia with delirium (disorder)","userSelected":true}]},"subject":{"reference":"Patient/404c928b-a752-4792-91c4-8a1fd0656759"},"recordedDate":"2027-04-09T08:00:00.000+00:00"},"request":{"method":"PUT","url":"Condition/5f5bccfe-3bfd-41c7-9999-ef35d4b69d71"}},{"fullUrl":"https://madie.cms.gov/Location/1839972a-7642-43bd-8cf3-be36a30fd312","resource":{"resourceType":"Location","id":"1839972a-7642-43bd-8cf3-be36a30fd312","meta":{"profile":["http://hl7.org/fhir/us/qicore/StructureDefinition/qicore-location"]},"identifier":[{"use":"usual","system":"http://exampleoflocation.com","value":"B1-S.F2"}],"name":"Emergency Department","type":[{"coding":[{"system":"https://www.cdc.gov/nhsn/cdaportal/terminology/codesystem/hsloc.html","version":"2022","code":"1108-0","display":"Emergency Department","userSelected":true}]}]},"request":{"method":"PUT","url":"Location/1839972a-7642-43bd-8cf3-be36a30fd312"}},{"fullUrl":"https://madie.cms.gov/Location/7f205a90-a3ef-4e76-8570-bcfe86f7235b","resource":{"resourceType":"Location","id":"7f205a90-a3ef-4e76-8570-bcfe86f7235b","meta":{"profile":["http://hl7.org/fhir/us/qicore/StructureDefinition/qicore-location"]},"identifier":[{"use":"usual","system":"http://exampleoflocation.com","value":"B1-S.F2"}],"name":"Emergency Department","type":[{"coding":[{"system":"https://www.cdc.gov/nhsn/cdaportal/terminology/codesystem/hsloc.html","version":"2022","code":"1209-6","display":"Treatment Room"}]}]},"request":{"method":"PUT","url":"Location/7f205a90-a3ef-4e76-8570-bcfe86f7235b"}},{"fullUrl":"https://madie.cms.gov/claim/ClaimBehavior-NotSubsAbuse","resource":{"resourceType":"Claim","id":"ClaimBehavior-NotSubsAbuse","meta":{"profile":["http://hl7.org/fhir/us/qicore/StructureDefinition/qicore-claim"]},"status":"active","type":{"coding":[{"system":"http://terminology.hl7.org/CodeSystem/claim-type","code":"institutional"}]},"use":"claim","patient":{"reference":"Patient/404c928b-a752-4792-91c4-8a1fd0656759"},"created":"2027-05-01","provider":{"reference":"Practitioner/practitioner-123456"},"priority":{"coding":[{"system":"http://terminology.hl7.org/CodeSystem/processpriority","code":"normal"}]},"diagnosis":[{"sequence":1,"diagnosisReference":{"reference":"Condition/5f5bccfe-3bfd-41c7-9999-ef35d4b69d71"},"type":[{"coding":[{"system":"http://terminology.hl7.org/CodeSystem/ex-diagnosistype","code":"principal"}]}]}],"insurance":[{"sequence":1,"focal":true,"coverage":{"reference":"Coverage/1"}}],"item":[{"sequence":1,"diagnosisSequence":[1],"productOrService":{"coding":[{"system":"http://terminology.hl7.org/CodeSystem/ex-USCLS","code":"99555"}]},"encounter":[{"reference":"Encounter/c4f38c9c-358a-4a7a-ac42-18d29cd826c3"}]}]},"request":{"method":"PUT","url":"Claim/ClaimBehavior-NotSubsAbuse"}},{"fullUrl":"https://madie.cms.gov/Coverage/e1ad52b8-c32f-4f1a-90cc-674fd2d547c3","resource":{"resourceType":"Coverage","id":"e1ad52b8-c32f-4f1a-90cc-674fd2d547c3","meta":{"profile":["http://hl7.org/fhir/us/qicore/StructureDefinition/qicore-coverage"]},"identifier":[{"type":{"coding":[{"system":"http://terminology.hl7.org/CodeSystem/v2-0203","code":"MB"}]}}],"status":"active","beneficiary":{"reference":"Patient/404c928b-a752-4792-91c4-8a1fd0656759"},"relationship":{"coding":[{"system":"http://terminology.hl7.org/CodeSystem/subscriber-relationship","code":"self"}]},"payor":[{"reference":"Organization/5c6f9aa4-28d5-425f-87c9-24e6de212a08"}]},"request":{"method":"PUT","url":"Coverage/e1ad52b8-c32f-4f1a-90cc-674fd2d547c3"}},{"fullUrl":"https://madie.cms.gov/Organization/5c6f9aa4-28d5-425f-87c9-24e6de212a08","resource":{"resourceType":"Organization","id":"5c6f9aa4-28d5-425f-87c9-24e6de212a08","meta":{"profile":["http://hl7.org/fhir/us/qicore/StructureDefinition/qicore-organization"]},"identifier":[{"use":"temp","system":"urn:oid:2.16.840.1.113883.4.4","value":"21-3259825"}],"active":true,"type":[{"coding":[{"system":"http://terminology.hl7.org/CodeSystem/organization-type","code":"pay","display":"Payer"}]}],"name":"Blue Cross Blue Shield of Texas","telecom":[{"system":"phone","value":"(+1) 972-766-6900"}],"address":[{"use":"billing","type":"postal","line":["P.O. Box 660044"],"city":"Dallas","state":"TX","postalCode":"75266-0044","country":"USA"}]},"request":{"method":"PUT","url":"Organization/5c6f9aa4-28d5-425f-87c9-24e6de212a08"}},{"fullUrl":"https://madie.cms.gov/Practitioner/cc55ba40-c94a-44f4-a102-e9e48362cba6","resource":{"resourceType":"Practitioner","id":"cc55ba40-c94a-44f4-a102-e9e48362cba6","meta":{"profile":["http://hl7.org/fhir/us/qicore/StructureDefinition/qicore-practitioner"]},"identifier":[{"system":"http://hl7.org/fhir/sid/us-npi","value":"9999999896"}],"name":[{"family":"Evil","prefix":["Dr"]}]},"request":{"method":"PUT","url":"Practitioner/cc55ba40-c94a-44f4-a102-e9e48362cba6"}},{"fullUrl":"https://madie.cms.gov/MeasureReport/3e6697e0-791f-4f04-9463-bb3c2c7037f8","resource":{"resourceType":"MeasureReport","id":"3e6697e0-791f-4f04-9463-bb3c2c7037f8","meta":{"profile":["http://hl7.org/fhir/us/cqfmeasures/StructureDefinition/test-case-cqfm"]},"contained":[{"resourceType":"Parameters","id":"08d5a8b6-2f4a-4dbc-9465-3d11cf36599d-parameters","parameter":[{"name":"subject","valueString":"404c928b-a752-4792-91c4-8a1fd0656759"}]}],"extension":[{"url":"http://hl7.org/fhir/StructureDefinition/cqf-inputParameters","valueReference":{"reference":"#08d5a8b6-2f4a-4dbc-9465-3d11cf36599d-parameters"}},{"url":"http://hl7.org/fhir/us/cqfmeasures/StructureDefinition/cqfm-testCaseDescription","valueMarkdown":"Enc 1st day of MP, in ED only 40 mins. "}],"modifierExtension":[{"url":"http://hl7.org/fhir/us/cqfmeasures/StructureDefinition/cqfm-isTestCase","valueBoolean":true}],"status":"complete","type":"individual","measure":"https://madie.cms.gov/Measure/CMS1264FHIRECATREHQR","period":{"start":"2027-01-01","end":"2027-12-31"},"group":[{"id":"Group_1","population":[{"id":"InitialPopulation_1","code":{"coding":[{"system":"http://terminology.hl7.org/CodeSystem/measure-population","code":"initial-population","display":"Initial Population"}]},"count":1},{"id":"Denominator_1","code":{"coding":[{"system":"http://terminology.hl7.org/CodeSystem/measure-population","code":"denominator","display":"Denominator"}]},"count":1},{"id":"Numerator_1","code":{"coding":[{"system":"http://terminology.hl7.org/CodeSystem/measure-population","code":"numerator","display":"Numerator"}]},"count":0}],"measureScore":{"value":0.0},"stratifier":[{"id":"Stratification_1_1","code":[{"text":"Strata-1"}],"stratum":[{"value":{"text":"Strata-1"},"population":[{"id":"InitialPopulation_1","code":{"coding":[{"system":"http://terminology.hl7.org/CodeSystem/measure-population","code":"initial-population","display":"Initial Population"}]},"count":0},{"id":"Denominator_1","code":{"coding":[{"system":"http://terminology.hl7.org/CodeSystem/measure-population","code":"denominator","display":"Denominator"}]},"count":0},{"id":"Numerator_1","code":{"coding":[{"system":"http://terminology.hl7.org/CodeSystem/measure-population","code":"numerator","display":"Numerator"}]},"count":0}]}]},{"id":"Stratification_1_2","code":[{"text":"Strata-2"}],"stratum":[{"value":{"text":"Strata-2"},"population":[{"id":"InitialPopulation_1","code":{"coding":[{"system":"http://terminology.hl7.org/CodeSystem/measure-population","code":"initial-population","display":"Initial Population"}]},"count":0},{"id":"Denominator_1","code":{"coding":[{"system":"http://terminology.hl7.org/CodeSystem/measure-population","code":"denominator","display":"Denominator"}]},"count":0},{"id":"Numerator_1","code":{"coding":[{"system":"http://terminology.hl7.org/CodeSystem/measure-population","code":"numerator","display":"Numerator"}]},"count":0}]}]},{"id":"Stratification_1_3","code":[{"text":"Strata-3"}],"stratum":[{"value":{"text":"Strata-3"},"population":[{"id":"InitialPopulation_1","code":{"coding":[{"system":"http://terminology.hl7.org/CodeSystem/measure-population","code":"initial-population","display":"Initial Population"}]},"count":0},{"id":"Denominator_1","code":{"coding":[{"system":"http://terminology.hl7.org/CodeSystem/measure-population","code":"denominator","display":"Denominator"}]},"count":0},{"id":"Numerator_1","code":{"coding":[{"system":"http://terminology.hl7.org/CodeSystem/measure-population","code":"numerator","display":"Numerator"}]},"count":0}]}]},{"id":"Stratification_1_4","code":[{"text":"Strata-4"}],"stratum":[{"value":{"text":"Strata-4"},"population":[{"id":"InitialPopulation_1","code":{"coding":[{"system":"http://terminology.hl7.org/CodeSystem/measure-population","code":"initial-population","display":"Initial Population"}]},"count":1},{"id":"Denominator_1","code":{"coding":[{"system":"http://terminology.hl7.org/CodeSystem/measure-population","code":"denominator","display":"Denominator"}]},"count":1},{"id":"Numerator_1","code":{"coding":[{"system":"http://terminology.hl7.org/CodeSystem/measure-population","code":"numerator","display":"Numerator"}]},"count":0}]}]}]}],"evaluatedResource":[{"reference":"Patient/404c928b-a752-4792-91c4-8a1fd0656759"},{"reference":"Encounter/c4f38c9c-358a-4a7a-ac42-18d29cd826c3"},{"reference":"Location/84835317-a2fa-4bf1-a253-8df34cf9009c"},{"reference":"Location/6cb3512b-30ae-4a8d-9d16-7cd3a10e77c9"},{"reference":"Condition/5f5bccfe-3bfd-41c7-9999-ef35d4b69d71"},{"reference":"Location/1839972a-7642-43bd-8cf3-be36a30fd312"},{"reference":"Location/7f205a90-a3ef-4e76-8570-bcfe86f7235b"},{"reference":"Claim/ClaimBehavior-NotSubsAbuse"},{"reference":"Coverage/e1ad52b8-c32f-4f1a-90cc-674fd2d547c3"},{"reference":"Organization/5c6f9aa4-28d5-425f-87c9-24e6de212a08"},{"reference":"Practitioner/cc55ba40-c94a-44f4-a102-e9e48362cba6"}]},"request":{"method":"PUT","url":"MeasureReport/3e6697e0-791f-4f04-9463-bb3c2c7037f8"}}]},"request":{"method":"PUT","url":"Bundle/661579e3db207d74c03b8a54"}},{"resource":{"resourceType":"Encounter","id":"c4f38c9c-358a-4a7a-ac42-18d29cd826c3","meta":{"profile":["http://hl7.org/fhir/us/qicore/StructureDefinition/qicore-encounter"]},"status":"finished","class":{"system":"http://terminology.hl7.org/CodeSystem/v3-ActCode","code":"EMER","display":"emergency"},"type":[{"coding":[{"system":"http://snomed.info/sct","version":"2023-09","code":"4525004","display":"Emergency department patient visit (procedure)","userSelected":true}]}],"subject":{"reference":"Patient/404c928b-a752-4792-91c4-8a1fd0656759"},"period":{"start":"2027-05-01T08:00:00.000+00:00","end":"2027-05-01T08:40:00.000+00:00"},"diagnosis":[{"condition":{"reference":"Condition/5f5bccfe-3bfd-41c7-9999-ef35d4b69d71"},"use":{"coding":[{"system":"http://terminology.hl7.org/CodeSystem/diagnosis-role","code":"billing"}]},"rank":1}],"location":[{"location":{"reference":"Location/84835317-a2fa-4bf1-a253-8df34cf9009c"},"period":{"start":"2027-05-01T07:45:00.000+00:00","end":"2027-05-01T08:15:00.000+00:00"}},{"location":{"reference":"Location/6cb3512b-30ae-4a8d-9d16-7cd3a10e77c9"},"period":{"start":"2027-05-01T08:30:00.000+00:00","end":"2027-05-01T08:40:00.000+00:00"}}]},"request":{"method":"PUT","url":"Encounter/c4f38c9c-358a-4a7a-ac42-18d29cd826c3"}},{"resource":{"resourceType":"Claim","id":"ClaimBehavior-NotSubsAbuse","meta":{"profile":["http://hl7.org/fhir/us/qicore/StructureDefinition/qicore-claim"]},"status":"active","type":{"coding":[{"system":"http://terminology.hl7.org/CodeSystem/claim-type","code":"institutional"}]},"use":"claim","patient":{"reference":"Patient/404c928b-a752-4792-91c4-8a1fd0656759"},"created":"2027-05-01","provider":{"reference":"Practitioner/practitioner-123456"},"priority":{"coding":[{"system":"http://terminology.hl7.org/CodeSystem/processpriority","code":"normal"}]},"diagnosis":[{"sequence":1,"diagnosisReference":{"reference":"Condition/5f5bccfe-3bfd-41c7-9999-ef35d4b69d71"},"type":[{"coding":[{"system":"http://terminology.hl7.org/CodeSystem/ex-diagnosistype","code":"principal"}]}]}],"insurance":[{"sequence":1,"focal":true,"coverage":{"reference":"Coverage/1"}}],"item":[{"sequence":1,"diagnosisSequence":[1],"productOrService":{"coding":[{"system":"http://terminology.hl7.org/CodeSystem/ex-USCLS","code":"99555"}]},"encounter":[{"reference":"Encounter/c4f38c9c-358a-4a7a-ac42-18d29cd826c3"}]}]},"request":{"method":"PUT","url":"Claim/ClaimBehavior-NotSubsAbuse"}},{"resource":{"resourceType":"Coverage","id":"e1ad52b8-c32f-4f1a-90cc-674fd2d547c3","meta":{"profile":["http://hl7.org/fhir/us/qicore/StructureDefinition/qicore-coverage"]},"identifier":[{"type":{"coding":[{"system":"http://terminology.hl7.org/CodeSystem/v2-0203","code":"MB"}]}}],"status":"active","beneficiary":{"reference":"Patient/404c928b-a752-4792-91c4-8a1fd0656759"},"relationship":{"coding":[{"system":"http://terminology.hl7.org/CodeSystem/subscriber-relationship","code":"self"}]},"payor":[{"reference":"Organization/5c6f9aa4-28d5-425f-87c9-24e6de212a08"}]},"request":{"method":"PUT","url":"Coverage/e1ad52b8-c32f-4f1a-90cc-674fd2d547c3"}},{"resource":{"resourceType":"Condition","id":"5f5bccfe-3bfd-41c7-9999-ef35d4b69d71","meta":{"profile":["http://hl7.org/fhir/us/qicore/StructureDefinition/qicore-condition-encounter-diagnosis"]},"category":[{"coding":[{"system":"http://terminology.hl7.org/CodeSystem/condition-category","code":"encounter-diagnosis","display":"Encounter Diagnosis"}]}],"code":{"coding":[{"system":"http://snomed.info/sct","version":"2023-09","code":"10349009","display":"Multi-infarct dementia with delirium (disorder)","userSelected":true}]},"subject":{"reference":"Patient/404c928b-a752-4792-91c4-8a1fd0656759"},"recordedDate":"2027-04-09T08:00:00.000+00:00"},"request":{"method":"PUT","url":"Condition/5f5bccfe-3bfd-41c7-9999-ef35d4b69d71"}},{"resource":{"resourceType":"Location","id":"84835317-a2fa-4bf1-a253-8df34cf9009c","meta":{"profile":["http://hl7.org/fhir/us/qicore/StructureDefinition/qicore-location"]},"identifier":[{"use":"usual","system":"http://exampleoflocation.com","value":"B1-S.F1"}],"name":"Emergency Department","type":[{"coding":[{"system":"https://www.cdc.gov/nhsn/cdaportal/terminology/codesystem/hsloc.html","version":"2022","code":"1108-0","display":"Emergency Department","userSelected":true}]}]},"request":{"method":"PUT","url":"Location/84835317-a2fa-4bf1-a253-8df34cf9009c"}}]}