{"resourceType":"Bundle","id":"tests-16cffb87-15ea-48b7-bd68-f211f48d6f19-bundle","type":"transaction","entry":[{"resource":{"resourceType":"Patient","id":"16cffb87-15ea-48b7-bd68-f211f48d6f19","meta":{"profile":["http://hl7.org/fhir/us/qicore/StructureDefinition/qicore-patient"]},"extension":[{"url":"http://hl7.org/fhir/us/core/StructureDefinition/us-core-race","extension":[{"url":"ombCategory","valueCoding":{"system":"urn:oid:2.16.840.1.113883.6.238","code":"1002-5","display":"American Indian or Alaska Native","userSelected":true}},{"url":"text","valueString":"American Indian or Alaska Native"}]},{"url":"http://hl7.org/fhir/us/core/StructureDefinition/us-core-ethnicity","extension":[{"url":"ombCategory","valueCoding":{"system":"urn:oid:2.16.840.1.113883.6.238","code":"2135-2","display":"Hispanic or Latino","userSelected":true}},{"url":"text","valueString":"Hispanic or Latino"}]},{"url":"http://hl7.org/fhir/us/core/StructureDefinition/us-core-sex","valueCode":"248153007"}],"identifier":[{"type":{"coding":[{"system":"http://terminology.hl7.org/CodeSystem/v2-0203","code":"MR"}]},"system":"https://bonnie-fhir.healthit.gov/","value":"661581c7db207d74c03b8a65"}],"name":[{"family":"NUMERStrat4Pass","given":["LWBS"]}],"gender":"male","birthDate":"2009-01-01"},"request":{"method":"PUT","url":"Patient/16cffb87-15ea-48b7-bd68-f211f48d6f19"}},{"resource":{"resourceType":"Practitioner","id":"df2373b3-9b95-408c-9df7-339e4cd7b9d5","meta":{"profile":["http://hl7.org/fhir/us/qicore/StructureDefinition/qicore-practitioner"]},"identifier":[{"system":"http://hl7.org/fhir/sid/us-npi","value":"9999999896"}],"name":[{"family":"Evil","prefix":["Dr"]}]},"request":{"method":"PUT","url":"Practitioner/df2373b3-9b95-408c-9df7-339e4cd7b9d5"}},{"resource":{"resourceType":"Bundle","id":"661581c7db207d74c03b8a65","type":"transaction","entry":[{"fullUrl":"https://madie.cms.gov/Patient/16cffb87-15ea-48b7-bd68-f211f48d6f19","resource":{"resourceType":"Patient","id":"16cffb87-15ea-48b7-bd68-f211f48d6f19","meta":{"profile":["http://hl7.org/fhir/us/qicore/StructureDefinition/qicore-patient"]},"extension":[{"url":"http://hl7.org/fhir/us/core/StructureDefinition/us-core-race","extension":[{"url":"ombCategory","valueCoding":{"system":"urn:oid:2.16.840.1.113883.6.238","code":"1002-5","display":"American Indian or Alaska Native","userSelected":true}},{"url":"text","valueString":"American Indian or Alaska Native"}]},{"url":"http://hl7.org/fhir/us/core/StructureDefinition/us-core-ethnicity","extension":[{"url":"ombCategory","valueCoding":{"system":"urn:oid:2.16.840.1.113883.6.238","code":"2135-2","display":"Hispanic or Latino","userSelected":true}},{"url":"text","valueString":"Hispanic or Latino"}]},{"url":"http://hl7.org/fhir/us/core/StructureDefinition/us-core-sex","valueCode":"248153007"}],"identifier":[{"type":{"coding":[{"system":"http://terminology.hl7.org/CodeSystem/v2-0203","code":"MR"}]},"system":"https://bonnie-fhir.healthit.gov/","value":"661581c7db207d74c03b8a65"}],"name":[{"family":"NUMERStrat4Pass","given":["LWBS"]}],"gender":"male","birthDate":"2009-01-01"},"request":{"method":"PUT","url":"Patient/16cffb87-15ea-48b7-bd68-f211f48d6f19"}},{"fullUrl":"https://madie.cms.gov/Encounter/f9364c8e-a66b-4c58-bf92-a2afa91baa94","resource":{"resourceType":"Encounter","id":"f9364c8e-a66b-4c58-bf92-a2afa91baa94","meta":{"profile":["http://hl7.org/fhir/us/qicore/StructureDefinition/qicore-encounter"]},"status":"finished","class":{"system":"http://terminology.hl7.org/CodeSystem/v3-ActCode","code":"EMER","display":"emergency"},"type":[{"coding":[{"system":"http://snomed.info/sct","version":"2023-09","code":"225390008","display":"Triage (procedure)","userSelected":true}]}],"subject":{"reference":"Patient/16cffb87-15ea-48b7-bd68-f211f48d6f19"},"period":{"start":"2027-12-31T08:00:00.000+00:00","end":"2027-12-31T08:15:00.000+00:00"},"diagnosis":[{"condition":{"reference":"Condition/a353d762-4938-45fd-837f-5afa4869cec4"},"use":{"coding":[{"system":"http://terminology.hl7.org/CodeSystem/diagnosis-role","code":"billing"}]},"rank":1}],"hospitalization":{"dischargeDisposition":{"coding":[{"system":"http://snomed.info/sct","code":"21541000119102","display":"Patient left without being seen (finding)","userSelected":true}]}}},"request":{"method":"PUT","url":"Encounter/f9364c8e-a66b-4c58-bf92-a2afa91baa94"}},{"fullUrl":"https://madie.cms.gov/Condition/a353d762-4938-45fd-837f-5afa4869cec4","resource":{"resourceType":"Condition","id":"a353d762-4938-45fd-837f-5afa4869cec4","meta":{"profile":["http://hl7.org/fhir/us/qicore/StructureDefinition/qicore-condition-encounter-diagnosis"]},"category":[{"coding":[{"system":"http://terminology.hl7.org/CodeSystem/condition-category","code":"encounter-diagnosis","display":"Encounter Diagnosis"}]}],"code":{"coding":[{"system":"http://snomed.info/sct","version":"2023-09","code":"10349009","display":"Multi-infarct dementia with delirium (disorder)","userSelected":true}]},"subject":{"reference":"Patient/16cffb87-15ea-48b7-bd68-f211f48d6f19"},"recordedDate":"2027-04-09T08:00:00.000+00:00"},"request":{"method":"PUT","url":"Condition/a353d762-4938-45fd-837f-5afa4869cec4"}},{"fullUrl":"https://madie.cms.gov/claim/ClaimBehavior-NotSubsAbuse","resource":{"resourceType":"Claim","id":"ClaimBehavior-NotSubsAbuse","meta":{"profile":["http://hl7.org/fhir/us/qicore/StructureDefinition/qicore-claim"]},"status":"active","type":{"coding":[{"system":"http://terminology.hl7.org/CodeSystem/claim-type","code":"institutional"}]},"use":"claim","patient":{"reference":"Patient/16cffb87-15ea-48b7-bd68-f211f48d6f19"},"created":"2027-05-01","provider":{"reference":"Practitioner/practitioner-123456"},"priority":{"coding":[{"system":"http://terminology.hl7.org/CodeSystem/processpriority","code":"normal"}]},"diagnosis":[{"sequence":1,"diagnosisReference":{"reference":"Condition/a353d762-4938-45fd-837f-5afa4869cec4"},"type":[{"coding":[{"system":"http://terminology.hl7.org/CodeSystem/ex-diagnosistype","code":"principal"}]}]}],"insurance":[{"sequence":1,"focal":true,"coverage":{"reference":"Coverage/1"}}],"item":[{"sequence":1,"diagnosisSequence":[1],"productOrService":{"coding":[{"system":"http://terminology.hl7.org/CodeSystem/ex-USCLS","code":"99555"}]},"encounter":[{"reference":"Encounter/f9364c8e-a66b-4c58-bf92-a2afa91baa94"}]}]},"request":{"method":"PUT","url":"Claim/ClaimBehavior-NotSubsAbuse"}},{"fullUrl":"https://madie.cms.gov/Coverage/d52b857b-a9bd-46f9-91d3-498c74db23a1","resource":{"resourceType":"Coverage","id":"d52b857b-a9bd-46f9-91d3-498c74db23a1","meta":{"profile":["http://hl7.org/fhir/us/qicore/StructureDefinition/qicore-coverage"]},"identifier":[{"type":{"coding":[{"system":"http://terminology.hl7.org/CodeSystem/v2-0203","code":"MB"}]}}],"status":"active","beneficiary":{"reference":"Patient/16cffb87-15ea-48b7-bd68-f211f48d6f19"},"relationship":{"coding":[{"system":"http://terminology.hl7.org/CodeSystem/subscriber-relationship","code":"self"}]},"payor":[{"reference":"Organization/2db94f7c-b488-40fd-ac73-37d5e5547a0f"}]},"request":{"method":"PUT","url":"Coverage/d52b857b-a9bd-46f9-91d3-498c74db23a1"}},{"fullUrl":"https://madie.cms.gov/Organization/2db94f7c-b488-40fd-ac73-37d5e5547a0f","resource":{"resourceType":"Organization","id":"2db94f7c-b488-40fd-ac73-37d5e5547a0f","meta":{"profile":["http://hl7.org/fhir/us/qicore/StructureDefinition/qicore-organization"]},"identifier":[{"use":"temp","system":"urn:oid:2.16.840.1.113883.4.4","value":"21-3259825"}],"active":true,"type":[{"coding":[{"system":"http://terminology.hl7.org/CodeSystem/organization-type","code":"pay","display":"Payer"}]}],"name":"Blue Cross Blue Shield of Texas","telecom":[{"system":"phone","value":"(+1) 972-766-6900"}],"address":[{"use":"billing","type":"postal","line":["P.O. Box 660044"],"city":"Dallas","state":"TX","postalCode":"75266-0044","country":"USA"}]},"request":{"method":"PUT","url":"Organization/2db94f7c-b488-40fd-ac73-37d5e5547a0f"}},{"fullUrl":"https://madie.cms.gov/Practitioner/df2373b3-9b95-408c-9df7-339e4cd7b9d5","resource":{"resourceType":"Practitioner","id":"df2373b3-9b95-408c-9df7-339e4cd7b9d5","meta":{"profile":["http://hl7.org/fhir/us/qicore/StructureDefinition/qicore-practitioner"]},"identifier":[{"system":"http://hl7.org/fhir/sid/us-npi","value":"9999999896"}],"name":[{"family":"Evil","prefix":["Dr"]}]},"request":{"method":"PUT","url":"Practitioner/df2373b3-9b95-408c-9df7-339e4cd7b9d5"}},{"fullUrl":"https://madie.cms.gov/MeasureReport/79548373-9c82-4f0e-8c2c-05a3b5a7d72a","resource":{"resourceType":"MeasureReport","id":"79548373-9c82-4f0e-8c2c-05a3b5a7d72a","meta":{"profile":["http://hl7.org/fhir/us/cqfmeasures/StructureDefinition/test-case-cqfm"]},"contained":[{"resourceType":"Parameters","id":"d0447cb8-853b-4593-bba7-4b8db28594df-parameters","parameter":[{"name":"subject","valueString":"16cffb87-15ea-48b7-bd68-f211f48d6f19"}]}],"extension":[{"url":"http://hl7.org/fhir/StructureDefinition/cqf-inputParameters","valueReference":{"reference":"#d0447cb8-853b-4593-bba7-4b8db28594df-parameters"}},{"url":"http://hl7.org/fhir/us/cqfmeasures/StructureDefinition/cqfm-testCaseDescription","valueMarkdown":"Adult, age 18, ED enc last day of MP, LWBS with mental health diagnosis"}],"modifierExtension":[{"url":"http://hl7.org/fhir/us/cqfmeasures/StructureDefinition/cqfm-isTestCase","valueBoolean":true}],"status":"complete","type":"individual","measure":"https://madie.cms.gov/Measure/CMS1264FHIRECATREHQR","period":{"start":"2027-01-01","end":"2027-12-31"},"group":[{"id":"Group_1","population":[{"id":"InitialPopulation_1","code":{"coding":[{"system":"http://terminology.hl7.org/CodeSystem/measure-population","code":"initial-population","display":"Initial Population"}]},"count":1},{"id":"Denominator_1","code":{"coding":[{"system":"http://terminology.hl7.org/CodeSystem/measure-population","code":"denominator","display":"Denominator"}]},"count":1},{"id":"Numerator_1","code":{"coding":[{"system":"http://terminology.hl7.org/CodeSystem/measure-population","code":"numerator","display":"Numerator"}]},"count":1}],"measureScore":{"value":0.0},"stratifier":[{"id":"Stratification_1_1","code":[{"text":"Strata-1"}],"stratum":[{"value":{"text":"Strata-1"},"population":[{"id":"InitialPopulation_1","code":{"coding":[{"system":"http://terminology.hl7.org/CodeSystem/measure-population","code":"initial-population","display":"Initial Population"}]},"count":0},{"id":"Denominator_1","code":{"coding":[{"system":"http://terminology.hl7.org/CodeSystem/measure-population","code":"denominator","display":"Denominator"}]},"count":0},{"id":"Numerator_1","code":{"coding":[{"system":"http://terminology.hl7.org/CodeSystem/measure-population","code":"numerator","display":"Numerator"}]},"count":0}]}]},{"id":"Stratification_1_2","code":[{"text":"Strata-2"}],"stratum":[{"value":{"text":"Strata-2"},"population":[{"id":"InitialPopulation_1","code":{"coding":[{"system":"http://terminology.hl7.org/CodeSystem/measure-population","code":"initial-population","display":"Initial Population"}]},"count":0},{"id":"Denominator_1","code":{"coding":[{"system":"http://terminology.hl7.org/CodeSystem/measure-population","code":"denominator","display":"Denominator"}]},"count":0},{"id":"Numerator_1","code":{"coding":[{"system":"http://terminology.hl7.org/CodeSystem/measure-population","code":"numerator","display":"Numerator"}]},"count":0}]}]},{"id":"Stratification_1_3","code":[{"text":"Strata-3"}],"stratum":[{"value":{"text":"Strata-3"},"population":[{"id":"InitialPopulation_1","code":{"coding":[{"system":"http://terminology.hl7.org/CodeSystem/measure-population","code":"initial-population","display":"Initial Population"}]},"count":0},{"id":"Denominator_1","code":{"coding":[{"system":"http://terminology.hl7.org/CodeSystem/measure-population","code":"denominator","display":"Denominator"}]},"count":0},{"id":"Numerator_1","code":{"coding":[{"system":"http://terminology.hl7.org/CodeSystem/measure-population","code":"numerator","display":"Numerator"}]},"count":0}]}]},{"id":"Stratification_1_4","code":[{"text":"Strata-4"}],"stratum":[{"value":{"text":"Strata-4"},"population":[{"id":"InitialPopulation_1","code":{"coding":[{"system":"http://terminology.hl7.org/CodeSystem/measure-population","code":"initial-population","display":"Initial Population"}]},"count":1},{"id":"Denominator_1","code":{"coding":[{"system":"http://terminology.hl7.org/CodeSystem/measure-population","code":"denominator","display":"Denominator"}]},"count":1},{"id":"Numerator_1","code":{"coding":[{"system":"http://terminology.hl7.org/CodeSystem/measure-population","code":"numerator","display":"Numerator"}]},"count":1}]}]}]}],"evaluatedResource":[{"reference":"Patient/16cffb87-15ea-48b7-bd68-f211f48d6f19"},{"reference":"Encounter/f9364c8e-a66b-4c58-bf92-a2afa91baa94"},{"reference":"Condition/a353d762-4938-45fd-837f-5afa4869cec4"},{"reference":"Claim/ClaimBehavior-NotSubsAbuse"},{"reference":"Coverage/d52b857b-a9bd-46f9-91d3-498c74db23a1"},{"reference":"Organization/2db94f7c-b488-40fd-ac73-37d5e5547a0f"},{"reference":"Practitioner/df2373b3-9b95-408c-9df7-339e4cd7b9d5"}]},"request":{"method":"PUT","url":"MeasureReport/79548373-9c82-4f0e-8c2c-05a3b5a7d72a"}}]},"request":{"method":"PUT","url":"Bundle/661581c7db207d74c03b8a65"}},{"resource":{"resourceType":"Condition","id":"a353d762-4938-45fd-837f-5afa4869cec4","meta":{"profile":["http://hl7.org/fhir/us/qicore/StructureDefinition/qicore-condition-encounter-diagnosis"]},"category":[{"coding":[{"system":"http://terminology.hl7.org/CodeSystem/condition-category","code":"encounter-diagnosis","display":"Encounter Diagnosis"}]}],"code":{"coding":[{"system":"http://snomed.info/sct","version":"2023-09","code":"10349009","display":"Multi-infarct dementia with delirium (disorder)","userSelected":true}]},"subject":{"reference":"Patient/16cffb87-15ea-48b7-bd68-f211f48d6f19"},"recordedDate":"2027-04-09T08:00:00.000+00:00"},"request":{"method":"PUT","url":"Condition/a353d762-4938-45fd-837f-5afa4869cec4"}},{"resource":{"resourceType":"Organization","id":"2db94f7c-b488-40fd-ac73-37d5e5547a0f","meta":{"profile":["http://hl7.org/fhir/us/qicore/StructureDefinition/qicore-organization"]},"identifier":[{"use":"temp","system":"urn:oid:2.16.840.1.113883.4.4","value":"21-3259825"}],"active":true,"type":[{"coding":[{"system":"http://terminology.hl7.org/CodeSystem/organization-type","code":"pay","display":"Payer"}]}],"name":"Blue Cross Blue Shield of Texas","telecom":[{"system":"phone","value":"(+1) 972-766-6900"}],"address":[{"use":"billing","type":"postal","line":["P.O. Box 660044"],"city":"Dallas","state":"TX","postalCode":"75266-0044","country":"USA"}]},"request":{"method":"PUT","url":"Organization/2db94f7c-b488-40fd-ac73-37d5e5547a0f"}},{"resource":{"resourceType":"Encounter","id":"f9364c8e-a66b-4c58-bf92-a2afa91baa94","meta":{"profile":["http://hl7.org/fhir/us/qicore/StructureDefinition/qicore-encounter"]},"status":"finished","class":{"system":"http://terminology.hl7.org/CodeSystem/v3-ActCode","code":"EMER","display":"emergency"},"type":[{"coding":[{"system":"http://snomed.info/sct","version":"2023-09","code":"225390008","display":"Triage (procedure)","userSelected":true}]}],"subject":{"reference":"Patient/16cffb87-15ea-48b7-bd68-f211f48d6f19"},"period":{"start":"2027-12-31T08:00:00.000+00:00","end":"2027-12-31T08:15:00.000+00:00"},"diagnosis":[{"condition":{"reference":"Condition/a353d762-4938-45fd-837f-5afa4869cec4"},"use":{"coding":[{"system":"http://terminology.hl7.org/CodeSystem/diagnosis-role","code":"billing"}]},"rank":1}],"hospitalization":{"dischargeDisposition":{"coding":[{"system":"http://snomed.info/sct","code":"21541000119102","display":"Patient left without being seen (finding)","userSelected":true}]}}},"request":{"method":"PUT","url":"Encounter/f9364c8e-a66b-4c58-bf92-a2afa91baa94"}},{"resource":{"resourceType":"MeasureReport","id":"79548373-9c82-4f0e-8c2c-05a3b5a7d72a","meta":{"profile":["http://hl7.org/fhir/us/cqfmeasures/StructureDefinition/test-case-cqfm"]},"contained":[{"resourceType":"Parameters","id":"d0447cb8-853b-4593-bba7-4b8db28594df-parameters","parameter":[{"name":"subject","valueString":"16cffb87-15ea-48b7-bd68-f211f48d6f19"}]}],"extension":[{"url":"http://hl7.org/fhir/StructureDefinition/cqf-inputParameters","valueReference":{"reference":"#d0447cb8-853b-4593-bba7-4b8db28594df-parameters"}},{"url":"http://hl7.org/fhir/us/cqfmeasures/StructureDefinition/cqfm-testCaseDescription","valueMarkdown":"Adult, age 18, ED enc last day of MP, LWBS with mental health diagnosis"}],"modifierExtension":[{"url":"http://hl7.org/fhir/us/cqfmeasures/StructureDefinition/cqfm-isTestCase","valueBoolean":true}],"status":"complete","type":"individual","measure":"https://madie.cms.gov/Measure/CMS1264FHIRECATREHQR","period":{"start":"2027-01-01","end":"2027-12-31"},"group":[{"id":"Group_1","population":[{"id":"InitialPopulation_1","code":{"coding":[{"system":"http://terminology.hl7.org/CodeSystem/measure-population","code":"initial-population","display":"Initial Population"}]},"count":1},{"id":"Denominator_1","code":{"coding":[{"system":"http://terminology.hl7.org/CodeSystem/measure-population","code":"denominator","display":"Denominator"}]},"count":1},{"id":"Numerator_1","code":{"coding":[{"system":"http://terminology.hl7.org/CodeSystem/measure-population","code":"numerator","display":"Numerator"}]},"count":1}],"measureScore":{"value":0.0},"stratifier":[{"id":"Stratification_1_1","code":[{"text":"Strata-1"}],"stratum":[{"value":{"text":"Strata-1"},"population":[{"id":"InitialPopulation_1","code":{"coding":[{"system":"http://terminology.hl7.org/CodeSystem/measure-population","code":"initial-population","display":"Initial Population"}]},"count":0},{"id":"Denominator_1","code":{"coding":[{"system":"http://terminology.hl7.org/CodeSystem/measure-population","code":"denominator","display":"Denominator"}]},"count":0},{"id":"Numerator_1","code":{"coding":[{"system":"http://terminology.hl7.org/CodeSystem/measure-population","code":"numerator","display":"Numerator"}]},"count":0}]}]},{"id":"Stratification_1_2","code":[{"text":"Strata-2"}],"stratum":[{"value":{"text":"Strata-2"},"population":[{"id":"InitialPopulation_1","code":{"coding":[{"system":"http://terminology.hl7.org/CodeSystem/measure-population","code":"initial-population","display":"Initial Population"}]},"count":0},{"id":"Denominator_1","code":{"coding":[{"system":"http://terminology.hl7.org/CodeSystem/measure-population","code":"denominator","display":"Denominator"}]},"count":0},{"id":"Numerator_1","code":{"coding":[{"system":"http://terminology.hl7.org/CodeSystem/measure-population","code":"numerator","display":"Numerator"}]},"count":0}]}]},{"id":"Stratification_1_3","code":[{"text":"Strata-3"}],"stratum":[{"value":{"text":"Strata-3"},"population":[{"id":"InitialPopulation_1","code":{"coding":[{"system":"http://terminology.hl7.org/CodeSystem/measure-population","code":"initial-population","display":"Initial Population"}]},"count":0},{"id":"Denominator_1","code":{"coding":[{"system":"http://terminology.hl7.org/CodeSystem/measure-population","code":"denominator","display":"Denominator"}]},"count":0},{"id":"Numerator_1","code":{"coding":[{"system":"http://terminology.hl7.org/CodeSystem/measure-population","code":"numerator","display":"Numerator"}]},"count":0}]}]},{"id":"Stratification_1_4","code":[{"text":"Strata-4"}],"stratum":[{"value":{"text":"Strata-4"},"population":[{"id":"InitialPopulation_1","code":{"coding":[{"system":"http://terminology.hl7.org/CodeSystem/measure-population","code":"initial-population","display":"Initial Population"}]},"count":1},{"id":"Denominator_1","code":{"coding":[{"system":"http://terminology.hl7.org/CodeSystem/measure-population","code":"denominator","display":"Denominator"}]},"count":1},{"id":"Numerator_1","code":{"coding":[{"system":"http://terminology.hl7.org/CodeSystem/measure-population","code":"numerator","display":"Numerator"}]},"count":1}]}]}]}],"evaluatedResource":[{"reference":"Patient/16cffb87-15ea-48b7-bd68-f211f48d6f19"},{"reference":"Encounter/f9364c8e-a66b-4c58-bf92-a2afa91baa94"},{"reference":"Condition/a353d762-4938-45fd-837f-5afa4869cec4"},{"reference":"Claim/ClaimBehavior-NotSubsAbuse"},{"reference":"Coverage/d52b857b-a9bd-46f9-91d3-498c74db23a1"},{"reference":"Organization/2db94f7c-b488-40fd-ac73-37d5e5547a0f"},{"reference":"Practitioner/df2373b3-9b95-408c-9df7-339e4cd7b9d5"}]},"request":{"method":"PUT","url":"MeasureReport/79548373-9c82-4f0e-8c2c-05a3b5a7d72a"}},{"resource":{"resourceType":"Claim","id":"ClaimBehavior-NotSubsAbuse","meta":{"profile":["http://hl7.org/fhir/us/qicore/StructureDefinition/qicore-claim"]},"status":"active","type":{"coding":[{"system":"http://terminology.hl7.org/CodeSystem/claim-type","code":"institutional"}]},"use":"claim","patient":{"reference":"Patient/16cffb87-15ea-48b7-bd68-f211f48d6f19"},"created":"2027-05-01","provider":{"reference":"Practitioner/practitioner-123456"},"priority":{"coding":[{"system":"http://terminology.hl7.org/CodeSystem/processpriority","code":"normal"}]},"diagnosis":[{"sequence":1,"diagnosisReference":{"reference":"Condition/a353d762-4938-45fd-837f-5afa4869cec4"},"type":[{"coding":[{"system":"http://terminology.hl7.org/CodeSystem/ex-diagnosistype","code":"principal"}]}]}],"insurance":[{"sequence":1,"focal":true,"coverage":{"reference":"Coverage/1"}}],"item":[{"sequence":1,"diagnosisSequence":[1],"productOrService":{"coding":[{"system":"http://terminology.hl7.org/CodeSystem/ex-USCLS","code":"99555"}]},"encounter":[{"reference":"Encounter/f9364c8e-a66b-4c58-bf92-a2afa91baa94"}]}]},"request":{"method":"PUT","url":"Claim/ClaimBehavior-NotSubsAbuse"}},{"resource":{"resourceType":"Coverage","id":"d52b857b-a9bd-46f9-91d3-498c74db23a1","meta":{"profile":["http://hl7.org/fhir/us/qicore/StructureDefinition/qicore-coverage"]},"identifier":[{"type":{"coding":[{"system":"http://terminology.hl7.org/CodeSystem/v2-0203","code":"MB"}]}}],"status":"active","beneficiary":{"reference":"Patient/16cffb87-15ea-48b7-bd68-f211f48d6f19"},"relationship":{"coding":[{"system":"http://terminology.hl7.org/CodeSystem/subscriber-relationship","code":"self"}]},"payor":[{"reference":"Organization/2db94f7c-b488-40fd-ac73-37d5e5547a0f"}]},"request":{"method":"PUT","url":"Coverage/d52b857b-a9bd-46f9-91d3-498c74db23a1"}}]}