{"resourceType":"Bundle","id":"tests-dad5b672-1e5b-437c-91fe-1f69b5d58c70-bundle","type":"transaction","entry":[{"resource":{"resourceType":"Bundle","id":"661476b015ed5841a5547ebf","type":"transaction","entry":[{"fullUrl":"https://madie.cms.gov/Patient/dad5b672-1e5b-437c-91fe-1f69b5d58c70","resource":{"resourceType":"Patient","id":"dad5b672-1e5b-437c-91fe-1f69b5d58c70","meta":{"profile":["http://hl7.org/fhir/us/qicore/StructureDefinition/qicore-patient"]},"extension":[{"url":"http://hl7.org/fhir/us/core/StructureDefinition/us-core-race","extension":[{"url":"ombCategory","valueCoding":{"system":"urn:oid:2.16.840.1.113883.6.238","code":"1002-5","display":"American Indian or Alaska Native","userSelected":true}},{"url":"text","valueString":"American Indian or Alaska Native"}]},{"url":"http://hl7.org/fhir/us/core/StructureDefinition/us-core-ethnicity","extension":[{"url":"ombCategory","valueCoding":{"system":"urn:oid:2.16.840.1.113883.6.238","code":"2135-2","display":"Hispanic or Latino","userSelected":true}},{"url":"text","valueString":"Hispanic or Latino"}]}],"identifier":[{"type":{"coding":[{"system":"http://terminology.hl7.org/CodeSystem/v2-0203","code":"MR"}]},"system":"https://bonnie-fhir.healthit.gov/","value":"661476b015ed5841a5547ebf"}],"name":[{"family":"NUMEXStrat2Fail","given":["BoardedAfterEDEncEnds"]}],"gender":"unknown","birthDate":"2009-01-01"},"request":{"method":"PUT","url":"Patient/dad5b672-1e5b-437c-91fe-1f69b5d58c70"}},{"fullUrl":"https://madie.cms.gov/Encounter/6de9a213-f619-4082-b062-290081f27661","resource":{"resourceType":"Encounter","id":"6de9a213-f619-4082-b062-290081f27661","meta":{"profile":["http://hl7.org/fhir/us/qicore/StructureDefinition/qicore-encounter"]},"status":"finished","class":{"system":"http://terminology.hl7.org/CodeSystem/v3-ActCode","code":"EMER","display":"emergency department"},"type":[{"coding":[{"system":"http://snomed.info/sct","version":"2023-09","code":"4525004","display":"Emergency department patient visit (procedure)","userSelected":true}]}],"subject":{"reference":"Patient/dad5b672-1e5b-437c-91fe-1f69b5d58c70"},"period":{"start":"2027-05-01T00:00:00.000+00:00","end":"2027-05-01T01:59:00.000+00:00"},"diagnosis":[{"condition":{"reference":"Condition/non-behavioral-health-diagnosis-without-substance-use-disorders-8a64"},"use":{"coding":[{"system":"http://terminology.hl7.org/CodeSystem/diagnosis-role","code":"billing"}]},"rank":1}],"location":[{"location":{"reference":"Location/81e90eb5-a472-4a4f-a247-f0eb21b680d6"},"period":{"start":"2027-05-01T00:00:00.000+00:00","end":"2027-05-01T08:01:00.000+00:00"}}]},"request":{"method":"PUT","url":"Encounter/6de9a213-f619-4082-b062-290081f27661"}},{"fullUrl":"https://madie.cms.gov/ServiceRequest/da0391ba-4ba3-41cd-9e73-772dc1f6ece6","resource":{"resourceType":"ServiceRequest","id":"da0391ba-4ba3-41cd-9e73-772dc1f6ece6","meta":{"profile":["http://hl7.org/fhir/us/qicore/StructureDefinition/qicore-servicerequest"]},"status":"completed","intent":"order","code":{"coding":[{"system":"http://snomed.info/sct","code":"19712007","display":"Patient transfer, to another health care facility (procedure)","userSelected":true}]},"subject":{"reference":"Patient/dad5b672-1e5b-437c-91fe-1f69b5d58c70"},"authoredOn":"2027-05-01T02:00:00.000+00:00"},"request":{"method":"PUT","url":"ServiceRequest/da0391ba-4ba3-41cd-9e73-772dc1f6ece6"}},{"fullUrl":"https://madie.cms.gov/Location/81e90eb5-a472-4a4f-a247-f0eb21b680d6","resource":{"resourceType":"Location","id":"81e90eb5-a472-4a4f-a247-f0eb21b680d6","meta":{"profile":["http://hl7.org/fhir/us/qicore/StructureDefinition/qicore-location"]},"identifier":[{"use":"usual","system":"http://exampleoflocation.com","value":"B1-S.F2"}],"name":"Emergency Department","type":[{"coding":[{"system":"https://www.cdc.gov/nhsn/cdaportal/terminology/codesystem/hsloc.html","version":"2022","code":"1108-0","display":"Emergency Department","userSelected":true}]}]},"request":{"method":"PUT","url":"Location/81e90eb5-a472-4a4f-a247-f0eb21b680d6"}},{"fullUrl":"https://madie.cms.gov/claim/ClaimBehavior-NotSubsAbuse","resource":{"resourceType":"Claim","id":"ClaimBehavior-NotSubsAbuse","meta":{"profile":["http://hl7.org/fhir/us/qicore/StructureDefinition/qicore-claim"]},"status":"active","type":{"coding":[{"system":"http://terminology.hl7.org/CodeSystem/claim-type","code":"institutional"}]},"use":"claim","patient":{"reference":"Patient/dad5b672-1e5b-437c-91fe-1f69b5d58c70"},"created":"2027-05-01","provider":{"reference":"Practitioner/practitioner-123456"},"priority":{"coding":[{"system":"http://terminology.hl7.org/CodeSystem/processpriority","code":"normal"}]},"diagnosis":[{"sequence":1,"diagnosisReference":{"reference":"Condition/797b8628-fd2b-41e6-837b-c0b510f0c0ed"},"type":[{"coding":[{"system":"http://terminology.hl7.org/CodeSystem/ex-diagnosistype","code":"principal"}]}]}],"insurance":[{"sequence":1,"focal":true,"coverage":{"reference":"Coverage/1"}}],"item":[{"sequence":1,"diagnosisSequence":[1],"productOrService":{"coding":[{"system":"http://terminology.hl7.org/CodeSystem/ex-USCLS","code":"99555"}]},"encounter":[{"reference":"Encounter/6de9a213-f619-4082-b062-290081f27661"}]}]},"request":{"method":"PUT","url":"Claim/ClaimBehavior-NotSubsAbuse"}},{"fullUrl":"https://madie.cms.gov/Coverage/d39ebbd3-d6e9-4c47-a8cd-9cde8c612a62","resource":{"resourceType":"Coverage","id":"d39ebbd3-d6e9-4c47-a8cd-9cde8c612a62","meta":{"profile":["http://hl7.org/fhir/us/qicore/StructureDefinition/qicore-coverage"]},"identifier":[{"type":{"coding":[{"system":"http://terminology.hl7.org/CodeSystem/v2-0203","code":"MB"}]}}],"status":"active","beneficiary":{"reference":"Patient/dad5b672-1e5b-437c-91fe-1f69b5d58c70"},"relationship":{"coding":[{"system":"http://terminology.hl7.org/CodeSystem/subscriber-relationship","code":"self"}]},"payor":[{"reference":"Organization/7d06849f-8d60-49af-a5ee-e767fc2f6673"}]},"request":{"method":"PUT","url":"Coverage/d39ebbd3-d6e9-4c47-a8cd-9cde8c612a62"}},{"fullUrl":"https://madie.cms.gov/Condition/797b8628-fd2b-41e6-837b-c0b510f0c0ed","resource":{"resourceType":"Condition","id":"797b8628-fd2b-41e6-837b-c0b510f0c0ed","meta":{"profile":["http://hl7.org/fhir/us/qicore/StructureDefinition/qicore-condition-encounter-diagnosis"]},"category":[{"coding":[{"system":"http://terminology.hl7.org/CodeSystem/condition-category","code":"encounter-diagnosis","display":"Encounter Diagnosis"}]}],"code":{"coding":[{"system":"http://snomed.info/sct","version":"2023-09","code":"10674711000119105","display":"Acute severe exacerbation of asthma co-occurrent with allergic rhinitis (disorder)","userSelected":true}]},"subject":{"reference":"Patient/dad5b672-1e5b-437c-91fe-1f69b5d58c70"},"recordedDate":"2027-05-01T08:00:00.000+00:00"},"request":{"method":"PUT","url":"Condition/797b8628-fd2b-41e6-837b-c0b510f0c0ed"}},{"fullUrl":"https://madie.cms.gov/ServiceRequest/ad5e30fe-baa1-4864-bb25-51d1b50c99e4","resource":{"resourceType":"ServiceRequest","id":"ad5e30fe-baa1-4864-bb25-51d1b50c99e4","meta":{"profile":["http://hl7.org/fhir/us/qicore/StructureDefinition/qicore-servicerequest"]},"status":"active","intent":"order","code":{"coding":[{"system":"http://snomed.info/sct","version":"2023-09","code":"448551000124100","display":"Patient transfer to another hospital (procedure)","userSelected":true}]},"subject":{"reference":"Patient/dad5b672-1e5b-437c-91fe-1f69b5d58c70"},"authoredOn":"2027-05-01T06:02:00.000+00:00"},"request":{"method":"PUT","url":"ServiceRequest/ad5e30fe-baa1-4864-bb25-51d1b50c99e4"}},{"fullUrl":"https://madie.cms.gov/Organization/7d06849f-8d60-49af-a5ee-e767fc2f6673","resource":{"resourceType":"Organization","id":"7d06849f-8d60-49af-a5ee-e767fc2f6673","meta":{"profile":["http://hl7.org/fhir/us/qicore/StructureDefinition/qicore-organization"]},"identifier":[{"use":"temp","system":"urn:oid:2.16.840.1.113883.4.4","value":"21-3259825"}],"active":true,"type":[{"coding":[{"system":"http://terminology.hl7.org/CodeSystem/organization-type","code":"pay","display":"Payer"}]}],"name":"Blue Cross Blue Shield of Texas","telecom":[{"system":"phone","value":"(+1) 972-766-6900"}],"address":[{"use":"billing","type":"postal","line":["P.O. Box 660044"],"city":"Dallas","state":"TX","postalCode":"75266-0044","country":"USA"}]},"request":{"method":"PUT","url":"Organization/7d06849f-8d60-49af-a5ee-e767fc2f6673"}},{"fullUrl":"https://madie.cms.gov/Practitioner/d4a1e9c5-6b9d-4958-b645-1fac4eb2202f","resource":{"resourceType":"Practitioner","id":"d4a1e9c5-6b9d-4958-b645-1fac4eb2202f","meta":{"profile":["http://hl7.org/fhir/us/qicore/StructureDefinition/qicore-practitioner"]},"identifier":[{"system":"http://hl7.org/fhir/sid/us-npi","value":"9999999896"}],"name":[{"family":"Evil","prefix":["Dr"]}]},"request":{"method":"PUT","url":"Practitioner/d4a1e9c5-6b9d-4958-b645-1fac4eb2202f"}},{"fullUrl":"https://madie.cms.gov/MeasureReport/ea13c23e-4a0f-4e93-8aa6-aa070759c8a4","resource":{"resourceType":"MeasureReport","id":"ea13c23e-4a0f-4e93-8aa6-aa070759c8a4","meta":{"profile":["http://hl7.org/fhir/us/cqfmeasures/StructureDefinition/test-case-cqfm"]},"contained":[{"resourceType":"Parameters","id":"6015f4a6-6663-45d9-8141-91296995957a-parameters","parameter":[{"name":"subject","valueString":"dad5b672-1e5b-437c-91fe-1f69b5d58c70"}]}],"extension":[{"url":"http://hl7.org/fhir/StructureDefinition/cqf-inputParameters","valueReference":{"reference":"#6015f4a6-6663-45d9-8141-91296995957a-parameters"}},{"url":"http://hl7.org/fhir/us/cqfmeasures/StructureDefinition/cqfm-testCaseDescription","valueMarkdown":"Adult, ED transfer order AFTER ED enc where patient was boarded 6 hrs 1 min; Enc 8 hrs, enc departure 8 hrs 1 min. dx asthma "}],"modifierExtension":[{"url":"http://hl7.org/fhir/us/cqfmeasures/StructureDefinition/cqfm-isTestCase","valueBoolean":true}],"status":"complete","type":"individual","measure":"https://madie.cms.gov/Measure/CMS1264FHIRECATREHQR","period":{"start":"2027-01-01","end":"2027-12-31"},"group":[{"id":"Group_1","population":[{"id":"InitialPopulation_1","code":{"coding":[{"system":"http://terminology.hl7.org/CodeSystem/measure-population","code":"initial-population","display":"Initial Population"}]},"count":1},{"id":"Denominator_1","code":{"coding":[{"system":"http://terminology.hl7.org/CodeSystem/measure-population","code":"denominator","display":"Denominator"}]},"count":1},{"id":"Numerator_1","code":{"coding":[{"system":"http://terminology.hl7.org/CodeSystem/measure-population","code":"numerator","display":"Numerator"}]},"count":1}],"measureScore":{"value":0.0},"stratifier":[{"id":"Stratification_1_1","code":[{"text":"Strata-1"}],"stratum":[{"value":{"text":"Strata-1"},"population":[{"id":"InitialPopulation_1","code":{"coding":[{"system":"http://terminology.hl7.org/CodeSystem/measure-population","code":"initial-population","display":"Initial Population"}]},"count":0},{"id":"Denominator_1","code":{"coding":[{"system":"http://terminology.hl7.org/CodeSystem/measure-population","code":"denominator","display":"Denominator"}]},"count":0},{"id":"Numerator_1","code":{"coding":[{"system":"http://terminology.hl7.org/CodeSystem/measure-population","code":"numerator","display":"Numerator"}]},"count":0}]}]},{"id":"Stratification_1_2","code":[{"text":"Strata-2"}],"stratum":[{"value":{"text":"Strata-2"},"population":[{"id":"InitialPopulation_1","code":{"coding":[{"system":"http://terminology.hl7.org/CodeSystem/measure-population","code":"initial-population","display":"Initial Population"}]},"count":1},{"id":"Denominator_1","code":{"coding":[{"system":"http://terminology.hl7.org/CodeSystem/measure-population","code":"denominator","display":"Denominator"}]},"count":1},{"id":"Numerator_1","code":{"coding":[{"system":"http://terminology.hl7.org/CodeSystem/measure-population","code":"numerator","display":"Numerator"}]},"count":1}]}]},{"id":"Stratification_1_3","code":[{"text":"Strata-3"}],"stratum":[{"value":{"text":"Strata-3"},"population":[{"id":"InitialPopulation_1","code":{"coding":[{"system":"http://terminology.hl7.org/CodeSystem/measure-population","code":"initial-population","display":"Initial Population"}]},"count":0},{"id":"Denominator_1","code":{"coding":[{"system":"http://terminology.hl7.org/CodeSystem/measure-population","code":"denominator","display":"Denominator"}]},"count":0},{"id":"Numerator_1","code":{"coding":[{"system":"http://terminology.hl7.org/CodeSystem/measure-population","code":"numerator","display":"Numerator"}]},"count":0}]}]},{"id":"Stratification_1_4","code":[{"text":"Strata-4"}],"stratum":[{"value":{"text":"Strata-4"},"population":[{"id":"InitialPopulation_1","code":{"coding":[{"system":"http://terminology.hl7.org/CodeSystem/measure-population","code":"initial-population","display":"Initial Population"}]},"count":0},{"id":"Denominator_1","code":{"coding":[{"system":"http://terminology.hl7.org/CodeSystem/measure-population","code":"denominator","display":"Denominator"}]},"count":0},{"id":"Numerator_1","code":{"coding":[{"system":"http://terminology.hl7.org/CodeSystem/measure-population","code":"numerator","display":"Numerator"}]},"count":0}]}]}]}],"evaluatedResource":[{"reference":"Patient/dad5b672-1e5b-437c-91fe-1f69b5d58c70"},{"reference":"Encounter/6de9a213-f619-4082-b062-290081f27661"},{"reference":"ServiceRequest/da0391ba-4ba3-41cd-9e73-772dc1f6ece6"},{"reference":"Location/81e90eb5-a472-4a4f-a247-f0eb21b680d6"},{"reference":"Claim/ClaimBehavior-NotSubsAbuse"},{"reference":"Coverage/d39ebbd3-d6e9-4c47-a8cd-9cde8c612a62"},{"reference":"Condition/797b8628-fd2b-41e6-837b-c0b510f0c0ed"},{"reference":"ServiceRequest/ad5e30fe-baa1-4864-bb25-51d1b50c99e4"},{"reference":"Organization/7d06849f-8d60-49af-a5ee-e767fc2f6673"},{"reference":"Practitioner/d4a1e9c5-6b9d-4958-b645-1fac4eb2202f"}]},"request":{"method":"PUT","url":"MeasureReport/ea13c23e-4a0f-4e93-8aa6-aa070759c8a4"}}]},"request":{"method":"PUT","url":"Bundle/661476b015ed5841a5547ebf"}},{"resource":{"resourceType":"Condition","id":"797b8628-fd2b-41e6-837b-c0b510f0c0ed","meta":{"profile":["http://hl7.org/fhir/us/qicore/StructureDefinition/qicore-condition-encounter-diagnosis"]},"category":[{"coding":[{"system":"http://terminology.hl7.org/CodeSystem/condition-category","code":"encounter-diagnosis","display":"Encounter Diagnosis"}]}],"code":{"coding":[{"system":"http://snomed.info/sct","version":"2023-09","code":"10674711000119105","display":"Acute severe exacerbation of asthma co-occurrent with allergic rhinitis (disorder)","userSelected":true}]},"subject":{"reference":"Patient/dad5b672-1e5b-437c-91fe-1f69b5d58c70"},"recordedDate":"2027-05-01T08:00:00.000+00:00"},"request":{"method":"PUT","url":"Condition/797b8628-fd2b-41e6-837b-c0b510f0c0ed"}},{"resource":{"resourceType":"ServiceRequest","id":"ad5e30fe-baa1-4864-bb25-51d1b50c99e4","meta":{"profile":["http://hl7.org/fhir/us/qicore/StructureDefinition/qicore-servicerequest"]},"status":"active","intent":"order","code":{"coding":[{"system":"http://snomed.info/sct","version":"2023-09","code":"448551000124100","display":"Patient transfer to another hospital (procedure)","userSelected":true}]},"subject":{"reference":"Patient/dad5b672-1e5b-437c-91fe-1f69b5d58c70"},"authoredOn":"2027-05-01T06:02:00.000+00:00"},"request":{"method":"PUT","url":"ServiceRequest/ad5e30fe-baa1-4864-bb25-51d1b50c99e4"}},{"resource":{"resourceType":"MeasureReport","id":"ea13c23e-4a0f-4e93-8aa6-aa070759c8a4","meta":{"profile":["http://hl7.org/fhir/us/cqfmeasures/StructureDefinition/test-case-cqfm"]},"contained":[{"resourceType":"Parameters","id":"6015f4a6-6663-45d9-8141-91296995957a-parameters","parameter":[{"name":"subject","valueString":"dad5b672-1e5b-437c-91fe-1f69b5d58c70"}]}],"extension":[{"url":"http://hl7.org/fhir/StructureDefinition/cqf-inputParameters","valueReference":{"reference":"#6015f4a6-6663-45d9-8141-91296995957a-parameters"}},{"url":"http://hl7.org/fhir/us/cqfmeasures/StructureDefinition/cqfm-testCaseDescription","valueMarkdown":"Adult, ED transfer order AFTER ED enc where patient was boarded 6 hrs 1 min; Enc 8 hrs, enc departure 8 hrs 1 min. dx asthma "}],"modifierExtension":[{"url":"http://hl7.org/fhir/us/cqfmeasures/StructureDefinition/cqfm-isTestCase","valueBoolean":true}],"status":"complete","type":"individual","measure":"https://madie.cms.gov/Measure/CMS1264FHIRECATREHQR","period":{"start":"2027-01-01","end":"2027-12-31"},"group":[{"id":"Group_1","population":[{"id":"InitialPopulation_1","code":{"coding":[{"system":"http://terminology.hl7.org/CodeSystem/measure-population","code":"initial-population","display":"Initial Population"}]},"count":1},{"id":"Denominator_1","code":{"coding":[{"system":"http://terminology.hl7.org/CodeSystem/measure-population","code":"denominator","display":"Denominator"}]},"count":1},{"id":"Numerator_1","code":{"coding":[{"system":"http://terminology.hl7.org/CodeSystem/measure-population","code":"numerator","display":"Numerator"}]},"count":1}],"measureScore":{"value":0.0},"stratifier":[{"id":"Stratification_1_1","code":[{"text":"Strata-1"}],"stratum":[{"value":{"text":"Strata-1"},"population":[{"id":"InitialPopulation_1","code":{"coding":[{"system":"http://terminology.hl7.org/CodeSystem/measure-population","code":"initial-population","display":"Initial Population"}]},"count":0},{"id":"Denominator_1","code":{"coding":[{"system":"http://terminology.hl7.org/CodeSystem/measure-population","code":"denominator","display":"Denominator"}]},"count":0},{"id":"Numerator_1","code":{"coding":[{"system":"http://terminology.hl7.org/CodeSystem/measure-population","code":"numerator","display":"Numerator"}]},"count":0}]}]},{"id":"Stratification_1_2","code":[{"text":"Strata-2"}],"stratum":[{"value":{"text":"Strata-2"},"population":[{"id":"InitialPopulation_1","code":{"coding":[{"system":"http://terminology.hl7.org/CodeSystem/measure-population","code":"initial-population","display":"Initial Population"}]},"count":1},{"id":"Denominator_1","code":{"coding":[{"system":"http://terminology.hl7.org/CodeSystem/measure-population","code":"denominator","display":"Denominator"}]},"count":1},{"id":"Numerator_1","code":{"coding":[{"system":"http://terminology.hl7.org/CodeSystem/measure-population","code":"numerator","display":"Numerator"}]},"count":1}]}]},{"id":"Stratification_1_3","code":[{"text":"Strata-3"}],"stratum":[{"value":{"text":"Strata-3"},"population":[{"id":"InitialPopulation_1","code":{"coding":[{"system":"http://terminology.hl7.org/CodeSystem/measure-population","code":"initial-population","display":"Initial Population"}]},"count":0},{"id":"Denominator_1","code":{"coding":[{"system":"http://terminology.hl7.org/CodeSystem/measure-population","code":"denominator","display":"Denominator"}]},"count":0},{"id":"Numerator_1","code":{"coding":[{"system":"http://terminology.hl7.org/CodeSystem/measure-population","code":"numerator","display":"Numerator"}]},"count":0}]}]},{"id":"Stratification_1_4","code":[{"text":"Strata-4"}],"stratum":[{"value":{"text":"Strata-4"},"population":[{"id":"InitialPopulation_1","code":{"coding":[{"system":"http://terminology.hl7.org/CodeSystem/measure-population","code":"initial-population","display":"Initial Population"}]},"count":0},{"id":"Denominator_1","code":{"coding":[{"system":"http://terminology.hl7.org/CodeSystem/measure-population","code":"denominator","display":"Denominator"}]},"count":0},{"id":"Numerator_1","code":{"coding":[{"system":"http://terminology.hl7.org/CodeSystem/measure-population","code":"numerator","display":"Numerator"}]},"count":0}]}]}]}],"evaluatedResource":[{"reference":"Patient/dad5b672-1e5b-437c-91fe-1f69b5d58c70"},{"reference":"Encounter/6de9a213-f619-4082-b062-290081f27661"},{"reference":"ServiceRequest/da0391ba-4ba3-41cd-9e73-772dc1f6ece6"},{"reference":"Location/81e90eb5-a472-4a4f-a247-f0eb21b680d6"},{"reference":"Claim/ClaimBehavior-NotSubsAbuse"},{"reference":"Coverage/d39ebbd3-d6e9-4c47-a8cd-9cde8c612a62"},{"reference":"Condition/797b8628-fd2b-41e6-837b-c0b510f0c0ed"},{"reference":"ServiceRequest/ad5e30fe-baa1-4864-bb25-51d1b50c99e4"},{"reference":"Organization/7d06849f-8d60-49af-a5ee-e767fc2f6673"},{"reference":"Practitioner/d4a1e9c5-6b9d-4958-b645-1fac4eb2202f"}]},"request":{"method":"PUT","url":"MeasureReport/ea13c23e-4a0f-4e93-8aa6-aa070759c8a4"}},{"resource":{"resourceType":"ServiceRequest","id":"da0391ba-4ba3-41cd-9e73-772dc1f6ece6","meta":{"profile":["http://hl7.org/fhir/us/qicore/StructureDefinition/qicore-servicerequest"]},"status":"completed","intent":"order","code":{"coding":[{"system":"http://snomed.info/sct","code":"19712007","display":"Patient transfer, to another health care facility (procedure)","userSelected":true}]},"subject":{"reference":"Patient/dad5b672-1e5b-437c-91fe-1f69b5d58c70"},"authoredOn":"2027-05-01T02:00:00.000+00:00"},"request":{"method":"PUT","url":"ServiceRequest/da0391ba-4ba3-41cd-9e73-772dc1f6ece6"}},{"resource":{"resourceType":"Encounter","id":"6de9a213-f619-4082-b062-290081f27661","meta":{"profile":["http://hl7.org/fhir/us/qicore/StructureDefinition/qicore-encounter"]},"status":"finished","class":{"system":"http://terminology.hl7.org/CodeSystem/v3-ActCode","code":"EMER","display":"emergency department"},"type":[{"coding":[{"system":"http://snomed.info/sct","version":"2023-09","code":"4525004","display":"Emergency department patient visit (procedure)","userSelected":true}]}],"subject":{"reference":"Patient/dad5b672-1e5b-437c-91fe-1f69b5d58c70"},"period":{"start":"2027-05-01T00:00:00.000+00:00","end":"2027-05-01T01:59:00.000+00:00"},"diagnosis":[{"condition":{"reference":"Condition/non-behavioral-health-diagnosis-without-substance-use-disorders-8a64"},"use":{"coding":[{"system":"http://terminology.hl7.org/CodeSystem/diagnosis-role","code":"billing"}]},"rank":1}],"location":[{"location":{"reference":"Location/81e90eb5-a472-4a4f-a247-f0eb21b680d6"},"period":{"start":"2027-05-01T00:00:00.000+00:00","end":"2027-05-01T08:01:00.000+00:00"}}]},"request":{"method":"PUT","url":"Encounter/6de9a213-f619-4082-b062-290081f27661"}},{"resource":{"resourceType":"Location","id":"81e90eb5-a472-4a4f-a247-f0eb21b680d6","meta":{"profile":["http://hl7.org/fhir/us/qicore/StructureDefinition/qicore-location"]},"identifier":[{"use":"usual","system":"http://exampleoflocation.com","value":"B1-S.F2"}],"name":"Emergency Department","type":[{"coding":[{"system":"https://www.cdc.gov/nhsn/cdaportal/terminology/codesystem/hsloc.html","version":"2022","code":"1108-0","display":"Emergency Department","userSelected":true}]}]},"request":{"method":"PUT","url":"Location/81e90eb5-a472-4a4f-a247-f0eb21b680d6"}},{"resource":{"resourceType":"Practitioner","id":"d4a1e9c5-6b9d-4958-b645-1fac4eb2202f","meta":{"profile":["http://hl7.org/fhir/us/qicore/StructureDefinition/qicore-practitioner"]},"identifier":[{"system":"http://hl7.org/fhir/sid/us-npi","value":"9999999896"}],"name":[{"family":"Evil","prefix":["Dr"]}]},"request":{"method":"PUT","url":"Practitioner/d4a1e9c5-6b9d-4958-b645-1fac4eb2202f"}},{"resource":{"resourceType":"Organization","id":"7d06849f-8d60-49af-a5ee-e767fc2f6673","meta":{"profile":["http://hl7.org/fhir/us/qicore/StructureDefinition/qicore-organization"]},"identifier":[{"use":"temp","system":"urn:oid:2.16.840.1.113883.4.4","value":"21-3259825"}],"active":true,"type":[{"coding":[{"system":"http://terminology.hl7.org/CodeSystem/organization-type","code":"pay","display":"Payer"}]}],"name":"Blue Cross Blue Shield of Texas","telecom":[{"system":"phone","value":"(+1) 972-766-6900"}],"address":[{"use":"billing","type":"postal","line":["P.O. Box 660044"],"city":"Dallas","state":"TX","postalCode":"75266-0044","country":"USA"}]},"request":{"method":"PUT","url":"Organization/7d06849f-8d60-49af-a5ee-e767fc2f6673"}},{"resource":{"resourceType":"Coverage","id":"d39ebbd3-d6e9-4c47-a8cd-9cde8c612a62","meta":{"profile":["http://hl7.org/fhir/us/qicore/StructureDefinition/qicore-coverage"]},"identifier":[{"type":{"coding":[{"system":"http://terminology.hl7.org/CodeSystem/v2-0203","code":"MB"}]}}],"status":"active","beneficiary":{"reference":"Patient/dad5b672-1e5b-437c-91fe-1f69b5d58c70"},"relationship":{"coding":[{"system":"http://terminology.hl7.org/CodeSystem/subscriber-relationship","code":"self"}]},"payor":[{"reference":"Organization/7d06849f-8d60-49af-a5ee-e767fc2f6673"}]},"request":{"method":"PUT","url":"Coverage/d39ebbd3-d6e9-4c47-a8cd-9cde8c612a62"}},{"resource":{"resourceType":"Claim","id":"ClaimBehavior-NotSubsAbuse","meta":{"profile":["http://hl7.org/fhir/us/qicore/StructureDefinition/qicore-claim"]},"status":"active","type":{"coding":[{"system":"http://terminology.hl7.org/CodeSystem/claim-type","code":"institutional"}]},"use":"claim","patient":{"reference":"Patient/dad5b672-1e5b-437c-91fe-1f69b5d58c70"},"created":"2027-05-01","provider":{"reference":"Practitioner/practitioner-123456"},"priority":{"coding":[{"system":"http://terminology.hl7.org/CodeSystem/processpriority","code":"normal"}]},"diagnosis":[{"sequence":1,"diagnosisReference":{"reference":"Condition/797b8628-fd2b-41e6-837b-c0b510f0c0ed"},"type":[{"coding":[{"system":"http://terminology.hl7.org/CodeSystem/ex-diagnosistype","code":"principal"}]}]}],"insurance":[{"sequence":1,"focal":true,"coverage":{"reference":"Coverage/1"}}],"item":[{"sequence":1,"diagnosisSequence":[1],"productOrService":{"coding":[{"system":"http://terminology.hl7.org/CodeSystem/ex-USCLS","code":"99555"}]},"encounter":[{"reference":"Encounter/6de9a213-f619-4082-b062-290081f27661"}]}]},"request":{"method":"PUT","url":"Claim/ClaimBehavior-NotSubsAbuse"}},{"resource":{"resourceType":"Patient","id":"dad5b672-1e5b-437c-91fe-1f69b5d58c70","meta":{"profile":["http://hl7.org/fhir/us/qicore/StructureDefinition/qicore-patient"]},"extension":[{"url":"http://hl7.org/fhir/us/core/StructureDefinition/us-core-race","extension":[{"url":"ombCategory","valueCoding":{"system":"urn:oid:2.16.840.1.113883.6.238","code":"1002-5","display":"American Indian or Alaska Native","userSelected":true}},{"url":"text","valueString":"American Indian or Alaska Native"}]},{"url":"http://hl7.org/fhir/us/core/StructureDefinition/us-core-ethnicity","extension":[{"url":"ombCategory","valueCoding":{"system":"urn:oid:2.16.840.1.113883.6.238","code":"2135-2","display":"Hispanic or Latino","userSelected":true}},{"url":"text","valueString":"Hispanic or Latino"}]}],"identifier":[{"type":{"coding":[{"system":"http://terminology.hl7.org/CodeSystem/v2-0203","code":"MR"}]},"system":"https://bonnie-fhir.healthit.gov/","value":"661476b015ed5841a5547ebf"}],"name":[{"family":"NUMEXStrat2Fail","given":["BoardedAfterEDEncEnds"]}],"gender":"unknown","birthDate":"2009-01-01"},"request":{"method":"PUT","url":"Patient/dad5b672-1e5b-437c-91fe-1f69b5d58c70"}}]}