{
  "resourceType": "Bundle",
  "id": "633b3f9e0968f80122503cc9",
  "type": "transaction",
  "entry": [ {
    "fullUrl": "https://madie.cms.gov/Patient/d2f01efe-36cc-4caa-98a6-b883ec7e87aa",
    "resource": {
      "resourceType": "Patient",
      "id": "d2f01efe-36cc-4caa-98a6-b883ec7e87aa",
      "meta": {
        "profile": [ "http://hl7.org/fhir/us/qicore/StructureDefinition/qicore-patient" ]
      },
      "text": {
        "status": "generated",
        "div": "<div xmlns=\"http://www.w3.org/1999/xhtml\"><div class=\"hapiHeaderText\">AssPrfDelRelvDtEQIPEnd<b>DENOMPASS</b></div><table class=\"hapiPropertyTable\"><tbody><tr><td>Date of birth</td><td><span>01 February 2004</span></td></tr></tbody></table></div>"
      },
      "extension": [ {
        "url": "http://hl7.org/fhir/us/core/StructureDefinition/us-core-race",
        "extension": [ {
          "url": "ombCategory",
          "valueCoding": {
            "system": "urn:oid:2.16.840.1.113883.6.238",
            "code": "1002-5",
            "display": "American Indian or Alaska Native",
            "userSelected": true
          }
        }, {
          "url": "text",
          "valueString": "American Indian or Alaska Native"
        } ]
      }, {
        "url": "http://hl7.org/fhir/us/core/StructureDefinition/us-core-ethnicity",
        "extension": [ {
          "url": "ombCategory",
          "valueCoding": {
            "system": "urn:oid:2.16.840.1.113883.6.238",
            "code": "2135-2",
            "display": "Hispanic or Latino",
            "userSelected": true
          }
        }, {
          "url": "text",
          "valueString": "Hispanic or Latino"
        } ]
      } ],
      "identifier": [ {
        "type": {
          "coding": [ {
            "system": "http://terminology.hl7.org/CodeSystem/v2-0203",
            "code": "MR"
          } ]
        },
        "system": "https://bonnie-fhir.healthit.gov/",
        "value": "633b3f9e0968f80122503cc9"
      } ],
      "active": true,
      "name": [ {
        "use": "usual",
        "family": "DENOMPass",
        "given": [ "AssPrfDelRelvDtEQIPEnd" ]
      } ],
      "gender": "female",
      "birthDate": "2005-02-01"
    },
    "request": {
      "method": "PUT",
      "url": "Patient/d2f01efe-36cc-4caa-98a6-b883ec7e87aa"
    }
  }, {
    "fullUrl": "https://madie.cms.gov/Observation/3307498a-34c3-4aee-9c90-67cb87c5bd80",
    "resource": {
      "resourceType": "Observation",
      "id": "3307498a-34c3-4aee-9c90-67cb87c5bd80",
      "meta": {
        "profile": [ "http://hl7.org/fhir/us/qicore/StructureDefinition/qicore-simple-observation" ]
      },
      "status": "final",
      "category": [ {
        "coding": [ {
          "system": "http://terminology.hl7.org/CodeSystem/observation-category",
          "code": "exam",
          "display": "exam",
          "userSelected": true
        } ]
      } ],
      "code": {
        "coding": [ {
          "system": "http://loinc.org",
          "code": "93857-1"
        } ]
      },
      "subject": {
        "reference": "Patient/d2f01efe-36cc-4caa-98a6-b883ec7e87aa"
      },
      "effectiveDateTime": "2026-02-05T08:15:00Z",
      "performer": [ {
        "reference": "Organization/example1",
        "display": "Hendricks Country Hospital"
      } ],
      "valueDateTime": "2026-02-01T08:00:00.000+00:00"
    },
    "request": {
      "method": "PUT",
      "url": "Observation/3307498a-34c3-4aee-9c90-67cb87c5bd80"
    }
  }, {
    "fullUrl": "https://madie.cms.gov/Observation/cfb86211-31b5-49f7-be5e-8a81bfcf352a",
    "resource": {
      "resourceType": "Observation",
      "id": "cfb86211-31b5-49f7-be5e-8a81bfcf352a",
      "meta": {
        "profile": [ "http://hl7.org/fhir/us/qicore/StructureDefinition/qicore-simple-observation" ]
      },
      "status": "final",
      "category": [ {
        "coding": [ {
          "system": "http://terminology.hl7.org/CodeSystem/observation-category",
          "code": "exam",
          "display": "exam",
          "userSelected": true
        } ]
      } ],
      "code": {
        "coding": [ {
          "system": "http://loinc.org",
          "code": "11778-8"
        } ]
      },
      "subject": {
        "reference": "Patient/d2f01efe-36cc-4caa-98a6-b883ec7e87aa"
      },
      "effectiveDateTime": "2026-02-01T08:00:00Z",
      "performer": [ {
        "reference": "Organization/example1",
        "display": "Hendricks Country Hospital"
      } ],
      "valueDateTime": "2026-02-01T08:00:00.000+00:00"
    },
    "request": {
      "method": "PUT",
      "url": "Observation/cfb86211-31b5-49f7-be5e-8a81bfcf352a"
    }
  }, {
    "fullUrl": "https://madie.cms.gov/Encounter/74b4bf5a-e69e-4e5d-94c5-003ae5e950d6",
    "resource": {
      "resourceType": "Encounter",
      "id": "74b4bf5a-e69e-4e5d-94c5-003ae5e950d6",
      "meta": {
        "profile": [ "http://hl7.org/fhir/us/qicore/StructureDefinition/qicore-encounter" ]
      },
      "status": "finished",
      "class": {
        "system": "http://terminology.hl7.org/CodeSystem/v3-ActCode",
        "code": "IMP",
        "display": "inpatient encounter"
      },
      "type": [ {
        "coding": [ {
          "system": "http://snomed.info/sct",
          "code": "183452005"
        } ]
      } ],
      "subject": {
        "reference": "Patient/d2f01efe-36cc-4caa-98a6-b883ec7e87aa"
      },
      "period": {
        "start": "2026-02-01T08:00:00Z",
        "end": "2026-02-05T08:15:00.000+00:00"
      }
    },
    "request": {
      "method": "PUT",
      "url": "Encounter/74b4bf5a-e69e-4e5d-94c5-003ae5e950d6"
    }
  }, {
    "fullUrl": "https://madie.cms.gov/Procedure/9763acf1-423a-47f9-819b-9ecfe96eb1fd",
    "resource": {
      "resourceType": "Procedure",
      "id": "9763acf1-423a-47f9-819b-9ecfe96eb1fd",
      "meta": {
        "profile": [ "http://hl7.org/fhir/us/qicore/StructureDefinition/qicore-procedure" ]
      },
      "extension": [ {
        "url": "http://hl7.org/fhir/us/qicore/StructureDefinition/qicore-recorded",
        "valueDateTime": "2014-04-05T13:35:00Z"
      } ],
      "status": "completed",
      "code": {
        "coding": [ {
          "system": "http://snomed.info/sct",
          "code": "10745001"
        } ]
      },
      "subject": {
        "reference": "Patient/d2f01efe-36cc-4caa-98a6-b883ec7e87aa"
      },
      "performedPeriod": {
        "start": "2026-02-01T08:00:00Z",
        "end": "2026-02-05T08:15:00.000+00:00"
      }
    },
    "request": {
      "method": "PUT",
      "url": "Procedure/9763acf1-423a-47f9-819b-9ecfe96eb1fd"
    }
  }, {
    "fullUrl": "https://madie.cms.gov/Coverage/7de5b804-0347-441a-9555-95c19b2fcd64",
    "resource": {
      "resourceType": "Coverage",
      "id": "7de5b804-0347-441a-9555-95c19b2fcd64",
      "meta": {
        "profile": [ "http://hl7.org/fhir/us/qicore/StructureDefinition/qicore-coverage" ]
      },
      "status": "active",
      "subscriberId": "523435",
      "beneficiary": {
        "reference": "Patient/d2f01efe-36cc-4caa-98a6-b883ec7e87aa"
      },
      "relationship": {
        "coding": [ {
          "system": "http://terminology.hl7.org/CodeSystem/subscriber-relationship",
          "code": "self"
        } ]
      },
      "payor": [ {
        "reference": "Organization/b1045665-e086-4690-9706-41687c862595"
      } ]
    },
    "request": {
      "method": "PUT",
      "url": "Coverage/7de5b804-0347-441a-9555-95c19b2fcd64"
    }
  }, {
    "fullUrl": "https://madie.cms.gov/Organization/b1045665-e086-4690-9706-41687c862595",
    "resource": {
      "resourceType": "Organization",
      "id": "b1045665-e086-4690-9706-41687c862595",
      "meta": {
        "profile": [ "http://hl7.org/fhir/us/qicore/StructureDefinition/qicore-organization" ]
      },
      "identifier": [ {
        "use": "temp",
        "system": "urn:oid:2.16.840.1.113883.4.4",
        "value": "21-3259825"
      } ],
      "active": true,
      "type": [ {
        "coding": [ {
          "system": "http://terminology.hl7.org/CodeSystem/organization-type",
          "code": "pay",
          "display": "Payer"
        } ]
      } ],
      "name": "Blue Cross Blue Shield of Texas",
      "telecom": [ {
        "system": "phone",
        "value": "(+1) 972-766-6900"
      } ],
      "address": [ {
        "use": "billing",
        "type": "postal",
        "line": [ "P.O. Box 660044" ],
        "city": "Dallas",
        "state": "TX",
        "postalCode": "75266-0044",
        "country": "USA"
      } ]
    },
    "request": {
      "method": "PUT",
      "url": "Organization/b1045665-e086-4690-9706-41687c862595"
    }
  }, {
    "fullUrl": "https://madie.cms.gov/Practitioner/9d9ce32e-0b48-4d0c-a33e-113563b0e28e",
    "resource": {
      "resourceType": "Practitioner",
      "id": "9d9ce32e-0b48-4d0c-a33e-113563b0e28e",
      "meta": {
        "profile": [ "http://hl7.org/fhir/us/qicore/StructureDefinition/qicore-practitioner" ]
      },
      "identifier": [ {
        "system": "http://hl7.org/fhir/sid/us-npi",
        "value": "1234567890"
      } ],
      "name": [ {
        "family": "Evil",
        "prefix": [ "Dr" ]
      } ]
    },
    "request": {
      "method": "PUT",
      "url": "Practitioner/9d9ce32e-0b48-4d0c-a33e-113563b0e28e"
    }
  }, {
    "fullUrl": "https://madie.cms.gov/MeasureReport/640b3c9d-20bd-4c2a-84e5-0f1891db8019",
    "resource": {
      "resourceType": "MeasureReport",
      "id": "640b3c9d-20bd-4c2a-84e5-0f1891db8019",
      "meta": {
        "profile": [ "http://hl7.org/fhir/us/cqfmeasures/StructureDefinition/test-case-cqfm" ]
      },
      "contained": [ {
        "resourceType": "Parameters",
        "id": "c899155b-ceaf-4a74-b348-689aa79ac530-parameters",
        "parameter": [ {
          "name": "subject",
          "valueString": "d2f01efe-36cc-4caa-98a6-b883ec7e87aa"
        } ]
      } ],
      "extension": [ {
        "url": "http://hl7.org/fhir/StructureDefinition/cqf-inputParameters",
        "valueReference": {
          "reference": "#c899155b-ceaf-4a74-b348-689aa79ac530-parameters"
        }
      }, {
        "url": "http://hl7.org/fhir/us/cqfmeasures/StructureDefinition/cqfm-testCaseDescription",
        "valueMarkdown": "Relevant date/Time of delivery (based on assessment performed) is equal to the inpatient end\n\n"
      } ],
      "modifierExtension": [ {
        "url": "http://hl7.org/fhir/us/cqfmeasures/StructureDefinition/cqfm-isTestCase",
        "valueBoolean": true
      } ],
      "status": "complete",
      "type": "individual",
      "measure": "https://madie.cms.gov/Measure/CMS1028FHIRPCSevereOBComps",
      "period": {
        "start": "2026-01-01",
        "end": "2026-12-31"
      },
      "group": [ {
        "id": "Group_1",
        "population": [ {
          "id": "InitialPopulation_1",
          "code": {
            "coding": [ {
              "system": "http://terminology.hl7.org/CodeSystem/measure-population",
              "code": "initial-population",
              "display": "Initial Population"
            } ]
          },
          "count": 1
        }, {
          "id": "Denominator_1",
          "code": {
            "coding": [ {
              "system": "http://terminology.hl7.org/CodeSystem/measure-population",
              "code": "denominator",
              "display": "Denominator"
            } ]
          },
          "count": 1
        }, {
          "id": "Numerator_1",
          "code": {
            "coding": [ {
              "system": "http://terminology.hl7.org/CodeSystem/measure-population",
              "code": "numerator",
              "display": "Numerator"
            } ]
          },
          "count": 0
        }, {
          "id": "NumeratorExclusion_1",
          "code": {
            "coding": [ {
              "system": "http://terminology.hl7.org/CodeSystem/measure-population",
              "code": "numerator-exclusion",
              "display": "Numerator Exclusion"
            } ]
          },
          "count": 0
        } ],
        "measureScore": {
          "value": 0.0
        }
      }, {
        "id": "Group_2",
        "population": [ {
          "id": "InitialPopulation_2",
          "code": {
            "coding": [ {
              "system": "http://terminology.hl7.org/CodeSystem/measure-population",
              "code": "initial-population",
              "display": "Initial Population"
            } ]
          },
          "count": 1
        }, {
          "id": "Denominator_2",
          "code": {
            "coding": [ {
              "system": "http://terminology.hl7.org/CodeSystem/measure-population",
              "code": "denominator",
              "display": "Denominator"
            } ]
          },
          "count": 1
        }, {
          "id": "Numerator_2",
          "code": {
            "coding": [ {
              "system": "http://terminology.hl7.org/CodeSystem/measure-population",
              "code": "numerator",
              "display": "Numerator"
            } ]
          },
          "count": 0
        }, {
          "id": "NumeratorExclusion_2",
          "code": {
            "coding": [ {
              "system": "http://terminology.hl7.org/CodeSystem/measure-population",
              "code": "numerator-exclusion",
              "display": "Numerator Exclusion"
            } ]
          },
          "count": 0
        } ],
        "measureScore": {
          "value": 0.0
        }
      } ],
      "evaluatedResource": [ {
        "reference": "Patient/d2f01efe-36cc-4caa-98a6-b883ec7e87aa"
      }, {
        "reference": "Observation/3307498a-34c3-4aee-9c90-67cb87c5bd80"
      }, {
        "reference": "Observation/cfb86211-31b5-49f7-be5e-8a81bfcf352a"
      }, {
        "reference": "Encounter/74b4bf5a-e69e-4e5d-94c5-003ae5e950d6"
      }, {
        "reference": "Procedure/9763acf1-423a-47f9-819b-9ecfe96eb1fd"
      }, {
        "reference": "Coverage/7de5b804-0347-441a-9555-95c19b2fcd64"
      }, {
        "reference": "Organization/b1045665-e086-4690-9706-41687c862595"
      }, {
        "reference": "Practitioner/9d9ce32e-0b48-4d0c-a33e-113563b0e28e"
      } ]
    },
    "request": {
      "method": "PUT",
      "url": "MeasureReport/640b3c9d-20bd-4c2a-84e5-0f1891db8019"
    }
  } ]
}