{
  "resourceType": "Bundle",
  "id": "63487c2e0968f8012254017d",
  "type": "transaction",
  "entry": [ {
    "fullUrl": "https://madie.cms.gov/Patient/d66f6c59-6a3f-4e15-b39d-74c91cb12a02",
    "resource": {
      "resourceType": "Patient",
      "id": "d66f6c59-6a3f-4e15-b39d-74c91cb12a02",
      "meta": {
        "profile": [ "http://hl7.org/fhir/us/qicore/StructureDefinition/qicore-patient" ]
      },
      "text": {
        "status": "generated",
        "div": "<div xmlns=\"http://www.w3.org/1999/xhtml\"><div class=\"hapiHeaderText\">AssessTimeOfDelivRelvDateTimeAfterDelivEnc<b>DENOMFail</b></div><table class=\"hapiPropertyTable\"><tbody><tr><td>Identifier</td><td>b1148e48a87a22456174205c8541090787eeef6a1972002ada41ee86a84e67fb</td></tr><tr><td>Date of birth</td><td><span>14 February 1985</span></td></tr></tbody></table></div>"
      },
      "extension": [ {
        "url": "http://hl7.org/fhir/us/core/StructureDefinition/us-core-race",
        "extension": [ {
          "url": "ombCategory",
          "valueCoding": {
            "system": "urn:oid:2.16.840.1.113883.6.238",
            "code": "1002-5",
            "display": "American Indian or Alaska Native",
            "userSelected": true
          }
        }, {
          "url": "text",
          "valueString": "American Indian or Alaska Native"
        } ]
      }, {
        "url": "http://hl7.org/fhir/us/core/StructureDefinition/us-core-ethnicity",
        "extension": [ {
          "url": "ombCategory",
          "valueCoding": {
            "system": "urn:oid:2.16.840.1.113883.6.238",
            "code": "2135-2",
            "display": "Hispanic or Latino",
            "userSelected": true
          }
        }, {
          "url": "text",
          "valueString": "Hispanic or Latino"
        } ]
      } ],
      "identifier": [ {
        "type": {
          "coding": [ {
            "system": "http://terminology.hl7.org/CodeSystem/v2-0203",
            "code": "MR"
          } ]
        },
        "system": "https://bonnie-fhir.healthit.gov/",
        "value": "63487c2e0968f8012254017d"
      } ],
      "active": true,
      "name": [ {
        "use": "usual",
        "family": "DENOMFail",
        "given": [ "AssessTimeOfDelivRelvDateTimeAfterDelivEnc" ]
      } ],
      "gender": "female",
      "birthDate": "1998-02-14"
    },
    "request": {
      "method": "PUT",
      "url": "Patient/d66f6c59-6a3f-4e15-b39d-74c91cb12a02"
    }
  }, {
    "fullUrl": "https://madie.cms.gov/Observation/69308bdf-4331-4a25-988f-9fef58ab7341",
    "resource": {
      "resourceType": "Observation",
      "id": "69308bdf-4331-4a25-988f-9fef58ab7341",
      "meta": {
        "profile": [ "http://hl7.org/fhir/us/qicore/StructureDefinition/qicore-simple-observation" ]
      },
      "status": "final",
      "category": [ {
        "coding": [ {
          "system": "http://terminology.hl7.org/CodeSystem/observation-category",
          "code": "exam",
          "display": "exam",
          "userSelected": true
        } ]
      } ],
      "code": {
        "coding": [ {
          "system": "http://loinc.org",
          "code": "11996-6"
        } ]
      },
      "subject": {
        "reference": "Patient/d66f6c59-6a3f-4e15-b39d-74c91cb12a02"
      },
      "effectiveDateTime": "2026-06-08T08:00:00.000+00:00",
      "valueInteger": 1
    },
    "request": {
      "method": "PUT",
      "url": "Observation/69308bdf-4331-4a25-988f-9fef58ab7341"
    }
  }, {
    "fullUrl": "https://madie.cms.gov/Observation/b2c648b8-e6fc-4dae-a9a9-42c9c8bfe44b",
    "resource": {
      "resourceType": "Observation",
      "id": "b2c648b8-e6fc-4dae-a9a9-42c9c8bfe44b",
      "meta": {
        "profile": [ "http://hl7.org/fhir/us/qicore/StructureDefinition/qicore-simple-observation" ]
      },
      "status": "final",
      "category": [ {
        "coding": [ {
          "system": "http://terminology.hl7.org/CodeSystem/observation-category",
          "code": "exam",
          "display": "exam",
          "userSelected": true
        } ]
      } ],
      "code": {
        "coding": [ {
          "system": "http://loinc.org",
          "code": "11884-4"
        } ]
      },
      "subject": {
        "reference": "Patient/d66f6c59-6a3f-4e15-b39d-74c91cb12a02"
      },
      "effectiveDateTime": "2026-06-08T09:15:00.000+00:00",
      "valueQuantity": {
        "value": 38,
        "system": "http://unitsofmeasure.org",
        "code": "wk"
      }
    },
    "request": {
      "method": "PUT",
      "url": "Observation/b2c648b8-e6fc-4dae-a9a9-42c9c8bfe44b"
    }
  }, {
    "fullUrl": "https://madie.cms.gov/Observation/3657c3ae-60f5-44e4-a0bc-3e797a5d8d28",
    "resource": {
      "resourceType": "Observation",
      "id": "3657c3ae-60f5-44e4-a0bc-3e797a5d8d28",
      "meta": {
        "profile": [ "http://hl7.org/fhir/us/qicore/StructureDefinition/qicore-simple-observation" ]
      },
      "status": "final",
      "category": [ {
        "coding": [ {
          "system": "http://terminology.hl7.org/CodeSystem/observation-category",
          "code": "exam",
          "display": "exam",
          "userSelected": true
        } ]
      } ],
      "code": {
        "coding": [ {
          "system": "http://loinc.org",
          "code": "93857-1"
        } ]
      },
      "subject": {
        "reference": "Patient/d66f6c59-6a3f-4e15-b39d-74c91cb12a02"
      },
      "effectiveDateTime": "2026-06-10T08:16:00.000+00:00",
      "valueDateTime": "2026-06-10T08:16:00.000+00:00"
    },
    "request": {
      "method": "PUT",
      "url": "Observation/3657c3ae-60f5-44e4-a0bc-3e797a5d8d28"
    }
  }, {
    "fullUrl": "https://madie.cms.gov/Encounter/19a49a51-682d-4cb4-993f-699f86268203",
    "resource": {
      "resourceType": "Encounter",
      "id": "19a49a51-682d-4cb4-993f-699f86268203",
      "meta": {
        "profile": [ "http://hl7.org/fhir/us/qicore/StructureDefinition/qicore-encounter" ]
      },
      "status": "finished",
      "class": {
        "system": "http://terminology.hl7.org/CodeSystem/v3-ActCode",
        "code": "IMP",
        "display": "inpatient encounter"
      },
      "type": [ {
        "coding": [ {
          "system": "http://snomed.info/sct",
          "code": "183452005"
        } ]
      } ],
      "subject": {
        "reference": "Patient/d66f6c59-6a3f-4e15-b39d-74c91cb12a02"
      },
      "period": {
        "start": "2026-06-08T08:00:00.000+00:00",
        "end": "2026-06-10T08:15:00.000+00:00"
      },
      "length": {
        "value": 2,
        "unit": "days"
      },
      "reasonReference": [ {
        "reference": "Condition/3ea5eb86-f248-4b95-9f05-23c726a788c7"
      } ]
    },
    "request": {
      "method": "PUT",
      "url": "Encounter/19a49a51-682d-4cb4-993f-699f86268203"
    }
  }, {
    "fullUrl": "https://madie.cms.gov/Procedure/8747a2a4-f9e5-48bc-9633-1f1a89f7f292",
    "resource": {
      "resourceType": "Procedure",
      "id": "8747a2a4-f9e5-48bc-9633-1f1a89f7f292",
      "meta": {
        "profile": [ "http://hl7.org/fhir/us/qicore/StructureDefinition/qicore-procedure" ]
      },
      "extension": [ {
        "url": "http://hl7.org/fhir/us/qicore/StructureDefinition/qicore-recorded",
        "valueDateTime": "2014-04-05T13:35:00.000+00:00"
      } ],
      "status": "completed",
      "code": {
        "coding": [ {
          "system": "http://www.cms.gov/Medicare/Coding/ICD10",
          "code": "10D00Z0"
        }, {
          "system": "http://www.icd10data.com/icd10pcs",
          "code": "10D00Z0",
          "userSelected": true
        } ]
      },
      "subject": {
        "reference": "Patient/d66f6c59-6a3f-4e15-b39d-74c91cb12a02"
      },
      "performedPeriod": {
        "start": "2026-06-08T08:00:00.000+00:00",
        "end": "2026-06-08T09:15:00.000+00:00"
      }
    },
    "request": {
      "method": "PUT",
      "url": "Procedure/8747a2a4-f9e5-48bc-9633-1f1a89f7f292"
    }
  }, {
    "fullUrl": "https://madie.cms.gov/Condition/3ea5eb86-f248-4b95-9f05-23c726a788c7",
    "resource": {
      "resourceType": "Condition",
      "id": "3ea5eb86-f248-4b95-9f05-23c726a788c7",
      "meta": {
        "profile": [ "http://hl7.org/fhir/us/qicore/StructureDefinition/qicore-condition-encounter-diagnosis" ]
      },
      "category": [ {
        "coding": [ {
          "system": "http://terminology.hl7.org/CodeSystem/condition-category",
          "code": "encounter-diagnosis",
          "display": "Encounter Diagnosis"
        } ]
      } ],
      "code": {
        "coding": [ {
          "system": "http://snomed.info/sct",
          "version": "2022-09",
          "code": "169826009",
          "display": "Single live birth from singleton pregnancy (finding)",
          "userSelected": true
        } ]
      },
      "subject": {
        "reference": "Patient/d66f6c59-6a3f-4e15-b39d-74c91cb12a02"
      },
      "encounter": {
        "reference": "Encounter/19a49a51-682d-4cb4-993f-699f86268203"
      },
      "recordedDate": "2026-10-21T08:00:00.000+00:00"
    },
    "request": {
      "method": "PUT",
      "url": "Condition/3ea5eb86-f248-4b95-9f05-23c726a788c7"
    }
  }, {
    "fullUrl": "https://madie.cms.gov/Coverage/582a6811-59eb-4027-bc6f-fbfe010aaf6f",
    "resource": {
      "resourceType": "Coverage",
      "id": "582a6811-59eb-4027-bc6f-fbfe010aaf6f",
      "meta": {
        "profile": [ "http://hl7.org/fhir/us/qicore/StructureDefinition/qicore-coverage" ]
      },
      "status": "active",
      "subscriberId": "523435",
      "beneficiary": {
        "reference": "Patient/d66f6c59-6a3f-4e15-b39d-74c91cb12a02"
      },
      "relationship": {
        "coding": [ {
          "system": "http://terminology.hl7.org/CodeSystem/subscriber-relationship",
          "code": "self"
        } ]
      },
      "payor": [ {
        "reference": "Organization/77cdf9d2-eded-408b-9b8e-f70c62026c79"
      } ]
    },
    "request": {
      "method": "PUT",
      "url": "Coverage/582a6811-59eb-4027-bc6f-fbfe010aaf6f"
    }
  }, {
    "fullUrl": "https://madie.cms.gov/Organization/77cdf9d2-eded-408b-9b8e-f70c62026c79",
    "resource": {
      "resourceType": "Organization",
      "id": "77cdf9d2-eded-408b-9b8e-f70c62026c79",
      "meta": {
        "profile": [ "http://hl7.org/fhir/us/qicore/StructureDefinition/qicore-organization" ]
      },
      "identifier": [ {
        "use": "temp",
        "system": "urn:oid:2.16.840.1.113883.4.4",
        "value": "21-3259825"
      } ],
      "active": true,
      "type": [ {
        "coding": [ {
          "system": "http://terminology.hl7.org/CodeSystem/organization-type",
          "code": "pay",
          "display": "Payer"
        } ]
      } ],
      "name": "Blue Cross Blue Shield of Texas",
      "telecom": [ {
        "system": "phone",
        "value": "(+1) 972-766-6900"
      } ],
      "address": [ {
        "use": "billing",
        "type": "postal",
        "line": [ "P.O. Box 660044" ],
        "city": "Dallas",
        "state": "TX",
        "postalCode": "75266-0044",
        "country": "USA"
      } ]
    },
    "request": {
      "method": "PUT",
      "url": "Organization/77cdf9d2-eded-408b-9b8e-f70c62026c79"
    }
  }, {
    "fullUrl": "https://madie.cms.gov/Practitioner/2c1b114b-dd29-44e5-ba7b-d509385f6391",
    "resource": {
      "resourceType": "Practitioner",
      "id": "2c1b114b-dd29-44e5-ba7b-d509385f6391",
      "meta": {
        "profile": [ "http://hl7.org/fhir/us/qicore/StructureDefinition/qicore-practitioner" ]
      },
      "identifier": [ {
        "system": "http://hl7.org/fhir/sid/us-npi",
        "value": "1234567890"
      } ],
      "name": [ {
        "family": "Evil",
        "prefix": [ "Dr" ]
      } ]
    },
    "request": {
      "method": "PUT",
      "url": "Practitioner/2c1b114b-dd29-44e5-ba7b-d509385f6391"
    }
  }, {
    "fullUrl": "https://madie.cms.gov/MeasureReport/eb27a67f-707e-4caf-a3e9-240e3b6a00b1",
    "resource": {
      "resourceType": "MeasureReport",
      "id": "eb27a67f-707e-4caf-a3e9-240e3b6a00b1",
      "meta": {
        "profile": [ "http://hl7.org/fhir/us/cqfmeasures/StructureDefinition/test-case-cqfm" ]
      },
      "contained": [ {
        "resourceType": "Parameters",
        "id": "6963b7fa-5909-4131-a263-047db8eb714e-parameters",
        "parameter": [ {
          "name": "subject",
          "valueString": "d66f6c59-6a3f-4e15-b39d-74c91cb12a02"
        } ]
      } ],
      "extension": [ {
        "url": "http://hl7.org/fhir/StructureDefinition/cqf-inputParameters",
        "valueReference": {
          "reference": "#6963b7fa-5909-4131-a263-047db8eb714e-parameters"
        }
      }, {
        "url": "http://hl7.org/fhir/us/cqfmeasures/StructureDefinition/cqfm-testCaseDescription",
        "valueMarkdown": "Passes: IP, Pt is 27 years of age,  encounter dx of delivery of singleton, gravida, EGA @ 38 weeks, AssessTimeOfDeliv Relevant DateTime After DelivEnc.  Tests \"TimeOfDelivery.relevantDatetime during DeliveryEncounters.relevantPeriod\".\n"
      } ],
      "modifierExtension": [ {
        "url": "http://hl7.org/fhir/us/cqfmeasures/StructureDefinition/cqfm-isTestCase",
        "valueBoolean": true
      } ],
      "status": "complete",
      "type": "individual",
      "measure": "https://madie.cms.gov/Measure/CMS0334FHIRPCCesareanBirth",
      "period": {
        "start": "2026-01-01",
        "end": "2026-12-31"
      },
      "group": [ {
        "id": "Group_1",
        "population": [ {
          "id": "InitialPopulation_1",
          "code": {
            "coding": [ {
              "system": "http://terminology.hl7.org/CodeSystem/measure-population",
              "code": "initial-population",
              "display": "Initial Population"
            } ]
          },
          "count": 1
        }, {
          "id": "Denominator_1",
          "code": {
            "coding": [ {
              "system": "http://terminology.hl7.org/CodeSystem/measure-population",
              "code": "denominator",
              "display": "Denominator"
            } ]
          },
          "count": 0
        }, {
          "id": "DenominatorExclusion_1",
          "code": {
            "coding": [ {
              "system": "http://terminology.hl7.org/CodeSystem/measure-population",
              "code": "denominator-exclusion",
              "display": "Denominator Exclusion"
            } ]
          },
          "count": 0
        }, {
          "id": "Numerator_1",
          "code": {
            "coding": [ {
              "system": "http://terminology.hl7.org/CodeSystem/measure-population",
              "code": "numerator",
              "display": "Numerator"
            } ]
          },
          "count": 0
        } ],
        "measureScore": {
          "value": 0.0
        }
      } ],
      "evaluatedResource": [ {
        "reference": "Patient/d66f6c59-6a3f-4e15-b39d-74c91cb12a02"
      }, {
        "reference": "Observation/69308bdf-4331-4a25-988f-9fef58ab7341"
      }, {
        "reference": "Observation/b2c648b8-e6fc-4dae-a9a9-42c9c8bfe44b"
      }, {
        "reference": "Observation/3657c3ae-60f5-44e4-a0bc-3e797a5d8d28"
      }, {
        "reference": "Encounter/19a49a51-682d-4cb4-993f-699f86268203"
      }, {
        "reference": "Procedure/8747a2a4-f9e5-48bc-9633-1f1a89f7f292"
      }, {
        "reference": "Condition/3ea5eb86-f248-4b95-9f05-23c726a788c7"
      }, {
        "reference": "Coverage/582a6811-59eb-4027-bc6f-fbfe010aaf6f"
      }, {
        "reference": "Organization/77cdf9d2-eded-408b-9b8e-f70c62026c79"
      }, {
        "reference": "Practitioner/2c1b114b-dd29-44e5-ba7b-d509385f6391"
      } ]
    },
    "request": {
      "method": "PUT",
      "url": "MeasureReport/eb27a67f-707e-4caf-a3e9-240e3b6a00b1"
    }
  } ]
}