{
  "resourceType": "Bundle",
  "id": "612e6b4b02c62a011f2ed336",
  "type": "transaction",
  "entry": [ {
    "fullUrl": "https://madie.cms.gov/Patient/4c649ec3-846e-46e2-bee4-6ace6da48f68",
    "resource": {
      "resourceType": "Patient",
      "id": "4c649ec3-846e-46e2-bee4-6ace6da48f68",
      "meta": {
        "profile": [ "http://hl7.org/fhir/us/qicore/StructureDefinition/qicore-patient" ]
      },
      "text": {
        "status": "generated",
        "div": "<div xmlns=\"http://www.w3.org/1999/xhtml\"><div class=\"hapiHeaderText\">INR3_WOdecimal <b>NUMERFAIL </b></div><table class=\"hapiPropertyTable\"><tbody><tr><td>Identifier</td><td>362034975be33d3d89eb2fe4e76abe5d</td></tr><tr><td>Date of birth</td><td><span>02 January 1974</span></td></tr></tbody></table></div>"
      },
      "extension": [ {
        "url": "http://hl7.org/fhir/us/core/StructureDefinition/us-core-race",
        "extension": [ {
          "url": "ombCategory",
          "valueCoding": {
            "system": "urn:oid:2.16.840.1.113883.6.238",
            "code": "1002-5",
            "display": "American Indian or Alaska Native",
            "userSelected": true
          }
        }, {
          "url": "text",
          "valueString": "American Indian or Alaska Native"
        } ]
      }, {
        "url": "http://hl7.org/fhir/us/core/StructureDefinition/us-core-ethnicity",
        "extension": [ {
          "url": "ombCategory",
          "valueCoding": {
            "system": "urn:oid:2.16.840.1.113883.6.238",
            "code": "2135-2",
            "display": "Hispanic or Latino",
            "userSelected": true
          }
        }, {
          "url": "text",
          "valueString": "Hispanic or Latino"
        } ]
      } ],
      "identifier": [ {
        "type": {
          "coding": [ {
            "system": "http://terminology.hl7.org/CodeSystem/v2-0203",
            "code": "MR"
          } ]
        },
        "system": "https://bonnie-fhir.healthit.gov/",
        "value": "612e6b4b02c62a011f2ed336"
      } ],
      "active": true,
      "name": [ {
        "use": "usual",
        "family": "NUMERFail",
        "given": [ "INR3WOdecimal" ]
      } ],
      "gender": "male",
      "birthDate": "1975-01-02"
    },
    "request": {
      "method": "PUT",
      "url": "Patient/4c649ec3-846e-46e2-bee4-6ace6da48f68"
    }
  }, {
    "fullUrl": "https://madie.cms.gov/Encounter/412b4643-fc92-4449-9779-04ed722dc362",
    "resource": {
      "resourceType": "Encounter",
      "id": "412b4643-fc92-4449-9779-04ed722dc362",
      "meta": {
        "profile": [ "http://hl7.org/fhir/us/qicore/StructureDefinition/qicore-encounter" ]
      },
      "status": "finished",
      "class": {
        "system": "http://terminology.hl7.org/CodeSystem/v3-ActCode",
        "code": "IMP",
        "display": "inpatient encounter"
      },
      "type": [ {
        "coding": [ {
          "system": "http://snomed.info/sct",
          "code": "8715000"
        } ]
      } ],
      "subject": {
        "reference": "Patient/4c649ec3-846e-46e2-bee4-6ace6da48f68"
      },
      "period": {
        "start": "2026-11-01T08:00:00.000+00:00",
        "end": "2026-11-26T08:15:00.000+00:00"
      },
      "length": {
        "value": 25,
        "unit": "days"
      }
    },
    "request": {
      "method": "PUT",
      "url": "Encounter/412b4643-fc92-4449-9779-04ed722dc362"
    }
  }, {
    "fullUrl": "https://madie.cms.gov/Coverage/bbb733b5-eb68-4468-857b-e7c0816c40d9",
    "resource": {
      "resourceType": "Coverage",
      "id": "bbb733b5-eb68-4468-857b-e7c0816c40d9",
      "status": "active",
      "beneficiary": {
        "reference": "Patient/4c649ec3-846e-46e2-bee4-6ace6da48f68"
      },
      "period": {
        "start": "1975-01-02T08:00:00.000+00:00"
      },
      "payor": [ {
        "reference": "Organization/3c9e8ff1-3a21-448f-a050-4b67f7426a65"
      } ]
    },
    "request": {
      "method": "PUT",
      "url": "Coverage/bbb733b5-eb68-4468-857b-e7c0816c40d9"
    }
  }, {
    "fullUrl": "https://madie.cms.gov/Observation/885c8c24-4aca-48c4-a7c2-6f3bf89e03b5",
    "resource": {
      "resourceType": "Observation",
      "id": "885c8c24-4aca-48c4-a7c2-6f3bf89e03b5",
      "meta": {
        "profile": [ "http://hl7.org/fhir/us/qicore/StructureDefinition/qicore-observation-lab" ]
      },
      "status": "final",
      "category": [ {
        "coding": [ {
          "system": "http://terminology.hl7.org/CodeSystem/observation-category",
          "code": "laboratory",
          "display": "Laboratory"
        } ]
      } ],
      "code": {
        "coding": [ {
          "system": "http://loinc.org",
          "code": "34714-6"
        } ]
      },
      "subject": {
        "reference": "Patient/4c649ec3-846e-46e2-bee4-6ace6da48f68"
      },
      "issued": "2026-11-01T09:00:00.000+00:00",
      "valueQuantity": {
        "value": 3,
        "unit": "{INR}"
      }
    },
    "request": {
      "method": "PUT",
      "url": "Observation/885c8c24-4aca-48c4-a7c2-6f3bf89e03b5"
    }
  }, {
    "fullUrl": "https://madie.cms.gov/Organization/3c9e8ff1-3a21-448f-a050-4b67f7426a65",
    "resource": {
      "resourceType": "Organization",
      "id": "3c9e8ff1-3a21-448f-a050-4b67f7426a65",
      "meta": {
        "profile": [ "http://hl7.org/fhir/us/qicore/StructureDefinition/qicore-organization" ]
      },
      "identifier": [ {
        "use": "temp",
        "system": "urn:oid:2.16.840.1.113883.4.4",
        "value": "21-3259825"
      } ],
      "active": true,
      "type": [ {
        "coding": [ {
          "system": "http://terminology.hl7.org/CodeSystem/organization-type",
          "code": "pay",
          "display": "Payer"
        } ]
      } ],
      "name": "Blue Cross Blue Shield of Texas",
      "telecom": [ {
        "system": "phone",
        "value": "(+1) 972-766-6900"
      } ],
      "address": [ {
        "use": "billing",
        "type": "postal",
        "line": [ "P.O. Box 660044" ],
        "city": "Dallas",
        "state": "TX",
        "postalCode": "75266-0044",
        "country": "USA"
      } ]
    },
    "request": {
      "method": "PUT",
      "url": "Organization/3c9e8ff1-3a21-448f-a050-4b67f7426a65"
    }
  }, {
    "fullUrl": "https://madie.cms.gov/Practitioner/64ec69ba-b4f4-4954-bf5e-a4e44c08b9d5",
    "resource": {
      "resourceType": "Practitioner",
      "id": "64ec69ba-b4f4-4954-bf5e-a4e44c08b9d5",
      "identifier": [ {
        "system": "http://hl7.org/fhir/sid/us-npi",
        "value": "123456"
      } ],
      "name": [ {
        "family": "Evil",
        "prefix": [ "Dr" ]
      } ]
    },
    "request": {
      "method": "PUT",
      "url": "Practitioner/64ec69ba-b4f4-4954-bf5e-a4e44c08b9d5"
    }
  }, {
    "fullUrl": "https://madie.cms.gov/MeasureReport/9cb243ba-f685-4c7e-ab08-53b9b2ed944c",
    "resource": {
      "resourceType": "MeasureReport",
      "id": "9cb243ba-f685-4c7e-ab08-53b9b2ed944c",
      "meta": {
        "profile": [ "http://hl7.org/fhir/us/cqfmeasures/StructureDefinition/test-case-cqfm" ]
      },
      "contained": [ {
        "resourceType": "Parameters",
        "id": "91102815-00da-43bc-8694-b3a5cfeab863-parameters",
        "parameter": [ {
          "name": "subject",
          "valueString": "4c649ec3-846e-46e2-bee4-6ace6da48f68"
        } ]
      } ],
      "extension": [ {
        "url": "http://hl7.org/fhir/StructureDefinition/cqf-inputParameters",
        "valueReference": {
          "reference": "#91102815-00da-43bc-8694-b3a5cfeab863-parameters"
        }
      }, {
        "url": "http://hl7.org/fhir/us/cqfmeasures/StructureDefinition/cqfm-testCaseDescription",
        "valueMarkdown": ">18, LOS<120 day.Lab INR=3\n"
      } ],
      "modifierExtension": [ {
        "url": "http://hl7.org/fhir/us/cqfmeasures/StructureDefinition/cqfm-isTestCase",
        "valueBoolean": true
      } ],
      "status": "complete",
      "type": "individual",
      "measure": "https://madie.cms.gov/Measure/CMS108FHIRVTEProphylaxis",
      "period": {
        "start": "2026-01-01",
        "end": "2026-12-31"
      },
      "group": [ {
        "id": "Group_1",
        "population": [ {
          "id": "InitialPopulation_1",
          "code": {
            "coding": [ {
              "system": "http://terminology.hl7.org/CodeSystem/measure-population",
              "code": "initial-population",
              "display": "Initial Population"
            } ]
          },
          "count": 1
        }, {
          "id": "Denominator_1",
          "code": {
            "coding": [ {
              "system": "http://terminology.hl7.org/CodeSystem/measure-population",
              "code": "denominator",
              "display": "Denominator"
            } ]
          },
          "count": 1
        }, {
          "id": "DenominatorExclusion_1",
          "code": {
            "coding": [ {
              "system": "http://terminology.hl7.org/CodeSystem/measure-population",
              "code": "denominator-exclusion",
              "display": "Denominator Exclusion"
            } ]
          },
          "count": 0
        }, {
          "id": "Numerator_1",
          "code": {
            "coding": [ {
              "system": "http://terminology.hl7.org/CodeSystem/measure-population",
              "code": "numerator",
              "display": "Numerator"
            } ]
          },
          "count": 0
        } ],
        "measureScore": {
          "value": 0.0
        }
      } ],
      "evaluatedResource": [ {
        "reference": "Patient/4c649ec3-846e-46e2-bee4-6ace6da48f68"
      }, {
        "reference": "Encounter/412b4643-fc92-4449-9779-04ed722dc362"
      }, {
        "reference": "Coverage/bbb733b5-eb68-4468-857b-e7c0816c40d9"
      }, {
        "reference": "Observation/885c8c24-4aca-48c4-a7c2-6f3bf89e03b5"
      }, {
        "reference": "Organization/3c9e8ff1-3a21-448f-a050-4b67f7426a65"
      }, {
        "reference": "Practitioner/64ec69ba-b4f4-4954-bf5e-a4e44c08b9d5"
      } ]
    },
    "request": {
      "method": "PUT",
      "url": "MeasureReport/9cb243ba-f685-4c7e-ab08-53b9b2ed944c"
    }
  } ]
}