{"resourceType":"Bundle","id":"tests-356ab8ed-7c44-46ec-9fa9-9ec462054f2b-bundle","type":"transaction","entry":[{"fullUrl":"Encounter/dfc4522b-e1a8-4383-9615-62f5ed9246cc","resource":{"resourceType":"Encounter","id":"dfc4522b-e1a8-4383-9615-62f5ed9246cc","meta":{"profile":["http://hl7.org/fhir/us/qicore/StructureDefinition/qicore-encounter"]},"status":"finished","class":{"system":"http://terminology.hl7.org/CodeSystem/v3-ActCode","code":"AMB","display":"ambulatory"},"type":[{"coding":[{"system":"http://snomed.info/sct","code":"185463005","display":"Visit out of hours (procedure)"}]}],"subject":{"reference":"Patient/356ab8ed-7c44-46ec-9fa9-9ec462054f2b"},"period":{"start":"2026-01-01T00:00:00.000+00:00","end":"2026-01-01T00:00:00.000+00:00"}},"request":{"method":"PUT","url":"Encounter/dfc4522b-e1a8-4383-9615-62f5ed9246cc"}},{"fullUrl":"Patient/356ab8ed-7c44-46ec-9fa9-9ec462054f2b","resource":{"resourceType":"Patient","id":"356ab8ed-7c44-46ec-9fa9-9ec462054f2b","meta":{"profile":["http://hl7.org/fhir/us/qicore/StructureDefinition/qicore-patient"]},"extension":[{"url":"http://hl7.org/fhir/us/core/StructureDefinition/us-core-race","extension":[{"url":"ombCategory","valueCoding":{"system":"urn:oid:2.16.840.1.113883.6.238","code":"2028-9","display":"Asian"}},{"url":"text","valueString":"Asian"}]},{"url":"http://hl7.org/fhir/us/core/StructureDefinition/us-core-sex","valueCode":"248152002"},{"url":"http://hl7.org/fhir/us/core/StructureDefinition/us-core-ethnicity","extension":[{"url":"ombCategory","valueCoding":{"system":"urn:oid:2.16.840.1.113883.6.238","code":"2135-2","display":"Hispanic or Latino"}},{"url":"text","valueString":"Hispanic or Latino"}]}],"identifier":[{"system":"http://hospital.smarthealthit.org","value":"999999995"}],"name":[{"family":"Bertha","given":["Betty"]}],"gender":"female","birthDate":"1974-12-31"},"request":{"method":"PUT","url":"Patient/356ab8ed-7c44-46ec-9fa9-9ec462054f2b"}},{"fullUrl":"Procedure/1491e0ad-5a52-4b33-ad65-4d553eb092e7.1","resource":{"resourceType":"Procedure","id":"1491e0ad-5a52-4b33-ad65-4d553eb092e7.1","meta":{"profile":["http://hl7.org/fhir/us/qicore/StructureDefinition/qicore-procedure"]},"extension":[{"url":"http://hl7.org/fhir/us/qicore/StructureDefinition/qicore-recorded","valueDateTime":"2025-01-01T00:00:00.000+00:00"}],"status":"completed","code":{"coding":[{"system":"http://www.cms.gov/Medicare/Coding/ICD10","code":"0HTU0ZZ","display":"Resection of Left Breast, Open Approach"}]},"subject":{"reference":"Patient/356ab8ed-7c44-46ec-9fa9-9ec462054f2b"},"performedPeriod":{"start":"2026-01-01T00:00:00.000+00:00","end":"2026-01-01T00:00:00.000+00:00"}},"request":{"method":"PUT","url":"Procedure/1491e0ad-5a52-4b33-ad65-4d553eb092e7.1"}},{"fullUrl":"Procedure/1491e0ad-5a52-4b33-ad65-4d553eb092e7","resource":{"resourceType":"Procedure","id":"1491e0ad-5a52-4b33-ad65-4d553eb092e7","meta":{"profile":["http://hl7.org/fhir/us/qicore/StructureDefinition/qicore-procedure"]},"extension":[{"url":"http://hl7.org/fhir/us/qicore/StructureDefinition/qicore-recorded","valueDateTime":"2025-01-01T00:00:00.000+00:00"}],"status":"completed","code":{"coding":[{"system":"http://www.cms.gov/Medicare/Coding/ICD10","code":"0HTT0ZZ","display":"Resection of Right Breast, Open Approach"}]},"subject":{"reference":"Patient/356ab8ed-7c44-46ec-9fa9-9ec462054f2b"},"performedPeriod":{"start":"2026-01-01T00:00:00.000+00:00","end":"2026-01-01T00:00:00.000+00:00"}},"request":{"method":"PUT","url":"Procedure/1491e0ad-5a52-4b33-ad65-4d553eb092e7"}},{"fullUrl":"MeasureReport/f1016afd-625a-4c45-9649-f8fbb7fcb07b","resource":{"resourceType":"MeasureReport","id":"f1016afd-625a-4c45-9649-f8fbb7fcb07b","meta":{"profile":["http://hl7.org/fhir/us/cqfmeasures/StructureDefinition/test-case-cqfm"]},"contained":[{"resourceType":"Parameters","id":"feb8a4bc-7687-47fc-9113-cffd51685a85-parameters","parameter":[{"name":"subject","valueString":"356ab8ed-7c44-46ec-9fa9-9ec462054f2b"}]}],"extension":[{"url":"http://hl7.org/fhir/StructureDefinition/cqf-inputParameters","valueReference":{"reference":"#feb8a4bc-7687-47fc-9113-cffd51685a85-parameters"}},{"url":"http://hl7.org/fhir/us/cqfmeasures/StructureDefinition/cqfm-testCaseDescription","valueMarkdown":"Patient 52yo w/ an Office Visit  Encounter 1/1 of the MP & both a Unilateral Mastectomy on Right Breast and Unilateral Mastectomy on Left Breast Procedure that both end on 1/1 of the MP."}],"modifierExtension":[{"url":"http://hl7.org/fhir/us/cqfmeasures/StructureDefinition/cqfm-isTestCase","valueBoolean":true}],"status":"complete","type":"individual","measure":"https://madie.cms.gov/Measure/CMS125FHIRBreastCancerScreening","period":{"start":"2026-01-01","end":"2026-12-31"},"group":[{"id":"Group_1","population":[{"id":"InitialPopulation_1","code":{"coding":[{"system":"http://terminology.hl7.org/CodeSystem/measure-population","code":"initial-population","display":"Initial Population"}]},"count":1},{"id":"Denominator_1","code":{"coding":[{"system":"http://terminology.hl7.org/CodeSystem/measure-population","code":"denominator","display":"Denominator"}]},"count":1},{"id":"DenominatorExclusion_1","code":{"coding":[{"system":"http://terminology.hl7.org/CodeSystem/measure-population","code":"denominator-exclusion","display":"Denominator Exclusion"}]},"count":1},{"id":"Numerator_1","code":{"coding":[{"system":"http://terminology.hl7.org/CodeSystem/measure-population","code":"numerator","display":"Numerator"}]},"count":0}],"measureScore":{"value":1.0},"stratifier":[{"id":"Stratification_1_1","stratum":[{"value":{"text":"true"},"population":[{"id":"InitialPopulation_1","code":{"coding":[{"system":"http://terminology.hl7.org/CodeSystem/measure-population","code":"initial-population","display":"Initial Population"}]},"count":0},{"id":"Denominator_1","code":{"coding":[{"system":"http://terminology.hl7.org/CodeSystem/measure-population","code":"denominator","display":"Denominator"}]},"count":0},{"id":"DenominatorExclusion_1","code":{"coding":[{"system":"http://terminology.hl7.org/CodeSystem/measure-population","code":"denominator-exclusion","display":"Denominator Exclusion"}]},"count":0},{"id":"Numerator_1","code":{"coding":[{"system":"http://terminology.hl7.org/CodeSystem/measure-population","code":"numerator","display":"Numerator"}]},"count":0}]},{"value":{"text":"false"},"population":[{"id":"InitialPopulation_1","code":{"coding":[{"system":"http://terminology.hl7.org/CodeSystem/measure-population","code":"initial-population","display":"Initial Population"}]},"count":1},{"id":"Denominator_1","code":{"coding":[{"system":"http://terminology.hl7.org/CodeSystem/measure-population","code":"denominator","display":"Denominator"}]},"count":1},{"id":"DenominatorExclusion_1","code":{"coding":[{"system":"http://terminology.hl7.org/CodeSystem/measure-population","code":"denominator-exclusion","display":"Denominator Exclusion"}]},"count":1},{"id":"Numerator_1","code":{"coding":[{"system":"http://terminology.hl7.org/CodeSystem/measure-population","code":"numerator","display":"Numerator"}]},"count":1}]}]},{"id":"Stratification_1_2","stratum":[{"value":{"text":"true"},"population":[{"id":"InitialPopulation_1","code":{"coding":[{"system":"http://terminology.hl7.org/CodeSystem/measure-population","code":"initial-population","display":"Initial Population"}]},"count":1},{"id":"Denominator_1","code":{"coding":[{"system":"http://terminology.hl7.org/CodeSystem/measure-population","code":"denominator","display":"Denominator"}]},"count":1},{"id":"DenominatorExclusion_1","code":{"coding":[{"system":"http://terminology.hl7.org/CodeSystem/measure-population","code":"denominator-exclusion","display":"Denominator Exclusion"}]},"count":1},{"id":"Numerator_1","code":{"coding":[{"system":"http://terminology.hl7.org/CodeSystem/measure-population","code":"numerator","display":"Numerator"}]},"count":0}]},{"value":{"text":"false"},"population":[{"id":"InitialPopulation_1","code":{"coding":[{"system":"http://terminology.hl7.org/CodeSystem/measure-population","code":"initial-population","display":"Initial Population"}]},"count":0},{"id":"Denominator_1","code":{"coding":[{"system":"http://terminology.hl7.org/CodeSystem/measure-population","code":"denominator","display":"Denominator"}]},"count":0},{"id":"DenominatorExclusion_1","code":{"coding":[{"system":"http://terminology.hl7.org/CodeSystem/measure-population","code":"denominator-exclusion","display":"Denominator Exclusion"}]},"count":0},{"id":"Numerator_1","code":{"coding":[{"system":"http://terminology.hl7.org/CodeSystem/measure-population","code":"numerator","display":"Numerator"}]},"count":1}]}]}]}],"evaluatedResource":[{"reference":"Patient/356ab8ed-7c44-46ec-9fa9-9ec462054f2b"},{"reference":"Encounter/dfc4522b-e1a8-4383-9615-62f5ed9246cc"},{"reference":"Procedure/1491e0ad-5a52-4b33-ad65-4d553eb092e7"},{"reference":"Procedure/1491e0ad-5a52-4b33-ad65-4d553eb092e7.1"}]},"request":{"method":"PUT","url":"MeasureReport/f1016afd-625a-4c45-9649-f8fbb7fcb07b"}},{"fullUrl":"Bundle/DENEXPass-UniMastRandLProcJan1OfMP","resource":{"resourceType":"Bundle","id":"DENEXPass-UniMastRandLProcJan1OfMP","type":"transaction","entry":[{"fullUrl":"https://madie.cms.gov/Patient/356ab8ed-7c44-46ec-9fa9-9ec462054f2b","resource":{"resourceType":"Patient","id":"356ab8ed-7c44-46ec-9fa9-9ec462054f2b","meta":{"profile":["http://hl7.org/fhir/us/qicore/StructureDefinition/qicore-patient"]},"extension":[{"url":"http://hl7.org/fhir/us/core/StructureDefinition/us-core-race","extension":[{"url":"ombCategory","valueCoding":{"system":"urn:oid:2.16.840.1.113883.6.238","code":"2028-9","display":"Asian"}},{"url":"text","valueString":"Asian"}]},{"url":"http://hl7.org/fhir/us/core/StructureDefinition/us-core-sex","valueCode":"248152002"},{"url":"http://hl7.org/fhir/us/core/StructureDefinition/us-core-ethnicity","extension":[{"url":"ombCategory","valueCoding":{"system":"urn:oid:2.16.840.1.113883.6.238","code":"2135-2","display":"Hispanic or Latino"}},{"url":"text","valueString":"Hispanic or Latino"}]}],"identifier":[{"system":"http://hospital.smarthealthit.org","value":"999999995"}],"name":[{"family":"Bertha","given":["Betty"]}],"gender":"female","birthDate":"1974-12-31"},"request":{"method":"PUT","url":"Patient/356ab8ed-7c44-46ec-9fa9-9ec462054f2b"}},{"fullUrl":"https://madie.cms.gov/Encounter/dfc4522b-e1a8-4383-9615-62f5ed9246cc","resource":{"resourceType":"Encounter","id":"dfc4522b-e1a8-4383-9615-62f5ed9246cc","meta":{"profile":["http://hl7.org/fhir/us/qicore/StructureDefinition/qicore-encounter"]},"status":"finished","class":{"system":"http://terminology.hl7.org/CodeSystem/v3-ActCode","code":"AMB","display":"ambulatory"},"type":[{"coding":[{"system":"http://snomed.info/sct","code":"185463005","display":"Visit out of hours (procedure)"}]}],"subject":{"reference":"Patient/356ab8ed-7c44-46ec-9fa9-9ec462054f2b"},"period":{"start":"2026-01-01T00:00:00.000+00:00","end":"2026-01-01T00:00:00.000+00:00"}},"request":{"method":"PUT","url":"Encounter/dfc4522b-e1a8-4383-9615-62f5ed9246cc"}},{"fullUrl":"https://madie.cms.gov/Procedure/1491e0ad-5a52-4b33-ad65-4d553eb092e7","resource":{"resourceType":"Procedure","id":"1491e0ad-5a52-4b33-ad65-4d553eb092e7","meta":{"profile":["http://hl7.org/fhir/us/qicore/StructureDefinition/qicore-procedure"]},"extension":[{"url":"http://hl7.org/fhir/us/qicore/StructureDefinition/qicore-recorded","valueDateTime":"2025-01-01T00:00:00.000+00:00"}],"status":"completed","code":{"coding":[{"system":"http://www.cms.gov/Medicare/Coding/ICD10","code":"0HTT0ZZ","display":"Resection of Right Breast, Open Approach"}]},"subject":{"reference":"Patient/356ab8ed-7c44-46ec-9fa9-9ec462054f2b"},"performedPeriod":{"start":"2026-01-01T00:00:00.000+00:00","end":"2026-01-01T00:00:00.000+00:00"}},"request":{"method":"PUT","url":"Procedure/1491e0ad-5a52-4b33-ad65-4d553eb092e7"}},{"fullUrl":"https://madie.cms.gov/Procedure/1491e0ad-5a52-4b33-ad65-4d553eb092e7.1","resource":{"resourceType":"Procedure","id":"1491e0ad-5a52-4b33-ad65-4d553eb092e7.1","meta":{"profile":["http://hl7.org/fhir/us/qicore/StructureDefinition/qicore-procedure"]},"extension":[{"url":"http://hl7.org/fhir/us/qicore/StructureDefinition/qicore-recorded","valueDateTime":"2025-01-01T00:00:00.000+00:00"}],"status":"completed","code":{"coding":[{"system":"http://www.cms.gov/Medicare/Coding/ICD10","code":"0HTU0ZZ","display":"Resection of Left Breast, Open Approach"}]},"subject":{"reference":"Patient/356ab8ed-7c44-46ec-9fa9-9ec462054f2b"},"performedPeriod":{"start":"2026-01-01T00:00:00.000+00:00","end":"2026-01-01T00:00:00.000+00:00"}},"request":{"method":"PUT","url":"Procedure/1491e0ad-5a52-4b33-ad65-4d553eb092e7.1"}},{"fullUrl":"https://madie.cms.gov/MeasureReport/f1016afd-625a-4c45-9649-f8fbb7fcb07b","resource":{"resourceType":"MeasureReport","id":"f1016afd-625a-4c45-9649-f8fbb7fcb07b","meta":{"profile":["http://hl7.org/fhir/us/cqfmeasures/StructureDefinition/test-case-cqfm"]},"contained":[{"resourceType":"Parameters","id":"feb8a4bc-7687-47fc-9113-cffd51685a85-parameters","parameter":[{"name":"subject","valueString":"356ab8ed-7c44-46ec-9fa9-9ec462054f2b"}]}],"extension":[{"url":"http://hl7.org/fhir/StructureDefinition/cqf-inputParameters","valueReference":{"reference":"#feb8a4bc-7687-47fc-9113-cffd51685a85-parameters"}},{"url":"http://hl7.org/fhir/us/cqfmeasures/StructureDefinition/cqfm-testCaseDescription","valueMarkdown":"Patient 52yo w/ an Office Visit  Encounter 1/1 of the MP & both a Unilateral Mastectomy on Right Breast and Unilateral Mastectomy on Left Breast Procedure that both end on 1/1 of the MP."}],"modifierExtension":[{"url":"http://hl7.org/fhir/us/cqfmeasures/StructureDefinition/cqfm-isTestCase","valueBoolean":true}],"status":"complete","type":"individual","measure":"https://madie.cms.gov/Measure/CMS125FHIRBreastCancerScreening","period":{"start":"2026-01-01","end":"2026-12-31"},"group":[{"id":"Group_1","population":[{"id":"InitialPopulation_1","code":{"coding":[{"system":"http://terminology.hl7.org/CodeSystem/measure-population","code":"initial-population","display":"Initial Population"}]},"count":1},{"id":"Denominator_1","code":{"coding":[{"system":"http://terminology.hl7.org/CodeSystem/measure-population","code":"denominator","display":"Denominator"}]},"count":1},{"id":"DenominatorExclusion_1","code":{"coding":[{"system":"http://terminology.hl7.org/CodeSystem/measure-population","code":"denominator-exclusion","display":"Denominator Exclusion"}]},"count":1},{"id":"Numerator_1","code":{"coding":[{"system":"http://terminology.hl7.org/CodeSystem/measure-population","code":"numerator","display":"Numerator"}]},"count":0}],"measureScore":{"value":1.0},"stratifier":[{"id":"Stratification_1_1","stratum":[{"value":{"text":"true"},"population":[{"id":"InitialPopulation_1","code":{"coding":[{"system":"http://terminology.hl7.org/CodeSystem/measure-population","code":"initial-population","display":"Initial Population"}]},"count":0},{"id":"Denominator_1","code":{"coding":[{"system":"http://terminology.hl7.org/CodeSystem/measure-population","code":"denominator","display":"Denominator"}]},"count":0},{"id":"DenominatorExclusion_1","code":{"coding":[{"system":"http://terminology.hl7.org/CodeSystem/measure-population","code":"denominator-exclusion","display":"Denominator Exclusion"}]},"count":0},{"id":"Numerator_1","code":{"coding":[{"system":"http://terminology.hl7.org/CodeSystem/measure-population","code":"numerator","display":"Numerator"}]},"count":0}]},{"value":{"text":"false"},"population":[{"id":"InitialPopulation_1","code":{"coding":[{"system":"http://terminology.hl7.org/CodeSystem/measure-population","code":"initial-population","display":"Initial Population"}]},"count":1},{"id":"Denominator_1","code":{"coding":[{"system":"http://terminology.hl7.org/CodeSystem/measure-population","code":"denominator","display":"Denominator"}]},"count":1},{"id":"DenominatorExclusion_1","code":{"coding":[{"system":"http://terminology.hl7.org/CodeSystem/measure-population","code":"denominator-exclusion","display":"Denominator Exclusion"}]},"count":1},{"id":"Numerator_1","code":{"coding":[{"system":"http://terminology.hl7.org/CodeSystem/measure-population","code":"numerator","display":"Numerator"}]},"count":1}]}]},{"id":"Stratification_1_2","stratum":[{"value":{"text":"true"},"population":[{"id":"InitialPopulation_1","code":{"coding":[{"system":"http://terminology.hl7.org/CodeSystem/measure-population","code":"initial-population","display":"Initial Population"}]},"count":1},{"id":"Denominator_1","code":{"coding":[{"system":"http://terminology.hl7.org/CodeSystem/measure-population","code":"denominator","display":"Denominator"}]},"count":1},{"id":"DenominatorExclusion_1","code":{"coding":[{"system":"http://terminology.hl7.org/CodeSystem/measure-population","code":"denominator-exclusion","display":"Denominator Exclusion"}]},"count":1},{"id":"Numerator_1","code":{"coding":[{"system":"http://terminology.hl7.org/CodeSystem/measure-population","code":"numerator","display":"Numerator"}]},"count":0}]},{"value":{"text":"false"},"population":[{"id":"InitialPopulation_1","code":{"coding":[{"system":"http://terminology.hl7.org/CodeSystem/measure-population","code":"initial-population","display":"Initial Population"}]},"count":0},{"id":"Denominator_1","code":{"coding":[{"system":"http://terminology.hl7.org/CodeSystem/measure-population","code":"denominator","display":"Denominator"}]},"count":0},{"id":"DenominatorExclusion_1","code":{"coding":[{"system":"http://terminology.hl7.org/CodeSystem/measure-population","code":"denominator-exclusion","display":"Denominator Exclusion"}]},"count":0},{"id":"Numerator_1","code":{"coding":[{"system":"http://terminology.hl7.org/CodeSystem/measure-population","code":"numerator","display":"Numerator"}]},"count":1}]}]}]}],"evaluatedResource":[{"reference":"Patient/356ab8ed-7c44-46ec-9fa9-9ec462054f2b"},{"reference":"Encounter/dfc4522b-e1a8-4383-9615-62f5ed9246cc"},{"reference":"Procedure/1491e0ad-5a52-4b33-ad65-4d553eb092e7"},{"reference":"Procedure/1491e0ad-5a52-4b33-ad65-4d553eb092e7.1"}]},"request":{"method":"PUT","url":"MeasureReport/f1016afd-625a-4c45-9649-f8fbb7fcb07b"}}]},"request":{"method":"PUT","url":"Bundle/DENEXPass-UniMastRandLProcJan1OfMP"}}]}