{
  "resourceType": "Bundle",
  "id": "633b3f9e0968f80122503cd3",
  "type": "transaction",
  "entry": [ {
    "fullUrl": "https://madie.cms.gov/Patient/314871b3-6925-49ec-b7c9-bc3a8992d182",
    "resource": {
      "resourceType": "Patient",
      "id": "314871b3-6925-49ec-b7c9-bc3a8992d182",
      "meta": {
        "profile": [ "http://hl7.org/fhir/us/qicore/StructureDefinition/qicore-patient" ]
      },
      "text": {
        "status": "generated",
        "div": "<div xmlns=\"http://www.w3.org/1999/xhtml\"><div class=\"hapiHeaderText\">EDDRelvTm24HrB4DELRsltDtTime<b>DENOMPASS</b></div><table class=\"hapiPropertyTable\"><tbody><tr><td>Date of birth</td><td><span>01 February 2004</span></td></tr></tbody></table></div>"
      },
      "extension": [ {
        "url": "http://hl7.org/fhir/us/core/StructureDefinition/us-core-race",
        "extension": [ {
          "url": "ombCategory",
          "valueCoding": {
            "system": "urn:oid:2.16.840.1.113883.6.238",
            "code": "1002-5",
            "display": "American Indian or Alaska Native",
            "userSelected": true
          }
        }, {
          "url": "text",
          "valueString": "American Indian or Alaska Native"
        } ]
      }, {
        "url": "http://hl7.org/fhir/us/core/StructureDefinition/us-core-ethnicity",
        "extension": [ {
          "url": "ombCategory",
          "valueCoding": {
            "system": "urn:oid:2.16.840.1.113883.6.238",
            "code": "2135-2",
            "display": "Hispanic or Latino",
            "userSelected": true
          }
        }, {
          "url": "text",
          "valueString": "Hispanic or Latino"
        } ]
      } ],
      "identifier": [ {
        "type": {
          "coding": [ {
            "system": "http://terminology.hl7.org/CodeSystem/v2-0203",
            "code": "MR"
          } ]
        },
        "system": "https://bonnie-fhir.healthit.gov/",
        "value": "633b3f9e0968f80122503cd3"
      } ],
      "active": true,
      "name": [ {
        "use": "usual",
        "family": "DENOMPass",
        "given": [ "EDDRelvTm24HrB4DELRsltDtTime" ]
      } ],
      "gender": "female",
      "birthDate": "2005-02-01"
    },
    "request": {
      "method": "PUT",
      "url": "Patient/314871b3-6925-49ec-b7c9-bc3a8992d182"
    }
  }, {
    "fullUrl": "https://madie.cms.gov/Observation/89a26997-0304-4b82-ada8-779769427d0e",
    "resource": {
      "resourceType": "Observation",
      "id": "89a26997-0304-4b82-ada8-779769427d0e",
      "meta": {
        "profile": [ "http://hl7.org/fhir/us/qicore/StructureDefinition/qicore-simple-observation" ]
      },
      "status": "final",
      "category": [ {
        "coding": [ {
          "system": "http://terminology.hl7.org/CodeSystem/observation-category",
          "code": "exam",
          "display": "exam",
          "userSelected": true
        } ]
      } ],
      "code": {
        "coding": [ {
          "system": "http://loinc.org",
          "code": "93857-1"
        } ]
      },
      "subject": {
        "reference": "Patient/314871b3-6925-49ec-b7c9-bc3a8992d182"
      },
      "effectiveDateTime": "2026-02-01T08:00:00Z",
      "performer": [ {
        "reference": "Organization/example1",
        "display": "Hendricks Country Hospital"
      } ],
      "valueDateTime": "2026-02-01T08:00:00.000+00:00"
    },
    "request": {
      "method": "PUT",
      "url": "Observation/89a26997-0304-4b82-ada8-779769427d0e"
    }
  }, {
    "fullUrl": "https://madie.cms.gov/Observation/7aa2fad9-d0b4-443e-bcaf-be7006cd9e10",
    "resource": {
      "resourceType": "Observation",
      "id": "7aa2fad9-d0b4-443e-bcaf-be7006cd9e10",
      "meta": {
        "profile": [ "http://hl7.org/fhir/us/qicore/StructureDefinition/qicore-simple-observation" ]
      },
      "status": "final",
      "category": [ {
        "coding": [ {
          "system": "http://terminology.hl7.org/CodeSystem/observation-category",
          "code": "exam",
          "display": "exam",
          "userSelected": true
        } ]
      } ],
      "code": {
        "coding": [ {
          "system": "http://loinc.org",
          "code": "11778-8"
        } ]
      },
      "subject": {
        "reference": "Patient/314871b3-6925-49ec-b7c9-bc3a8992d182"
      },
      "effectiveDateTime": "2026-01-31T08:00:00Z",
      "performer": [ {
        "reference": "Organization/example1",
        "display": "Hendricks Country Hospital"
      } ],
      "valueDateTime": "2026-02-01T08:00:00.000+00:00"
    },
    "request": {
      "method": "PUT",
      "url": "Observation/7aa2fad9-d0b4-443e-bcaf-be7006cd9e10"
    }
  }, {
    "fullUrl": "https://madie.cms.gov/Encounter/f30a76f7-4f13-41da-8b02-f004affd5ec1",
    "resource": {
      "resourceType": "Encounter",
      "id": "f30a76f7-4f13-41da-8b02-f004affd5ec1",
      "meta": {
        "profile": [ "http://hl7.org/fhir/us/qicore/StructureDefinition/qicore-encounter" ]
      },
      "status": "finished",
      "class": {
        "system": "http://terminology.hl7.org/CodeSystem/v3-ActCode",
        "code": "IMP",
        "display": "inpatient encounter"
      },
      "type": [ {
        "coding": [ {
          "system": "http://snomed.info/sct",
          "code": "183452005"
        } ]
      } ],
      "subject": {
        "reference": "Patient/314871b3-6925-49ec-b7c9-bc3a8992d182"
      },
      "period": {
        "start": "2026-02-01T08:00:00Z",
        "end": "2026-02-05T08:15:00.000+00:00"
      }
    },
    "request": {
      "method": "PUT",
      "url": "Encounter/f30a76f7-4f13-41da-8b02-f004affd5ec1"
    }
  }, {
    "fullUrl": "https://madie.cms.gov/Procedure/e8d65ad6-ef7f-4595-a80c-b098b88d61a4",
    "resource": {
      "resourceType": "Procedure",
      "id": "e8d65ad6-ef7f-4595-a80c-b098b88d61a4",
      "meta": {
        "profile": [ "http://hl7.org/fhir/us/qicore/StructureDefinition/qicore-procedure" ]
      },
      "extension": [ {
        "url": "http://hl7.org/fhir/us/qicore/StructureDefinition/qicore-recorded",
        "valueDateTime": "2014-04-05T13:35:00Z"
      } ],
      "status": "completed",
      "code": {
        "coding": [ {
          "system": "http://snomed.info/sct",
          "code": "10745001"
        } ]
      },
      "subject": {
        "reference": "Patient/314871b3-6925-49ec-b7c9-bc3a8992d182"
      },
      "performedPeriod": {
        "start": "2026-02-01T08:00:00Z",
        "end": "2026-02-05T08:15:00.000+00:00"
      }
    },
    "request": {
      "method": "PUT",
      "url": "Procedure/e8d65ad6-ef7f-4595-a80c-b098b88d61a4"
    }
  }, {
    "fullUrl": "https://madie.cms.gov/Coverage/013a5a2d-ae55-4096-b222-aa6f93f138a0",
    "resource": {
      "resourceType": "Coverage",
      "id": "013a5a2d-ae55-4096-b222-aa6f93f138a0",
      "meta": {
        "profile": [ "http://hl7.org/fhir/us/qicore/StructureDefinition/qicore-coverage" ]
      },
      "status": "active",
      "subscriberId": "523435",
      "beneficiary": {
        "reference": "Patient/314871b3-6925-49ec-b7c9-bc3a8992d182"
      },
      "relationship": {
        "coding": [ {
          "system": "http://terminology.hl7.org/CodeSystem/subscriber-relationship",
          "code": "self"
        } ]
      },
      "payor": [ {
        "reference": "Organization/5c283a01-b0a3-4c38-b905-7e3f0ff0d804"
      } ]
    },
    "request": {
      "method": "PUT",
      "url": "Coverage/013a5a2d-ae55-4096-b222-aa6f93f138a0"
    }
  }, {
    "fullUrl": "https://madie.cms.gov/Organization/5c283a01-b0a3-4c38-b905-7e3f0ff0d804",
    "resource": {
      "resourceType": "Organization",
      "id": "5c283a01-b0a3-4c38-b905-7e3f0ff0d804",
      "meta": {
        "profile": [ "http://hl7.org/fhir/us/qicore/StructureDefinition/qicore-organization" ]
      },
      "identifier": [ {
        "use": "temp",
        "system": "urn:oid:2.16.840.1.113883.4.4",
        "value": "21-3259825"
      } ],
      "active": true,
      "type": [ {
        "coding": [ {
          "system": "http://terminology.hl7.org/CodeSystem/organization-type",
          "code": "pay",
          "display": "Payer"
        } ]
      } ],
      "name": "Blue Cross Blue Shield of Texas",
      "telecom": [ {
        "system": "phone",
        "value": "(+1) 972-766-6900"
      } ],
      "address": [ {
        "use": "billing",
        "type": "postal",
        "line": [ "P.O. Box 660044" ],
        "city": "Dallas",
        "state": "TX",
        "postalCode": "75266-0044",
        "country": "USA"
      } ]
    },
    "request": {
      "method": "PUT",
      "url": "Organization/5c283a01-b0a3-4c38-b905-7e3f0ff0d804"
    }
  }, {
    "fullUrl": "https://madie.cms.gov/Practitioner/2f2a497d-6de1-476b-a46f-ad0e3e350810",
    "resource": {
      "resourceType": "Practitioner",
      "id": "2f2a497d-6de1-476b-a46f-ad0e3e350810",
      "meta": {
        "profile": [ "http://hl7.org/fhir/us/qicore/StructureDefinition/qicore-practitioner" ]
      },
      "identifier": [ {
        "system": "http://hl7.org/fhir/sid/us-npi",
        "value": "1234567890"
      } ],
      "name": [ {
        "family": "Evil",
        "prefix": [ "Dr" ]
      } ]
    },
    "request": {
      "method": "PUT",
      "url": "Practitioner/2f2a497d-6de1-476b-a46f-ad0e3e350810"
    }
  }, {
    "fullUrl": "https://madie.cms.gov/MeasureReport/f465e5ed-0d79-4dfd-ad7a-d28e8aa54c8e",
    "resource": {
      "resourceType": "MeasureReport",
      "id": "f465e5ed-0d79-4dfd-ad7a-d28e8aa54c8e",
      "meta": {
        "profile": [ "http://hl7.org/fhir/us/cqfmeasures/StructureDefinition/test-case-cqfm" ]
      },
      "contained": [ {
        "resourceType": "Parameters",
        "id": "b933bd6d-e95c-4566-8ae9-8c57470024a4-parameters",
        "parameter": [ {
          "name": "subject",
          "valueString": "314871b3-6925-49ec-b7c9-bc3a8992d182"
        } ]
      } ],
      "extension": [ {
        "url": "http://hl7.org/fhir/StructureDefinition/cqf-inputParameters",
        "valueReference": {
          "reference": "#b933bd6d-e95c-4566-8ae9-8c57470024a4-parameters"
        }
      }, {
        "url": "http://hl7.org/fhir/us/cqfmeasures/StructureDefinition/cqfm-testCaseDescription",
        "valueMarkdown": "Last assessment Performed, Estimated Delivery Date, Relevant time, 24 hours before Delivery result Date Time \n"
      } ],
      "modifierExtension": [ {
        "url": "http://hl7.org/fhir/us/cqfmeasures/StructureDefinition/cqfm-isTestCase",
        "valueBoolean": true
      } ],
      "status": "complete",
      "type": "individual",
      "measure": "https://madie.cms.gov/Measure/CMS1028FHIRPCSevereOBComps",
      "period": {
        "start": "2026-01-01",
        "end": "2026-12-31"
      },
      "group": [ {
        "id": "Group_1",
        "population": [ {
          "id": "InitialPopulation_1",
          "code": {
            "coding": [ {
              "system": "http://terminology.hl7.org/CodeSystem/measure-population",
              "code": "initial-population",
              "display": "Initial Population"
            } ]
          },
          "count": 1
        }, {
          "id": "Denominator_1",
          "code": {
            "coding": [ {
              "system": "http://terminology.hl7.org/CodeSystem/measure-population",
              "code": "denominator",
              "display": "Denominator"
            } ]
          },
          "count": 1
        }, {
          "id": "Numerator_1",
          "code": {
            "coding": [ {
              "system": "http://terminology.hl7.org/CodeSystem/measure-population",
              "code": "numerator",
              "display": "Numerator"
            } ]
          },
          "count": 0
        }, {
          "id": "NumeratorExclusion_1",
          "code": {
            "coding": [ {
              "system": "http://terminology.hl7.org/CodeSystem/measure-population",
              "code": "numerator-exclusion",
              "display": "Numerator Exclusion"
            } ]
          },
          "count": 0
        } ],
        "measureScore": {
          "value": 0.0
        }
      }, {
        "id": "Group_2",
        "population": [ {
          "id": "InitialPopulation_2",
          "code": {
            "coding": [ {
              "system": "http://terminology.hl7.org/CodeSystem/measure-population",
              "code": "initial-population",
              "display": "Initial Population"
            } ]
          },
          "count": 1
        }, {
          "id": "Denominator_2",
          "code": {
            "coding": [ {
              "system": "http://terminology.hl7.org/CodeSystem/measure-population",
              "code": "denominator",
              "display": "Denominator"
            } ]
          },
          "count": 1
        }, {
          "id": "Numerator_2",
          "code": {
            "coding": [ {
              "system": "http://terminology.hl7.org/CodeSystem/measure-population",
              "code": "numerator",
              "display": "Numerator"
            } ]
          },
          "count": 0
        }, {
          "id": "NumeratorExclusion_2",
          "code": {
            "coding": [ {
              "system": "http://terminology.hl7.org/CodeSystem/measure-population",
              "code": "numerator-exclusion",
              "display": "Numerator Exclusion"
            } ]
          },
          "count": 0
        } ],
        "measureScore": {
          "value": 0.0
        }
      } ],
      "evaluatedResource": [ {
        "reference": "Patient/314871b3-6925-49ec-b7c9-bc3a8992d182"
      }, {
        "reference": "Observation/89a26997-0304-4b82-ada8-779769427d0e"
      }, {
        "reference": "Observation/7aa2fad9-d0b4-443e-bcaf-be7006cd9e10"
      }, {
        "reference": "Encounter/f30a76f7-4f13-41da-8b02-f004affd5ec1"
      }, {
        "reference": "Procedure/e8d65ad6-ef7f-4595-a80c-b098b88d61a4"
      }, {
        "reference": "Coverage/013a5a2d-ae55-4096-b222-aa6f93f138a0"
      }, {
        "reference": "Organization/5c283a01-b0a3-4c38-b905-7e3f0ff0d804"
      }, {
        "reference": "Practitioner/2f2a497d-6de1-476b-a46f-ad0e3e350810"
      } ]
    },
    "request": {
      "method": "PUT",
      "url": "MeasureReport/f465e5ed-0d79-4dfd-ad7a-d28e8aa54c8e"
    }
  } ]
}