{"resourceType":"Bundle","id":"tests-e360ffc2-5b98-425a-a2bd-b051ba5ec506-bundle","type":"transaction","entry":[{"resource":{"resourceType":"Practitioner","id":"3e3a138c-25c2-4c95-b64f-a4bd8c377837","meta":{"profile":["http://hl7.org/fhir/us/qicore/StructureDefinition/qicore-practitioner"]},"identifier":[{"system":"http://hl7.org/fhir/sid/us-npi","value":"6822915578"}],"name":[{"family":"Evil","prefix":["Dr"]}]},"request":{"method":"PUT","url":"Practitioner/3e3a138c-25c2-4c95-b64f-a4bd8c377837"}},{"resource":{"resourceType":"MedicationAdministration","id":"ef41f183-e437-40b6-94d9-b63882d9431d","meta":{"profile":["http://hl7.org/fhir/us/qicore/StructureDefinition/qicore-medicationadministration"]},"status":"completed","medicationCodeableConcept":{"coding":[{"system":"http://www.nlm.nih.gov/research/umls/rxnorm","code":"1361493","display":"glimepiride 6 MG Oral Tablet","userSelected":true}]},"subject":{"reference":"Patient/e360ffc2-5b98-425a-a2bd-b051ba5ec506"},"effectivePeriod":{"start":"2026-07-11T08:00:00.000+00:00","end":"2026-07-11T09:00:00.000+00:00"}},"request":{"method":"PUT","url":"MedicationAdministration/ef41f183-e437-40b6-94d9-b63882d9431d"}},{"resource":{"resourceType":"Organization","id":"05c856d3-589b-4e34-92d7-7a4fd99c65f7","meta":{"profile":["http://hl7.org/fhir/us/qicore/StructureDefinition/qicore-organization"]},"identifier":[{"use":"temp","system":"urn:oid:2.16.840.1.113883.4.4","value":"21-3259825"}],"active":true,"type":[{"coding":[{"system":"http://terminology.hl7.org/CodeSystem/organization-type","code":"pay","display":"Payer"}]}],"name":"Blue Cross Blue Shield of Texas","telecom":[{"system":"phone","value":"(+1) 972-766-6900"}],"address":[{"use":"billing","type":"postal","line":["P.O. Box 660044"],"city":"Dallas","state":"TX","postalCode":"75266-0044","country":"USA"}]},"request":{"method":"PUT","url":"Organization/05c856d3-589b-4e34-92d7-7a4fd99c65f7"}},{"resource":{"resourceType":"Bundle","id":"61152a3b98086b7a79cbd7b6","type":"transaction","entry":[{"fullUrl":"https://madie.cms.gov/Patient/e360ffc2-5b98-425a-a2bd-b051ba5ec506","resource":{"resourceType":"Patient","id":"e360ffc2-5b98-425a-a2bd-b051ba5ec506","meta":{"profile":["http://hl7.org/fhir/us/qicore/StructureDefinition/qicore-patient"]},"extension":[{"url":"http://hl7.org/fhir/us/core/StructureDefinition/us-core-race","extension":[{"url":"ombCategory","valueCoding":{"system":"urn:oid:2.16.840.1.113883.6.238","code":"1002-5","display":"American Indian or Alaska Native","userSelected":true}},{"url":"text","valueString":"American Indian or Alaska Native"}]},{"url":"http://hl7.org/fhir/us/core/StructureDefinition/us-core-ethnicity","extension":[{"url":"ombCategory","valueCoding":{"system":"urn:oid:2.16.840.1.113883.6.238","code":"2135-2","display":"Hispanic or Latino","userSelected":true}},{"url":"text","valueString":"Hispanic or Latino"}]}],"identifier":[{"type":{"coding":[{"system":"http://terminology.hl7.org/CodeSystem/v2-0203","code":"MR"}]},"system":"https://bonnie-fhir.healthit.gov/","value":"61152a3b98086b7a79cbd7b6"}],"active":true,"name":[{"use":"usual","family":"DENOMPass","given":["Age17inEDAge18StartOfIPEncounter"]}],"gender":"male","birthDate":"2008-07-11"},"request":{"method":"PUT","url":"Patient/e360ffc2-5b98-425a-a2bd-b051ba5ec506"}},{"fullUrl":"https://madie.cms.gov/Encounter/ba8d7ae6-cd5f-435d-a211-dd9206c6d7d1","resource":{"resourceType":"Encounter","id":"ba8d7ae6-cd5f-435d-a211-dd9206c6d7d1","meta":{"profile":["http://hl7.org/fhir/us/qicore/StructureDefinition/qicore-encounter"]},"status":"finished","class":{"system":"http://terminology.hl7.org/CodeSystem/v3-ActCode","code":"IMP"},"type":[{"coding":[{"system":"http://snomed.info/sct","code":"4525004"}]}],"subject":{"reference":"Patient/e360ffc2-5b98-425a-a2bd-b051ba5ec506"},"period":{"start":"2026-07-11T08:00:00.000+00:00","end":"2026-07-12T08:00:00.000+00:00"}},"request":{"method":"PUT","url":"Encounter/ba8d7ae6-cd5f-435d-a211-dd9206c6d7d1"}},{"fullUrl":"https://madie.cms.gov/Encounter/3d325f02-4a87-4701-8846-a2e9d8108413","resource":{"resourceType":"Encounter","id":"3d325f02-4a87-4701-8846-a2e9d8108413","meta":{"profile":["http://hl7.org/fhir/us/qicore/StructureDefinition/qicore-encounter"]},"status":"finished","class":{"system":"http://terminology.hl7.org/CodeSystem/v3-ActCode","code":"IMP"},"type":[{"coding":[{"system":"http://snomed.info/sct","code":"183452005"}]}],"subject":{"reference":"Patient/e360ffc2-5b98-425a-a2bd-b051ba5ec506"},"period":{"start":"2026-07-12T08:30:00.000+00:00","end":"2026-07-13T21:00:00.000+00:00"}},"request":{"method":"PUT","url":"Encounter/3d325f02-4a87-4701-8846-a2e9d8108413"}},{"fullUrl":"https://madie.cms.gov/MedicationAdministration/ef41f183-e437-40b6-94d9-b63882d9431d","resource":{"resourceType":"MedicationAdministration","id":"ef41f183-e437-40b6-94d9-b63882d9431d","meta":{"profile":["http://hl7.org/fhir/us/qicore/StructureDefinition/qicore-medicationadministration"]},"status":"completed","medicationCodeableConcept":{"coding":[{"system":"http://www.nlm.nih.gov/research/umls/rxnorm","code":"1361493","display":"glimepiride 6 MG Oral Tablet","userSelected":true}]},"subject":{"reference":"Patient/e360ffc2-5b98-425a-a2bd-b051ba5ec506"},"effectivePeriod":{"start":"2026-07-11T08:00:00.000+00:00","end":"2026-07-11T09:00:00.000+00:00"}},"request":{"method":"PUT","url":"MedicationAdministration/ef41f183-e437-40b6-94d9-b63882d9431d"}},{"fullUrl":"https://madie.cms.gov/Coverage/2549c70b-416c-4e2d-9afa-1037c337963d","resource":{"resourceType":"Coverage","id":"2549c70b-416c-4e2d-9afa-1037c337963d","meta":{"profile":["http://hl7.org/fhir/us/qicore/StructureDefinition/qicore-coverage"]},"status":"active","beneficiary":{"reference":"Patient/e360ffc2-5b98-425a-a2bd-b051ba5ec506"},"relationship":{"coding":[{"system":"http://terminology.hl7.org/CodeSystem/subscriber-relationship","code":"self","display":"Self"}]},"payor":[{"reference":"Organization/05c856d3-589b-4e34-92d7-7a4fd99c65f7"}]},"request":{"method":"PUT","url":"Coverage/2549c70b-416c-4e2d-9afa-1037c337963d"}},{"fullUrl":"https://madie.cms.gov/Organization/05c856d3-589b-4e34-92d7-7a4fd99c65f7","resource":{"resourceType":"Organization","id":"05c856d3-589b-4e34-92d7-7a4fd99c65f7","meta":{"profile":["http://hl7.org/fhir/us/qicore/StructureDefinition/qicore-organization"]},"identifier":[{"use":"temp","system":"urn:oid:2.16.840.1.113883.4.4","value":"21-3259825"}],"active":true,"type":[{"coding":[{"system":"http://terminology.hl7.org/CodeSystem/organization-type","code":"pay","display":"Payer"}]}],"name":"Blue Cross Blue Shield of Texas","telecom":[{"system":"phone","value":"(+1) 972-766-6900"}],"address":[{"use":"billing","type":"postal","line":["P.O. Box 660044"],"city":"Dallas","state":"TX","postalCode":"75266-0044","country":"USA"}]},"request":{"method":"PUT","url":"Organization/05c856d3-589b-4e34-92d7-7a4fd99c65f7"}},{"fullUrl":"https://madie.cms.gov/Practitioner/3e3a138c-25c2-4c95-b64f-a4bd8c377837","resource":{"resourceType":"Practitioner","id":"3e3a138c-25c2-4c95-b64f-a4bd8c377837","meta":{"profile":["http://hl7.org/fhir/us/qicore/StructureDefinition/qicore-practitioner"]},"identifier":[{"system":"http://hl7.org/fhir/sid/us-npi","value":"6822915578"}],"name":[{"family":"Evil","prefix":["Dr"]}]},"request":{"method":"PUT","url":"Practitioner/3e3a138c-25c2-4c95-b64f-a4bd8c377837"}},{"fullUrl":"https://madie.cms.gov/MeasureReport/ae6d4a1c-6f81-4255-bca5-5b15b4eadd27","resource":{"resourceType":"MeasureReport","id":"ae6d4a1c-6f81-4255-bca5-5b15b4eadd27","meta":{"profile":["http://hl7.org/fhir/us/cqfmeasures/StructureDefinition/test-case-cqfm"]},"contained":[{"resourceType":"Parameters","id":"62b8d9f6-6b4a-4ed9-a866-629b813826d3-parameters","parameter":[{"name":"subject","valueString":"e360ffc2-5b98-425a-a2bd-b051ba5ec506"}]}],"extension":[{"url":"http://hl7.org/fhir/StructureDefinition/cqf-inputParameters","valueReference":{"reference":"#62b8d9f6-6b4a-4ed9-a866-629b813826d3-parameters"}},{"url":"http://hl7.org/fhir/us/cqfmeasures/StructureDefinition/cqfm-testCaseDescription","valueMarkdown":"Inpatient encounter where patient started in ER prior to admission. Age 17 in ER, turned 18 at exact date as start of IP encounter, meds administered, no lab tests. Edge case. Denominator pass."}],"modifierExtension":[{"url":"http://hl7.org/fhir/us/cqfmeasures/StructureDefinition/cqfm-isTestCase","valueBoolean":true}],"status":"complete","type":"individual","measure":"https://madie.cms.gov/Measure/CMS816FHIRHHHypo","period":{"start":"2026-01-01","end":"2026-12-31"},"group":[{"id":"Group_1","population":[{"id":"InitialPopulation_1","code":{"coding":[{"system":"http://terminology.hl7.org/CodeSystem/measure-population","code":"initial-population","display":"Initial Population"}]},"count":1},{"id":"Denominator_1","code":{"coding":[{"system":"http://terminology.hl7.org/CodeSystem/measure-population","code":"denominator","display":"Denominator"}]},"count":1},{"id":"Numerator_1","code":{"coding":[{"system":"http://terminology.hl7.org/CodeSystem/measure-population","code":"numerator","display":"Numerator"}]},"count":0}],"measureScore":{"value":0.0}}],"evaluatedResource":[{"reference":"Patient/e360ffc2-5b98-425a-a2bd-b051ba5ec506"},{"reference":"Encounter/ba8d7ae6-cd5f-435d-a211-dd9206c6d7d1"},{"reference":"Encounter/3d325f02-4a87-4701-8846-a2e9d8108413"},{"reference":"MedicationAdministration/ef41f183-e437-40b6-94d9-b63882d9431d"},{"reference":"Coverage/2549c70b-416c-4e2d-9afa-1037c337963d"},{"reference":"Organization/05c856d3-589b-4e34-92d7-7a4fd99c65f7"},{"reference":"Practitioner/3e3a138c-25c2-4c95-b64f-a4bd8c377837"}]},"request":{"method":"PUT","url":"MeasureReport/ae6d4a1c-6f81-4255-bca5-5b15b4eadd27"}}]},"request":{"method":"PUT","url":"Bundle/61152a3b98086b7a79cbd7b6"}},{"resource":{"resourceType":"Encounter","id":"ba8d7ae6-cd5f-435d-a211-dd9206c6d7d1","meta":{"profile":["http://hl7.org/fhir/us/qicore/StructureDefinition/qicore-encounter"]},"status":"finished","class":{"system":"http://terminology.hl7.org/CodeSystem/v3-ActCode","code":"IMP"},"type":[{"coding":[{"system":"http://snomed.info/sct","code":"4525004"}]}],"subject":{"reference":"Patient/e360ffc2-5b98-425a-a2bd-b051ba5ec506"},"period":{"start":"2026-07-11T08:00:00.000+00:00","end":"2026-07-12T08:00:00.000+00:00"}},"request":{"method":"PUT","url":"Encounter/ba8d7ae6-cd5f-435d-a211-dd9206c6d7d1"}},{"resource":{"resourceType":"Coverage","id":"2549c70b-416c-4e2d-9afa-1037c337963d","meta":{"profile":["http://hl7.org/fhir/us/qicore/StructureDefinition/qicore-coverage"]},"status":"active","beneficiary":{"reference":"Patient/e360ffc2-5b98-425a-a2bd-b051ba5ec506"},"relationship":{"coding":[{"system":"http://terminology.hl7.org/CodeSystem/subscriber-relationship","code":"self","display":"Self"}]},"payor":[{"reference":"Organization/05c856d3-589b-4e34-92d7-7a4fd99c65f7"}]},"request":{"method":"PUT","url":"Coverage/2549c70b-416c-4e2d-9afa-1037c337963d"}},{"resource":{"resourceType":"Patient","id":"e360ffc2-5b98-425a-a2bd-b051ba5ec506","meta":{"profile":["http://hl7.org/fhir/us/qicore/StructureDefinition/qicore-patient"]},"extension":[{"url":"http://hl7.org/fhir/us/core/StructureDefinition/us-core-race","extension":[{"url":"ombCategory","valueCoding":{"system":"urn:oid:2.16.840.1.113883.6.238","code":"1002-5","display":"American Indian or Alaska Native","userSelected":true}},{"url":"text","valueString":"American Indian or Alaska Native"}]},{"url":"http://hl7.org/fhir/us/core/StructureDefinition/us-core-ethnicity","extension":[{"url":"ombCategory","valueCoding":{"system":"urn:oid:2.16.840.1.113883.6.238","code":"2135-2","display":"Hispanic or Latino","userSelected":true}},{"url":"text","valueString":"Hispanic or Latino"}]}],"identifier":[{"type":{"coding":[{"system":"http://terminology.hl7.org/CodeSystem/v2-0203","code":"MR"}]},"system":"https://bonnie-fhir.healthit.gov/","value":"61152a3b98086b7a79cbd7b6"}],"active":true,"name":[{"use":"usual","family":"DENOMPass","given":["Age17inEDAge18StartOfIPEncounter"]}],"gender":"male","birthDate":"2008-07-11"},"request":{"method":"PUT","url":"Patient/e360ffc2-5b98-425a-a2bd-b051ba5ec506"}},{"resource":{"resourceType":"MeasureReport","id":"ae6d4a1c-6f81-4255-bca5-5b15b4eadd27","meta":{"profile":["http://hl7.org/fhir/us/cqfmeasures/StructureDefinition/test-case-cqfm"]},"contained":[{"resourceType":"Parameters","id":"62b8d9f6-6b4a-4ed9-a866-629b813826d3-parameters","parameter":[{"name":"subject","valueString":"e360ffc2-5b98-425a-a2bd-b051ba5ec506"}]}],"extension":[{"url":"http://hl7.org/fhir/StructureDefinition/cqf-inputParameters","valueReference":{"reference":"#62b8d9f6-6b4a-4ed9-a866-629b813826d3-parameters"}},{"url":"http://hl7.org/fhir/us/cqfmeasures/StructureDefinition/cqfm-testCaseDescription","valueMarkdown":"Inpatient encounter where patient started in ER prior to admission. Age 17 in ER, turned 18 at exact date as start of IP encounter, meds administered, no lab tests. Edge case. Denominator pass."}],"modifierExtension":[{"url":"http://hl7.org/fhir/us/cqfmeasures/StructureDefinition/cqfm-isTestCase","valueBoolean":true}],"status":"complete","type":"individual","measure":"https://madie.cms.gov/Measure/CMS816FHIRHHHypo","period":{"start":"2026-01-01","end":"2026-12-31"},"group":[{"id":"Group_1","population":[{"id":"InitialPopulation_1","code":{"coding":[{"system":"http://terminology.hl7.org/CodeSystem/measure-population","code":"initial-population","display":"Initial Population"}]},"count":1},{"id":"Denominator_1","code":{"coding":[{"system":"http://terminology.hl7.org/CodeSystem/measure-population","code":"denominator","display":"Denominator"}]},"count":1},{"id":"Numerator_1","code":{"coding":[{"system":"http://terminology.hl7.org/CodeSystem/measure-population","code":"numerator","display":"Numerator"}]},"count":0}],"measureScore":{"value":0.0}}],"evaluatedResource":[{"reference":"Patient/e360ffc2-5b98-425a-a2bd-b051ba5ec506"},{"reference":"Encounter/ba8d7ae6-cd5f-435d-a211-dd9206c6d7d1"},{"reference":"Encounter/3d325f02-4a87-4701-8846-a2e9d8108413"},{"reference":"MedicationAdministration/ef41f183-e437-40b6-94d9-b63882d9431d"},{"reference":"Coverage/2549c70b-416c-4e2d-9afa-1037c337963d"},{"reference":"Organization/05c856d3-589b-4e34-92d7-7a4fd99c65f7"},{"reference":"Practitioner/3e3a138c-25c2-4c95-b64f-a4bd8c377837"}]},"request":{"method":"PUT","url":"MeasureReport/ae6d4a1c-6f81-4255-bca5-5b15b4eadd27"}},{"resource":{"resourceType":"Encounter","id":"3d325f02-4a87-4701-8846-a2e9d8108413","meta":{"profile":["http://hl7.org/fhir/us/qicore/StructureDefinition/qicore-encounter"]},"status":"finished","class":{"system":"http://terminology.hl7.org/CodeSystem/v3-ActCode","code":"IMP"},"type":[{"coding":[{"system":"http://snomed.info/sct","code":"183452005"}]}],"subject":{"reference":"Patient/e360ffc2-5b98-425a-a2bd-b051ba5ec506"},"period":{"start":"2026-07-12T08:30:00.000+00:00","end":"2026-07-13T21:00:00.000+00:00"}},"request":{"method":"PUT","url":"Encounter/3d325f02-4a87-4701-8846-a2e9d8108413"}}]}