{"resourceType":"Bundle","id":"tests-37fd9c7e-bf9e-4769-b448-094ed97bd3e8-bundle","type":"transaction","entry":[{"resource":{"resourceType":"Patient","id":"37fd9c7e-bf9e-4769-b448-094ed97bd3e8","meta":{"profile":["http://hl7.org/fhir/us/qicore/StructureDefinition/qicore-patient"]},"extension":[{"url":"http://hl7.org/fhir/us/core/StructureDefinition/us-core-race","extension":[{"url":"ombCategory","valueCoding":{"system":"urn:oid:2.16.840.1.113883.6.238","code":"2106-3","display":"White"}},{"url":"text","valueString":"White"}]},{"url":"http://hl7.org/fhir/us/core/StructureDefinition/us-core-ethnicity","extension":[{"url":"ombCategory","valueCoding":{"system":"urn:oid:2.16.840.1.113883.6.238","code":"2135-2","display":"Hispanic or Latino"}},{"url":"text","valueString":"Hispanic or Latino"}]},{"url":"http://hl7.org/fhir/us/core/StructureDefinition/us-core-sex","valueCode":"248153007"}],"identifier":[{"system":"http://hospital.smarthealthit.org","value":"999999999"}],"name":[{"family":"Example","given":["Patient"]}],"gender":"female","birthDate":"2000-07-11"},"request":{"method":"PUT","url":"Patient/37fd9c7e-bf9e-4769-b448-094ed97bd3e8"}},{"resource":{"resourceType":"Observation","id":"50ed7f68-9699-42fb-b251-bfc878b0887b","meta":{"profile":["http://hl7.org/fhir/us/qicore/StructureDefinition/qicore-observation-lab"]},"status":"final","code":{"coding":[{"system":"http://loinc.org","code":"1556-0","display":"Glucose Lab Test Mass Per Volume"}]},"subject":{"reference":"Patient/37fd9c7e-bf9e-4769-b448-094ed97bd3e8"},"effectivePeriod":{"start":"2026-07-16T21:01:00Z","end":"2026-07-16T21:01:00Z"},"issued":"2026-07-16T21:01:00Z","valueQuantity":{"value":81,"unit":"mg/dL"}},"request":{"method":"PUT","url":"Observation/50ed7f68-9699-42fb-b251-bfc878b0887b"}},{"resource":{"resourceType":"MedicationAdministration","id":"e087f9d4-0f35-41ff-850c-334d3d5169f7","meta":{"profile":["http://hl7.org/fhir/us/qicore/StructureDefinition/qicore-medicationadministration"]},"status":"completed","medicationCodeableConcept":{"coding":[{"system":"http://www.nlm.nih.gov/research/umls/rxnorm","code":"1653202","display":"Hypoglycemics Severe Hypoglycemia"}]},"subject":{"reference":"Patient/37fd9c7e-bf9e-4769-b448-094ed97bd3e8"},"effectivePeriod":{"start":"2026-07-16T08:00:00Z","end":"2026-07-16T09:00:00Z"}},"request":{"method":"PUT","url":"MedicationAdministration/e087f9d4-0f35-41ff-850c-334d3d5169f7"}},{"resource":{"resourceType":"Encounter","id":"b547e383-b300-4fba-abd7-2c26672234d4","meta":{"profile":["http://hl7.org/fhir/us/qicore/StructureDefinition/qicore-encounter"]},"status":"finished","class":{"system":"http://terminology.hl7.org/CodeSystem/v3-ActCode","code":"IMP","display":"Inpatient encounter"},"type":[{"coding":[{"system":"http://snomed.info/sct","code":"183452005","display":"Inpatient encounter"}]}],"period":{"start":"2026-07-11T08:00:00Z","end":"2026-07-16T21:00:00Z"}},"request":{"method":"PUT","url":"Encounter/b547e383-b300-4fba-abd7-2c26672234d4"}},{"resource":{"resourceType":"MeasureReport","id":"b119cb04-ce40-447b-a92a-e02bcaf60250","meta":{"profile":["http://hl7.org/fhir/us/cqfmeasures/StructureDefinition/test-case-cqfm"]},"contained":[{"resourceType":"Parameters","id":"d6930428-de1d-45b4-ac95-baf5f0f593a6-parameters","parameter":[{"name":"subject","valueString":"37fd9c7e-bf9e-4769-b448-094ed97bd3e8"}]}],"extension":[{"url":"http://hl7.org/fhir/StructureDefinition/cqf-inputParameters","valueReference":{"reference":"#d6930428-de1d-45b4-ac95-baf5f0f593a6-parameters"}},{"url":"http://hl7.org/fhir/us/cqfmeasures/StructureDefinition/cqfm-testCaseDescription","valueMarkdown":"Encounter ends 7/16 at 9pm. Hypo med given. Lab test 1 with result done 7/16 at 8:58pm within 24 hours of med = 35. Lab test 2 with result done 3 minutes later at 9:01pm (1 minute after discharge ) = 81. Numerator pass since high result is after enc"}],"modifierExtension":[{"url":"http://hl7.org/fhir/us/cqfmeasures/StructureDefinition/cqfm-isTestCase","valueBoolean":true}],"status":"complete","type":"individual","measure":"https://madie.cms.gov/Measure/CMS816FHIRHHHypo","period":{"start":"2026-01-01","end":"2026-12-31"},"group":[{"id":"Group_1","population":[{"id":"InitialPopulation_1","code":{"coding":[{"system":"http://terminology.hl7.org/CodeSystem/measure-population","code":"initial-population","display":"Initial Population"}]},"count":1},{"id":"Denominator_1","code":{"coding":[{"system":"http://terminology.hl7.org/CodeSystem/measure-population","code":"denominator","display":"Denominator"}]},"count":1},{"id":"Numerator_1","code":{"coding":[{"system":"http://terminology.hl7.org/CodeSystem/measure-population","code":"numerator","display":"Numerator"}]},"count":1}],"measureScore":{"value":0.0}}],"evaluatedResource":[{"reference":"Encounter/b547e383-b300-4fba-abd7-2c26672234d4"},{"reference":"MedicationAdministration/e087f9d4-0f35-41ff-850c-334d3d5169f7"},{"reference":"Observation/216e0ab5-4e45-4540-9a79-13e541b49bd3"},{"reference":"Observation/50ed7f68-9699-42fb-b251-bfc878b0887b"},{"reference":"Patient/37fd9c7e-bf9e-4769-b448-094ed97bd3e8"}]},"request":{"method":"PUT","url":"MeasureReport/b119cb04-ce40-447b-a92a-e02bcaf60250"}},{"resource":{"resourceType":"Bundle","id":"tests-NUMERPass-Lab2is81AfterEncounterEnd-bundle","type":"transaction","entry":[{"fullUrl":"https://madie.cms.gov/Encounter/b547e383-b300-4fba-abd7-2c26672234d4","resource":{"resourceType":"Encounter","id":"b547e383-b300-4fba-abd7-2c26672234d4","meta":{"profile":["http://hl7.org/fhir/us/qicore/StructureDefinition/qicore-encounter"]},"status":"finished","class":{"system":"http://terminology.hl7.org/CodeSystem/v3-ActCode","code":"IMP","display":"Inpatient encounter"},"type":[{"coding":[{"system":"http://snomed.info/sct","code":"183452005","display":"Inpatient encounter"}]}],"period":{"start":"2026-07-11T08:00:00Z","end":"2026-07-16T21:00:00Z"}},"request":{"method":"PUT","url":"Encounter/b547e383-b300-4fba-abd7-2c26672234d4"}},{"fullUrl":"https://madie.cms.gov/MedicationAdministration/e087f9d4-0f35-41ff-850c-334d3d5169f7","resource":{"resourceType":"MedicationAdministration","id":"e087f9d4-0f35-41ff-850c-334d3d5169f7","meta":{"profile":["http://hl7.org/fhir/us/qicore/StructureDefinition/qicore-medicationadministration"]},"status":"completed","medicationCodeableConcept":{"coding":[{"system":"http://www.nlm.nih.gov/research/umls/rxnorm","code":"1653202","display":"Hypoglycemics Severe Hypoglycemia"}]},"subject":{"reference":"Patient/37fd9c7e-bf9e-4769-b448-094ed97bd3e8"},"effectivePeriod":{"start":"2026-07-16T08:00:00Z","end":"2026-07-16T09:00:00Z"}},"request":{"method":"PUT","url":"MedicationAdministration/e087f9d4-0f35-41ff-850c-334d3d5169f7"}},{"fullUrl":"https://madie.cms.gov/Observation/216e0ab5-4e45-4540-9a79-13e541b49bd3","resource":{"resourceType":"Observation","id":"216e0ab5-4e45-4540-9a79-13e541b49bd3","meta":{"profile":["http://hl7.org/fhir/us/qicore/StructureDefinition/qicore-observation-lab"]},"status":"final","code":{"coding":[{"system":"http://loinc.org","code":"1556-0","display":"Glucose Lab Test Mass Per Volume"}]},"subject":{"reference":"Patient/37fd9c7e-bf9e-4769-b448-094ed97bd3e8"},"effectivePeriod":{"start":"2026-07-16T20:58:00Z","end":"2026-07-16T20:58:00Z"},"issued":"2026-07-16T20:58:00Z","valueQuantity":{"value":35,"unit":"mg/dL"}},"request":{"method":"PUT","url":"Observation/216e0ab5-4e45-4540-9a79-13e541b49bd3"}},{"fullUrl":"https://madie.cms.gov/Observation/50ed7f68-9699-42fb-b251-bfc878b0887b","resource":{"resourceType":"Observation","id":"50ed7f68-9699-42fb-b251-bfc878b0887b","meta":{"profile":["http://hl7.org/fhir/us/qicore/StructureDefinition/qicore-observation-lab"]},"status":"final","code":{"coding":[{"system":"http://loinc.org","code":"1556-0","display":"Glucose Lab Test Mass Per Volume"}]},"subject":{"reference":"Patient/37fd9c7e-bf9e-4769-b448-094ed97bd3e8"},"effectivePeriod":{"start":"2026-07-16T21:01:00Z","end":"2026-07-16T21:01:00Z"},"issued":"2026-07-16T21:01:00Z","valueQuantity":{"value":81,"unit":"mg/dL"}},"request":{"method":"PUT","url":"Observation/50ed7f68-9699-42fb-b251-bfc878b0887b"}},{"fullUrl":"https://madie.cms.gov/Patient/37fd9c7e-bf9e-4769-b448-094ed97bd3e8","resource":{"resourceType":"Patient","id":"37fd9c7e-bf9e-4769-b448-094ed97bd3e8","meta":{"profile":["http://hl7.org/fhir/us/qicore/StructureDefinition/qicore-patient"]},"extension":[{"url":"http://hl7.org/fhir/us/core/StructureDefinition/us-core-race","extension":[{"url":"ombCategory","valueCoding":{"system":"urn:oid:2.16.840.1.113883.6.238","code":"2106-3","display":"White"}},{"url":"text","valueString":"White"}]},{"url":"http://hl7.org/fhir/us/core/StructureDefinition/us-core-ethnicity","extension":[{"url":"ombCategory","valueCoding":{"system":"urn:oid:2.16.840.1.113883.6.238","code":"2135-2","display":"Hispanic or Latino"}},{"url":"text","valueString":"Hispanic or Latino"}]},{"url":"http://hl7.org/fhir/us/core/StructureDefinition/us-core-sex","valueCode":"248153007"}],"identifier":[{"system":"http://hospital.smarthealthit.org","value":"999999999"}],"name":[{"family":"Example","given":["Patient"]}],"gender":"female","birthDate":"2000-07-11"},"request":{"method":"PUT","url":"Patient/37fd9c7e-bf9e-4769-b448-094ed97bd3e8"}},{"fullUrl":"https://madie.cms.gov/MeasureReport/b119cb04-ce40-447b-a92a-e02bcaf60250","resource":{"resourceType":"MeasureReport","id":"b119cb04-ce40-447b-a92a-e02bcaf60250","meta":{"profile":["http://hl7.org/fhir/us/cqfmeasures/StructureDefinition/test-case-cqfm"]},"contained":[{"resourceType":"Parameters","id":"d6930428-de1d-45b4-ac95-baf5f0f593a6-parameters","parameter":[{"name":"subject","valueString":"37fd9c7e-bf9e-4769-b448-094ed97bd3e8"}]}],"extension":[{"url":"http://hl7.org/fhir/StructureDefinition/cqf-inputParameters","valueReference":{"reference":"#d6930428-de1d-45b4-ac95-baf5f0f593a6-parameters"}},{"url":"http://hl7.org/fhir/us/cqfmeasures/StructureDefinition/cqfm-testCaseDescription","valueMarkdown":"Encounter ends 7/16 at 9pm. Hypo med given. Lab test 1 with result done 7/16 at 8:58pm within 24 hours of med = 35. Lab test 2 with result done 3 minutes later at 9:01pm (1 minute after discharge ) = 81. Numerator pass since high result is after enc"}],"modifierExtension":[{"url":"http://hl7.org/fhir/us/cqfmeasures/StructureDefinition/cqfm-isTestCase","valueBoolean":true}],"status":"complete","type":"individual","measure":"https://madie.cms.gov/Measure/CMS816FHIRHHHypo","period":{"start":"2026-01-01","end":"2026-12-31"},"group":[{"id":"Group_1","population":[{"id":"InitialPopulation_1","code":{"coding":[{"system":"http://terminology.hl7.org/CodeSystem/measure-population","code":"initial-population","display":"Initial Population"}]},"count":1},{"id":"Denominator_1","code":{"coding":[{"system":"http://terminology.hl7.org/CodeSystem/measure-population","code":"denominator","display":"Denominator"}]},"count":1},{"id":"Numerator_1","code":{"coding":[{"system":"http://terminology.hl7.org/CodeSystem/measure-population","code":"numerator","display":"Numerator"}]},"count":1}],"measureScore":{"value":0.0}}],"evaluatedResource":[{"reference":"Encounter/b547e383-b300-4fba-abd7-2c26672234d4"},{"reference":"MedicationAdministration/e087f9d4-0f35-41ff-850c-334d3d5169f7"},{"reference":"Observation/216e0ab5-4e45-4540-9a79-13e541b49bd3"},{"reference":"Observation/50ed7f68-9699-42fb-b251-bfc878b0887b"},{"reference":"Patient/37fd9c7e-bf9e-4769-b448-094ed97bd3e8"}]},"request":{"method":"PUT","url":"MeasureReport/b119cb04-ce40-447b-a92a-e02bcaf60250"}}]},"request":{"method":"PUT","url":"Bundle/tests-NUMERPass-Lab2is81AfterEncounterEnd-bundle"}},{"resource":{"resourceType":"Observation","id":"216e0ab5-4e45-4540-9a79-13e541b49bd3","meta":{"profile":["http://hl7.org/fhir/us/qicore/StructureDefinition/qicore-observation-lab"]},"status":"final","code":{"coding":[{"system":"http://loinc.org","code":"1556-0","display":"Glucose Lab Test Mass Per Volume"}]},"subject":{"reference":"Patient/37fd9c7e-bf9e-4769-b448-094ed97bd3e8"},"effectivePeriod":{"start":"2026-07-16T20:58:00Z","end":"2026-07-16T20:58:00Z"},"issued":"2026-07-16T20:58:00Z","valueQuantity":{"value":35,"unit":"mg/dL"}},"request":{"method":"PUT","url":"Observation/216e0ab5-4e45-4540-9a79-13e541b49bd3"}}]}