{"resourceType":"Bundle","id":"tests-7cb05de4-6b74-4ce5-a2ea-be59635a74f6-bundle","type":"transaction","entry":[{"resource":{"resourceType":"Observation","id":"ba7808a7-ad9c-4838-9514-fa0c83f88999","meta":{"profile":["http://hl7.org/fhir/us/qicore/StructureDefinition/qicore-observation-lab"]},"status":"final","category":[{"coding":[{"system":"http://terminology.hl7.org/CodeSystem/observation-category","code":"laboratory","display":"Laboratory"}]}],"code":{"coding":[{"system":"http://loinc.org","code":"1556-0","display":"Fasting glucose [Mass/volume] in Capillary blood"}]},"subject":{"reference":"Patient/7cb05de4-6b74-4ce5-a2ea-be59635a74f6"},"effectivePeriod":{"start":"2026-12-16T08:00:00Z","end":"2026-12-16T08:00:00Z"},"issued":"2026-12-16T08:00:00Z","valueQuantity":{"value":39.9,"unit":"mg/dL"}},"request":{"method":"PUT","url":"Observation/ba7808a7-ad9c-4838-9514-fa0c83f88999"}},{"resource":{"resourceType":"MedicationAdministration","id":"dbc0a9aa-e10d-485a-8bb2-a7ea533b20f3","meta":{"profile":["http://hl7.org/fhir/us/qicore/StructureDefinition/qicore-medicationadministration"]},"status":"completed","medicationCodeableConcept":{"coding":[{"system":"http://www.nlm.nih.gov/research/umls/rxnorm","code":"1543202","display":"insulin, regular, human 4 UNT Inhalation Powder"}]},"subject":{"reference":"Patient/7cb05de4-6b74-4ce5-a2ea-be59635a74f6"},"effectivePeriod":{"start":"2026-12-16T08:00:00Z","end":"2026-12-16T09:00:00Z"}},"request":{"method":"PUT","url":"MedicationAdministration/dbc0a9aa-e10d-485a-8bb2-a7ea533b20f3"}},{"resource":{"resourceType":"Encounter","id":"9a65b89b-c7fb-4980-a0df-398fb5a6dfe9","meta":{"profile":["http://hl7.org/fhir/us/qicore/StructureDefinition/qicore-encounter"]},"status":"finished","class":{"system":"http://terminology.hl7.org/CodeSystem/v3-ActCode","code":"IMP","display":"Inpatient encounter"},"type":[{"coding":[{"system":"http://snomed.info/sct","code":"183452005","display":"Emergency hospital admission"}]}],"subject":{"reference":"Patient/7cb05de4-6b74-4ce5-a2ea-be59635a74f6"},"period":{"start":"2026-12-16T08:00:00Z","end":"2026-12-19T09:00:00Z"}},"request":{"method":"PUT","url":"Encounter/9a65b89b-c7fb-4980-a0df-398fb5a6dfe9"}},{"resource":{"resourceType":"MeasureReport","id":"d7fc3634-5131-4ce9-902d-7d948dafb62a","meta":{"profile":["http://hl7.org/fhir/us/cqfmeasures/StructureDefinition/test-case-cqfm"]},"contained":[{"resourceType":"Parameters","id":"92acc31a-3e89-48f2-bb3a-edfb1c4265bb-parameters","parameter":[{"name":"subject","valueString":"7cb05de4-6b74-4ce5-a2ea-be59635a74f6"}]}],"extension":[{"url":"http://hl7.org/fhir/StructureDefinition/cqf-inputParameters","valueReference":{"reference":"#92acc31a-3e89-48f2-bb3a-edfb1c4265bb-parameters"}},{"url":"http://hl7.org/fhir/us/cqfmeasures/StructureDefinition/cqfm-testCaseDescription","valueMarkdown":"IP Encounter with med. Lab LT 40, followed by lab LT 80 within 5 minutes. Meets Numerator. "}],"modifierExtension":[{"url":"http://hl7.org/fhir/us/cqfmeasures/StructureDefinition/cqfm-isTestCase","valueBoolean":true}],"status":"complete","type":"individual","measure":"https://madie.cms.gov/Measure/CMS816FHIRHHHypo","period":{"start":"2026-01-01","end":"2026-12-31"},"group":[{"id":"Group_1","population":[{"id":"InitialPopulation_1","code":{"coding":[{"system":"http://terminology.hl7.org/CodeSystem/measure-population","code":"initial-population","display":"Initial Population"}]},"count":1},{"id":"Denominator_1","code":{"coding":[{"system":"http://terminology.hl7.org/CodeSystem/measure-population","code":"denominator","display":"Denominator"}]},"count":1},{"id":"Numerator_1","code":{"coding":[{"system":"http://terminology.hl7.org/CodeSystem/measure-population","code":"numerator","display":"Numerator"}]},"count":1}],"measureScore":{"value":0.0}}],"evaluatedResource":[{"reference":"Encounter/9a65b89b-c7fb-4980-a0df-398fb5a6dfe9"},{"reference":"MedicationAdministration/dbc0a9aa-e10d-485a-8bb2-a7ea533b20f3"},{"reference":"Observation/ba7808a7-ad9c-4838-9514-fa0c83f88999"},{"reference":"Observation/7303b216-c95f-45ad-b7b7-70a216b0f33c"},{"reference":"Patient/7cb05de4-6b74-4ce5-a2ea-be59635a74f6"}]},"request":{"method":"PUT","url":"MeasureReport/d7fc3634-5131-4ce9-902d-7d948dafb62a"}},{"resource":{"resourceType":"Bundle","id":"tests-NUMERPass-LabLT80within5minutes-bundle","type":"transaction","entry":[{"fullUrl":"https://madie.cms.gov/Encounter/9a65b89b-c7fb-4980-a0df-398fb5a6dfe9","resource":{"resourceType":"Encounter","id":"9a65b89b-c7fb-4980-a0df-398fb5a6dfe9","meta":{"profile":["http://hl7.org/fhir/us/qicore/StructureDefinition/qicore-encounter"]},"status":"finished","class":{"system":"http://terminology.hl7.org/CodeSystem/v3-ActCode","code":"IMP","display":"Inpatient encounter"},"type":[{"coding":[{"system":"http://snomed.info/sct","code":"183452005","display":"Emergency hospital admission"}]}],"subject":{"reference":"Patient/7cb05de4-6b74-4ce5-a2ea-be59635a74f6"},"period":{"start":"2026-12-16T08:00:00Z","end":"2026-12-19T09:00:00Z"}},"request":{"method":"PUT","url":"Encounter/9a65b89b-c7fb-4980-a0df-398fb5a6dfe9"}},{"fullUrl":"https://madie.cms.gov/MedicationAdministration/dbc0a9aa-e10d-485a-8bb2-a7ea533b20f3","resource":{"resourceType":"MedicationAdministration","id":"dbc0a9aa-e10d-485a-8bb2-a7ea533b20f3","meta":{"profile":["http://hl7.org/fhir/us/qicore/StructureDefinition/qicore-medicationadministration"]},"status":"completed","medicationCodeableConcept":{"coding":[{"system":"http://www.nlm.nih.gov/research/umls/rxnorm","code":"1543202","display":"insulin, regular, human 4 UNT Inhalation Powder"}]},"subject":{"reference":"Patient/7cb05de4-6b74-4ce5-a2ea-be59635a74f6"},"effectivePeriod":{"start":"2026-12-16T08:00:00Z","end":"2026-12-16T09:00:00Z"}},"request":{"method":"PUT","url":"MedicationAdministration/dbc0a9aa-e10d-485a-8bb2-a7ea533b20f3"}},{"fullUrl":"https://madie.cms.gov/Observation/ba7808a7-ad9c-4838-9514-fa0c83f88999","resource":{"resourceType":"Observation","id":"ba7808a7-ad9c-4838-9514-fa0c83f88999","meta":{"profile":["http://hl7.org/fhir/us/qicore/StructureDefinition/qicore-observation-lab"]},"status":"final","category":[{"coding":[{"system":"http://terminology.hl7.org/CodeSystem/observation-category","code":"laboratory","display":"Laboratory"}]}],"code":{"coding":[{"system":"http://loinc.org","code":"1556-0","display":"Fasting glucose [Mass/volume] in Capillary blood"}]},"subject":{"reference":"Patient/7cb05de4-6b74-4ce5-a2ea-be59635a74f6"},"effectivePeriod":{"start":"2026-12-16T08:00:00Z","end":"2026-12-16T08:00:00Z"},"issued":"2026-12-16T08:00:00Z","valueQuantity":{"value":39.9,"unit":"mg/dL"}},"request":{"method":"PUT","url":"Observation/ba7808a7-ad9c-4838-9514-fa0c83f88999"}},{"fullUrl":"https://madie.cms.gov/Observation/7303b216-c95f-45ad-b7b7-70a216b0f33c","resource":{"resourceType":"Observation","id":"7303b216-c95f-45ad-b7b7-70a216b0f33c","meta":{"profile":["http://hl7.org/fhir/us/qicore/StructureDefinition/qicore-observation-lab"]},"status":"final","category":[{"coding":[{"system":"http://terminology.hl7.org/CodeSystem/observation-category","code":"laboratory","display":"Laboratory"}]}],"code":{"coding":[{"system":"http://loinc.org","code":"1556-0","display":"Fasting glucose [Mass/volume] in Capillary blood"}]},"subject":{"reference":"Patient/7cb05de4-6b74-4ce5-a2ea-be59635a74f6"},"effectivePeriod":{"start":"2026-12-16T08:05:00Z","end":"2026-12-16T08:05:00Z"},"issued":"2026-12-16T08:05:00Z","valueQuantity":{"value":70,"unit":"mg/dL"}},"request":{"method":"PUT","url":"Observation/7303b216-c95f-45ad-b7b7-70a216b0f33c"}},{"fullUrl":"https://madie.cms.gov/Patient/7cb05de4-6b74-4ce5-a2ea-be59635a74f6","resource":{"resourceType":"Patient","id":"7cb05de4-6b74-4ce5-a2ea-be59635a74f6","meta":{"profile":["http://hl7.org/fhir/us/qicore/StructureDefinition/qicore-patient"]},"extension":[{"url":"http://hl7.org/fhir/us/core/StructureDefinition/us-core-race","extension":[{"url":"ombCategory","valueCoding":{"system":"urn:oid:2.16.840.1.113883.6.238","code":"2106-3","display":"White"}},{"url":"text","valueString":"White"}]},{"url":"http://hl7.org/fhir/us/core/StructureDefinition/us-core-ethnicity","extension":[{"url":"ombCategory","valueCoding":{"system":"urn:oid:2.16.840.1.113883.6.238","code":"2135-2","display":"Hispanic or Latino"}},{"url":"text","valueString":"Hispanic or Latino"}]},{"url":"http://hl7.org/fhir/us/core/StructureDefinition/us-core-sex","valueCode":"248153007"}],"identifier":[{"system":"http://hospital.smarthealthit.org","value":"999999999"}],"name":[{"family":"Example","given":["Patient"]}],"gender":"female","birthDate":"2000-07-11"},"request":{"method":"PUT","url":"Patient/7cb05de4-6b74-4ce5-a2ea-be59635a74f6"}},{"fullUrl":"https://madie.cms.gov/MeasureReport/d7fc3634-5131-4ce9-902d-7d948dafb62a","resource":{"resourceType":"MeasureReport","id":"d7fc3634-5131-4ce9-902d-7d948dafb62a","meta":{"profile":["http://hl7.org/fhir/us/cqfmeasures/StructureDefinition/test-case-cqfm"]},"contained":[{"resourceType":"Parameters","id":"92acc31a-3e89-48f2-bb3a-edfb1c4265bb-parameters","parameter":[{"name":"subject","valueString":"7cb05de4-6b74-4ce5-a2ea-be59635a74f6"}]}],"extension":[{"url":"http://hl7.org/fhir/StructureDefinition/cqf-inputParameters","valueReference":{"reference":"#92acc31a-3e89-48f2-bb3a-edfb1c4265bb-parameters"}},{"url":"http://hl7.org/fhir/us/cqfmeasures/StructureDefinition/cqfm-testCaseDescription","valueMarkdown":"IP Encounter with med. Lab LT 40, followed by lab LT 80 within 5 minutes. Meets Numerator. "}],"modifierExtension":[{"url":"http://hl7.org/fhir/us/cqfmeasures/StructureDefinition/cqfm-isTestCase","valueBoolean":true}],"status":"complete","type":"individual","measure":"https://madie.cms.gov/Measure/CMS816FHIRHHHypo","period":{"start":"2026-01-01","end":"2026-12-31"},"group":[{"id":"Group_1","population":[{"id":"InitialPopulation_1","code":{"coding":[{"system":"http://terminology.hl7.org/CodeSystem/measure-population","code":"initial-population","display":"Initial Population"}]},"count":1},{"id":"Denominator_1","code":{"coding":[{"system":"http://terminology.hl7.org/CodeSystem/measure-population","code":"denominator","display":"Denominator"}]},"count":1},{"id":"Numerator_1","code":{"coding":[{"system":"http://terminology.hl7.org/CodeSystem/measure-population","code":"numerator","display":"Numerator"}]},"count":1}],"measureScore":{"value":0.0}}],"evaluatedResource":[{"reference":"Encounter/9a65b89b-c7fb-4980-a0df-398fb5a6dfe9"},{"reference":"MedicationAdministration/dbc0a9aa-e10d-485a-8bb2-a7ea533b20f3"},{"reference":"Observation/ba7808a7-ad9c-4838-9514-fa0c83f88999"},{"reference":"Observation/7303b216-c95f-45ad-b7b7-70a216b0f33c"},{"reference":"Patient/7cb05de4-6b74-4ce5-a2ea-be59635a74f6"}]},"request":{"method":"PUT","url":"MeasureReport/d7fc3634-5131-4ce9-902d-7d948dafb62a"}}]},"request":{"method":"PUT","url":"Bundle/tests-NUMERPass-LabLT80within5minutes-bundle"}},{"resource":{"resourceType":"Patient","id":"7cb05de4-6b74-4ce5-a2ea-be59635a74f6","meta":{"profile":["http://hl7.org/fhir/us/qicore/StructureDefinition/qicore-patient"]},"extension":[{"url":"http://hl7.org/fhir/us/core/StructureDefinition/us-core-race","extension":[{"url":"ombCategory","valueCoding":{"system":"urn:oid:2.16.840.1.113883.6.238","code":"2106-3","display":"White"}},{"url":"text","valueString":"White"}]},{"url":"http://hl7.org/fhir/us/core/StructureDefinition/us-core-ethnicity","extension":[{"url":"ombCategory","valueCoding":{"system":"urn:oid:2.16.840.1.113883.6.238","code":"2135-2","display":"Hispanic or Latino"}},{"url":"text","valueString":"Hispanic or Latino"}]},{"url":"http://hl7.org/fhir/us/core/StructureDefinition/us-core-sex","valueCode":"248153007"}],"identifier":[{"system":"http://hospital.smarthealthit.org","value":"999999999"}],"name":[{"family":"Example","given":["Patient"]}],"gender":"female","birthDate":"2000-07-11"},"request":{"method":"PUT","url":"Patient/7cb05de4-6b74-4ce5-a2ea-be59635a74f6"}},{"resource":{"resourceType":"Observation","id":"7303b216-c95f-45ad-b7b7-70a216b0f33c","meta":{"profile":["http://hl7.org/fhir/us/qicore/StructureDefinition/qicore-observation-lab"]},"status":"final","category":[{"coding":[{"system":"http://terminology.hl7.org/CodeSystem/observation-category","code":"laboratory","display":"Laboratory"}]}],"code":{"coding":[{"system":"http://loinc.org","code":"1556-0","display":"Fasting glucose [Mass/volume] in Capillary blood"}]},"subject":{"reference":"Patient/7cb05de4-6b74-4ce5-a2ea-be59635a74f6"},"effectivePeriod":{"start":"2026-12-16T08:05:00Z","end":"2026-12-16T08:05:00Z"},"issued":"2026-12-16T08:05:00Z","valueQuantity":{"value":70,"unit":"mg/dL"}},"request":{"method":"PUT","url":"Observation/7303b216-c95f-45ad-b7b7-70a216b0f33c"}}]}