{"resourceType":"Bundle","id":"tests-1d298cf0-aa38-4943-ba4c-f7209cf59e63-bundle","type":"transaction","entry":[{"resource":{"resourceType":"Observation","id":"ecdf3e80-7336-46e6-b0d4-641617af7c4a","meta":{"profile":["http://hl7.org/fhir/us/qicore/StructureDefinition/qicore-observation-lab"]},"status":"final","category":[{"coding":[{"system":"http://terminology.hl7.org/CodeSystem/observation-category","code":"laboratory","display":"Laboratory"}]}],"code":{"coding":[{"system":"http://loinc.org","code":"1556-0","display":"Fasting glucose [Mass/volume] in Capillary blood"}]},"subject":{"reference":"Patient/1d298cf0-aa38-4943-ba4c-f7209cf59e63"},"effectivePeriod":{"start":"2026-07-11T08:00:00Z","end":"2026-07-11T08:00:00Z"},"issued":"2026-07-11T08:00:00Z","valueQuantity":{"value":35,"unit":"mg/dL"}},"request":{"method":"PUT","url":"Observation/ecdf3e80-7336-46e6-b0d4-641617af7c4a"}},{"resource":{"resourceType":"Encounter","id":"901176bb-cfa4-4fbe-a1cc-36eef09bb4fd","meta":{"profile":["http://hl7.org/fhir/us/qicore/StructureDefinition/qicore-encounter"]},"status":"finished","class":{"system":"http://terminology.hl7.org/CodeSystem/v3-ActCode","code":"IMP","display":"Inpatient encounter"},"type":[{"coding":[{"system":"http://snomed.info/sct","code":"183452005","display":"Emergency hospital admission"}]}],"subject":{"reference":"Patient/1d298cf0-aa38-4943-ba4c-f7209cf59e63"},"period":{"start":"2026-07-11T08:00:00Z","end":"2026-07-16T21:00:00Z"}},"request":{"method":"PUT","url":"Encounter/901176bb-cfa4-4fbe-a1cc-36eef09bb4fd"}},{"resource":{"resourceType":"Patient","id":"1d298cf0-aa38-4943-ba4c-f7209cf59e63","meta":{"profile":["http://hl7.org/fhir/us/qicore/StructureDefinition/qicore-patient"]},"identifier":[{"use":"official","system":"http://hospital.smarthealthit.or","value":"12345"}],"name":[{"use":"official","family":"Doe","given":["John"]}],"gender":"male","birthDate":"1980-01-01"},"request":{"method":"PUT","url":"Patient/1d298cf0-aa38-4943-ba4c-f7209cf59e63"}},{"resource":{"resourceType":"Observation","id":"29609f64-397b-4f4a-a996-bc791738d459","meta":{"profile":["http://hl7.org/fhir/us/qicore/StructureDefinition/qicore-observation-lab"]},"status":"final","category":[{"coding":[{"system":"http://terminology.hl7.org/CodeSystem/observation-category","code":"laboratory","display":"Laboratory"}]}],"code":{"coding":[{"system":"http://loinc.org","code":"1556-0","display":"Fasting glucose [Mass/volume] in Capillary blood"}]},"subject":{"reference":"Patient/1d298cf0-aa38-4943-ba4c-f7209cf59e63"},"effectivePeriod":{"start":"2026-07-11T08:05:00Z","end":"2026-07-11T08:05:00Z"},"issued":"2026-07-11T08:05:00Z","valueQuantity":{"value":80,"unit":"mg/dL"}},"request":{"method":"PUT","url":"Observation/29609f64-397b-4f4a-a996-bc791738d459"}},{"resource":{"resourceType":"Bundle","id":"tests-NUMERPass-LabTest2Equals80-bundle","type":"transaction","entry":[{"fullUrl":"https://madie.cms.gov/Patient/1d298cf0-aa38-4943-ba4c-f7209cf59e63","resource":{"resourceType":"Patient","id":"1d298cf0-aa38-4943-ba4c-f7209cf59e63","meta":{"profile":["http://hl7.org/fhir/us/qicore/StructureDefinition/qicore-patient"]},"identifier":[{"use":"official","system":"http://hospital.smarthealthit.or","value":"12345"}],"name":[{"use":"official","family":"Doe","given":["John"]}],"gender":"male","birthDate":"1980-01-01"},"request":{"method":"PUT","url":"Patient/1d298cf0-aa38-4943-ba4c-f7209cf59e63"}},{"fullUrl":"https://madie.cms.gov/Encounter/901176bb-cfa4-4fbe-a1cc-36eef09bb4fd","resource":{"resourceType":"Encounter","id":"901176bb-cfa4-4fbe-a1cc-36eef09bb4fd","meta":{"profile":["http://hl7.org/fhir/us/qicore/StructureDefinition/qicore-encounter"]},"status":"finished","class":{"system":"http://terminology.hl7.org/CodeSystem/v3-ActCode","code":"IMP","display":"Inpatient encounter"},"type":[{"coding":[{"system":"http://snomed.info/sct","code":"183452005","display":"Emergency hospital admission"}]}],"subject":{"reference":"Patient/1d298cf0-aa38-4943-ba4c-f7209cf59e63"},"period":{"start":"2026-07-11T08:00:00Z","end":"2026-07-16T21:00:00Z"}},"request":{"method":"PUT","url":"Encounter/901176bb-cfa4-4fbe-a1cc-36eef09bb4fd"}},{"fullUrl":"https://madie.cms.gov/MedicationAdministration/9650d77a-62d7-4208-a791-ff5ead261b3b","resource":{"resourceType":"MedicationAdministration","id":"9650d77a-62d7-4208-a791-ff5ead261b3b","meta":{"profile":["http://hl7.org/fhir/us/qicore/StructureDefinition/qicore-medicationadministration"]},"status":"completed","medicationCodeableConcept":{"coding":[{"system":"http://www.nlm.nih.gov/research/umls/rxnorm","code":"1653202","display":"3 ML insulin aspart, human 100 UNT/ML Pen Injector"}]},"subject":{"reference":"Patient/1d298cf0-aa38-4943-ba4c-f7209cf59e63"},"effectivePeriod":{"start":"2026-07-11T08:00:00Z","end":"2026-07-11T09:00:00Z"}},"request":{"method":"PUT","url":"MedicationAdministration/9650d77a-62d7-4208-a791-ff5ead261b3b"}},{"fullUrl":"https://madie.cms.gov/Observation/ecdf3e80-7336-46e6-b0d4-641617af7c4a","resource":{"resourceType":"Observation","id":"ecdf3e80-7336-46e6-b0d4-641617af7c4a","meta":{"profile":["http://hl7.org/fhir/us/qicore/StructureDefinition/qicore-observation-lab"]},"status":"final","category":[{"coding":[{"system":"http://terminology.hl7.org/CodeSystem/observation-category","code":"laboratory","display":"Laboratory"}]}],"code":{"coding":[{"system":"http://loinc.org","code":"1556-0","display":"Fasting glucose [Mass/volume] in Capillary blood"}]},"subject":{"reference":"Patient/1d298cf0-aa38-4943-ba4c-f7209cf59e63"},"effectivePeriod":{"start":"2026-07-11T08:00:00Z","end":"2026-07-11T08:00:00Z"},"issued":"2026-07-11T08:00:00Z","valueQuantity":{"value":35,"unit":"mg/dL"}},"request":{"method":"PUT","url":"Observation/ecdf3e80-7336-46e6-b0d4-641617af7c4a"}},{"fullUrl":"https://madie.cms.gov/Observation/29609f64-397b-4f4a-a996-bc791738d459","resource":{"resourceType":"Observation","id":"29609f64-397b-4f4a-a996-bc791738d459","meta":{"profile":["http://hl7.org/fhir/us/qicore/StructureDefinition/qicore-observation-lab"]},"status":"final","category":[{"coding":[{"system":"http://terminology.hl7.org/CodeSystem/observation-category","code":"laboratory","display":"Laboratory"}]}],"code":{"coding":[{"system":"http://loinc.org","code":"1556-0","display":"Fasting glucose [Mass/volume] in Capillary blood"}]},"subject":{"reference":"Patient/1d298cf0-aa38-4943-ba4c-f7209cf59e63"},"effectivePeriod":{"start":"2026-07-11T08:05:00Z","end":"2026-07-11T08:05:00Z"},"issued":"2026-07-11T08:05:00Z","valueQuantity":{"value":80,"unit":"mg/dL"}},"request":{"method":"PUT","url":"Observation/29609f64-397b-4f4a-a996-bc791738d459"}},{"fullUrl":"https://madie.cms.gov/MeasureReport/da2ddce0-f936-4628-b9d4-6f145914e619","resource":{"resourceType":"MeasureReport","id":"da2ddce0-f936-4628-b9d4-6f145914e619","meta":{"profile":["http://hl7.org/fhir/us/cqfmeasures/StructureDefinition/test-case-cqfm"]},"contained":[{"resourceType":"Parameters","id":"f8bd63f8-83a0-4001-8d8c-309c77496721-parameters","parameter":[{"name":"subject","valueString":"1d298cf0-aa38-4943-ba4c-f7209cf59e63"}]}],"extension":[{"url":"http://hl7.org/fhir/StructureDefinition/cqf-inputParameters","valueReference":{"reference":"#f8bd63f8-83a0-4001-8d8c-309c77496721-parameters"}},{"url":"http://hl7.org/fhir/us/cqfmeasures/StructureDefinition/cqfm-testCaseDescription","valueMarkdown":"Encounter, meds administered, lab test 1 = 35, lab 2 result = exactly 80 within 5 minutes of first lab. "}],"modifierExtension":[{"url":"http://hl7.org/fhir/us/cqfmeasures/StructureDefinition/cqfm-isTestCase","valueBoolean":true}],"status":"complete","type":"individual","measure":"https://madie.cms.gov/Measure/CMS816FHIRHHHypo","period":{"start":"2026-01-01","end":"2026-12-31"},"group":[{"id":"Group_1","population":[{"id":"InitialPopulation_1","code":{"coding":[{"system":"http://terminology.hl7.org/CodeSystem/measure-population","code":"initial-population","display":"Initial Population"}]},"count":1},{"id":"Denominator_1","code":{"coding":[{"system":"http://terminology.hl7.org/CodeSystem/measure-population","code":"denominator","display":"Denominator"}]},"count":1},{"id":"Numerator_1","code":{"coding":[{"system":"http://terminology.hl7.org/CodeSystem/measure-population","code":"numerator","display":"Numerator"}]},"count":1}],"measureScore":{"value":0.0}}],"evaluatedResource":[{"reference":"Patient/1d298cf0-aa38-4943-ba4c-f7209cf59e63"},{"reference":"Encounter/901176bb-cfa4-4fbe-a1cc-36eef09bb4fd"},{"reference":"MedicationAdministration/9650d77a-62d7-4208-a791-ff5ead261b3b"},{"reference":"Observation/ecdf3e80-7336-46e6-b0d4-641617af7c4a"},{"reference":"Observation/29609f64-397b-4f4a-a996-bc791738d459"}]},"request":{"method":"PUT","url":"MeasureReport/da2ddce0-f936-4628-b9d4-6f145914e619"}}]},"request":{"method":"PUT","url":"Bundle/tests-NUMERPass-LabTest2Equals80-bundle"}},{"resource":{"resourceType":"MeasureReport","id":"da2ddce0-f936-4628-b9d4-6f145914e619","meta":{"profile":["http://hl7.org/fhir/us/cqfmeasures/StructureDefinition/test-case-cqfm"]},"contained":[{"resourceType":"Parameters","id":"f8bd63f8-83a0-4001-8d8c-309c77496721-parameters","parameter":[{"name":"subject","valueString":"1d298cf0-aa38-4943-ba4c-f7209cf59e63"}]}],"extension":[{"url":"http://hl7.org/fhir/StructureDefinition/cqf-inputParameters","valueReference":{"reference":"#f8bd63f8-83a0-4001-8d8c-309c77496721-parameters"}},{"url":"http://hl7.org/fhir/us/cqfmeasures/StructureDefinition/cqfm-testCaseDescription","valueMarkdown":"Encounter, meds administered, lab test 1 = 35, lab 2 result = exactly 80 within 5 minutes of first lab. "}],"modifierExtension":[{"url":"http://hl7.org/fhir/us/cqfmeasures/StructureDefinition/cqfm-isTestCase","valueBoolean":true}],"status":"complete","type":"individual","measure":"https://madie.cms.gov/Measure/CMS816FHIRHHHypo","period":{"start":"2026-01-01","end":"2026-12-31"},"group":[{"id":"Group_1","population":[{"id":"InitialPopulation_1","code":{"coding":[{"system":"http://terminology.hl7.org/CodeSystem/measure-population","code":"initial-population","display":"Initial Population"}]},"count":1},{"id":"Denominator_1","code":{"coding":[{"system":"http://terminology.hl7.org/CodeSystem/measure-population","code":"denominator","display":"Denominator"}]},"count":1},{"id":"Numerator_1","code":{"coding":[{"system":"http://terminology.hl7.org/CodeSystem/measure-population","code":"numerator","display":"Numerator"}]},"count":1}],"measureScore":{"value":0.0}}],"evaluatedResource":[{"reference":"Patient/1d298cf0-aa38-4943-ba4c-f7209cf59e63"},{"reference":"Encounter/901176bb-cfa4-4fbe-a1cc-36eef09bb4fd"},{"reference":"MedicationAdministration/9650d77a-62d7-4208-a791-ff5ead261b3b"},{"reference":"Observation/ecdf3e80-7336-46e6-b0d4-641617af7c4a"},{"reference":"Observation/29609f64-397b-4f4a-a996-bc791738d459"}]},"request":{"method":"PUT","url":"MeasureReport/da2ddce0-f936-4628-b9d4-6f145914e619"}},{"resource":{"resourceType":"MedicationAdministration","id":"9650d77a-62d7-4208-a791-ff5ead261b3b","meta":{"profile":["http://hl7.org/fhir/us/qicore/StructureDefinition/qicore-medicationadministration"]},"status":"completed","medicationCodeableConcept":{"coding":[{"system":"http://www.nlm.nih.gov/research/umls/rxnorm","code":"1653202","display":"3 ML insulin aspart, human 100 UNT/ML Pen Injector"}]},"subject":{"reference":"Patient/1d298cf0-aa38-4943-ba4c-f7209cf59e63"},"effectivePeriod":{"start":"2026-07-11T08:00:00Z","end":"2026-07-11T09:00:00Z"}},"request":{"method":"PUT","url":"MedicationAdministration/9650d77a-62d7-4208-a791-ff5ead261b3b"}}]}