{"resourceType":"Bundle","id":"tests-3fdd92df-f418-45ef-93a6-920e3d813f32-bundle","type":"transaction","entry":[{"resource":{"resourceType":"Patient","id":"3fdd92df-f418-45ef-93a6-920e3d813f32","meta":{"profile":["http://hl7.org/fhir/us/qicore/StructureDefinition/qicore-patient"]},"identifier":[{"use":"official","system":"http://hospital.smarthealthit.org","value":"12345"}],"name":[{"use":"official","family":"Doe","given":["John"]}],"gender":"male","birthDate":"1980-01-01"},"request":{"method":"PUT","url":"Patient/3fdd92df-f418-45ef-93a6-920e3d813f32"}},{"resource":{"resourceType":"MeasureReport","id":"8313aca7-2dee-44e8-94d8-294b0b6cda48","meta":{"profile":["http://hl7.org/fhir/us/cqfmeasures/StructureDefinition/test-case-cqfm"]},"contained":[{"resourceType":"Parameters","id":"f9ae2f61-9672-4767-85df-d96ea1f26fe4-parameters","parameter":[{"name":"subject","valueString":"3fdd92df-f418-45ef-93a6-920e3d813f32"}]}],"extension":[{"url":"http://hl7.org/fhir/StructureDefinition/cqf-inputParameters","valueReference":{"reference":"#f9ae2f61-9672-4767-85df-d96ea1f26fe4-parameters"}},{"url":"http://hl7.org/fhir/us/cqfmeasures/StructureDefinition/cqfm-testCaseDescription","valueMarkdown":"1st IP Encounter with med. Lab LT 40, followed by lab LT 80 within 5 minutes. Meets Numerator. 2nd enc starts in ED. Has lab LT 40 followed by lab GT 80 within 5 minutes. Does not meet numerator. IPP/Denom = 2, Num = 1"}],"modifierExtension":[{"url":"http://hl7.org/fhir/us/cqfmeasures/StructureDefinition/cqfm-isTestCase","valueBoolean":true}],"status":"complete","type":"individual","measure":"https://madie.cms.gov/Measure/CMS816FHIRHHHypo","period":{"start":"2026-01-01","end":"2026-12-31"},"group":[{"id":"Group_1","population":[{"id":"InitialPopulation_1","code":{"coding":[{"system":"http://terminology.hl7.org/CodeSystem/measure-population","code":"initial-population","display":"Initial Population"}]},"count":2},{"id":"Denominator_1","code":{"coding":[{"system":"http://terminology.hl7.org/CodeSystem/measure-population","code":"denominator","display":"Denominator"}]},"count":2},{"id":"Numerator_1","code":{"coding":[{"system":"http://terminology.hl7.org/CodeSystem/measure-population","code":"numerator","display":"Numerator"}]},"count":1}],"measureScore":{"value":0.0}}],"evaluatedResource":[{"reference":"Patient/3fdd92df-f418-45ef-93a6-920e3d813f32"},{"reference":"Encounter/c0ed53c9-8eed-494c-9b89-7deb1408cf77"},{"reference":"MedicationAdministration/c9688d0f-3b1f-4093-9b42-2df73e9f2517"},{"reference":"Observation/c574871c-52ed-48ab-b5f8-11495e0c84dc"},{"reference":"Observation/e90b30c9-2436-4567-b088-cf18048d2aea"},{"reference":"Encounter/14534a65-5a70-44a3-96e1-56eeedca2393"},{"reference":"Encounter/c2568e0c-79ed-493e-9a40-8b853170fb8b"},{"reference":"MedicationAdministration/c2ab11af-525d-43ff-8a7b-bc58f174a773"},{"reference":"Observation/6f4efcca-1575-425a-ba40-ee53628254a7"},{"reference":"Observation/ed3bfb21-ecb5-4d43-a0f8-3bc16a957163"}]},"request":{"method":"PUT","url":"MeasureReport/8313aca7-2dee-44e8-94d8-294b0b6cda48"}},{"resource":{"resourceType":"Bundle","id":"tests-Encounter-Medication-Lab-bundle","type":"transaction","entry":[{"fullUrl":"https://madie.cms.gov/Patient/3fdd92df-f418-45ef-93a6-920e3d813f32","resource":{"resourceType":"Patient","id":"3fdd92df-f418-45ef-93a6-920e3d813f32","meta":{"profile":["http://hl7.org/fhir/us/qicore/StructureDefinition/qicore-patient"]},"identifier":[{"use":"official","system":"http://hospital.smarthealthit.org","value":"12345"}],"name":[{"use":"official","family":"Doe","given":["John"]}],"gender":"male","birthDate":"1980-01-01"},"request":{"method":"PUT","url":"Patient/3fdd92df-f418-45ef-93a6-920e3d813f32"}},{"fullUrl":"https://madie.cms.gov/Encounter/c0ed53c9-8eed-494c-9b89-7deb1408cf77","resource":{"resourceType":"Encounter","id":"c0ed53c9-8eed-494c-9b89-7deb1408cf77","meta":{"profile":["http://hl7.org/fhir/us/qicore/StructureDefinition/qicore-encounter"]},"status":"finished","class":{"system":"http://terminology.hl7.org/CodeSystem/v3-ActCode","code":"IMP","display":"Inpatient encounter"},"type":[{"coding":[{"system":"http://snomed.info/sct","code":"183452005","display":"Emergency hospital admission"}]}],"subject":{"reference":"Patient/3fdd92df-f418-45ef-93a6-920e3d813f32"},"period":{"start":"2026-12-16T08:00:00.000+00:00","end":"2026-12-19T09:00:00.000+00:00"}},"request":{"method":"PUT","url":"Encounter/c0ed53c9-8eed-494c-9b89-7deb1408cf77"}},{"fullUrl":"https://madie.cms.gov/MedicationAdministration/c9688d0f-3b1f-4093-9b42-2df73e9f2517","resource":{"resourceType":"MedicationAdministration","id":"c9688d0f-3b1f-4093-9b42-2df73e9f2517","meta":{"profile":["http://hl7.org/fhir/us/qicore/StructureDefinition/qicore-medicationadministration"]},"status":"completed","medicationCodeableConcept":{"coding":[{"system":"http://www.nlm.nih.gov/research/umls/rxnorm","code":"1543202","display":"insulin, regular, human 4 UNT Inhalation Powder"}]},"subject":{"reference":"Patient/3fdd92df-f418-45ef-93a6-920e3d813f32"},"effectivePeriod":{"start":"2026-12-16T08:00:00.000+00:00","end":"2026-12-16T09:00:00.000+00:00"}},"request":{"method":"PUT","url":"MedicationAdministration/c9688d0f-3b1f-4093-9b42-2df73e9f2517"}},{"fullUrl":"https://madie.cms.gov/Observation/c574871c-52ed-48ab-b5f8-11495e0c84dc","resource":{"resourceType":"Observation","id":"c574871c-52ed-48ab-b5f8-11495e0c84dc","meta":{"profile":["http://hl7.org/fhir/us/qicore/StructureDefinition/qicore-observation-lab"]},"status":"final","category":[{"coding":[{"system":"http://terminology.hl7.org/CodeSystem/observation-category","code":"laboratory","display":"Laboratory"}]}],"code":{"coding":[{"system":"http://loinc.org","code":"1556-0","display":"Fasting glucose [Mass/volume] in Capillary blood"}]},"subject":{"reference":"Patient/3fdd92df-f418-45ef-93a6-920e3d813f32"},"effectivePeriod":{"start":"2026-12-16T08:00:00.000+00:00","end":"2026-12-16T08:00:00.000+00:00"},"issued":"2026-12-16T08:00:00.000+00:00","valueQuantity":{"value":39.9,"unit":"mg/dL"}},"request":{"method":"PUT","url":"Observation/c574871c-52ed-48ab-b5f8-11495e0c84dc"}},{"fullUrl":"https://madie.cms.gov/Observation/e90b30c9-2436-4567-b088-cf18048d2aea","resource":{"resourceType":"Observation","id":"e90b30c9-2436-4567-b088-cf18048d2aea","meta":{"profile":["http://hl7.org/fhir/us/qicore/StructureDefinition/qicore-observation-lab"]},"status":"final","category":[{"coding":[{"system":"http://terminology.hl7.org/CodeSystem/observation-category","code":"laboratory","display":"Laboratory"}]}],"code":{"coding":[{"system":"http://loinc.org","code":"1556-0","display":"Fasting glucose [Mass/volume] in Capillary blood"}]},"subject":{"reference":"Patient/3fdd92df-f418-45ef-93a6-920e3d813f32"},"effectivePeriod":{"start":"2026-12-16T08:05:00.000+00:00","end":"2026-12-16T08:05:00.000+00:00"},"issued":"2026-12-16T08:05:00.000+00:00","valueQuantity":{"value":70,"unit":"mg/dL"}},"request":{"method":"PUT","url":"Observation/e90b30c9-2436-4567-b088-cf18048d2aea"}},{"fullUrl":"https://madie.cms.gov/Encounter/14534a65-5a70-44a3-96e1-56eeedca2393","resource":{"resourceType":"Encounter","id":"14534a65-5a70-44a3-96e1-56eeedca2393","meta":{"profile":["http://hl7.org/fhir/us/qicore/StructureDefinition/qicore-encounter"]},"status":"finished","class":{"system":"http://terminology.hl7.org/CodeSystem/v3-ActCode","code":"EMER","display":"Emergency department visit"},"type":[{"coding":[{"system":"http://snomed.info/sct","code":"4525004","display":"Emergency department patient visit (procedure)"}]}],"subject":{"reference":"Patient/3fdd92df-f418-45ef-93a6-920e3d813f32"},"period":{"start":"2026-12-22T08:00:00.000+00:00","end":"2026-12-23T08:00:00.000+00:00"}},"request":{"method":"PUT","url":"Encounter/14534a65-5a70-44a3-96e1-56eeedca2393"}},{"fullUrl":"https://madie.cms.gov/Encounter/c2568e0c-79ed-493e-9a40-8b853170fb8b","resource":{"resourceType":"Encounter","id":"c2568e0c-79ed-493e-9a40-8b853170fb8b","meta":{"profile":["http://hl7.org/fhir/us/qicore/StructureDefinition/qicore-encounter"]},"status":"finished","class":{"system":"http://terminology.hl7.org/CodeSystem/v3-ActCode","code":"IMP","display":"Inpatient encounter"},"type":[{"coding":[{"system":"http://snomed.info/sct","code":"183452005","display":"Emergency hospital admission"}]}],"subject":{"reference":"Patient/3fdd92df-f418-45ef-93a6-920e3d813f32"},"period":{"start":"2026-12-23T08:00:00.000+00:00","end":"2026-12-29T08:00:00.000+00:00"}},"request":{"method":"PUT","url":"Encounter/c2568e0c-79ed-493e-9a40-8b853170fb8b"}},{"fullUrl":"https://madie.cms.gov/MedicationAdministration/c2ab11af-525d-43ff-8a7b-bc58f174a773","resource":{"resourceType":"MedicationAdministration","id":"c2ab11af-525d-43ff-8a7b-bc58f174a773","meta":{"profile":["http://hl7.org/fhir/us/qicore/StructureDefinition/qicore-medicationadministration"]},"status":"completed","medicationCodeableConcept":{"coding":[{"system":"http://www.nlm.nih.gov/research/umls/rxnorm","code":"1543202","display":"insulin, regular, human 4 UNT Inhalation Powder"}]},"subject":{"reference":"Patient/3fdd92df-f418-45ef-93a6-920e3d813f32"},"effectivePeriod":{"start":"2026-12-22T08:00:00.000+00:00","end":"2026-12-22T08:15:00.000+00:00"}},"request":{"method":"PUT","url":"MedicationAdministration/c2ab11af-525d-43ff-8a7b-bc58f174a773"}},{"fullUrl":"https://madie.cms.gov/Observation/6f4efcca-1575-425a-ba40-ee53628254a7","resource":{"resourceType":"Observation","id":"6f4efcca-1575-425a-ba40-ee53628254a7","meta":{"profile":["http://hl7.org/fhir/us/qicore/StructureDefinition/qicore-observation-lab"]},"status":"final","category":[{"coding":[{"system":"http://terminology.hl7.org/CodeSystem/observation-category","code":"laboratory","display":"Laboratory"}]}],"code":{"coding":[{"system":"http://loinc.org","code":"1556-0","display":"Fasting glucose [Mass/volume] in Capillary blood"}]},"subject":{"reference":"Patient/3fdd92df-f418-45ef-93a6-920e3d813f32"},"effectivePeriod":{"start":"2026-12-22T08:00:00.000+00:00","end":"2026-12-22T08:15:00.000+00:00"},"issued":"2026-12-22T08:00:00.000+00:00","valueQuantity":{"value":39.9,"unit":"mg/dL"}},"request":{"method":"PUT","url":"Observation/6f4efcca-1575-425a-ba40-ee53628254a7"}},{"fullUrl":"https://madie.cms.gov/Observation/ed3bfb21-ecb5-4d43-a0f8-3bc16a957163","resource":{"resourceType":"Observation","id":"ed3bfb21-ecb5-4d43-a0f8-3bc16a957163","meta":{"profile":["http://hl7.org/fhir/us/qicore/StructureDefinition/qicore-observation-lab"]},"status":"final","category":[{"coding":[{"system":"http://terminology.hl7.org/CodeSystem/observation-category","code":"laboratory","display":"Laboratory"}]}],"code":{"coding":[{"system":"http://loinc.org","code":"1556-0","display":"Fasting glucose [Mass/volume] in Capillary blood"}]},"subject":{"reference":"Patient/3fdd92df-f418-45ef-93a6-920e3d813f32"},"effectivePeriod":{"start":"2026-12-22T08:05:00.000+00:00","end":"2026-12-22T08:05:00.000+00:00"},"issued":"2026-12-22T08:05:00.000+00:00","valueQuantity":{"value":80.1,"unit":"mg/dL"}},"request":{"method":"PUT","url":"Observation/ed3bfb21-ecb5-4d43-a0f8-3bc16a957163"}},{"fullUrl":"https://madie.cms.gov/MeasureReport/8313aca7-2dee-44e8-94d8-294b0b6cda48","resource":{"resourceType":"MeasureReport","id":"8313aca7-2dee-44e8-94d8-294b0b6cda48","meta":{"profile":["http://hl7.org/fhir/us/cqfmeasures/StructureDefinition/test-case-cqfm"]},"contained":[{"resourceType":"Parameters","id":"f9ae2f61-9672-4767-85df-d96ea1f26fe4-parameters","parameter":[{"name":"subject","valueString":"3fdd92df-f418-45ef-93a6-920e3d813f32"}]}],"extension":[{"url":"http://hl7.org/fhir/StructureDefinition/cqf-inputParameters","valueReference":{"reference":"#f9ae2f61-9672-4767-85df-d96ea1f26fe4-parameters"}},{"url":"http://hl7.org/fhir/us/cqfmeasures/StructureDefinition/cqfm-testCaseDescription","valueMarkdown":"1st IP Encounter with med. Lab LT 40, followed by lab LT 80 within 5 minutes. Meets Numerator. 2nd enc starts in ED. Has lab LT 40 followed by lab GT 80 within 5 minutes. Does not meet numerator. IPP/Denom = 2, Num = 1"}],"modifierExtension":[{"url":"http://hl7.org/fhir/us/cqfmeasures/StructureDefinition/cqfm-isTestCase","valueBoolean":true}],"status":"complete","type":"individual","measure":"https://madie.cms.gov/Measure/CMS816FHIRHHHypo","period":{"start":"2026-01-01","end":"2026-12-31"},"group":[{"id":"Group_1","population":[{"id":"InitialPopulation_1","code":{"coding":[{"system":"http://terminology.hl7.org/CodeSystem/measure-population","code":"initial-population","display":"Initial Population"}]},"count":2},{"id":"Denominator_1","code":{"coding":[{"system":"http://terminology.hl7.org/CodeSystem/measure-population","code":"denominator","display":"Denominator"}]},"count":2},{"id":"Numerator_1","code":{"coding":[{"system":"http://terminology.hl7.org/CodeSystem/measure-population","code":"numerator","display":"Numerator"}]},"count":1}],"measureScore":{"value":0.0}}],"evaluatedResource":[{"reference":"Patient/3fdd92df-f418-45ef-93a6-920e3d813f32"},{"reference":"Encounter/c0ed53c9-8eed-494c-9b89-7deb1408cf77"},{"reference":"MedicationAdministration/c9688d0f-3b1f-4093-9b42-2df73e9f2517"},{"reference":"Observation/c574871c-52ed-48ab-b5f8-11495e0c84dc"},{"reference":"Observation/e90b30c9-2436-4567-b088-cf18048d2aea"},{"reference":"Encounter/14534a65-5a70-44a3-96e1-56eeedca2393"},{"reference":"Encounter/c2568e0c-79ed-493e-9a40-8b853170fb8b"},{"reference":"MedicationAdministration/c2ab11af-525d-43ff-8a7b-bc58f174a773"},{"reference":"Observation/6f4efcca-1575-425a-ba40-ee53628254a7"},{"reference":"Observation/ed3bfb21-ecb5-4d43-a0f8-3bc16a957163"}]},"request":{"method":"PUT","url":"MeasureReport/8313aca7-2dee-44e8-94d8-294b0b6cda48"}}]},"request":{"method":"PUT","url":"Bundle/tests-Encounter-Medication-Lab-bundle"}},{"resource":{"resourceType":"Observation","id":"6f4efcca-1575-425a-ba40-ee53628254a7","meta":{"profile":["http://hl7.org/fhir/us/qicore/StructureDefinition/qicore-observation-lab"]},"status":"final","category":[{"coding":[{"system":"http://terminology.hl7.org/CodeSystem/observation-category","code":"laboratory","display":"Laboratory"}]}],"code":{"coding":[{"system":"http://loinc.org","code":"1556-0","display":"Fasting glucose [Mass/volume] in Capillary blood"}]},"subject":{"reference":"Patient/3fdd92df-f418-45ef-93a6-920e3d813f32"},"effectivePeriod":{"start":"2026-12-22T08:00:00.000+00:00","end":"2026-12-22T08:15:00.000+00:00"},"issued":"2026-12-22T08:00:00.000+00:00","valueQuantity":{"value":39.9,"unit":"mg/dL"}},"request":{"method":"PUT","url":"Observation/6f4efcca-1575-425a-ba40-ee53628254a7"}},{"resource":{"resourceType":"Observation","id":"e90b30c9-2436-4567-b088-cf18048d2aea","meta":{"profile":["http://hl7.org/fhir/us/qicore/StructureDefinition/qicore-observation-lab"]},"status":"final","category":[{"coding":[{"system":"http://terminology.hl7.org/CodeSystem/observation-category","code":"laboratory","display":"Laboratory"}]}],"code":{"coding":[{"system":"http://loinc.org","code":"1556-0","display":"Fasting glucose [Mass/volume] in Capillary blood"}]},"subject":{"reference":"Patient/3fdd92df-f418-45ef-93a6-920e3d813f32"},"effectivePeriod":{"start":"2026-12-16T08:05:00.000+00:00","end":"2026-12-16T08:05:00.000+00:00"},"issued":"2026-12-16T08:05:00.000+00:00","valueQuantity":{"value":70,"unit":"mg/dL"}},"request":{"method":"PUT","url":"Observation/e90b30c9-2436-4567-b088-cf18048d2aea"}},{"resource":{"resourceType":"MedicationAdministration","id":"c2ab11af-525d-43ff-8a7b-bc58f174a773","meta":{"profile":["http://hl7.org/fhir/us/qicore/StructureDefinition/qicore-medicationadministration"]},"status":"completed","medicationCodeableConcept":{"coding":[{"system":"http://www.nlm.nih.gov/research/umls/rxnorm","code":"1543202","display":"insulin, regular, human 4 UNT Inhalation Powder"}]},"subject":{"reference":"Patient/3fdd92df-f418-45ef-93a6-920e3d813f32"},"effectivePeriod":{"start":"2026-12-22T08:00:00.000+00:00","end":"2026-12-22T08:15:00.000+00:00"}},"request":{"method":"PUT","url":"MedicationAdministration/c2ab11af-525d-43ff-8a7b-bc58f174a773"}},{"resource":{"resourceType":"MedicationAdministration","id":"c9688d0f-3b1f-4093-9b42-2df73e9f2517","meta":{"profile":["http://hl7.org/fhir/us/qicore/StructureDefinition/qicore-medicationadministration"]},"status":"completed","medicationCodeableConcept":{"coding":[{"system":"http://www.nlm.nih.gov/research/umls/rxnorm","code":"1543202","display":"insulin, regular, human 4 UNT Inhalation Powder"}]},"subject":{"reference":"Patient/3fdd92df-f418-45ef-93a6-920e3d813f32"},"effectivePeriod":{"start":"2026-12-16T08:00:00.000+00:00","end":"2026-12-16T09:00:00.000+00:00"}},"request":{"method":"PUT","url":"MedicationAdministration/c9688d0f-3b1f-4093-9b42-2df73e9f2517"}},{"resource":{"resourceType":"Observation","id":"ed3bfb21-ecb5-4d43-a0f8-3bc16a957163","meta":{"profile":["http://hl7.org/fhir/us/qicore/StructureDefinition/qicore-observation-lab"]},"status":"final","category":[{"coding":[{"system":"http://terminology.hl7.org/CodeSystem/observation-category","code":"laboratory","display":"Laboratory"}]}],"code":{"coding":[{"system":"http://loinc.org","code":"1556-0","display":"Fasting glucose [Mass/volume] in Capillary blood"}]},"subject":{"reference":"Patient/3fdd92df-f418-45ef-93a6-920e3d813f32"},"effectivePeriod":{"start":"2026-12-22T08:05:00.000+00:00","end":"2026-12-22T08:05:00.000+00:00"},"issued":"2026-12-22T08:05:00.000+00:00","valueQuantity":{"value":80.1,"unit":"mg/dL"}},"request":{"method":"PUT","url":"Observation/ed3bfb21-ecb5-4d43-a0f8-3bc16a957163"}},{"resource":{"resourceType":"Encounter","id":"c0ed53c9-8eed-494c-9b89-7deb1408cf77","meta":{"profile":["http://hl7.org/fhir/us/qicore/StructureDefinition/qicore-encounter"]},"status":"finished","class":{"system":"http://terminology.hl7.org/CodeSystem/v3-ActCode","code":"IMP","display":"Inpatient encounter"},"type":[{"coding":[{"system":"http://snomed.info/sct","code":"183452005","display":"Emergency hospital admission"}]}],"subject":{"reference":"Patient/3fdd92df-f418-45ef-93a6-920e3d813f32"},"period":{"start":"2026-12-16T08:00:00.000+00:00","end":"2026-12-19T09:00:00.000+00:00"}},"request":{"method":"PUT","url":"Encounter/c0ed53c9-8eed-494c-9b89-7deb1408cf77"}},{"resource":{"resourceType":"Observation","id":"c574871c-52ed-48ab-b5f8-11495e0c84dc","meta":{"profile":["http://hl7.org/fhir/us/qicore/StructureDefinition/qicore-observation-lab"]},"status":"final","category":[{"coding":[{"system":"http://terminology.hl7.org/CodeSystem/observation-category","code":"laboratory","display":"Laboratory"}]}],"code":{"coding":[{"system":"http://loinc.org","code":"1556-0","display":"Fasting glucose [Mass/volume] in Capillary blood"}]},"subject":{"reference":"Patient/3fdd92df-f418-45ef-93a6-920e3d813f32"},"effectivePeriod":{"start":"2026-12-16T08:00:00.000+00:00","end":"2026-12-16T08:00:00.000+00:00"},"issued":"2026-12-16T08:00:00.000+00:00","valueQuantity":{"value":39.9,"unit":"mg/dL"}},"request":{"method":"PUT","url":"Observation/c574871c-52ed-48ab-b5f8-11495e0c84dc"}},{"resource":{"resourceType":"Encounter","id":"c2568e0c-79ed-493e-9a40-8b853170fb8b","meta":{"profile":["http://hl7.org/fhir/us/qicore/StructureDefinition/qicore-encounter"]},"status":"finished","class":{"system":"http://terminology.hl7.org/CodeSystem/v3-ActCode","code":"IMP","display":"Inpatient encounter"},"type":[{"coding":[{"system":"http://snomed.info/sct","code":"183452005","display":"Emergency hospital admission"}]}],"subject":{"reference":"Patient/3fdd92df-f418-45ef-93a6-920e3d813f32"},"period":{"start":"2026-12-23T08:00:00.000+00:00","end":"2026-12-29T08:00:00.000+00:00"}},"request":{"method":"PUT","url":"Encounter/c2568e0c-79ed-493e-9a40-8b853170fb8b"}},{"resource":{"resourceType":"Encounter","id":"14534a65-5a70-44a3-96e1-56eeedca2393","meta":{"profile":["http://hl7.org/fhir/us/qicore/StructureDefinition/qicore-encounter"]},"status":"finished","class":{"system":"http://terminology.hl7.org/CodeSystem/v3-ActCode","code":"EMER","display":"Emergency department visit"},"type":[{"coding":[{"system":"http://snomed.info/sct","code":"4525004","display":"Emergency department patient visit (procedure)"}]}],"subject":{"reference":"Patient/3fdd92df-f418-45ef-93a6-920e3d813f32"},"period":{"start":"2026-12-22T08:00:00.000+00:00","end":"2026-12-23T08:00:00.000+00:00"}},"request":{"method":"PUT","url":"Encounter/14534a65-5a70-44a3-96e1-56eeedca2393"}}]}