{"resourceType":"Bundle","id":"tests-1d2bb25a-21a7-4529-9486-a320d4864719-bundle","type":"transaction","entry":[{"resource":{"resourceType":"Bundle","id":"tests-DENOMPass-MedRelPeriodStartsNoEnd-bundle","type":"transaction","entry":[{"fullUrl":"https://madie.cms.gov/MedicationAdministration/b0338374-d9c7-48b5-9517-2cf7ea93967a","resource":{"resourceType":"MedicationAdministration","id":"b0338374-d9c7-48b5-9517-2cf7ea93967a","meta":{"profile":["http://hl7.org/fhir/us/qicore/StructureDefinition/qicore-medicationadministration"]},"status":"completed","medicationCodeableConcept":{"coding":[{"system":"http://www.nlm.nih.gov/research/umls/rxnorm","code":"1654862","display":"Hypoglycemics Severe Hypoglycemia"}]},"subject":{"reference":"Patient/1d2bb25a-21a7-4529-9486-a320d4864719"},"effectivePeriod":{"start":"2026-07-11T08:00:00.000+00:00"}},"request":{"method":"PUT","url":"MedicationAdministration/b0338374-d9c7-48b5-9517-2cf7ea93967a"}},{"fullUrl":"https://madie.cms.gov/Encounter/a9e68618-44f6-4df2-bd1c-dfc1bb233b75","resource":{"resourceType":"Encounter","id":"a9e68618-44f6-4df2-bd1c-dfc1bb233b75","meta":{"profile":["http://hl7.org/fhir/us/qicore/StructureDefinition/qicore-encounter"]},"status":"finished","class":{"system":"http://terminology.hl7.org/CodeSystem/v3-ActCode","code":"IMP","display":"inpatient encounter"},"type":[{"coding":[{"system":"http://snomed.info/sct","code":"183452005","display":"Inpatient encounter"}]}],"period":{"start":"2026-07-11T08:00:00.000+00:00","end":"2026-07-12T21:00:00.000+00:00"}},"request":{"method":"PUT","url":"Encounter/a9e68618-44f6-4df2-bd1c-dfc1bb233b75"}},{"fullUrl":"https://madie.cms.gov/Patient/1d2bb25a-21a7-4529-9486-a320d4864719","resource":{"resourceType":"Patient","id":"1d2bb25a-21a7-4529-9486-a320d4864719","meta":{"profile":["http://hl7.org/fhir/us/qicore/StructureDefinition/qicore-patient"]},"extension":[{"url":"http://hl7.org/fhir/us/core/StructureDefinition/us-core-race","extension":[{"url":"ombCategory","valueCoding":{"system":"urn:oid:2.16.840.1.113883.6.238","code":"2106-3","display":"White"}},{"url":"text","valueString":"White"}]},{"url":"http://hl7.org/fhir/us/core/StructureDefinition/us-core-ethnicity","extension":[{"url":"ombCategory","valueCoding":{"system":"urn:oid:2.16.840.1.113883.6.238","code":"2135-2","display":"Hispanic or Latino"}},{"url":"text","valueString":"Hispanic or Latino"}]},{"url":"http://hl7.org/fhir/us/core/StructureDefinition/us-core-sex","valueCode":"248153007"}],"identifier":[{"system":"http://hospital.smarthealthit.org","value":"999999999"}],"name":[{"family":"Example","given":["Patient"]}],"gender":"female","birthDate":"1956-01-01"},"request":{"method":"PUT","url":"Patient/1d2bb25a-21a7-4529-9486-a320d4864719"}},{"fullUrl":"https://madie.cms.gov/MeasureReport/7fc90b43-fd70-409d-9c26-87a56a7a2a24","resource":{"resourceType":"MeasureReport","id":"7fc90b43-fd70-409d-9c26-87a56a7a2a24","meta":{"profile":["http://hl7.org/fhir/us/cqfmeasures/StructureDefinition/test-case-cqfm"]},"contained":[{"resourceType":"Parameters","id":"116b789b-7fab-42c3-9a74-4db79797ead1-parameters","parameter":[{"name":"subject","valueString":"1d2bb25a-21a7-4529-9486-a320d4864719"}]}],"extension":[{"url":"http://hl7.org/fhir/StructureDefinition/cqf-inputParameters","valueReference":{"reference":"#116b789b-7fab-42c3-9a74-4db79797ead1-parameters"}},{"url":"http://hl7.org/fhir/us/cqfmeasures/StructureDefinition/cqfm-testCaseDescription","valueMarkdown":"Right age with encounter, meds administered, no lab tests. Med relevant period starts during encounter, no relevant end period. Meets denominator as med relevant period must start during encounter but no end required."}],"modifierExtension":[{"url":"http://hl7.org/fhir/us/cqfmeasures/StructureDefinition/cqfm-isTestCase","valueBoolean":true}],"status":"complete","type":"individual","measure":"https://madie.cms.gov/Measure/CMS816FHIRHHHypo","period":{"start":"2026-01-01","end":"2026-12-31"},"group":[{"id":"Group_1","population":[{"id":"InitialPopulation_1","code":{"coding":[{"system":"http://terminology.hl7.org/CodeSystem/measure-population","code":"initial-population","display":"Initial Population"}]},"count":1},{"id":"Denominator_1","code":{"coding":[{"system":"http://terminology.hl7.org/CodeSystem/measure-population","code":"denominator","display":"Denominator"}]},"count":1},{"id":"Numerator_1","code":{"coding":[{"system":"http://terminology.hl7.org/CodeSystem/measure-population","code":"numerator","display":"Numerator"}]},"count":0}],"measureScore":{"value":0.0}}],"evaluatedResource":[{"reference":"MedicationAdministration/b0338374-d9c7-48b5-9517-2cf7ea93967a"},{"reference":"Encounter/a9e68618-44f6-4df2-bd1c-dfc1bb233b75"},{"reference":"Patient/1d2bb25a-21a7-4529-9486-a320d4864719"}]},"request":{"method":"PUT","url":"MeasureReport/7fc90b43-fd70-409d-9c26-87a56a7a2a24"}}]},"request":{"method":"PUT","url":"Bundle/tests-DENOMPass-MedRelPeriodStartsNoEnd-bundle"}},{"resource":{"resourceType":"MeasureReport","id":"7fc90b43-fd70-409d-9c26-87a56a7a2a24","meta":{"profile":["http://hl7.org/fhir/us/cqfmeasures/StructureDefinition/test-case-cqfm"]},"contained":[{"resourceType":"Parameters","id":"116b789b-7fab-42c3-9a74-4db79797ead1-parameters","parameter":[{"name":"subject","valueString":"1d2bb25a-21a7-4529-9486-a320d4864719"}]}],"extension":[{"url":"http://hl7.org/fhir/StructureDefinition/cqf-inputParameters","valueReference":{"reference":"#116b789b-7fab-42c3-9a74-4db79797ead1-parameters"}},{"url":"http://hl7.org/fhir/us/cqfmeasures/StructureDefinition/cqfm-testCaseDescription","valueMarkdown":"Right age with encounter, meds administered, no lab tests. Med relevant period starts during encounter, no relevant end period. Meets denominator as med relevant period must start during encounter but no end required."}],"modifierExtension":[{"url":"http://hl7.org/fhir/us/cqfmeasures/StructureDefinition/cqfm-isTestCase","valueBoolean":true}],"status":"complete","type":"individual","measure":"https://madie.cms.gov/Measure/CMS816FHIRHHHypo","period":{"start":"2026-01-01","end":"2026-12-31"},"group":[{"id":"Group_1","population":[{"id":"InitialPopulation_1","code":{"coding":[{"system":"http://terminology.hl7.org/CodeSystem/measure-population","code":"initial-population","display":"Initial Population"}]},"count":1},{"id":"Denominator_1","code":{"coding":[{"system":"http://terminology.hl7.org/CodeSystem/measure-population","code":"denominator","display":"Denominator"}]},"count":1},{"id":"Numerator_1","code":{"coding":[{"system":"http://terminology.hl7.org/CodeSystem/measure-population","code":"numerator","display":"Numerator"}]},"count":0}],"measureScore":{"value":0.0}}],"evaluatedResource":[{"reference":"MedicationAdministration/b0338374-d9c7-48b5-9517-2cf7ea93967a"},{"reference":"Encounter/a9e68618-44f6-4df2-bd1c-dfc1bb233b75"},{"reference":"Patient/1d2bb25a-21a7-4529-9486-a320d4864719"}]},"request":{"method":"PUT","url":"MeasureReport/7fc90b43-fd70-409d-9c26-87a56a7a2a24"}},{"resource":{"resourceType":"MedicationAdministration","id":"b0338374-d9c7-48b5-9517-2cf7ea93967a","meta":{"profile":["http://hl7.org/fhir/us/qicore/StructureDefinition/qicore-medicationadministration"]},"status":"completed","medicationCodeableConcept":{"coding":[{"system":"http://www.nlm.nih.gov/research/umls/rxnorm","code":"1654862","display":"Hypoglycemics Severe Hypoglycemia"}]},"subject":{"reference":"Patient/1d2bb25a-21a7-4529-9486-a320d4864719"},"effectivePeriod":{"start":"2026-07-11T08:00:00.000+00:00"}},"request":{"method":"PUT","url":"MedicationAdministration/b0338374-d9c7-48b5-9517-2cf7ea93967a"}},{"resource":{"resourceType":"Patient","id":"1d2bb25a-21a7-4529-9486-a320d4864719","meta":{"profile":["http://hl7.org/fhir/us/qicore/StructureDefinition/qicore-patient"]},"extension":[{"url":"http://hl7.org/fhir/us/core/StructureDefinition/us-core-race","extension":[{"url":"ombCategory","valueCoding":{"system":"urn:oid:2.16.840.1.113883.6.238","code":"2106-3","display":"White"}},{"url":"text","valueString":"White"}]},{"url":"http://hl7.org/fhir/us/core/StructureDefinition/us-core-ethnicity","extension":[{"url":"ombCategory","valueCoding":{"system":"urn:oid:2.16.840.1.113883.6.238","code":"2135-2","display":"Hispanic or Latino"}},{"url":"text","valueString":"Hispanic or Latino"}]},{"url":"http://hl7.org/fhir/us/core/StructureDefinition/us-core-sex","valueCode":"248153007"}],"identifier":[{"system":"http://hospital.smarthealthit.org","value":"999999999"}],"name":[{"family":"Example","given":["Patient"]}],"gender":"female","birthDate":"1956-01-01"},"request":{"method":"PUT","url":"Patient/1d2bb25a-21a7-4529-9486-a320d4864719"}},{"resource":{"resourceType":"Encounter","id":"a9e68618-44f6-4df2-bd1c-dfc1bb233b75","meta":{"profile":["http://hl7.org/fhir/us/qicore/StructureDefinition/qicore-encounter"]},"status":"finished","class":{"system":"http://terminology.hl7.org/CodeSystem/v3-ActCode","code":"IMP","display":"inpatient encounter"},"type":[{"coding":[{"system":"http://snomed.info/sct","code":"183452005","display":"Inpatient encounter"}]}],"period":{"start":"2026-07-11T08:00:00.000+00:00","end":"2026-07-12T21:00:00.000+00:00"}},"request":{"method":"PUT","url":"Encounter/a9e68618-44f6-4df2-bd1c-dfc1bb233b75"}}]}