{"resourceType":"Bundle","id":"tests-cf9c230a-adc0-4830-bf04-fed4ab5ff6c8-bundle","type":"transaction","entry":[{"resource":{"resourceType":"Bundle","id":"tests-IPPFail-MedIsNotHypoMedGlucoseLT40-bundle","type":"transaction","entry":[{"fullUrl":"https://madie.cms.gov/Encounter/f76c83a4-8012-4755-982f-2ed64a4e499a","resource":{"resourceType":"Encounter","id":"f76c83a4-8012-4755-982f-2ed64a4e499a","meta":{"profile":["http://hl7.org/fhir/us/qicore/StructureDefinition/qicore-encounter"]},"status":"finished","class":{"system":"http://terminology.hl7.org/CodeSystem/v3-ActCode","code":"IMP","display":"Inpatient encounter"},"type":[{"coding":[{"system":"http://snomed.info/sct","code":"183452005","display":"Inpatient encounter"}]}],"period":{"start":"2026-07-11T08:00:00Z","end":"2026-07-14T21:00:00Z"}},"request":{"method":"PUT","url":"Encounter/f76c83a4-8012-4755-982f-2ed64a4e499a"}},{"fullUrl":"https://madie.cms.gov/MedicationAdministration/27ee09ca-5761-499e-a78b-953ba84bce06","resource":{"resourceType":"MedicationAdministration","id":"27ee09ca-5761-499e-a78b-953ba84bce06","meta":{"profile":["http://hl7.org/fhir/us/qicore/StructureDefinition/qicore-medicationadministration"]},"status":"completed","medicationCodeableConcept":{"coding":[{"system":"http://www.nlm.nih.gov/research/umls/rxnorm","code":"905377","display":"Hypoglycemics Severe Hypoglycemia"}]},"subject":{"reference":"Patient/cf9c230a-adc0-4830-bf04-fed4ab5ff6c8"},"effectivePeriod":{"start":"2026-07-11T08:00:00Z","end":"2026-07-11T09:00:00Z"}},"request":{"method":"PUT","url":"MedicationAdministration/27ee09ca-5761-499e-a78b-953ba84bce06"}},{"fullUrl":"https://madie.cms.gov/Observation/52721176-8d9e-4a82-b25a-0716945eb39f","resource":{"resourceType":"Observation","id":"52721176-8d9e-4a82-b25a-0716945eb39f","meta":{"profile":["http://hl7.org/fhir/us/qicore/StructureDefinition/qicore-observation"]},"status":"final","code":{"coding":[{"system":"http://loinc.org","code":"1547-9","display":"Glucose Lab Test Mass Per Volume"}]},"subject":{"reference":"Patient/cf9c230a-adc0-4830-bf04-fed4ab5ff6c8"},"effectivePeriod":{"start":"2026-07-11T09:00:00Z","end":"2026-07-11T09:15:00Z"},"issued":"2026-07-11T08:00:00Z","valueQuantity":{"value":35,"unit":"mg/dL"}},"request":{"method":"PUT","url":"Observation/52721176-8d9e-4a82-b25a-0716945eb39f"}},{"fullUrl":"https://madie.cms.gov/Patient/cf9c230a-adc0-4830-bf04-fed4ab5ff6c8","resource":{"resourceType":"Patient","id":"cf9c230a-adc0-4830-bf04-fed4ab5ff6c8","meta":{"profile":["http://hl7.org/fhir/us/qicore/StructureDefinition/qicore-patient"]},"extension":[{"url":"http://hl7.org/fhir/us/core/StructureDefinition/us-core-race","extension":[{"url":"ombCategory","valueCoding":{"system":"urn:oid:2.16.840.1.113883.6.238","code":"2106-3","display":"White"}},{"url":"text","valueString":"White"}]},{"url":"http://hl7.org/fhir/us/core/StructureDefinition/us-core-ethnicity","extension":[{"url":"ombCategory","valueCoding":{"system":"urn:oid:2.16.840.1.113883.6.238","code":"2135-2","display":"Hispanic or Latino"}},{"url":"text","valueString":"Hispanic or Latino"}]},{"url":"http://hl7.org/fhir/us/core/StructureDefinition/us-core-sex","valueCode":"248153007"}],"identifier":[{"system":"http://hospital.smarthealthit.org","value":"999999999"}],"name":[{"family":"Example","given":["Patient"]}],"gender":"female","birthDate":"2000-07-11"},"request":{"method":"PUT","url":"Patient/cf9c230a-adc0-4830-bf04-fed4ab5ff6c8"}},{"fullUrl":"https://madie.cms.gov/MeasureReport/e462aa45-a7f9-4624-be7f-23fc6264d406","resource":{"resourceType":"MeasureReport","id":"e462aa45-a7f9-4624-be7f-23fc6264d406","meta":{"profile":["http://hl7.org/fhir/us/cqfmeasures/StructureDefinition/test-case-cqfm"]},"contained":[{"resourceType":"Parameters","id":"dfbece6d-8c24-49ee-b0ec-61c26e848b75-parameters","parameter":[{"name":"subject","valueString":"cf9c230a-adc0-4830-bf04-fed4ab5ff6c8"}]}],"extension":[{"url":"http://hl7.org/fhir/StructureDefinition/cqf-inputParameters","valueReference":{"reference":"#dfbece6d-8c24-49ee-b0ec-61c26e848b75-parameters"}},{"url":"http://hl7.org/fhir/us/cqfmeasures/StructureDefinition/cqfm-testCaseDescription","valueMarkdown":"Patient inpatient, but the med administered was not hypoglycemic med. Hypo med must be administered during encounter to meet IPP.  Patient had glucose <40 during encounter, but there was no hypo med administered on or prior to test no Numerator."}],"modifierExtension":[{"url":"http://hl7.org/fhir/us/cqfmeasures/StructureDefinition/cqfm-isTestCase","valueBoolean":true}],"status":"complete","type":"individual","measure":"https://madie.cms.gov/Measure/CMS816FHIRHHHypo","period":{"start":"2026-01-01","end":"2026-12-31"},"group":[{"id":"Group_1","population":[{"id":"InitialPopulation_1","code":{"coding":[{"system":"http://terminology.hl7.org/CodeSystem/measure-population","code":"initial-population","display":"Initial Population"}]},"count":0},{"id":"Denominator_1","code":{"coding":[{"system":"http://terminology.hl7.org/CodeSystem/measure-population","code":"denominator","display":"Denominator"}]},"count":0},{"id":"Numerator_1","code":{"coding":[{"system":"http://terminology.hl7.org/CodeSystem/measure-population","code":"numerator","display":"Numerator"}]},"count":0}],"measureScore":{"value":0.0}}],"evaluatedResource":[{"reference":"Encounter/f76c83a4-8012-4755-982f-2ed64a4e499a"},{"reference":"MedicationAdministration/27ee09ca-5761-499e-a78b-953ba84bce06"},{"reference":"Observation/52721176-8d9e-4a82-b25a-0716945eb39f"},{"reference":"Patient/cf9c230a-adc0-4830-bf04-fed4ab5ff6c8"}]},"request":{"method":"PUT","url":"MeasureReport/e462aa45-a7f9-4624-be7f-23fc6264d406"}}]},"request":{"method":"PUT","url":"Bundle/tests-IPPFail-MedIsNotHypoMedGlucoseLT40-bundle"}},{"resource":{"resourceType":"Encounter","id":"f76c83a4-8012-4755-982f-2ed64a4e499a","meta":{"profile":["http://hl7.org/fhir/us/qicore/StructureDefinition/qicore-encounter"]},"status":"finished","class":{"system":"http://terminology.hl7.org/CodeSystem/v3-ActCode","code":"IMP","display":"Inpatient encounter"},"type":[{"coding":[{"system":"http://snomed.info/sct","code":"183452005","display":"Inpatient encounter"}]}],"period":{"start":"2026-07-11T08:00:00Z","end":"2026-07-14T21:00:00Z"}},"request":{"method":"PUT","url":"Encounter/f76c83a4-8012-4755-982f-2ed64a4e499a"}},{"resource":{"resourceType":"Observation","id":"52721176-8d9e-4a82-b25a-0716945eb39f","meta":{"profile":["http://hl7.org/fhir/us/qicore/StructureDefinition/qicore-observation"]},"status":"final","code":{"coding":[{"system":"http://loinc.org","code":"1547-9","display":"Glucose Lab Test Mass Per Volume"}]},"subject":{"reference":"Patient/cf9c230a-adc0-4830-bf04-fed4ab5ff6c8"},"effectivePeriod":{"start":"2026-07-11T09:00:00Z","end":"2026-07-11T09:15:00Z"},"issued":"2026-07-11T08:00:00Z","valueQuantity":{"value":35,"unit":"mg/dL"}},"request":{"method":"PUT","url":"Observation/52721176-8d9e-4a82-b25a-0716945eb39f"}},{"resource":{"resourceType":"MeasureReport","id":"e462aa45-a7f9-4624-be7f-23fc6264d406","meta":{"profile":["http://hl7.org/fhir/us/cqfmeasures/StructureDefinition/test-case-cqfm"]},"contained":[{"resourceType":"Parameters","id":"dfbece6d-8c24-49ee-b0ec-61c26e848b75-parameters","parameter":[{"name":"subject","valueString":"cf9c230a-adc0-4830-bf04-fed4ab5ff6c8"}]}],"extension":[{"url":"http://hl7.org/fhir/StructureDefinition/cqf-inputParameters","valueReference":{"reference":"#dfbece6d-8c24-49ee-b0ec-61c26e848b75-parameters"}},{"url":"http://hl7.org/fhir/us/cqfmeasures/StructureDefinition/cqfm-testCaseDescription","valueMarkdown":"Patient inpatient, but the med administered was not hypoglycemic med. Hypo med must be administered during encounter to meet IPP.  Patient had glucose <40 during encounter, but there was no hypo med administered on or prior to test no Numerator."}],"modifierExtension":[{"url":"http://hl7.org/fhir/us/cqfmeasures/StructureDefinition/cqfm-isTestCase","valueBoolean":true}],"status":"complete","type":"individual","measure":"https://madie.cms.gov/Measure/CMS816FHIRHHHypo","period":{"start":"2026-01-01","end":"2026-12-31"},"group":[{"id":"Group_1","population":[{"id":"InitialPopulation_1","code":{"coding":[{"system":"http://terminology.hl7.org/CodeSystem/measure-population","code":"initial-population","display":"Initial Population"}]},"count":0},{"id":"Denominator_1","code":{"coding":[{"system":"http://terminology.hl7.org/CodeSystem/measure-population","code":"denominator","display":"Denominator"}]},"count":0},{"id":"Numerator_1","code":{"coding":[{"system":"http://terminology.hl7.org/CodeSystem/measure-population","code":"numerator","display":"Numerator"}]},"count":0}],"measureScore":{"value":0.0}}],"evaluatedResource":[{"reference":"Encounter/f76c83a4-8012-4755-982f-2ed64a4e499a"},{"reference":"MedicationAdministration/27ee09ca-5761-499e-a78b-953ba84bce06"},{"reference":"Observation/52721176-8d9e-4a82-b25a-0716945eb39f"},{"reference":"Patient/cf9c230a-adc0-4830-bf04-fed4ab5ff6c8"}]},"request":{"method":"PUT","url":"MeasureReport/e462aa45-a7f9-4624-be7f-23fc6264d406"}},{"resource":{"resourceType":"MedicationAdministration","id":"27ee09ca-5761-499e-a78b-953ba84bce06","meta":{"profile":["http://hl7.org/fhir/us/qicore/StructureDefinition/qicore-medicationadministration"]},"status":"completed","medicationCodeableConcept":{"coding":[{"system":"http://www.nlm.nih.gov/research/umls/rxnorm","code":"905377","display":"Hypoglycemics Severe Hypoglycemia"}]},"subject":{"reference":"Patient/cf9c230a-adc0-4830-bf04-fed4ab5ff6c8"},"effectivePeriod":{"start":"2026-07-11T08:00:00Z","end":"2026-07-11T09:00:00Z"}},"request":{"method":"PUT","url":"MedicationAdministration/27ee09ca-5761-499e-a78b-953ba84bce06"}},{"resource":{"resourceType":"Patient","id":"cf9c230a-adc0-4830-bf04-fed4ab5ff6c8","meta":{"profile":["http://hl7.org/fhir/us/qicore/StructureDefinition/qicore-patient"]},"extension":[{"url":"http://hl7.org/fhir/us/core/StructureDefinition/us-core-race","extension":[{"url":"ombCategory","valueCoding":{"system":"urn:oid:2.16.840.1.113883.6.238","code":"2106-3","display":"White"}},{"url":"text","valueString":"White"}]},{"url":"http://hl7.org/fhir/us/core/StructureDefinition/us-core-ethnicity","extension":[{"url":"ombCategory","valueCoding":{"system":"urn:oid:2.16.840.1.113883.6.238","code":"2135-2","display":"Hispanic or Latino"}},{"url":"text","valueString":"Hispanic or Latino"}]},{"url":"http://hl7.org/fhir/us/core/StructureDefinition/us-core-sex","valueCode":"248153007"}],"identifier":[{"system":"http://hospital.smarthealthit.org","value":"999999999"}],"name":[{"family":"Example","given":["Patient"]}],"gender":"female","birthDate":"2000-07-11"},"request":{"method":"PUT","url":"Patient/cf9c230a-adc0-4830-bf04-fed4ab5ff6c8"}}]}