{"resourceType":"Bundle","id":"tests-41c102cb-d7f0-421d-ac76-5ac1c8dbe56a-bundle","type":"transaction","entry":[{"resource":{"resourceType":"Encounter","id":"1782eb85-80ab-4ef6-910a-13675961aa82","meta":{"profile":["http://hl7.org/fhir/us/qicore/StructureDefinition/qicore-encounter"]},"status":"finished","class":{"system":"http://terminology.hl7.org/CodeSystem/v3-ActCode","code":"EMERGENCY","display":"Emergency Department Visit"},"type":[{"coding":[{"system":"http://snomed.info/sct","code":"4525004","display":"Emergency department patient visit"}]}],"subject":{"reference":"Patient/41c102cb-d7f0-421d-ac76-5ac1c8dbe56a"},"period":{"start":"2026-11-11T08:00:00.000+00:00","end":"2026-11-12T08:00:00.000+00:00"}},"request":{"method":"PUT","url":"Encounter/1782eb85-80ab-4ef6-910a-13675961aa82"}},{"resource":{"resourceType":"Patient","id":"41c102cb-d7f0-421d-ac76-5ac1c8dbe56a","meta":{"profile":["http://hl7.org/fhir/us/qicore/StructureDefinition/qicore-patient"]},"extension":[{"url":"http://hl7.org/fhir/us/core/StructureDefinition/us-core-race","extension":[{"url":"ombCategory","valueCoding":{"system":"urn:oid:2.16.840.1.113883.6.238","code":"2106-3","display":"White"}},{"url":"text","valueString":"White"}]},{"url":"http://hl7.org/fhir/us/core/StructureDefinition/us-core-ethnicity","extension":[{"url":"ombCategory","valueCoding":{"system":"urn:oid:2.16.840.1.113883.6.238","code":"2135-2","display":"Hispanic or Latino"}},{"url":"text","valueString":"Hispanic or Latino"}]},{"url":"http://hl7.org/fhir/us/core/StructureDefinition/us-core-sex","valueCode":"248153007"}],"identifier":[{"system":"http://hospital.smarthealthit.org","value":"999999999"}],"name":[{"family":"Example","given":["Patient"]}],"gender":"female","birthDate":"1956-01-01"},"request":{"method":"PUT","url":"Patient/41c102cb-d7f0-421d-ac76-5ac1c8dbe56a"}},{"resource":{"resourceType":"Bundle","id":"tests-DENOMPass-HypoMedRelativeDateTimeDuringER-bundle","type":"transaction","entry":[{"fullUrl":"https://madie.cms.gov/Encounter/1782eb85-80ab-4ef6-910a-13675961aa82","resource":{"resourceType":"Encounter","id":"1782eb85-80ab-4ef6-910a-13675961aa82","meta":{"profile":["http://hl7.org/fhir/us/qicore/StructureDefinition/qicore-encounter"]},"status":"finished","class":{"system":"http://terminology.hl7.org/CodeSystem/v3-ActCode","code":"EMERGENCY","display":"Emergency Department Visit"},"type":[{"coding":[{"system":"http://snomed.info/sct","code":"4525004","display":"Emergency department patient visit"}]}],"subject":{"reference":"Patient/41c102cb-d7f0-421d-ac76-5ac1c8dbe56a"},"period":{"start":"2026-11-11T08:00:00.000+00:00","end":"2026-11-12T08:00:00.000+00:00"}},"request":{"method":"PUT","url":"Encounter/1782eb85-80ab-4ef6-910a-13675961aa82"}},{"fullUrl":"https://madie.cms.gov/Encounter/99e72f98-7674-4cc8-afb2-c4469ee4c0a3","resource":{"resourceType":"Encounter","id":"99e72f98-7674-4cc8-afb2-c4469ee4c0a3","meta":{"profile":["http://hl7.org/fhir/us/qicore/StructureDefinition/qicore-encounter"]},"status":"finished","class":{"system":"http://terminology.hl7.org/CodeSystem/v3-ActCode","code":"IMP","display":"Inpatient encounter"},"type":[{"coding":[{"system":"http://snomed.info/sct","code":"183452005","display":"Emergency hospital admission"}]}],"subject":{"reference":"Patient/41c102cb-d7f0-421d-ac76-5ac1c8dbe56a"},"period":{"start":"2026-11-12T08:00:00.000+00:00","end":"2026-11-14T08:15:00.000+00:00"}},"request":{"method":"PUT","url":"Encounter/99e72f98-7674-4cc8-afb2-c4469ee4c0a3"}},{"fullUrl":"https://madie.cms.gov/MedicationAdministration/dc96a8b6-04f6-452e-9e0b-1bcc6a7782ae","resource":{"resourceType":"MedicationAdministration","id":"dc96a8b6-04f6-452e-9e0b-1bcc6a7782ae","meta":{"profile":["http://hl7.org/fhir/us/qicore/StructureDefinition/qicore-medicationadministration"]},"status":"completed","medicationCodeableConcept":{"coding":[{"system":"http://www.nlm.nih.gov/research/umls/rxnorm","code":"1604539","display":"1.5 ML insulin glargine 300 UNT/ML Pen Injector"}]},"subject":{"reference":"Patient/41c102cb-d7f0-421d-ac76-5ac1c8dbe56a"},"effectivePeriod":{"start":"2026-11-11T08:20:00.000+00:00","end":"2026-11-11T08:25:00.000+00:00"}},"request":{"method":"PUT","url":"MedicationAdministration/dc96a8b6-04f6-452e-9e0b-1bcc6a7782ae"}},{"fullUrl":"https://madie.cms.gov/Patient/41c102cb-d7f0-421d-ac76-5ac1c8dbe56a","resource":{"resourceType":"Patient","id":"41c102cb-d7f0-421d-ac76-5ac1c8dbe56a","meta":{"profile":["http://hl7.org/fhir/us/qicore/StructureDefinition/qicore-patient"]},"extension":[{"url":"http://hl7.org/fhir/us/core/StructureDefinition/us-core-race","extension":[{"url":"ombCategory","valueCoding":{"system":"urn:oid:2.16.840.1.113883.6.238","code":"2106-3","display":"White"}},{"url":"text","valueString":"White"}]},{"url":"http://hl7.org/fhir/us/core/StructureDefinition/us-core-ethnicity","extension":[{"url":"ombCategory","valueCoding":{"system":"urn:oid:2.16.840.1.113883.6.238","code":"2135-2","display":"Hispanic or Latino"}},{"url":"text","valueString":"Hispanic or Latino"}]},{"url":"http://hl7.org/fhir/us/core/StructureDefinition/us-core-sex","valueCode":"248153007"}],"identifier":[{"system":"http://hospital.smarthealthit.org","value":"999999999"}],"name":[{"family":"Example","given":["Patient"]}],"gender":"female","birthDate":"1956-01-01"},"request":{"method":"PUT","url":"Patient/41c102cb-d7f0-421d-ac76-5ac1c8dbe56a"}},{"fullUrl":"https://madie.cms.gov/MeasureReport/21c9c079-e256-4a4a-9385-6b71cdf73ac7","resource":{"resourceType":"MeasureReport","id":"21c9c079-e256-4a4a-9385-6b71cdf73ac7","meta":{"profile":["http://hl7.org/fhir/us/cqfmeasures/StructureDefinition/test-case-cqfm"]},"contained":[{"resourceType":"Parameters","id":"b6d5e6f1-9960-4a75-8f80-784d5e6ed371-parameters","parameter":[{"name":"subject","valueString":"41c102cb-d7f0-421d-ac76-5ac1c8dbe56a"}]}],"extension":[{"url":"http://hl7.org/fhir/StructureDefinition/cqf-inputParameters","valueReference":{"reference":"#b6d5e6f1-9960-4a75-8f80-784d5e6ed371-parameters"}},{"url":"http://hl7.org/fhir/us/cqfmeasures/StructureDefinition/cqfm-testCaseDescription","valueMarkdown":"Encounter started in ER before IP. Hypo med relevant date/time during ER. Meets denominator."}],"modifierExtension":[{"url":"http://hl7.org/fhir/us/cqfmeasures/StructureDefinition/cqfm-isTestCase","valueBoolean":true}],"status":"complete","type":"individual","measure":"https://madie.cms.gov/Measure/CMS816FHIRHHHypo","period":{"start":"2026-01-01","end":"2026-12-31"},"group":[{"id":"Group_1","population":[{"id":"InitialPopulation_1","code":{"coding":[{"system":"http://terminology.hl7.org/CodeSystem/measure-population","code":"initial-population","display":"Initial Population"}]},"count":1},{"id":"Denominator_1","code":{"coding":[{"system":"http://terminology.hl7.org/CodeSystem/measure-population","code":"denominator","display":"Denominator"}]},"count":1},{"id":"Numerator_1","code":{"coding":[{"system":"http://terminology.hl7.org/CodeSystem/measure-population","code":"numerator","display":"Numerator"}]},"count":0}],"measureScore":{"value":0.0}}],"evaluatedResource":[{"reference":"Encounter/1782eb85-80ab-4ef6-910a-13675961aa82"},{"reference":"Encounter/99e72f98-7674-4cc8-afb2-c4469ee4c0a3"},{"reference":"MedicationAdministration/dc96a8b6-04f6-452e-9e0b-1bcc6a7782ae"},{"reference":"Patient/41c102cb-d7f0-421d-ac76-5ac1c8dbe56a"}]},"request":{"method":"PUT","url":"MeasureReport/21c9c079-e256-4a4a-9385-6b71cdf73ac7"}}]},"request":{"method":"PUT","url":"Bundle/tests-DENOMPass-HypoMedRelativeDateTimeDuringER-bundle"}},{"resource":{"resourceType":"Encounter","id":"99e72f98-7674-4cc8-afb2-c4469ee4c0a3","meta":{"profile":["http://hl7.org/fhir/us/qicore/StructureDefinition/qicore-encounter"]},"status":"finished","class":{"system":"http://terminology.hl7.org/CodeSystem/v3-ActCode","code":"IMP","display":"Inpatient encounter"},"type":[{"coding":[{"system":"http://snomed.info/sct","code":"183452005","display":"Emergency hospital admission"}]}],"subject":{"reference":"Patient/41c102cb-d7f0-421d-ac76-5ac1c8dbe56a"},"period":{"start":"2026-11-12T08:00:00.000+00:00","end":"2026-11-14T08:15:00.000+00:00"}},"request":{"method":"PUT","url":"Encounter/99e72f98-7674-4cc8-afb2-c4469ee4c0a3"}},{"resource":{"resourceType":"MedicationAdministration","id":"dc96a8b6-04f6-452e-9e0b-1bcc6a7782ae","meta":{"profile":["http://hl7.org/fhir/us/qicore/StructureDefinition/qicore-medicationadministration"]},"status":"completed","medicationCodeableConcept":{"coding":[{"system":"http://www.nlm.nih.gov/research/umls/rxnorm","code":"1604539","display":"1.5 ML insulin glargine 300 UNT/ML Pen Injector"}]},"subject":{"reference":"Patient/41c102cb-d7f0-421d-ac76-5ac1c8dbe56a"},"effectivePeriod":{"start":"2026-11-11T08:20:00.000+00:00","end":"2026-11-11T08:25:00.000+00:00"}},"request":{"method":"PUT","url":"MedicationAdministration/dc96a8b6-04f6-452e-9e0b-1bcc6a7782ae"}},{"resource":{"resourceType":"MeasureReport","id":"21c9c079-e256-4a4a-9385-6b71cdf73ac7","meta":{"profile":["http://hl7.org/fhir/us/cqfmeasures/StructureDefinition/test-case-cqfm"]},"contained":[{"resourceType":"Parameters","id":"b6d5e6f1-9960-4a75-8f80-784d5e6ed371-parameters","parameter":[{"name":"subject","valueString":"41c102cb-d7f0-421d-ac76-5ac1c8dbe56a"}]}],"extension":[{"url":"http://hl7.org/fhir/StructureDefinition/cqf-inputParameters","valueReference":{"reference":"#b6d5e6f1-9960-4a75-8f80-784d5e6ed371-parameters"}},{"url":"http://hl7.org/fhir/us/cqfmeasures/StructureDefinition/cqfm-testCaseDescription","valueMarkdown":"Encounter started in ER before IP. Hypo med relevant date/time during ER. Meets denominator."}],"modifierExtension":[{"url":"http://hl7.org/fhir/us/cqfmeasures/StructureDefinition/cqfm-isTestCase","valueBoolean":true}],"status":"complete","type":"individual","measure":"https://madie.cms.gov/Measure/CMS816FHIRHHHypo","period":{"start":"2026-01-01","end":"2026-12-31"},"group":[{"id":"Group_1","population":[{"id":"InitialPopulation_1","code":{"coding":[{"system":"http://terminology.hl7.org/CodeSystem/measure-population","code":"initial-population","display":"Initial Population"}]},"count":1},{"id":"Denominator_1","code":{"coding":[{"system":"http://terminology.hl7.org/CodeSystem/measure-population","code":"denominator","display":"Denominator"}]},"count":1},{"id":"Numerator_1","code":{"coding":[{"system":"http://terminology.hl7.org/CodeSystem/measure-population","code":"numerator","display":"Numerator"}]},"count":0}],"measureScore":{"value":0.0}}],"evaluatedResource":[{"reference":"Encounter/1782eb85-80ab-4ef6-910a-13675961aa82"},{"reference":"Encounter/99e72f98-7674-4cc8-afb2-c4469ee4c0a3"},{"reference":"MedicationAdministration/dc96a8b6-04f6-452e-9e0b-1bcc6a7782ae"},{"reference":"Patient/41c102cb-d7f0-421d-ac76-5ac1c8dbe56a"}]},"request":{"method":"PUT","url":"MeasureReport/21c9c079-e256-4a4a-9385-6b71cdf73ac7"}}]}