{
  "resourceType": "Bundle",
  "id": "63598dd9c35f1c19df09adbd",
  "type": "transaction",
  "entry": [ {
    "fullUrl": "https://madie.cms.gov/Patient/83c5c2f7-f11f-4067-a11d-1fda623242a3",
    "resource": {
      "resourceType": "Patient",
      "id": "83c5c2f7-f11f-4067-a11d-1fda623242a3",
      "meta": {
        "profile": [ "http://hl7.org/fhir/us/qicore/StructureDefinition/qicore-patient" ]
      },
      "text": {
        "status": "generated",
        "div": "<div xmlns=\"http://www.w3.org/1999/xhtml\"><div class=\"hapiHeaderText\">RISKHRRelDtTimeEQDelStart<b>RISKFail</b></div><table class=\"hapiPropertyTable\"><tbody><tr><td>Date of birth</td><td><span>01 February 2004</span></td></tr></tbody></table></div>"
      },
      "extension": [ {
        "url": "http://hl7.org/fhir/us/core/StructureDefinition/us-core-race",
        "extension": [ {
          "url": "ombCategory",
          "valueCoding": {
            "system": "urn:oid:2.16.840.1.113883.6.238",
            "code": "1002-5",
            "display": "American Indian or Alaska Native",
            "userSelected": true
          }
        }, {
          "url": "text",
          "valueString": "American Indian or Alaska Native"
        } ]
      }, {
        "url": "http://hl7.org/fhir/us/core/StructureDefinition/us-core-ethnicity",
        "extension": [ {
          "url": "ombCategory",
          "valueCoding": {
            "system": "urn:oid:2.16.840.1.113883.6.238",
            "code": "2135-2",
            "display": "Hispanic or Latino",
            "userSelected": true
          }
        }, {
          "url": "text",
          "valueString": "Hispanic or Latino"
        } ]
      } ],
      "identifier": [ {
        "type": {
          "coding": [ {
            "system": "http://terminology.hl7.org/CodeSystem/v2-0203",
            "code": "MR"
          } ]
        },
        "system": "https://bonnie-fhir.healthit.gov/",
        "value": "63598dd9c35f1c19df09adbd"
      } ],
      "active": true,
      "name": [ {
        "use": "usual",
        "family": "RiskFail",
        "given": [ "RISKHRRelDtTimeEQDelStart" ]
      } ],
      "gender": "female",
      "birthDate": "2005-02-01"
    },
    "request": {
      "method": "PUT",
      "url": "Patient/83c5c2f7-f11f-4067-a11d-1fda623242a3"
    }
  }, {
    "fullUrl": "https://madie.cms.gov/Observation/1075b21b-c0f8-4eee-9398-07c2844713ba",
    "resource": {
      "resourceType": "Observation",
      "id": "1075b21b-c0f8-4eee-9398-07c2844713ba",
      "meta": {
        "profile": [ "http://hl7.org/fhir/us/qicore/StructureDefinition/qicore-simple-observation" ]
      },
      "status": "final",
      "category": [ {
        "coding": [ {
          "system": "http://terminology.hl7.org/CodeSystem/observation-category",
          "code": "exam",
          "display": "exam",
          "userSelected": true
        } ]
      } ],
      "code": {
        "coding": [ {
          "system": "http://loinc.org",
          "code": "93857-1"
        } ]
      },
      "subject": {
        "reference": "Patient/83c5c2f7-f11f-4067-a11d-1fda623242a3"
      },
      "effectiveDateTime": "2026-02-01T08:00:00Z",
      "performer": [ {
        "reference": "Organization/example1",
        "display": "Hendricks Country Hospital"
      } ],
      "valueDateTime": "2026-02-01T08:00:00Z"
    },
    "request": {
      "method": "PUT",
      "url": "Observation/1075b21b-c0f8-4eee-9398-07c2844713ba"
    }
  }, {
    "fullUrl": "https://madie.cms.gov/Condition/94949cf5-9e17-4de9-a7c3-73fd6651fbcf",
    "resource": {
      "resourceType": "Condition",
      "id": "94949cf5-9e17-4de9-a7c3-73fd6651fbcf",
      "meta": {
        "profile": [ "http://hl7.org/fhir/us/qicore/StructureDefinition/qicore-condition-encounter-diagnosis" ]
      },
      "category": [ {
        "coding": [ {
          "system": "http://terminology.hl7.org/CodeSystem/condition-category",
          "code": "encounter-diagnosis",
          "display": "Encounter Diagnosis"
        } ]
      } ],
      "code": {
        "coding": [ {
          "system": "http://hl7.org/fhir/sid/icd-10-cm",
          "version": "2023",
          "code": "Z3A.21",
          "display": "21 weeks gestation",
          "userSelected": true
        } ]
      },
      "subject": {
        "reference": "Patient/83c5c2f7-f11f-4067-a11d-1fda623242a3"
      },
      "recordedDate": "2026-10-26T08:00:00Z"
    },
    "request": {
      "method": "PUT",
      "url": "Condition/94949cf5-9e17-4de9-a7c3-73fd6651fbcf"
    }
  }, {
    "fullUrl": "https://madie.cms.gov/Encounter/ebb2d70f-16af-4cf2-a01c-59c8d30e72bc",
    "resource": {
      "resourceType": "Encounter",
      "id": "ebb2d70f-16af-4cf2-a01c-59c8d30e72bc",
      "meta": {
        "profile": [ "http://hl7.org/fhir/us/qicore/StructureDefinition/qicore-encounter" ]
      },
      "status": "finished",
      "class": {
        "system": "http://terminology.hl7.org/CodeSystem/v3-ActCode",
        "code": "IMP",
        "display": "inpatient encounter"
      },
      "type": [ {
        "coding": [ {
          "system": "http://snomed.info/sct",
          "code": "183452005"
        } ]
      } ],
      "subject": {
        "reference": "Patient/83c5c2f7-f11f-4067-a11d-1fda623242a3"
      },
      "period": {
        "start": "2026-02-01T08:00:00Z",
        "end": "2026-02-05T08:15:00Z"
      },
      "reasonReference": [ {
        "reference": "Condition/94949cf5-9e17-4de9-a7c3-73fd6651fbcf"
      } ]
    },
    "request": {
      "method": "PUT",
      "url": "Encounter/ebb2d70f-16af-4cf2-a01c-59c8d30e72bc"
    }
  }, {
    "fullUrl": "https://madie.cms.gov/Encounter/d9577a04-e721-4e86-a8f0-2d5935b31501",
    "resource": {
      "resourceType": "Encounter",
      "id": "d9577a04-e721-4e86-a8f0-2d5935b31501",
      "meta": {
        "profile": [ "http://hl7.org/fhir/us/qicore/StructureDefinition/qicore-encounter" ]
      },
      "status": "finished",
      "class": {
        "system": "http://terminology.hl7.org/CodeSystem/v3-ActCode",
        "code": "EMER",
        "display": "emergency"
      },
      "type": [ {
        "coding": [ {
          "system": "http://snomed.info/sct",
          "code": "4525004"
        } ]
      } ],
      "subject": {
        "reference": "Patient/83c5c2f7-f11f-4067-a11d-1fda623242a3"
      },
      "period": {
        "start": "2026-02-01T07:00:00Z",
        "end": "2026-02-01T07:59:00Z"
      }
    },
    "request": {
      "method": "PUT",
      "url": "Encounter/d9577a04-e721-4e86-a8f0-2d5935b31501"
    }
  }, {
    "fullUrl": "https://madie.cms.gov/Procedure/76c5a9b5-4a3d-4ad4-9999-c62c6464a033",
    "resource": {
      "resourceType": "Procedure",
      "id": "76c5a9b5-4a3d-4ad4-9999-c62c6464a033",
      "meta": {
        "profile": [ "http://hl7.org/fhir/us/qicore/StructureDefinition/qicore-procedure" ]
      },
      "extension": [ {
        "url": "http://hl7.org/fhir/us/qicore/StructureDefinition/qicore-recorded",
        "valueDateTime": "2026-02-04T13:35:00Z"
      } ],
      "status": "completed",
      "code": {
        "coding": [ {
          "system": "http://snomed.info/sct",
          "code": "10745001"
        } ]
      },
      "subject": {
        "reference": "Patient/83c5c2f7-f11f-4067-a11d-1fda623242a3"
      },
      "performedPeriod": {
        "start": "2026-02-01T08:00:00Z",
        "end": "2026-02-05T08:15:00Z"
      }
    },
    "request": {
      "method": "PUT",
      "url": "Procedure/76c5a9b5-4a3d-4ad4-9999-c62c6464a033"
    }
  }, {
    "fullUrl": "https://madie.cms.gov/Observation/7db7658b-046e-4639-8918-1b37fdaaa686",
    "resource": {
      "resourceType": "Observation",
      "id": "7db7658b-046e-4639-8918-1b37fdaaa686",
      "meta": {
        "profile": [ "https://hl7.org/fhir/us/core/STU6.1/StructureDefinition-us-core-heart-rate.html" ]
      },
      "status": "final",
      "category": [ {
        "coding": [ {
          "system": "http://terminology.hl7.org/CodeSystem/observation-category",
          "code": "vital-signs",
          "display": "vital-signs",
          "userSelected": true
        } ]
      } ],
      "code": {
        "coding": [ {
          "system": "http://loinc.org",
          "version": "2.73",
          "code": "8867-4",
          "display": "Heart Rate"
        } ]
      },
      "subject": {
        "reference": "Patient/83c5c2f7-f11f-4067-a11d-1fda623242a3"
      },
      "effectiveDateTime": "2026-02-01T08:00:00",
      "valueQuantity": {
        "value": 85,
        "unit": "/min",
        "system": "http://unitsofmeasure.org",
        "code": "/min"
      }
    },
    "request": {
      "method": "PUT",
      "url": "Observation/7db7658b-046e-4639-8918-1b37fdaaa686"
    }
  }, {
    "fullUrl": "https://madie.cms.gov/MeasureReport/94b1426e-484b-435c-ad80-aa5ac751a25e",
    "resource": {
      "resourceType": "MeasureReport",
      "id": "94b1426e-484b-435c-ad80-aa5ac751a25e",
      "meta": {
        "profile": [ "http://hl7.org/fhir/us/cqfmeasures/StructureDefinition/test-case-cqfm" ]
      },
      "contained": [ {
        "resourceType": "Parameters",
        "id": "a1d09c51-1338-4069-aa1f-4e21b7ba7d97-parameters",
        "parameter": [ {
          "name": "subject",
          "valueString": "83c5c2f7-f11f-4067-a11d-1fda623242a3"
        } ]
      } ],
      "extension": [ {
        "url": "http://hl7.org/fhir/StructureDefinition/cqf-inputParameters",
        "valueReference": {
          "reference": "#a1d09c51-1338-4069-aa1f-4e21b7ba7d97-parameters"
        }
      }, {
        "url": "http://hl7.org/fhir/us/cqfmeasures/StructureDefinition/cqfm-testCaseDescription",
        "valueMarkdown": "Patient with heart rate relevant date/time = delivery date/time \n"
      } ],
      "modifierExtension": [ {
        "url": "http://hl7.org/fhir/us/cqfmeasures/StructureDefinition/cqfm-isTestCase",
        "valueBoolean": true
      } ],
      "status": "complete",
      "type": "individual",
      "measure": "https://madie.cms.gov/Measure/CMS1028FHIRPCSevereOBComps",
      "period": {
        "start": "2026-01-01",
        "end": "2026-12-31"
      },
      "group": [ {
        "id": "Group_1",
        "population": [ {
          "id": "InitialPopulation_1",
          "code": {
            "coding": [ {
              "system": "http://terminology.hl7.org/CodeSystem/measure-population",
              "code": "initial-population",
              "display": "Initial Population"
            } ]
          },
          "count": 1
        }, {
          "id": "Denominator_1",
          "code": {
            "coding": [ {
              "system": "http://terminology.hl7.org/CodeSystem/measure-population",
              "code": "denominator",
              "display": "Denominator"
            } ]
          },
          "count": 1
        }, {
          "id": "Numerator_1",
          "code": {
            "coding": [ {
              "system": "http://terminology.hl7.org/CodeSystem/measure-population",
              "code": "numerator",
              "display": "Numerator"
            } ]
          },
          "count": 0
        }, {
          "id": "NumeratorExclusion_1",
          "code": {
            "coding": [ {
              "system": "http://terminology.hl7.org/CodeSystem/measure-population",
              "code": "numerator-exclusion",
              "display": "Numerator Exclusion"
            } ]
          },
          "count": 0
        } ],
        "measureScore": {
          "value": 0.0
        }
      }, {
        "id": "Group_2",
        "population": [ {
          "id": "InitialPopulation_2",
          "code": {
            "coding": [ {
              "system": "http://terminology.hl7.org/CodeSystem/measure-population",
              "code": "initial-population",
              "display": "Initial Population"
            } ]
          },
          "count": 1
        }, {
          "id": "Denominator_2",
          "code": {
            "coding": [ {
              "system": "http://terminology.hl7.org/CodeSystem/measure-population",
              "code": "denominator",
              "display": "Denominator"
            } ]
          },
          "count": 1
        }, {
          "id": "Numerator_2",
          "code": {
            "coding": [ {
              "system": "http://terminology.hl7.org/CodeSystem/measure-population",
              "code": "numerator",
              "display": "Numerator"
            } ]
          },
          "count": 0
        }, {
          "id": "NumeratorExclusion_2",
          "code": {
            "coding": [ {
              "system": "http://terminology.hl7.org/CodeSystem/measure-population",
              "code": "numerator-exclusion",
              "display": "Numerator Exclusion"
            } ]
          },
          "count": 0
        } ],
        "measureScore": {
          "value": 0.0
        }
      } ],
      "evaluatedResource": [ {
        "reference": "Patient/83c5c2f7-f11f-4067-a11d-1fda623242a3"
      }, {
        "reference": "Observation/1075b21b-c0f8-4eee-9398-07c2844713ba"
      }, {
        "reference": "Condition/94949cf5-9e17-4de9-a7c3-73fd6651fbcf"
      }, {
        "reference": "Encounter/ebb2d70f-16af-4cf2-a01c-59c8d30e72bc"
      }, {
        "reference": "Encounter/d9577a04-e721-4e86-a8f0-2d5935b31501"
      }, {
        "reference": "Procedure/76c5a9b5-4a3d-4ad4-9999-c62c6464a033"
      }, {
        "reference": "Observation/7db7658b-046e-4639-8918-1b37fdaaa686"
      } ]
    },
    "request": {
      "method": "PUT",
      "url": "MeasureReport/94b1426e-484b-435c-ad80-aa5ac751a25e"
    }
  } ]
}