{
  "resourceType": "Bundle",
  "id": "tests-HighRiskProcStartsBeforeEncounterStart",
  "type": "transaction",
  "entry": [ {
    "fullUrl": "https://madie.cms.gov/Patient/eedc0219-de6f-4e2c-88a8-c3547d7e72eb",
    "resource": {
      "resourceType": "Patient",
      "id": "eedc0219-de6f-4e2c-88a8-c3547d7e72eb",
      "meta": {
        "profile": [ "http://hl7.org/fhir/us/qicore/StructureDefinition/qicore-patient" ]
      },
      "extension": [ {
        "url": "http://hl7.org/fhir/us/core/StructureDefinition/us-core-race",
        "extension": [ {
          "url": "ombCategory",
          "valueCoding": {
            "system": "urn:oid:2.16.840.1.113883.6.238",
            "code": "2028-9",
            "display": "Asian"
          }
        }, {
          "url": "text",
          "valueString": "Asian"
        } ]
      }, {
        "url": "http://hl7.org/fhir/us/core/StructureDefinition/us-core-ethnicity",
        "extension": [ {
          "url": "ombCategory",
          "valueCoding": {
            "system": "urn:oid:2.16.840.1.113883.6.238",
            "code": "2186-5",
            "display": "Not Hispanic or Latino"
          }
        }, {
          "url": "text",
          "valueString": "Not Hispanic or Latino"
        } ]
      }, {
        "url": "http://hl7.org/fhir/us/core/StructureDefinition/us-core-sex",
        "valueCode": "248153007"
      } ],
      "identifier": [ {
        "system": "http://hospital.smarthealthit.org",
        "value": "999999999"
      } ],
      "name": [ {
        "family": "Example",
        "given": [ "Malee" ]
      } ],
      "gender": "male",
      "birthDate": "1975-01-01"
    },
    "request": {
      "method": "PUT",
      "url": "Patient/eedc0219-de6f-4e2c-88a8-c3547d7e72eb"
    }
  }, {
    "fullUrl": "https://madie.cms.gov/Encounter/4fde94c6-bed2-421a-95bb-12a3dac9eae8",
    "resource": {
      "resourceType": "Encounter",
      "id": "4fde94c6-bed2-421a-95bb-12a3dac9eae8",
      "meta": {
        "profile": [ "http://hl7.org/fhir/us/qicore/StructureDefinition/qicore-encounter" ]
      },
      "status": "finished",
      "class": {
        "system": "http://terminology.hl7.org/CodeSystem/v3-ActCode",
        "code": "EMER",
        "display": "emergency encounter"
      },
      "type": [ {
        "coding": [ {
          "system": "http://snomed.info/sct",
          "code": "4525004",
          "display": "Emergency Department Visit"
        } ]
      } ],
      "subject": {
        "reference": "Patient/eedc0219-de6f-4e2c-88a8-c3547d7e72eb"
      },
      "period": {
        "start": "2026-09-29T13:00:00.000+00:00",
        "end": "2026-09-30T01:00:00.000+00:00"
      }
    },
    "request": {
      "method": "PUT",
      "url": "Encounter/4fde94c6-bed2-421a-95bb-12a3dac9eae8"
    }
  }, {
    "fullUrl": "https://madie.cms.gov/Observation/473b8e2a-8dde-474c-94a1-2ec86b57b904",
    "resource": {
      "resourceType": "Observation",
      "id": "473b8e2a-8dde-474c-94a1-2ec86b57b904",
      "meta": {
        "profile": [ "http://hl7.org/fhir/us/qicore/StructureDefinition/qicore-observation-lab" ]
      },
      "status": "final",
      "category": [ {
        "coding": [ {
          "system": "http://terminology.hl7.org/CodeSystem/observation-category",
          "code": "laboratory",
          "display": "Laboratory"
        } ]
      } ],
      "code": {
        "coding": [ {
          "system": "http://loinc.org",
          "version": "2.72",
          "code": "21232-4",
          "display": "Creatinine [Mass/volume] in Serum or Plasma"
        } ]
      },
      "subject": {
        "reference": "Patient/eedc0219-de6f-4e2c-88a8-c3547d7e72eb"
      },
      "effectiveDateTime": "2026-10-01T13:01:00.000+00:00",
      "valueQuantity": {
        "value": 0.9,
        "unit": "mg/dL",
        "system": "http://unitsofmeasure.org",
        "code": "mg/dL"
      }
    },
    "request": {
      "method": "PUT",
      "url": "Observation/473b8e2a-8dde-474c-94a1-2ec86b57b904"
    }
  }, {
    "fullUrl": "https://madie.cms.gov/Observation/d0084630-77da-4faf-9337-d870fda4d8c9",
    "resource": {
      "resourceType": "Observation",
      "id": "d0084630-77da-4faf-9337-d870fda4d8c9",
      "meta": {
        "profile": [ "http://hl7.org/fhir/us/qicore/StructureDefinition/qicore-observation-lab" ]
      },
      "status": "final",
      "category": [ {
        "coding": [ {
          "system": "http://terminology.hl7.org/CodeSystem/observation-category",
          "code": "laboratory",
          "display": "Laboratory"
        } ]
      } ],
      "code": {
        "coding": [ {
          "system": "http://loinc.org",
          "version": "2.72",
          "code": "21232-4",
          "display": "Creatinine [Mass/volume] in Serum or Plasma"
        } ]
      },
      "subject": {
        "reference": "Patient/eedc0219-de6f-4e2c-88a8-c3547d7e72eb"
      },
      "effectiveDateTime": "2026-10-01T12:00:00.000+00:00",
      "valueQuantity": {
        "value": 0.91,
        "unit": "mg/dL",
        "system": "http://unitsofmeasure.org",
        "code": "mg/dL"
      }
    },
    "request": {
      "method": "PUT",
      "url": "Observation/d0084630-77da-4faf-9337-d870fda4d8c9"
    }
  }, {
    "fullUrl": "https://madie.cms.gov/Observation/c9c0e413-0417-41fb-9f4b-8537b22fac21",
    "resource": {
      "resourceType": "Observation",
      "id": "c9c0e413-0417-41fb-9f4b-8537b22fac21",
      "meta": {
        "profile": [ "http://hl7.org/fhir/us/qicore/StructureDefinition/qicore-observation-lab" ]
      },
      "status": "final",
      "category": [ {
        "coding": [ {
          "system": "http://terminology.hl7.org/CodeSystem/observation-category",
          "code": "laboratory",
          "display": "Laboratory"
        } ]
      } ],
      "code": {
        "coding": [ {
          "system": "http://loinc.org",
          "version": "2.72",
          "code": "21232-4",
          "display": "Creatinine [Mass/volume] in Serum or Plasma"
        } ]
      },
      "subject": {
        "reference": "Patient/eedc0219-de6f-4e2c-88a8-c3547d7e72eb"
      },
      "effectiveDateTime": "2026-10-01T12:35:00.000+00:00",
      "valueQuantity": {
        "value": 0.91,
        "unit": "mg/dL",
        "system": "http://unitsofmeasure.org",
        "code": "mg/dL"
      }
    },
    "request": {
      "method": "PUT",
      "url": "Observation/c9c0e413-0417-41fb-9f4b-8537b22fac21"
    }
  }, {
    "fullUrl": "https://madie.cms.gov/Encounter/e899823a-59e9-4e91-b223-69bbee7ef7b9",
    "resource": {
      "resourceType": "Encounter",
      "id": "e899823a-59e9-4e91-b223-69bbee7ef7b9",
      "meta": {
        "profile": [ "http://hl7.org/fhir/us/qicore/StructureDefinition/qicore-encounter" ]
      },
      "status": "finished",
      "class": {
        "system": "http://terminology.hl7.org/CodeSystem/v3-ActCode",
        "code": "IMP",
        "display": "inpatient encounter"
      },
      "type": [ {
        "coding": [ {
          "system": "http://snomed.info/sct",
          "code": "183452005",
          "display": "Emergency hospital admission (procedure)"
        } ]
      } ],
      "subject": {
        "reference": "Patient/eedc0219-de6f-4e2c-88a8-c3547d7e72eb"
      },
      "period": {
        "start": "2026-09-30T01:01:00.000+00:00",
        "end": "2026-10-04T01:00:00.000+00:00"
      }
    },
    "request": {
      "method": "PUT",
      "url": "Encounter/e899823a-59e9-4e91-b223-69bbee7ef7b9"
    }
  }, {
    "fullUrl": "https://madie.cms.gov/Procedure/e1676d93-b5e6-44a0-9f08-e2f4377cb232",
    "resource": {
      "resourceType": "Procedure",
      "id": "e1676d93-b5e6-44a0-9f08-e2f4377cb232",
      "meta": {
        "profile": [ "http://hl7.org/fhir/us/qicore/StructureDefinition/qicore-procedure" ]
      },
      "status": "completed",
      "code": {
        "coding": [ {
          "system": "http://www.icd10data.com",
          "code": "02LW3DJ",
          "display": "High Risk Procedures for AKI"
        } ]
      },
      "subject": {
        "reference": "Patient/eedc0219-de6f-4e2c-88a8-c3547d7e72eb"
      },
      "performedPeriod": {
        "start": "2026-09-29T12:59:00.000+00:00",
        "end": "2026-09-30T01:00:00.000+00:00"
      }
    },
    "request": {
      "method": "PUT",
      "url": "Procedure/e1676d93-b5e6-44a0-9f08-e2f4377cb232"
    }
  }, {
    "fullUrl": "https://madie.cms.gov/MeasureReport/00f3308f-2dec-42ec-b038-963f0c947ad8",
    "resource": {
      "resourceType": "MeasureReport",
      "id": "00f3308f-2dec-42ec-b038-963f0c947ad8",
      "meta": {
        "profile": [ "http://hl7.org/fhir/us/cqfmeasures/StructureDefinition/test-case-cqfm" ]
      },
      "contained": [ {
        "resourceType": "Parameters",
        "id": "8ef334c6-5e7f-48a1-80f0-eeef3a329147-parameters",
        "parameter": [ {
          "name": "subject",
          "valueString": "eedc0219-de6f-4e2c-88a8-c3547d7e72eb"
        } ]
      } ],
      "extension": [ {
        "url": "http://hl7.org/fhir/StructureDefinition/cqf-inputParameters",
        "valueReference": {
          "reference": "#8ef334c6-5e7f-48a1-80f0-eeef3a329147-parameters"
        }
      }, {
        "url": "http://hl7.org/fhir/us/cqfmeasures/StructureDefinition/cqfm-testCaseDescription",
        "valueMarkdown": "IP Encounter with High Risk Procedure starts before ED and hospitalization start date/time. Must start during the encounter to meet the denominator exclusion, so fails.  "
      } ],
      "modifierExtension": [ {
        "url": "http://hl7.org/fhir/us/cqfmeasures/StructureDefinition/cqfm-isTestCase",
        "valueBoolean": true
      } ],
      "status": "complete",
      "type": "individual",
      "measure": "https://madie.cms.gov/Measure/CMS832HHAKIFHIR",
      "period": {
        "start": "2026-01-01",
        "end": "2026-12-31"
      },
      "group": [ {
        "id": "Group_1",
        "population": [ {
          "id": "InitialPopulation_1",
          "code": {
            "coding": [ {
              "system": "http://terminology.hl7.org/CodeSystem/measure-population",
              "code": "initial-population",
              "display": "Initial Population"
            } ]
          },
          "count": 1
        }, {
          "id": "Denominator_1",
          "code": {
            "coding": [ {
              "system": "http://terminology.hl7.org/CodeSystem/measure-population",
              "code": "denominator",
              "display": "Denominator"
            } ]
          },
          "count": 1
        }, {
          "id": "DenominatorExclusion_1",
          "code": {
            "coding": [ {
              "system": "http://terminology.hl7.org/CodeSystem/measure-population",
              "code": "denominator-exclusion",
              "display": "Denominator Exclusion"
            } ]
          },
          "count": 0
        }, {
          "id": "Numerator_1",
          "code": {
            "coding": [ {
              "system": "http://terminology.hl7.org/CodeSystem/measure-population",
              "code": "numerator",
              "display": "Numerator"
            } ]
          },
          "count": 0
        } ],
        "measureScore": {
          "value": 0.0
        }
      } ],
      "evaluatedResource": [ {
        "reference": "Patient/eedc0219-de6f-4e2c-88a8-c3547d7e72eb"
      }, {
        "reference": "Encounter/4fde94c6-bed2-421a-95bb-12a3dac9eae8"
      }, {
        "reference": "Observation/473b8e2a-8dde-474c-94a1-2ec86b57b904"
      }, {
        "reference": "Observation/d0084630-77da-4faf-9337-d870fda4d8c9"
      }, {
        "reference": "Observation/c9c0e413-0417-41fb-9f4b-8537b22fac21"
      }, {
        "reference": "Encounter/e899823a-59e9-4e91-b223-69bbee7ef7b9"
      }, {
        "reference": "Procedure/e1676d93-b5e6-44a0-9f08-e2f4377cb232"
      } ]
    },
    "request": {
      "method": "PUT",
      "url": "MeasureReport/00f3308f-2dec-42ec-b038-963f0c947ad8"
    }
  } ]
}