{
  "resourceType": "Bundle",
  "id": "60f82c2e98086b570510e280",
  "type": "transaction",
  "entry": [ {
    "fullUrl": "https://madie.cms.gov/Patient/da480fb9-7501-46f5-9575-f15a638bc751",
    "resource": {
      "resourceType": "Patient",
      "id": "da480fb9-7501-46f5-9575-f15a638bc751",
      "meta": {
        "profile": [ "http://hl7.org/fhir/us/qicore/StructureDefinition/qicore-patient" ]
      },
      "text": {
        "status": "generated",
        "div": "<div xmlns=\"http://www.w3.org/1999/xhtml\"><div class=\"hapiHeaderText\">LOS&gt;2Days_EDB4EncIP <b>DENEXFAIL </b></div><table class=\"hapiPropertyTable\"><tbody><tr><td>Identifier</td><td>96ae3fd09d21aef1d8b07c1b7dc995d3</td></tr><tr><td>Date of birth</td><td><span>21 August 1993</span></td></tr></tbody></table></div>"
      },
      "extension": [ {
        "url": "http://hl7.org/fhir/us/core/StructureDefinition/us-core-race",
        "extension": [ {
          "url": "ombCategory",
          "valueCoding": {
            "system": "urn:oid:2.16.840.1.113883.6.238",
            "code": "1002-5",
            "display": "American Indian or Alaska Native",
            "userSelected": true
          }
        }, {
          "url": "text",
          "valueString": "American Indian or Alaska Native"
        } ]
      }, {
        "url": "http://hl7.org/fhir/us/core/StructureDefinition/us-core-ethnicity",
        "extension": [ {
          "url": "ombCategory",
          "valueCoding": {
            "system": "urn:oid:2.16.840.1.113883.6.238",
            "code": "2135-2",
            "display": "Hispanic or Latino",
            "userSelected": true
          }
        }, {
          "url": "text",
          "valueString": "Hispanic or Latino"
        } ]
      } ],
      "identifier": [ {
        "type": {
          "coding": [ {
            "system": "http://terminology.hl7.org/CodeSystem/v2-0203",
            "code": "MR"
          } ]
        },
        "system": "https://bonnie-fhir.healthit.gov/",
        "value": "60f82c2e98086b570510e280"
      } ],
      "active": true,
      "name": [ {
        "use": "usual",
        "family": "DENEXFail",
        "given": [ "LOSGT2DaysEDB4EncIP" ]
      } ],
      "gender": "male",
      "birthDate": "1994-08-21"
    },
    "request": {
      "method": "PUT",
      "url": "Patient/da480fb9-7501-46f5-9575-f15a638bc751"
    }
  }, {
    "fullUrl": "https://madie.cms.gov/Encounter/b0c10c5e-6003-40bb-b7e5-dffaf37f513b",
    "resource": {
      "resourceType": "Encounter",
      "id": "b0c10c5e-6003-40bb-b7e5-dffaf37f513b",
      "meta": {
        "profile": [ "http://hl7.org/fhir/us/qicore/StructureDefinition/qicore-encounter" ]
      },
      "status": "finished",
      "class": {
        "system": "http://terminology.hl7.org/CodeSystem/v3-ActCode",
        "code": "EMER",
        "display": "emergency",
        "userSelected": true
      },
      "type": [ {
        "coding": [ {
          "system": "http://snomed.info/sct",
          "code": "4525004"
        } ]
      } ],
      "subject": {
        "reference": "Patient/da480fb9-7501-46f5-9575-f15a638bc751"
      },
      "period": {
        "start": "2026-08-19T08:00:00Z",
        "end": "2026-08-20T21:30:00.000+00:00"
      },
      "length": {
        "value": 1,
        "unit": "days"
      }
    },
    "request": {
      "method": "PUT",
      "url": "Encounter/b0c10c5e-6003-40bb-b7e5-dffaf37f513b"
    }
  }, {
    "fullUrl": "https://madie.cms.gov/Encounter/ab330c52-1283-4607-ad73-37e8cf772ba5",
    "resource": {
      "resourceType": "Encounter",
      "id": "ab330c52-1283-4607-ad73-37e8cf772ba5",
      "meta": {
        "profile": [ "http://hl7.org/fhir/us/qicore/StructureDefinition/qicore-encounter" ]
      },
      "status": "finished",
      "class": {
        "system": "http://terminology.hl7.org/CodeSystem/v3-ActCode",
        "code": "IMP",
        "display": "inpatient encounter",
        "userSelected": true
      },
      "type": [ {
        "coding": [ {
          "system": "http://snomed.info/sct",
          "code": "32485007"
        } ]
      } ],
      "subject": {
        "reference": "Patient/da480fb9-7501-46f5-9575-f15a638bc751"
      },
      "period": {
        "start": "2026-08-20T22:00:00Z",
        "end": "2026-08-22T12:00:00.000+00:00"
      },
      "length": {
        "value": 2,
        "unit": "days"
      },
      "reasonReference": [ {
        "reference": "Condition/9b95554f-93b4-4b18-90d4-4188563c9b1a"
      } ]
    },
    "request": {
      "method": "PUT",
      "url": "Encounter/ab330c52-1283-4607-ad73-37e8cf772ba5"
    }
  }, {
    "fullUrl": "https://madie.cms.gov/Coverage/3770b524-2b8f-4e20-a241-ee0944c39fa9",
    "resource": {
      "resourceType": "Coverage",
      "id": "3770b524-2b8f-4e20-a241-ee0944c39fa9",
      "status": "active",
      "beneficiary": {
        "reference": "Patient/da480fb9-7501-46f5-9575-f15a638bc751"
      },
      "period": {
        "start": "1994-08-21T07:00:00Z"
      },
      "payor": [ {
        "reference": "Organization/39f869ab-a1f2-4b0d-b2d0-be8b2ae7b7df"
      } ]
    },
    "request": {
      "method": "PUT",
      "url": "Coverage/3770b524-2b8f-4e20-a241-ee0944c39fa9"
    }
  }, {
    "fullUrl": "https://madie.cms.gov/Condition/9b95554f-93b4-4b18-90d4-4188563c9b1a",
    "resource": {
      "resourceType": "Condition",
      "id": "9b95554f-93b4-4b18-90d4-4188563c9b1a",
      "meta": {
        "profile": [ "http://hl7.org/fhir/us/qicore/StructureDefinition/qicore-condition-encounter-diagnosis" ]
      },
      "clinicalStatus": {
        "coding": [ {
          "system": "http://terminology.hl7.org/CodeSystem/condition-clinical",
          "code": "active"
        } ]
      },
      "verificationStatus": {
        "coding": [ {
          "system": "http://terminology.hl7.org/CodeSystem/condition-ver-status",
          "code": "confirmed"
        } ]
      },
      "category": [ {
        "coding": [ {
          "system": "http://terminology.hl7.org/CodeSystem/condition-category",
          "code": "encounter-diagnosis",
          "display": "Encounter Diagnosis"
        } ]
      } ],
      "code": {
        "coding": [ {
          "system": "http://snomed.info/sct",
          "version": "2020-09",
          "code": "111297002",
          "display": "Nonparalytic stroke (disorder)",
          "userSelected": true
        } ]
      },
      "subject": {
        "reference": "Patient/da480fb9-7501-46f5-9575-f15a638bc751"
      },
      "encounter": {
        "reference": "Encounter/ab330c52-1283-4607-ad73-37e8cf772ba5"
      },
      "recordedDate": "2026-08-12T08:00:00Z"
    },
    "request": {
      "method": "PUT",
      "url": "Condition/9b95554f-93b4-4b18-90d4-4188563c9b1a"
    }
  }, {
    "fullUrl": "https://madie.cms.gov/claim/5ca62962b8484628b8de1ec5",
    "resource": {
      "resourceType": "Claim",
      "id": "5ca62962b8484628b8de1ec5",
      "meta": {
        "profile": [ "http://hl7.org/fhir/us/qicore/StructureDefinition/qicore-claim" ]
      },
      "status": "active",
      "type": {
        "coding": [ {
          "system": "http://terminology.hl7.org/CodeSystem/claim-type",
          "code": "institutional"
        } ]
      },
      "use": "claim",
      "patient": {
        "reference": "Patient/5450abfd-a667-4eb9-9b59-e85feed4865c"
      },
      "created": "2026-12-01",
      "provider": {
        "reference": "Practitioner/practitioner-123456"
      },
      "priority": {
        "coding": [ {
          "system": "http://terminology.hl7.org/CodeSystem/processpriority",
          "code": "normal"
        } ]
      },
      "diagnosis": [ {
        "sequence": 1,
        "diagnosisCodeableConcept": {
          "coding": [ {
            "system": "http://hl7.org/fhir/sid/icd-10-cm",
            "code": "I63.00"
          } ]
        },
        "type": [ {
          "coding": [ {
            "system": "http://terminology.hl7.org/CodeSystem/ex-diagnosistype",
            "code": "principal"
          } ]
        } ]
      } ],
      "insurance": [ {
        "sequence": 1,
        "focal": true,
        "coverage": {
          "reference": "Coverage/5fa041661c76ba66d9959367"
        }
      } ],
      "item": [ {
        "sequence": 1,
        "diagnosisSequence": [ 1 ],
        "productOrService": {
          "coding": [ {
            "system": "http://terminology.hl7.org/CodeSystem/ex-USCLS",
            "code": "99555"
          } ]
        },
        "encounter": [ {
          "reference": "Encounter/ab330c52-1283-4607-ad73-37e8cf772ba5"
        } ]
      } ]
    },
    "request": {
      "method": "PUT",
      "url": "Claim/5ca62962b8484628b8de1ec5"
    }
  }, {
    "fullUrl": "https://madie.cms.gov/Organization/39f869ab-a1f2-4b0d-b2d0-be8b2ae7b7df",
    "resource": {
      "resourceType": "Organization",
      "id": "39f869ab-a1f2-4b0d-b2d0-be8b2ae7b7df",
      "meta": {
        "profile": [ "http://hl7.org/fhir/us/qicore/StructureDefinition/qicore-organization" ]
      },
      "identifier": [ {
        "use": "temp",
        "system": "urn:oid:2.16.840.1.113883.4.4",
        "value": "21-3259825"
      } ],
      "active": true,
      "type": [ {
        "coding": [ {
          "system": "http://terminology.hl7.org/CodeSystem/organization-type",
          "code": "pay",
          "display": "Payer"
        } ]
      } ],
      "name": "Blue Cross Blue Shield of Texas",
      "telecom": [ {
        "system": "phone",
        "value": "(+1) 972-766-6900"
      } ],
      "address": [ {
        "use": "billing",
        "type": "postal",
        "line": [ "P.O. Box 660044" ],
        "city": "Dallas",
        "state": "TX",
        "postalCode": "75266-0044",
        "country": "USA"
      } ]
    },
    "request": {
      "method": "PUT",
      "url": "Organization/39f869ab-a1f2-4b0d-b2d0-be8b2ae7b7df"
    }
  }, {
    "fullUrl": "https://madie.cms.gov/MeasureReport/52eb0184-0eb0-43ec-b970-259c98a53d6b",
    "resource": {
      "resourceType": "MeasureReport",
      "id": "52eb0184-0eb0-43ec-b970-259c98a53d6b",
      "meta": {
        "profile": [ "http://hl7.org/fhir/us/cqfmeasures/StructureDefinition/test-case-cqfm" ]
      },
      "contained": [ {
        "resourceType": "Parameters",
        "id": "3b5ad671-850c-4b75-aa7b-bba4fec098b1-parameters",
        "parameter": [ {
          "name": "subject",
          "valueString": "da480fb9-7501-46f5-9575-f15a638bc751"
        } ]
      } ],
      "extension": [ {
        "url": "http://hl7.org/fhir/StructureDefinition/cqf-inputParameters",
        "valueReference": {
          "reference": "#3b5ad671-850c-4b75-aa7b-bba4fec098b1-parameters"
        }
      }, {
        "url": "http://hl7.org/fhir/us/cqfmeasures/StructureDefinition/cqfm-testCaseDescription",
        "valueMarkdown": "LOS=3 days, Patient has  ED Visit <= 1 hour ends before IP encounter and starts > 2 days before end of IP , global.Hospitalization ( = Ed +IP)\n"
      } ],
      "modifierExtension": [ {
        "url": "http://hl7.org/fhir/us/cqfmeasures/StructureDefinition/cqfm-isTestCase",
        "valueBoolean": true
      } ],
      "status": "complete",
      "type": "individual",
      "measure": "https://madie.cms.gov/Measure/CMS72FHIRSTKAntithromboticDay2",
      "period": {
        "start": "2026-01-01",
        "end": "2026-12-31"
      },
      "group": [ {
        "id": "Group_1",
        "population": [ {
          "id": "InitialPopulation_1",
          "code": {
            "coding": [ {
              "system": "http://terminology.hl7.org/CodeSystem/measure-population",
              "code": "initial-population",
              "display": "Initial Population"
            } ]
          },
          "count": 1
        }, {
          "id": "Denominator_1",
          "code": {
            "coding": [ {
              "system": "http://terminology.hl7.org/CodeSystem/measure-population",
              "code": "denominator",
              "display": "Denominator"
            } ]
          },
          "count": 1
        }, {
          "id": "DenominatorExclusion_1",
          "code": {
            "coding": [ {
              "system": "http://terminology.hl7.org/CodeSystem/measure-population",
              "code": "denominator-exclusion",
              "display": "Denominator Exclusion"
            } ]
          },
          "count": 0
        }, {
          "id": "Numerator_1",
          "code": {
            "coding": [ {
              "system": "http://terminology.hl7.org/CodeSystem/measure-population",
              "code": "numerator",
              "display": "Numerator"
            } ]
          },
          "count": 0
        }, {
          "id": "DenominatorException_1",
          "code": {
            "coding": [ {
              "system": "http://terminology.hl7.org/CodeSystem/measure-population",
              "code": "denominator-exception",
              "display": "Denominator Exception"
            } ]
          },
          "count": 0
        } ],
        "measureScore": {
          "value": 0.0
        }
      } ],
      "evaluatedResource": [ {
        "reference": "Patient/da480fb9-7501-46f5-9575-f15a638bc751"
      }, {
        "reference": "Encounter/b0c10c5e-6003-40bb-b7e5-dffaf37f513b"
      }, {
        "reference": "Encounter/ab330c52-1283-4607-ad73-37e8cf772ba5"
      }, {
        "reference": "Coverage/3770b524-2b8f-4e20-a241-ee0944c39fa9"
      }, {
        "reference": "Condition/9b95554f-93b4-4b18-90d4-4188563c9b1a"
      }, {
        "reference": "Claim/5ca62962b8484628b8de1ec5"
      }, {
        "reference": "Organization/39f869ab-a1f2-4b0d-b2d0-be8b2ae7b7df"
      } ]
    },
    "request": {
      "method": "PUT",
      "url": "MeasureReport/52eb0184-0eb0-43ec-b970-259c98a53d6b"
    }
  } ]
}