{
  "resourceType": "Bundle",
  "id": "16519416165135165161",
  "type": "transaction",
  "entry": [ {
    "fullUrl": "https://madie.cms.gov/Patient/4cc0d4b2-9c45-4f7d-9dd9-b8588b27e2f1",
    "resource": {
      "resourceType": "Patient",
      "id": "4cc0d4b2-9c45-4f7d-9dd9-b8588b27e2f1",
      "meta": {
        "profile": [ "http://hl7.org/fhir/us/qicore/StructureDefinition/qicore-patient" ]
      },
      "extension": [ {
        "url": "http://hl7.org/fhir/us/core/StructureDefinition/us-core-race",
        "extension": [ {
          "url": "ombCategory",
          "valueCoding": {
            "system": "urn:oid:2.16.840.1.113883.6.238",
            "code": "1002-5",
            "display": "American Indian or Alaska Native"
          }
        }, {
          "url": "text",
          "valueString": "American Indian or Alaska Native"
        } ]
      }, {
        "url": "http://hl7.org/fhir/us/core/StructureDefinition/us-core-ethnicity",
        "extension": [ {
          "url": "ombCategory",
          "valueCoding": {
            "system": "urn:oid:2.16.840.1.113883.6.238",
            "code": "2186-5",
            "display": "Not Hispanic or Latino"
          }
        }, {
          "url": "text",
          "valueString": "Not Hispanic or Latino"
        } ]
      } ],
      "identifier": [ {
        "type": {
          "coding": [ {
            "system": "http://terminology.hl7.org/CodeSystem/v2-0203",
            "code": "MR"
          } ]
        },
        "system": "https://bonnie-fhir.healthit.gov/",
        "value": "431385494631"
      } ],
      "name": [ {
        "family": "DENEXPass",
        "given": [ "LVADCmplictnsRecorded" ]
      } ],
      "gender": "male",
      "birthDate": "1969-06-14"
    },
    "request": {
      "method": "PUT",
      "url": "Patient/4cc0d4b2-9c45-4f7d-9dd9-b8588b27e2f1"
    }
  }, {
    "fullUrl": "https://madie.cms.gov/Encounter/7fbef672-0381-46f2-ab32-cde7ddb3431d",
    "resource": {
      "resourceType": "Encounter",
      "id": "7fbef672-0381-46f2-ab32-cde7ddb3431d",
      "meta": {
        "profile": [ "http://hl7.org/fhir/us/qicore/StructureDefinition/qicore-encounter" ]
      },
      "status": "finished",
      "class": {
        "system": "http://terminology.hl7.org/CodeSystem/v3-ActCode",
        "code": "AMB",
        "display": "ambulatory"
      },
      "type": [ {
        "coding": [ {
          "system": "http://snomed.info/sct",
          "version": "http://snomed.info/sct/731000124108/version/20240301",
          "code": "281036007",
          "display": "Follow-up consultation (procedure)"
        } ]
      } ],
      "subject": {
        "reference": "Patient/4cc0d4b2-9c45-4f7d-9dd9-b8588b27e2f1"
      },
      "period": {
        "start": "2026-03-31T14:40:00.000+00:00",
        "end": "2026-03-31T14:40:00.000+00:00"
      }
    },
    "request": {
      "method": "PUT",
      "url": "Encounter/7fbef672-0381-46f2-ab32-cde7ddb3431d"
    }
  }, {
    "fullUrl": "https://madie.cms.gov/Encounter/9bae640d-c79c-4666-9299-419040a3bb08",
    "resource": {
      "resourceType": "Encounter",
      "id": "9bae640d-c79c-4666-9299-419040a3bb08",
      "meta": {
        "profile": [ "http://hl7.org/fhir/us/qicore/StructureDefinition/qicore-encounter" ]
      },
      "status": "finished",
      "class": {
        "system": "http://terminology.hl7.org/CodeSystem/v3-ActCode",
        "code": "AMB",
        "display": "ambulatory"
      },
      "type": [ {
        "coding": [ {
          "system": "http://snomed.info/sct",
          "version": "http://snomed.info/sct/731000124108/version/20240301",
          "code": "281036007",
          "display": "Follow-up consultation (procedure)"
        } ]
      } ],
      "subject": {
        "reference": "Patient/4cc0d4b2-9c45-4f7d-9dd9-b8588b27e2f1"
      },
      "period": {
        "start": "2026-05-15T11:50:00.000+00:00",
        "end": "2026-05-15T11:50:00.000+00:00"
      }
    },
    "request": {
      "method": "PUT",
      "url": "Encounter/9bae640d-c79c-4666-9299-419040a3bb08"
    }
  }, {
    "fullUrl": "https://madie.cms.gov/Condition/3b654506-44ff-4e0e-b787-c90ff4c51f91",
    "resource": {
      "resourceType": "Condition",
      "id": "3b654506-44ff-4e0e-b787-c90ff4c51f91",
      "meta": {
        "profile": [ "http://hl7.org/fhir/us/qicore/StructureDefinition/qicore-condition-problems-health-concerns" ]
      },
      "clinicalStatus": {
        "coding": [ {
          "system": "http://terminology.hl7.org/CodeSystem/condition-clinical",
          "code": "active",
          "display": "active"
        } ]
      },
      "verificationStatus": {
        "coding": [ {
          "system": "http://terminology.hl7.org/CodeSystem/condition-ver-status",
          "code": "confirmed",
          "display": "Confirmed"
        } ]
      },
      "category": [ {
        "coding": [ {
          "system": "http://terminology.hl7.org/CodeSystem/condition-category",
          "code": "problem-list-item",
          "display": "Problem List Item"
        } ]
      } ],
      "code": {
        "coding": [ {
          "system": "http://snomed.info/sct",
          "version": "http://snomed.info/sct/731000124108/version/20240301",
          "code": "10091002",
          "display": "High output heart failure (disorder)"
        } ]
      },
      "subject": {
        "reference": "Patient/4cc0d4b2-9c45-4f7d-9dd9-b8588b27e2f1"
      },
      "onsetPeriod": {
        "start": "2025-05-17T10:00:00.000+00:00"
      }
    },
    "request": {
      "method": "PUT",
      "url": "Condition/3b654506-44ff-4e0e-b787-c90ff4c51f91"
    }
  }, {
    "fullUrl": "https://madie.cms.gov/Condition/263d955b-e2f8-4aa9-939a-199a5c5096b0",
    "resource": {
      "resourceType": "Condition",
      "id": "263d955b-e2f8-4aa9-939a-199a5c5096b0",
      "meta": {
        "profile": [ "http://hl7.org/fhir/us/qicore/StructureDefinition/qicore-condition-problems-health-concerns" ]
      },
      "clinicalStatus": {
        "coding": [ {
          "system": "http://terminology.hl7.org/CodeSystem/condition-clinical",
          "code": "active",
          "display": "Active"
        } ]
      },
      "verificationStatus": {
        "coding": [ {
          "system": "http://terminology.hl7.org/CodeSystem/condition-ver-status",
          "code": "confirmed",
          "display": "Confirmed"
        } ]
      },
      "category": [ {
        "coding": [ {
          "system": "http://terminology.hl7.org/CodeSystem/condition-category",
          "code": "problem-list-item",
          "display": "Problem List Item"
        } ]
      } ],
      "code": {
        "coding": [ {
          "system": "http://snomed.info/sct",
          "version": "http://snomed.info/sct/731000124108/version/20240301",
          "code": "991000124109",
          "display": "Severe left ventricular systolic dysfunction (disorder)"
        } ]
      },
      "subject": {
        "reference": "Patient/4cc0d4b2-9c45-4f7d-9dd9-b8588b27e2f1"
      },
      "onsetPeriod": {
        "start": "2026-03-25T16:00:00.000+00:00",
        "end": "2026-03-30T16:00:00.000+00:00"
      }
    },
    "request": {
      "method": "PUT",
      "url": "Condition/263d955b-e2f8-4aa9-939a-199a5c5096b0"
    }
  }, {
    "fullUrl": "https://madie.cms.gov/Procedure/d0fbc0b9-ed0e-4aab-b370-7d2f6f31bfe5",
    "resource": {
      "resourceType": "Procedure",
      "id": "d0fbc0b9-ed0e-4aab-b370-7d2f6f31bfe5",
      "meta": {
        "profile": [ "http://hl7.org/fhir/us/qicore/StructureDefinition/qicore-procedure" ]
      },
      "extension": [ {
        "url": "http://hl7.org/fhir/us/qicore/StructureDefinition/qicore-recorded",
        "valueDateTime": "2025-09-25T13:00:00.000+00:00"
      } ],
      "status": "completed",
      "code": {
        "coding": [ {
          "system": "http://www.ama-assn.org/go/cpt",
          "version": "2024",
          "code": "33976",
          "display": "Insertion of ventricular assist device; extracorporeal, biventricular"
        } ]
      },
      "subject": {
        "reference": "Patient/4cc0d4b2-9c45-4f7d-9dd9-b8588b27e2f1"
      },
      "performedPeriod": {
        "start": "2025-09-25T11:00:00.000+00:00",
        "end": "2025-09-25T12:00:00.000+00:00"
      }
    },
    "request": {
      "method": "PUT",
      "url": "Procedure/d0fbc0b9-ed0e-4aab-b370-7d2f6f31bfe5"
    }
  }, {
    "fullUrl": "https://madie.cms.gov/Condition/90a044a6-c6aa-4716-9226-4f44caa821a6",
    "resource": {
      "resourceType": "Condition",
      "id": "90a044a6-c6aa-4716-9226-4f44caa821a6",
      "meta": {
        "profile": [ "http://hl7.org/fhir/us/qicore/StructureDefinition/qicore-condition-problems-health-concerns" ]
      },
      "clinicalStatus": {
        "coding": [ {
          "system": "http://terminology.hl7.org/CodeSystem/condition-clinical",
          "code": "active",
          "display": "Active"
        } ]
      },
      "verificationStatus": {
        "coding": [ {
          "system": "http://terminology.hl7.org/CodeSystem/condition-ver-status",
          "code": "confirmed",
          "display": "Confirmed"
        } ]
      },
      "category": [ {
        "coding": [ {
          "system": "http://terminology.hl7.org/CodeSystem/condition-category",
          "code": "problem-list-item",
          "display": "Problem List Item"
        } ]
      } ],
      "code": {
        "coding": [ {
          "system": "http://snomed.info/sct",
          "version": "http://snomed.info/sct/731000124108/version/20240301",
          "code": "764680009",
          "display": "Infection of left ventricular assist device driveline (disorder)"
        } ]
      },
      "subject": {
        "reference": "Patient/4cc0d4b2-9c45-4f7d-9dd9-b8588b27e2f1"
      },
      "recordedDate": "2026-01-14T16:00:00.000+00:00"
    },
    "request": {
      "method": "PUT",
      "url": "Condition/90a044a6-c6aa-4716-9226-4f44caa821a6"
    }
  }, {
    "fullUrl": "https://madie.cms.gov/MeasureReport/da427368-04fe-4159-beb5-27491e5c37a6",
    "resource": {
      "resourceType": "MeasureReport",
      "id": "da427368-04fe-4159-beb5-27491e5c37a6",
      "meta": {
        "profile": [ "http://hl7.org/fhir/us/cqfmeasures/StructureDefinition/test-case-cqfm" ]
      },
      "contained": [ {
        "resourceType": "Parameters",
        "id": "cf99d513-c1b2-46a5-9245-6eff62ba9f4b-parameters",
        "parameter": [ {
          "name": "subject",
          "valueString": "4cc0d4b2-9c45-4f7d-9dd9-b8588b27e2f1"
        } ]
      } ],
      "extension": [ {
        "url": "http://hl7.org/fhir/StructureDefinition/cqf-inputParameters",
        "valueReference": {
          "reference": "#cf99d513-c1b2-46a5-9245-6eff62ba9f4b-parameters"
        }
      }, {
        "url": "http://hl7.org/fhir/us/cqfmeasures/StructureDefinition/cqfm-testCaseDescription",
        "valueMarkdown": "Patient has 2 ambulatory encounters, HF diagnosis and LVSD and meets denominator exclusion with history of LVAD complications using recorded time"
      } ],
      "modifierExtension": [ {
        "url": "http://hl7.org/fhir/us/cqfmeasures/StructureDefinition/cqfm-isTestCase",
        "valueBoolean": true
      } ],
      "status": "complete",
      "type": "individual",
      "measure": "https://madie.cms.gov/Measure/CMS135FHIRHFACEIorARBorARNIforLVSD",
      "period": {
        "start": "2026-01-01",
        "end": "2026-12-31"
      },
      "group": [ {
        "id": "Group_1",
        "population": [ {
          "id": "InitialPopulation_1",
          "code": {
            "coding": [ {
              "system": "http://terminology.hl7.org/CodeSystem/measure-population",
              "code": "initial-population",
              "display": "Initial Population"
            } ]
          },
          "count": 1
        }, {
          "id": "Denominator_1",
          "code": {
            "coding": [ {
              "system": "http://terminology.hl7.org/CodeSystem/measure-population",
              "code": "denominator",
              "display": "Denominator"
            } ]
          },
          "count": 1
        }, {
          "id": "DenominatorExclusion_1",
          "code": {
            "coding": [ {
              "system": "http://terminology.hl7.org/CodeSystem/measure-population",
              "code": "denominator-exclusion",
              "display": "Denominator Exclusion"
            } ]
          },
          "count": 1
        }, {
          "id": "Numerator_1",
          "code": {
            "coding": [ {
              "system": "http://terminology.hl7.org/CodeSystem/measure-population",
              "code": "numerator",
              "display": "Numerator"
            } ]
          },
          "count": 0
        }, {
          "id": "DenominatorException_1",
          "code": {
            "coding": [ {
              "system": "http://terminology.hl7.org/CodeSystem/measure-population",
              "code": "denominator-exception",
              "display": "Denominator Exception"
            } ]
          },
          "count": 0
        } ],
        "measureScore": {
          "value": 1.0
        }
      } ],
      "evaluatedResource": [ {
        "reference": "Patient/4cc0d4b2-9c45-4f7d-9dd9-b8588b27e2f1"
      }, {
        "reference": "Encounter/7fbef672-0381-46f2-ab32-cde7ddb3431d"
      }, {
        "reference": "Encounter/9bae640d-c79c-4666-9299-419040a3bb08"
      }, {
        "reference": "Condition/3b654506-44ff-4e0e-b787-c90ff4c51f91"
      }, {
        "reference": "Condition/263d955b-e2f8-4aa9-939a-199a5c5096b0"
      }, {
        "reference": "Procedure/d0fbc0b9-ed0e-4aab-b370-7d2f6f31bfe5"
      }, {
        "reference": "Condition/90a044a6-c6aa-4716-9226-4f44caa821a6"
      } ]
    },
    "request": {
      "method": "PUT",
      "url": "MeasureReport/da427368-04fe-4159-beb5-27491e5c37a6"
    }
  } ]
}