{
  "resourceType": "Bundle",
  "id": "633c9d030968f8012250fc84",
  "type": "transaction",
  "entry": [ {
    "fullUrl": "https://madie.cms.gov/Patient/e8df70c5-74a8-4a26-871c-0301bcf9fd45",
    "resource": {
      "resourceType": "Patient",
      "id": "e8df70c5-74a8-4a26-871c-0301bcf9fd45",
      "meta": {
        "profile": [ "http://hl7.org/fhir/us/qicore/StructureDefinition/qicore-patient" ]
      },
      "text": {
        "status": "generated",
        "div": "<div xmlns=\"http://www.w3.org/1999/xhtml\"><div class=\"hapiHeaderText\">DENEXPass CMOdurEnc_ED&lt;1hrNoObsBFEnc <b>DENEXPASS </b></div><table class=\"hapiPropertyTable\"><tbody><tr><td>Identifier</td><td>49d4dc38463db4c2b58eeaff86ecd8cb</td></tr><tr><td>Date of birth</td><td><span>18 September 1985</span></td></tr></tbody></table></div>"
      },
      "extension": [ {
        "url": "http://hl7.org/fhir/us/core/StructureDefinition/us-core-race",
        "extension": [ {
          "url": "ombCategory",
          "valueCoding": {
            "system": "urn:oid:2.16.840.1.113883.6.238",
            "code": "1002-5",
            "display": "American Indian or Alaska Native",
            "userSelected": true
          }
        }, {
          "url": "text",
          "valueString": "American Indian or Alaska Native"
        } ]
      }, {
        "url": "http://hl7.org/fhir/us/core/StructureDefinition/us-core-ethnicity",
        "extension": [ {
          "url": "ombCategory",
          "valueCoding": {
            "system": "urn:oid:2.16.840.1.113883.6.238",
            "code": "2135-2",
            "display": "Hispanic or Latino",
            "userSelected": true
          }
        }, {
          "url": "text",
          "valueString": "Hispanic or Latino"
        } ]
      } ],
      "identifier": [ {
        "type": {
          "coding": [ {
            "system": "http://terminology.hl7.org/CodeSystem/v2-0203",
            "code": "MR"
          } ]
        },
        "system": "https://bonnie-fhir.healthit.gov/",
        "value": "633c9d030968f8012250fc84"
      } ],
      "active": true,
      "name": [ {
        "use": "usual",
        "family": "DENEXPass",
        "given": [ "DENEXPass CMOdurEncEDlt1hrNoObsBFEnc" ]
      } ],
      "gender": "female",
      "birthDate": "1986-09-18"
    },
    "request": {
      "method": "PUT",
      "url": "Patient/e8df70c5-74a8-4a26-871c-0301bcf9fd45"
    }
  }, {
    "fullUrl": "https://madie.cms.gov/claim/5ca62962b8484628b8de1ec5",
    "resource": {
      "resourceType": "Claim",
      "id": "5ca62962b8484628b8de1ec5",
      "meta": {
        "profile": [ "http://hl7.org/fhir/us/qicore/StructureDefinition/qicore-claim" ]
      },
      "status": "active",
      "type": {
        "coding": [ {
          "system": "http://terminology.hl7.org/CodeSystem/claim-type",
          "code": "institutional"
        } ]
      },
      "use": "claim",
      "patient": {
        "reference": "Patient/d170a0a8-b5ad-4303-b6df-e304dd5f92ad"
      },
      "created": "2026-12-01",
      "provider": {
        "reference": "Practitioner/6f9f1cfe-c7a3-488b-8686-e9eecaf7754d"
      },
      "priority": {
        "coding": [ {
          "system": "http://terminology.hl7.org/CodeSystem/processpriority",
          "code": "normal"
        } ]
      },
      "diagnosis": [ {
        "sequence": 1,
        "diagnosisCodeableConcept": {
          "coding": [ {
            "system": "http://hl7.org/fhir/sid/icd-10-cm",
            "code": "I63.00"
          } ]
        },
        "type": [ {
          "coding": [ {
            "system": "http://terminology.hl7.org/CodeSystem/ex-diagnosistype",
            "code": "principal"
          } ]
        } ]
      } ],
      "insurance": [ {
        "sequence": 1,
        "focal": true,
        "coverage": {
          "reference": "Coverage/5fa041661c76ba66d9959367"
        }
      } ],
      "item": [ {
        "sequence": 1,
        "diagnosisSequence": [ 1 ],
        "productOrService": {
          "coding": [ {
            "system": "http://terminology.hl7.org/CodeSystem/ex-USCLS",
            "code": "99555"
          } ]
        },
        "encounter": [ {
          "reference": "Encounter/34270669-c6dd-4201-a03a-025e595689e3"
        } ]
      } ]
    },
    "request": {
      "method": "PUT",
      "url": "Claim/5ca62962b8484628b8de1ec5"
    }
  }, {
    "fullUrl": "https://madie.cms.gov/Condition/a21950f9-dea9-4132-a234-3fb0d867f2b9",
    "resource": {
      "resourceType": "Condition",
      "id": "a21950f9-dea9-4132-a234-3fb0d867f2b9",
      "meta": {
        "profile": [ "http://hl7.org/fhir/us/qicore/StructureDefinition/qicore-condition-problems-health-concerns" ]
      },
      "clinicalStatus": {
        "coding": [ {
          "system": "http://terminology.hl7.org/CodeSystem/condition-clinical",
          "code": "inactive"
        } ]
      },
      "verificationStatus": {
        "coding": [ {
          "system": "http://terminology.hl7.org/CodeSystem/condition-ver-status",
          "code": "confirmed"
        } ]
      },
      "category": [ {
        "coding": [ {
          "system": "http://terminology.hl7.org/CodeSystem/condition-category",
          "code": "encounter-diagnosis",
          "display": "Encounter Diagnosis"
        } ]
      } ],
      "code": {
        "coding": [ {
          "system": "http://hl7.org/fhir/sid/icd-10-cm",
          "code": "I48.20"
        }, {
          "system": "http://hl7.org/fhir/sid/icd-10-cm",
          "code": "I48.0"
        }, {
          "system": "http://snomed.info/sct",
          "code": "5370000"
        } ]
      },
      "subject": {
        "reference": "Patient/e8df70c5-74a8-4a26-871c-0301bcf9fd45"
      },
      "onsetDateTime": "2026-10-01T09:00:00Z",
      "abatementDateTime": "2026-10-12T00:15:00.000+00:00"
    },
    "request": {
      "method": "PUT",
      "url": "Condition/a21950f9-dea9-4132-a234-3fb0d867f2b9"
    }
  }, {
    "fullUrl": "https://madie.cms.gov/Encounter/87b61f5a-be17-4a9c-8a4d-b03503b3f5ca",
    "resource": {
      "resourceType": "Encounter",
      "id": "87b61f5a-be17-4a9c-8a4d-b03503b3f5ca",
      "meta": {
        "profile": [ "http://hl7.org/fhir/us/qicore/StructureDefinition/qicore-encounter" ]
      },
      "status": "finished",
      "class": {
        "system": "http://terminology.hl7.org/CodeSystem/v3-ActCode",
        "code": "EMER",
        "display": "emergency"
      },
      "type": [ {
        "coding": [ {
          "system": "http://snomed.info/sct",
          "code": "4525004"
        } ]
      } ],
      "subject": {
        "reference": "Patient/e8df70c5-74a8-4a26-871c-0301bcf9fd45"
      },
      "period": {
        "start": "2026-10-01T09:00:00Z",
        "end": "2026-10-01T11:00:00.000+00:00"
      },
      "length": {
        "value": 0,
        "unit": "days"
      }
    },
    "request": {
      "method": "PUT",
      "url": "Encounter/87b61f5a-be17-4a9c-8a4d-b03503b3f5ca"
    }
  }, {
    "fullUrl": "https://madie.cms.gov/Encounter/34270669-c6dd-4201-a03a-025e595689e3",
    "resource": {
      "resourceType": "Encounter",
      "id": "34270669-c6dd-4201-a03a-025e595689e3",
      "meta": {
        "profile": [ "http://hl7.org/fhir/us/qicore/StructureDefinition/qicore-encounter" ]
      },
      "status": "finished",
      "class": {
        "system": "http://terminology.hl7.org/CodeSystem/v3-ActCode",
        "code": "IMP",
        "display": "inpatient encounter"
      },
      "type": [ {
        "coding": [ {
          "system": "http://snomed.info/sct",
          "code": "32485007"
        } ]
      } ],
      "subject": {
        "reference": "Patient/e8df70c5-74a8-4a26-871c-0301bcf9fd45"
      },
      "period": {
        "start": "2026-10-01T11:59:00Z",
        "end": "2026-10-12T00:15:00.000+00:00"
      },
      "length": {
        "value": 11,
        "unit": "days"
      },
      "reasonReference": [ {
        "reference": "Condition/a21950f9-dea9-4132-a234-3fb0d867f2b9"
      } ]
    },
    "request": {
      "method": "PUT",
      "url": "Encounter/34270669-c6dd-4201-a03a-025e595689e3"
    }
  }, {
    "fullUrl": "https://madie.cms.gov/ServiceRequest/0d1ce0e6-30ef-47c2-9f0c-5d49483a0605",
    "resource": {
      "resourceType": "ServiceRequest",
      "id": "0d1ce0e6-30ef-47c2-9f0c-5d49483a0605",
      "meta": {
        "profile": [ "http://hl7.org/fhir/us/qicore/StructureDefinition/qicore-servicerequest" ]
      },
      "status": "active",
      "intent": "order",
      "code": {
        "coding": [ {
          "system": "http://snomed.info/sct",
          "code": "133918004"
        } ]
      },
      "subject": {
        "reference": "Patient/e8df70c5-74a8-4a26-871c-0301bcf9fd45"
      },
      "authoredOn": "2026-10-01T11:30:00Z"
    },
    "request": {
      "method": "PUT",
      "url": "ServiceRequest/0d1ce0e6-30ef-47c2-9f0c-5d49483a0605"
    }
  }, {
    "fullUrl": "https://madie.cms.gov/Coverage/42f0d68e-aadf-41d1-8f0c-e7ad3049861f",
    "resource": {
      "resourceType": "Coverage",
      "id": "42f0d68e-aadf-41d1-8f0c-e7ad3049861f",
      "status": "active",
      "subscriberId": "523435",
      "beneficiary": {
        "reference": "Patient/e8df70c5-74a8-4a26-871c-0301bcf9fd45"
      },
      "relationship": {
        "coding": [ {
          "system": "http://terminology.hl7.org/CodeSystem/subscriber-relationship",
          "code": "self"
        } ]
      },
      "period": {
        "start": "1986-09-18T08:00:00Z"
      },
      "payor": [ {
        "reference": "Organization/791a2f2a-f329-44f1-87fd-4e7b4a5f1683"
      } ]
    },
    "request": {
      "method": "PUT",
      "url": "Coverage/42f0d68e-aadf-41d1-8f0c-e7ad3049861f"
    }
  }, {
    "fullUrl": "https://madie.cms.gov/Condition/6570d3d9-07f2-4df8-b50a-80e6082aeb2e",
    "resource": {
      "resourceType": "Condition",
      "id": "6570d3d9-07f2-4df8-b50a-80e6082aeb2e",
      "meta": {
        "profile": [ "http://hl7.org/fhir/us/qicore/StructureDefinition/qicore-condition-problems-health-concerns" ]
      },
      "clinicalStatus": {
        "coding": [ {
          "system": "http://terminology.hl7.org/CodeSystem/condition-clinical",
          "code": "active"
        } ]
      },
      "verificationStatus": {
        "coding": [ {
          "system": "http://terminology.hl7.org/CodeSystem/condition-ver-status",
          "code": "confirmed"
        } ]
      },
      "category": [ {
        "coding": [ {
          "system": "http://terminology.hl7.org/CodeSystem/condition-category",
          "code": "encounter-diagnosis",
          "display": "Encounter Diagnosis"
        } ]
      } ],
      "code": {
        "coding": [ {
          "system": "http://snomed.info/sct",
          "version": "2021-09",
          "code": "111297002",
          "display": "Nonparalytic stroke (disorder)",
          "userSelected": true
        } ]
      },
      "subject": {
        "reference": "Patient/e8df70c5-74a8-4a26-871c-0301bcf9fd45"
      },
      "recordedDate": "2026-10-13T08:00:00Z"
    },
    "request": {
      "method": "PUT",
      "url": "Condition/6570d3d9-07f2-4df8-b50a-80e6082aeb2e"
    }
  }, {
    "fullUrl": "https://madie.cms.gov/Organization/791a2f2a-f329-44f1-87fd-4e7b4a5f1683",
    "resource": {
      "resourceType": "Organization",
      "id": "791a2f2a-f329-44f1-87fd-4e7b4a5f1683",
      "meta": {
        "profile": [ "http://hl7.org/fhir/us/qicore/StructureDefinition/qicore-organization" ]
      },
      "identifier": [ {
        "use": "temp",
        "system": "urn:oid:2.16.840.1.113883.4.4",
        "value": "21-3259825"
      } ],
      "active": true,
      "type": [ {
        "coding": [ {
          "system": "http://terminology.hl7.org/CodeSystem/organization-type",
          "code": "pay",
          "display": "Payer"
        } ]
      } ],
      "name": "Blue Cross Blue Shield of Texas",
      "telecom": [ {
        "system": "phone",
        "value": "(+1) 972-766-6900"
      } ],
      "address": [ {
        "use": "billing",
        "type": "postal",
        "line": [ "P.O. Box 660044" ],
        "city": "Dallas",
        "state": "TX",
        "postalCode": "75266-0044",
        "country": "USA"
      } ]
    },
    "request": {
      "method": "PUT",
      "url": "Organization/791a2f2a-f329-44f1-87fd-4e7b4a5f1683"
    }
  }, {
    "fullUrl": "https://madie.cms.gov/Practitioner/6f9f1cfe-c7a3-488b-8686-e9eecaf7754d",
    "resource": {
      "resourceType": "Practitioner",
      "id": "6f9f1cfe-c7a3-488b-8686-e9eecaf7754d",
      "meta": {
        "profile": [ "http://hl7.org/fhir/us/qicore/StructureDefinition/qicore-practitioner" ]
      },
      "identifier": [ {
        "system": "http://hl7.org/fhir/sid/us-npi",
        "value": "9999999896"
      } ],
      "name": [ {
        "family": "Evil",
        "prefix": [ "Dr" ]
      } ]
    },
    "request": {
      "method": "PUT",
      "url": "Practitioner/6f9f1cfe-c7a3-488b-8686-e9eecaf7754d"
    }
  }, {
    "fullUrl": "https://madie.cms.gov/MeasureReport/d5d5e6a7-144f-4180-bc17-04a5fa6d8238",
    "resource": {
      "resourceType": "MeasureReport",
      "id": "d5d5e6a7-144f-4180-bc17-04a5fa6d8238",
      "meta": {
        "profile": [ "http://hl7.org/fhir/us/cqfmeasures/StructureDefinition/test-case-cqfm" ]
      },
      "contained": [ {
        "resourceType": "Parameters",
        "id": "feeb23ea-fbb7-430b-8405-41c385959ff3-parameters",
        "parameter": [ {
          "name": "subject",
          "valueString": "e8df70c5-74a8-4a26-871c-0301bcf9fd45"
        } ]
      } ],
      "extension": [ {
        "url": "http://hl7.org/fhir/StructureDefinition/cqf-inputParameters",
        "valueReference": {
          "reference": "#feeb23ea-fbb7-430b-8405-41c385959ff3-parameters"
        }
      }, {
        "url": "http://hl7.org/fhir/us/cqfmeasures/StructureDefinition/cqfm-testCaseDescription",
        "valueMarkdown": "Patient receives CMO during inpatient encounter. ED starts 59 minutes before inpatient encounter start on the same day. No Observation. Testing day of operator with HospitalizationWithObservation function.\n"
      } ],
      "modifierExtension": [ {
        "url": "http://hl7.org/fhir/us/cqfmeasures/StructureDefinition/cqfm-isTestCase",
        "valueBoolean": true
      } ],
      "status": "complete",
      "type": "individual",
      "measure": "https://madie.cms.gov/Measure/CMS71FHIRSTKAnticoagAFFlutter",
      "period": {
        "start": "2026-01-01",
        "end": "2026-12-31"
      },
      "group": [ {
        "id": "Group_1",
        "population": [ {
          "id": "InitialPopulation_1",
          "code": {
            "coding": [ {
              "system": "http://terminology.hl7.org/CodeSystem/measure-population",
              "code": "initial-population",
              "display": "Initial Population"
            } ]
          },
          "count": 1
        }, {
          "id": "Denominator_1",
          "code": {
            "coding": [ {
              "system": "http://terminology.hl7.org/CodeSystem/measure-population",
              "code": "denominator",
              "display": "Denominator"
            } ]
          },
          "count": 1
        }, {
          "id": "DenominatorExclusion_1",
          "code": {
            "coding": [ {
              "system": "http://terminology.hl7.org/CodeSystem/measure-population",
              "code": "denominator-exclusion",
              "display": "Denominator Exclusion"
            } ]
          },
          "count": 1
        }, {
          "id": "Numerator_1",
          "code": {
            "coding": [ {
              "system": "http://terminology.hl7.org/CodeSystem/measure-population",
              "code": "numerator",
              "display": "Numerator"
            } ]
          },
          "count": 0
        }, {
          "id": "DenominatorException_1",
          "code": {
            "coding": [ {
              "system": "http://terminology.hl7.org/CodeSystem/measure-population",
              "code": "denominator-exception",
              "display": "Denominator Exception"
            } ]
          },
          "count": 0
        } ],
        "measureScore": {
          "value": 0.0
        }
      } ],
      "evaluatedResource": [ {
        "reference": "Patient/e8df70c5-74a8-4a26-871c-0301bcf9fd45"
      }, {
        "reference": "Claim/5ca62962b8484628b8de1ec5"
      }, {
        "reference": "Condition/a21950f9-dea9-4132-a234-3fb0d867f2b9"
      }, {
        "reference": "Encounter/87b61f5a-be17-4a9c-8a4d-b03503b3f5ca"
      }, {
        "reference": "Encounter/34270669-c6dd-4201-a03a-025e595689e3"
      }, {
        "reference": "ServiceRequest/0d1ce0e6-30ef-47c2-9f0c-5d49483a0605"
      }, {
        "reference": "Coverage/42f0d68e-aadf-41d1-8f0c-e7ad3049861f"
      }, {
        "reference": "Condition/6570d3d9-07f2-4df8-b50a-80e6082aeb2e"
      }, {
        "reference": "Organization/791a2f2a-f329-44f1-87fd-4e7b4a5f1683"
      }, {
        "reference": "Practitioner/6f9f1cfe-c7a3-488b-8686-e9eecaf7754d"
      } ]
    },
    "request": {
      "method": "PUT",
      "url": "MeasureReport/d5d5e6a7-144f-4180-bc17-04a5fa6d8238"
    }
  } ]
}