{
    "entry": [
        {
            "request": {
                "method": "PUT",
                "url": "Patient/75a5223a-3a62-418a-bcc6-4522cfe71726"
            },
            "resource": {
                "identifier": [{
                    "system": "https://bonnie-fhir.healthit.gov/",
                    "type": {"coding": [{
                        "system": "http://terminology.hl7.org/CodeSystem/v2-0203",
                        "code": "MR"
                    }]},
                    "value": "62f684febc6a474306a95b43"
                }],
                "extension": [
                    {
                        "extension": [
                            {
                                "valueCoding": {
                                    "system": "urn:oid:2.16.840.1.113883.6.238",
                                    "code": "1002-5",
                                    "userSelected": true,
                                    "display": "American Indian or Alaska Native"
                                },
                                "url": "ombCategory"
                            },
                            {
                                "valueString": "American Indian or Alaska Native",
                                "url": "text"
                            }
                        ],
                        "url": "http://hl7.org/fhir/us/core/StructureDefinition/us-core-race"
                    },
                    {
                        "extension": [
                            {
                                "valueCoding": {
                                    "system": "urn:oid:2.16.840.1.113883.6.238",
                                    "code": "2135-2",
                                    "userSelected": true,
                                    "display": "Hispanic or Latino"
                                },
                                "url": "ombCategory"
                            },
                            {
                                "valueString": "Hispanic or Latino",
                                "url": "text"
                            }
                        ],
                        "url": "http://hl7.org/fhir/us/core/StructureDefinition/us-core-ethnicity"
                    }
                ],
                "gender": "male",
                "meta": {"profile": ["http://hl7.org/fhir/us/qicore/StructureDefinition/qicore-patient"]},
                "name": [{
                    "given": ["PosAdultDepScreenandFUWI2DAfterEndOfEnc"],
                    "family": "NUMERPass"
                }],
                "id": "75a5223a-3a62-418a-bcc6-4522cfe71726",
                "birthDate": "2008-01-01",
                "resourceType": "Patient"
            },
            "fullUrl": "https://madie.cms.gov/Patient/75a5223a-3a62-418a-bcc6-4522cfe71726"
        },
        {
            "request": {
                "method": "PUT",
                "url": "Encounter/e918b89d-08ee-46b0-bde6-ad79879faf90"
            },
            "resource": {
                "period": {
                    "start": "2026-06-21T08:00:00.000+00:00",
                    "end": "2026-06-21T08:15:00.000+00:00"
                },
                "meta": {"profile": ["http://hl7.org/fhir/us/qicore/StructureDefinition/qicore-encounter"]},
                "subject": {"reference": "Patient/75a5223a-3a62-418a-bcc6-4522cfe71726"},
                "id": "e918b89d-08ee-46b0-bde6-ad79879faf90",
                "type": [{"coding": [{
                    "system": "http://snomed.info/sct",
                    "code": "10197000",
                    "userSelected": true,
                    "display": "Psychiatric interview and evaluation (procedure)",
                    "version": "2021-09"
                }]}],
                "class": {
                    "system": "http://terminology.hl7.org/CodeSystem/v3-ActCode",
                    "code": "AMB",
                    "display": "ambulatory"
                },
                "resourceType": "Encounter",
                "status": "finished"
            },
            "fullUrl": "https://madie.cms.gov/Encounter/e918b89d-08ee-46b0-bde6-ad79879faf90"
        },
        {
            "request": {
                "method": "PUT",
                "url": "Observation/3d4452a8-7073-4cf7-9c48-be6d12c3cd04"
            },
            "resource": {
                "valueCodeableConcept": {"coding": [{
                    "system": "http://snomed.info/sct",
                    "code": "428181000124104",
                    "userSelected": true,
                    "display": "Depression screening positive (finding)"
                }]},
                "code": {"coding": [{
                    "system": "http://loinc.org",
                    "code": "73832-8",
                    "userSelected": true,
                    "display": "Adult depression screening assessment"
                }]},
                "effectiveDateTime": "2026-06-15T08:00:00.000+00:00",
                "meta": {"profile": ["http://hl7.org/fhir/us/qicore/StructureDefinition/qicore-observation-screening-assessment"]},
                "subject": {"reference": "Patient/75a5223a-3a62-418a-bcc6-4522cfe71726"},
                "id": "3d4452a8-7073-4cf7-9c48-be6d12c3cd04",
                "category": [{"coding": [{
                    "system": "http://terminology.hl7.org/CodeSystem/observation-category",
                    "code": "procedure",
                    "display": "Procedure"
                }]}],
                "resourceType": "Observation",
                "status": "final"
            },
            "fullUrl": "https://madie.cms.gov/Observation/3d4452a8-7073-4cf7-9c48-be6d12c3cd04"
        },
        {
            "request": {
                "method": "PUT",
                "url": "MedicationRequest/4eb4cc7e-6332-4f68-a5ac-f0843cc93e2c"
            },
            "resource": {
                "requester": {"reference": "Practitioner/Practitioner-123456"},
                "authoredOn": "2026-06-22T08:00:00.000+00:00",
                "meta": {"profile": ["http://hl7.org/fhir/us/qicore/StructureDefinition/qicore-medicationrequest"]},
                "subject": {"reference": "Patient/75a5223a-3a62-418a-bcc6-4522cfe71726"},
                "id": "4eb4cc7e-6332-4f68-a5ac-f0843cc93e2c",
                "doNotPerform": false,
                "medicationCodeableConcept": {"coding": [{
                    "system": "http://www.nlm.nih.gov/research/umls/rxnorm",
                    "code": "1000048",
                    "userSelected": true,
                    "display": "doxepin hydrochloride 10 MG Oral Capsule"
                }]},
                "intent": "order",
                "resourceType": "MedicationRequest",
                "status": "active"
            },
            "fullUrl": "https://madie.cms.gov/MedicationRequest/4eb4cc7e-6332-4f68-a5ac-f0843cc93e2c"
        },
        {
            "request": {
                "method": "PUT",
                "url": "Coverage/6faabd36-f178-47bf-8d57-287618d36ded"
            },
            "resource": {
                "payor": [{"reference": "Organization/58e19311-28ee-44c0-9c46-06b61bcfbf4b"}],
                "beneficiary": {"reference": "Patient/75a5223a-3a62-418a-bcc6-4522cfe71726"},
                "meta": {"profile": ["http://hl7.org/fhir/us/qicore/StructureDefinition/qicore-coverage"]},
                "id": "6faabd36-f178-47bf-8d57-287618d36ded",
                "resourceType": "Coverage",
                "status": "active"
            },
            "fullUrl": "https://madie.cms.gov/Coverage/6faabd36-f178-47bf-8d57-287618d36ded"
        },
        {
            "request": {
                "method": "PUT",
                "url": "Organization/58e19311-28ee-44c0-9c46-06b61bcfbf4b"
            },
            "resource": {
                "identifier": [{
                    "system": "urn:oid:2.16.840.1.113883.4.4",
                    "use": "temp",
                    "value": "21-3259825"
                }],
                "address": [{
                    "country": "USA",
                    "city": "Dallas",
                    "use": "billing",
                    "line": ["P.O. Box 660044"],
                    "postalCode": "75266-0044",
                    "state": "TX",
                    "type": "postal"
                }],
                "meta": {"profile": ["http://hl7.org/fhir/us/qicore/StructureDefinition/qicore-organization"]},
                "name": "Blue Cross Blue Shield of Texas",
                "active": true,
                "telecom": [{
                    "system": "phone",
                    "value": "(+1) 972-766-6900"
                }],
                "id": "58e19311-28ee-44c0-9c46-06b61bcfbf4b",
                "type": [{"coding": [{
                    "system": "http://terminology.hl7.org/CodeSystem/organization-type",
                    "code": "pay",
                    "display": "Payer"
                }]}],
                "resourceType": "Organization"
            },
            "fullUrl": "https://madie.cms.gov/Organization/58e19311-28ee-44c0-9c46-06b61bcfbf4b"
        },
        {
            "request": {
                "method": "PUT",
                "url": "Practitioner/7310deeb-f3bb-45a1-9328-5b5baedc2b76"
            },
            "resource": {
                "identifier": [{
                    "system": "http://hl7.org/fhir/sid/us-npi",
                    "value": "123456"
                }],
                "meta": {"profile": ["http://hl7.org/fhir/us/qicore/StructureDefinition/qicore-practitioner"]},
                "name": [{
                    "prefix": ["Dr"],
                    "family": "Evil"
                }],
                "id": "7310deeb-f3bb-45a1-9328-5b5baedc2b76",
                "resourceType": "Practitioner"
            },
            "fullUrl": "https://madie.cms.gov/Practitioner/7310deeb-f3bb-45a1-9328-5b5baedc2b76"
        },
        {
            "request": {
                "method": "PUT",
                "url": "MeasureReport/4a0d86f1-e7d5-4858-a541-da92afb22b51"
            },
            "resource": {
                "contained": [{
                    "parameter": [{
                        "valueString": "75a5223a-3a62-418a-bcc6-4522cfe71726",
                        "name": "subject"
                    }],
                    "id": "bb3fa95b-aa8e-447f-b995-85666193acc4-parameters",
                    "resourceType": "Parameters"
                }],
                "extension": [
                    {
                        "valueReference": {"reference": "#bb3fa95b-aa8e-447f-b995-85666193acc4-parameters"},
                        "url": "http://hl7.org/fhir/StructureDefinition/cqf-inputParameters"
                    },
                    {
                        "valueMarkdown": "Adult with previous positive adult depression screening and medication request follow up within 2 days after end of encounter",
                        "url": "http://hl7.org/fhir/us/cqfmeasures/StructureDefinition/cqfm-testCaseDescription"
                    }
                ],
                "period": {
                    "start": "2026-01-01",
                    "end": "2026-12-31"
                },
                "measure": "https://madie.cms.gov/Measure/CMS2FHIRPCSDepressionScreenAndFollowUp",
                "meta": {"profile": ["http://hl7.org/fhir/us/cqfmeasures/StructureDefinition/test-case-cqfm"]},
                "modifierExtension": [{
                    "valueBoolean": true,
                    "url": "http://hl7.org/fhir/us/cqfmeasures/StructureDefinition/cqfm-isTestCase"
                }],
                "id": "4a0d86f1-e7d5-4858-a541-da92afb22b51",
                "evaluatedResource": [
                    {"reference": "Patient/75a5223a-3a62-418a-bcc6-4522cfe71726"},
                    {"reference": "Encounter/e918b89d-08ee-46b0-bde6-ad79879faf90"},
                    {"reference": "Observation/3d4452a8-7073-4cf7-9c48-be6d12c3cd04"},
                    {"reference": "MedicationRequest/4eb4cc7e-6332-4f68-a5ac-f0843cc93e2c"},
                    {"reference": "Coverage/6faabd36-f178-47bf-8d57-287618d36ded"},
                    {"reference": "Organization/58e19311-28ee-44c0-9c46-06b61bcfbf4b"},
                    {"reference": "Practitioner/7310deeb-f3bb-45a1-9328-5b5baedc2b76"}
                ],
                "type": "individual",
                "resourceType": "MeasureReport",
                "status": "complete",
                "group": [{
                    "id": "Group_1",
                    "measureScore": {"value": 1},
                    "population": [
                        {
                            "code": {"coding": [{
                                "system": "http://terminology.hl7.org/CodeSystem/measure-population",
                                "code": "initial-population",
                                "display": "Initial Population"
                            }]},
                            "count": 1,
                            "id": "InitialPopulation_1"
                        },
                        {
                            "code": {"coding": [{
                                "system": "http://terminology.hl7.org/CodeSystem/measure-population",
                                "code": "denominator",
                                "display": "Denominator"
                            }]},
                            "count": 1,
                            "id": "Denominator_1"
                        },
                        {
                            "code": {"coding": [{
                                "system": "http://terminology.hl7.org/CodeSystem/measure-population",
                                "code": "denominator-exclusion",
                                "display": "Denominator Exclusion"
                            }]},
                            "count": 0,
                            "id": "DenominatorExclusion_1"
                        },
                        {
                            "code": {"coding": [{
                                "system": "http://terminology.hl7.org/CodeSystem/measure-population",
                                "code": "numerator",
                                "display": "Numerator"
                            }]},
                            "count": 1,
                            "id": "Numerator_1"
                        },
                        {
                            "code": {"coding": [{
                                "system": "http://terminology.hl7.org/CodeSystem/measure-population",
                                "code": "denominator-exception",
                                "display": "Denominator Exception"
                            }]},
                            "count": 0,
                            "id": "DenominatorException_1"
                        }
                    ]
                }]
            },
            "fullUrl": "https://madie.cms.gov/MeasureReport/4a0d86f1-e7d5-4858-a541-da92afb22b51"
        }
    ],
    "id": "62f684febc6a474306a95b43",
    "type": "transaction",
    "resourceType": "Bundle"
}