{
  "resourceType": "Bundle",
  "id": "60f82c2e98086b570510e25c",
  "type": "transaction",
  "entry": [ {
    "fullUrl": "https://madie.cms.gov/Patient/09a4fe70-dc7a-48ed-9b97-47f0a119eabd",
    "resource": {
      "resourceType": "Patient",
      "id": "09a4fe70-dc7a-48ed-9b97-47f0a119eabd",
      "meta": {
        "profile": [ "http://hl7.org/fhir/us/qicore/StructureDefinition/qicore-patient" ]
      },
      "text": {
        "status": "generated",
        "div": "<div xmlns=\"http://www.w3.org/1999/xhtml\"><div class=\"hapiHeaderText\">MedTPA&gt;24HrsB4ED <b>DENEXFAIL </b></div><table class=\"hapiPropertyTable\"><tbody><tr><td>Identifier</td><td>ae71bb61c4c014e82b6b6691136902f4</td></tr><tr><td>Date of birth</td><td><span>26 September 1975</span></td></tr></tbody></table></div>"
      },
      "extension": [ {
        "url": "http://hl7.org/fhir/us/core/StructureDefinition/us-core-race",
        "extension": [ {
          "url": "ombCategory",
          "valueCoding": {
            "system": "urn:oid:2.16.840.1.113883.6.238",
            "code": "2054-5",
            "display": "Black or African American",
            "userSelected": true
          }
        }, {
          "url": "text",
          "valueString": "Black or African American"
        } ]
      }, {
        "url": "http://hl7.org/fhir/us/core/StructureDefinition/us-core-ethnicity",
        "extension": [ {
          "url": "ombCategory",
          "valueCoding": {
            "system": "urn:oid:2.16.840.1.113883.6.238",
            "code": "2186-5",
            "display": "Not Hispanic or Latino",
            "userSelected": true
          }
        }, {
          "url": "text",
          "valueString": "Not Hispanic or Latino"
        } ]
      } ],
      "identifier": [ {
        "type": {
          "coding": [ {
            "system": "http://terminology.hl7.org/CodeSystem/v2-0203",
            "code": "MR"
          } ]
        },
        "system": "https://bonnie-fhir.healthit.gov/",
        "value": "60f82c2e98086b570510e25c"
      } ],
      "active": true,
      "name": [ {
        "use": "usual",
        "family": "DENEXFail",
        "given": [ "MedTPAGT24HrsB4ED" ]
      } ],
      "gender": "female",
      "birthDate": "1976-09-26"
    },
    "request": {
      "method": "PUT",
      "url": "Patient/09a4fe70-dc7a-48ed-9b97-47f0a119eabd"
    }
  }, {
    "fullUrl": "https://madie.cms.gov/Encounter/588f236c-81df-4ac7-bd40-0d62a28219ab",
    "resource": {
      "resourceType": "Encounter",
      "id": "588f236c-81df-4ac7-bd40-0d62a28219ab",
      "meta": {
        "profile": [ "http://hl7.org/fhir/us/qicore/StructureDefinition/qicore-encounter" ]
      },
      "status": "finished",
      "class": {
        "system": "http://terminology.hl7.org/CodeSystem/v3-ActCode",
        "code": "EMER",
        "display": "emergency",
        "userSelected": true
      },
      "type": [ {
        "coding": [ {
          "system": "http://snomed.info/sct",
          "code": "4525004"
        } ]
      } ],
      "subject": {
        "reference": "Patient/09a4fe70-dc7a-48ed-9b97-47f0a119eabd"
      },
      "period": {
        "start": "2026-10-10T06:00:00Z",
        "end": "2026-10-10T07:01:00.000+00:00"
      },
      "length": {
        "value": 0,
        "unit": "days"
      }
    },
    "request": {
      "method": "PUT",
      "url": "Encounter/588f236c-81df-4ac7-bd40-0d62a28219ab"
    }
  }, {
    "fullUrl": "https://madie.cms.gov/Encounter/93faf8c9-f2ef-4dbe-a85e-2c18d31e1462",
    "resource": {
      "resourceType": "Encounter",
      "id": "93faf8c9-f2ef-4dbe-a85e-2c18d31e1462",
      "meta": {
        "profile": [ "http://hl7.org/fhir/us/qicore/StructureDefinition/qicore-encounter" ]
      },
      "status": "finished",
      "class": {
        "system": "http://terminology.hl7.org/CodeSystem/v3-ActCode",
        "code": "IMP",
        "display": "inpatient encounter",
        "userSelected": true
      },
      "type": [ {
        "coding": [ {
          "system": "http://snomed.info/sct",
          "code": "32485007"
        } ]
      } ],
      "subject": {
        "reference": "Patient/09a4fe70-dc7a-48ed-9b97-47f0a119eabd"
      },
      "period": {
        "start": "2026-10-10T09:00:00Z",
        "end": "2026-10-12T11:15:00.000+00:00"
      },
      "length": {
        "value": 2,
        "unit": "days"
      },
      "reasonReference": [ {
        "reference": "Condition/ef4d1fdf-ea72-413c-9065-f746f5a7bb09"
      } ]
    },
    "request": {
      "method": "PUT",
      "url": "Encounter/93faf8c9-f2ef-4dbe-a85e-2c18d31e1462"
    }
  }, {
    "fullUrl": "https://madie.cms.gov/MedicationAdministration/7a6a735c-9df4-4788-9d24-40f782b9a571",
    "resource": {
      "resourceType": "MedicationAdministration",
      "id": "7a6a735c-9df4-4788-9d24-40f782b9a571",
      "meta": {
        "profile": [ "http://hl7.org/fhir/us/qicore/StructureDefinition/qicore-medicationadministration" ]
      },
      "status": "completed",
      "medicationCodeableConcept": {
        "coding": [ {
          "system": "http://www.nlm.nih.gov/research/umls/rxnorm",
          "code": "1804799"
        } ]
      },
      "subject": {
        "reference": "Patient/09a4fe70-dc7a-48ed-9b97-47f0a119eabd"
      },
      "effectivePeriod": {
        "start": "2026-10-09T05:00:00Z"
      }
    },
    "request": {
      "method": "PUT",
      "url": "MedicationAdministration/7a6a735c-9df4-4788-9d24-40f782b9a571"
    }
  }, {
    "fullUrl": "https://madie.cms.gov/Coverage/aae1b13f-6ee1-4989-8c8c-5d7946881487",
    "resource": {
      "resourceType": "Coverage",
      "id": "aae1b13f-6ee1-4989-8c8c-5d7946881487",
      "status": "active",
      "beneficiary": {
        "reference": "Patient/09a4fe70-dc7a-48ed-9b97-47f0a119eabd"
      },
      "period": {
        "start": "1976-09-26T08:00:00Z"
      },
      "payor": [ {
        "reference": "Organization/6deafa4d-d3eb-4af3-bad7-d42dfeaeb378"
      } ]
    },
    "request": {
      "method": "PUT",
      "url": "Coverage/aae1b13f-6ee1-4989-8c8c-5d7946881487"
    }
  }, {
    "fullUrl": "https://madie.cms.gov/Condition/ef4d1fdf-ea72-413c-9065-f746f5a7bb09",
    "resource": {
      "resourceType": "Condition",
      "id": "ef4d1fdf-ea72-413c-9065-f746f5a7bb09",
      "meta": {
        "profile": [ "http://hl7.org/fhir/us/qicore/StructureDefinition/qicore-condition-encounter-diagnosis" ]
      },
      "clinicalStatus": {
        "coding": [ {
          "system": "http://terminology.hl7.org/CodeSystem/condition-clinical",
          "code": "active"
        } ]
      },
      "verificationStatus": {
        "coding": [ {
          "system": "http://terminology.hl7.org/CodeSystem/condition-ver-status",
          "code": "confirmed"
        } ]
      },
      "category": [ {
        "coding": [ {
          "system": "http://terminology.hl7.org/CodeSystem/condition-category",
          "code": "encounter-diagnosis",
          "display": "Encounter Diagnosis"
        } ]
      } ],
      "code": {
        "coding": [ {
          "system": "http://snomed.info/sct",
          "version": "2020-09",
          "code": "111297002",
          "display": "Nonparalytic stroke (disorder)",
          "userSelected": true
        } ]
      },
      "subject": {
        "reference": "Patient/09a4fe70-dc7a-48ed-9b97-47f0a119eabd"
      },
      "encounter": {
        "reference": "Encounter/93faf8c9-f2ef-4dbe-a85e-2c18d31e1462"
      },
      "recordedDate": "2026-08-12T08:00:00Z"
    },
    "request": {
      "method": "PUT",
      "url": "Condition/ef4d1fdf-ea72-413c-9065-f746f5a7bb09"
    }
  }, {
    "fullUrl": "https://madie.cms.gov/claim/5ca62962b8484628b8de1ec5",
    "resource": {
      "resourceType": "Claim",
      "id": "5ca62962b8484628b8de1ec5",
      "meta": {
        "profile": [ "http://hl7.org/fhir/us/qicore/StructureDefinition/qicore-claim" ]
      },
      "status": "active",
      "type": {
        "coding": [ {
          "system": "http://terminology.hl7.org/CodeSystem/claim-type",
          "code": "institutional"
        } ]
      },
      "use": "claim",
      "patient": {
        "reference": "Patient/5450abfd-a667-4eb9-9b59-e85feed4865c"
      },
      "created": "2026-12-01",
      "provider": {
        "reference": "Practitioner/practitioner-123456"
      },
      "priority": {
        "coding": [ {
          "system": "http://terminology.hl7.org/CodeSystem/processpriority",
          "code": "normal"
        } ]
      },
      "diagnosis": [ {
        "sequence": 1,
        "diagnosisCodeableConcept": {
          "coding": [ {
            "system": "http://hl7.org/fhir/sid/icd-10-cm",
            "code": "I63.00"
          } ]
        },
        "type": [ {
          "coding": [ {
            "system": "http://terminology.hl7.org/CodeSystem/ex-diagnosistype",
            "code": "principal"
          } ]
        } ]
      } ],
      "insurance": [ {
        "sequence": 1,
        "focal": true,
        "coverage": {
          "reference": "Coverage/5fa041661c76ba66d9959367"
        }
      } ],
      "item": [ {
        "sequence": 1,
        "diagnosisSequence": [ 1 ],
        "productOrService": {
          "coding": [ {
            "system": "http://terminology.hl7.org/CodeSystem/ex-USCLS",
            "code": "99555"
          } ]
        },
        "encounter": [ {
          "reference": "Encounter/93faf8c9-f2ef-4dbe-a85e-2c18d31e1462"
        } ]
      } ]
    },
    "request": {
      "method": "PUT",
      "url": "Claim/5ca62962b8484628b8de1ec5"
    }
  }, {
    "fullUrl": "https://madie.cms.gov/Organization/6deafa4d-d3eb-4af3-bad7-d42dfeaeb378",
    "resource": {
      "resourceType": "Organization",
      "id": "6deafa4d-d3eb-4af3-bad7-d42dfeaeb378",
      "meta": {
        "profile": [ "http://hl7.org/fhir/us/qicore/StructureDefinition/qicore-organization" ]
      },
      "identifier": [ {
        "use": "temp",
        "system": "urn:oid:2.16.840.1.113883.4.4",
        "value": "21-3259825"
      } ],
      "active": true,
      "type": [ {
        "coding": [ {
          "system": "http://terminology.hl7.org/CodeSystem/organization-type",
          "code": "pay",
          "display": "Payer"
        } ]
      } ],
      "name": "Blue Cross Blue Shield of Texas",
      "telecom": [ {
        "system": "phone",
        "value": "(+1) 972-766-6900"
      } ],
      "address": [ {
        "use": "billing",
        "type": "postal",
        "line": [ "P.O. Box 660044" ],
        "city": "Dallas",
        "state": "TX",
        "postalCode": "75266-0044",
        "country": "USA"
      } ]
    },
    "request": {
      "method": "PUT",
      "url": "Organization/6deafa4d-d3eb-4af3-bad7-d42dfeaeb378"
    }
  }, {
    "fullUrl": "https://madie.cms.gov/MeasureReport/d0df5d24-1e93-4c8a-8f36-a25e66133a77",
    "resource": {
      "resourceType": "MeasureReport",
      "id": "d0df5d24-1e93-4c8a-8f36-a25e66133a77",
      "meta": {
        "profile": [ "http://hl7.org/fhir/us/cqfmeasures/StructureDefinition/test-case-cqfm" ]
      },
      "contained": [ {
        "resourceType": "Parameters",
        "id": "79accdfd-d0bc-4012-b948-c2ae3aa2719a-parameters",
        "parameter": [ {
          "name": "subject",
          "valueString": "09a4fe70-dc7a-48ed-9b97-47f0a119eabd"
        } ]
      } ],
      "extension": [ {
        "url": "http://hl7.org/fhir/StructureDefinition/cqf-inputParameters",
        "valueReference": {
          "reference": "#79accdfd-d0bc-4012-b948-c2ae3aa2719a-parameters"
        }
      }, {
        "url": "http://hl7.org/fhir/us/cqfmeasures/StructureDefinition/cqfm-testCaseDescription",
        "valueMarkdown": "Patient has ED visit <=1hour before IP encounter AND receives TPA >24 hours before ED visit, global.\"Hospitalization\" =(Ed+IP)\n"
      } ],
      "modifierExtension": [ {
        "url": "http://hl7.org/fhir/us/cqfmeasures/StructureDefinition/cqfm-isTestCase",
        "valueBoolean": true
      } ],
      "status": "complete",
      "type": "individual",
      "measure": "https://madie.cms.gov/Measure/CMS72FHIRSTKAntithromboticDay2",
      "period": {
        "start": "2026-01-01",
        "end": "2026-12-31"
      },
      "group": [ {
        "id": "Group_1",
        "population": [ {
          "id": "InitialPopulation_1",
          "code": {
            "coding": [ {
              "system": "http://terminology.hl7.org/CodeSystem/measure-population",
              "code": "initial-population",
              "display": "Initial Population"
            } ]
          },
          "count": 1
        }, {
          "id": "Denominator_1",
          "code": {
            "coding": [ {
              "system": "http://terminology.hl7.org/CodeSystem/measure-population",
              "code": "denominator",
              "display": "Denominator"
            } ]
          },
          "count": 1
        }, {
          "id": "DenominatorExclusion_1",
          "code": {
            "coding": [ {
              "system": "http://terminology.hl7.org/CodeSystem/measure-population",
              "code": "denominator-exclusion",
              "display": "Denominator Exclusion"
            } ]
          },
          "count": 0
        }, {
          "id": "Numerator_1",
          "code": {
            "coding": [ {
              "system": "http://terminology.hl7.org/CodeSystem/measure-population",
              "code": "numerator",
              "display": "Numerator"
            } ]
          },
          "count": 0
        }, {
          "id": "DenominatorException_1",
          "code": {
            "coding": [ {
              "system": "http://terminology.hl7.org/CodeSystem/measure-population",
              "code": "denominator-exception",
              "display": "Denominator Exception"
            } ]
          },
          "count": 0
        } ],
        "measureScore": {
          "value": 0.0
        }
      } ],
      "evaluatedResource": [ {
        "reference": "Patient/09a4fe70-dc7a-48ed-9b97-47f0a119eabd"
      }, {
        "reference": "Encounter/588f236c-81df-4ac7-bd40-0d62a28219ab"
      }, {
        "reference": "Encounter/93faf8c9-f2ef-4dbe-a85e-2c18d31e1462"
      }, {
        "reference": "MedicationAdministration/7a6a735c-9df4-4788-9d24-40f782b9a571"
      }, {
        "reference": "Coverage/aae1b13f-6ee1-4989-8c8c-5d7946881487"
      }, {
        "reference": "Condition/ef4d1fdf-ea72-413c-9065-f746f5a7bb09"
      }, {
        "reference": "Claim/5ca62962b8484628b8de1ec5"
      }, {
        "reference": "Organization/6deafa4d-d3eb-4af3-bad7-d42dfeaeb378"
      } ]
    },
    "request": {
      "method": "PUT",
      "url": "MeasureReport/d0df5d24-1e93-4c8a-8f36-a25e66133a77"
    }
  } ]
}