{"resourceType":"Bundle","id":"tests-4fc421c7-e490-4d4e-a326-53d08635efb9-bundle","type":"transaction","entry":[{"fullUrl":"Encounter/d6acfd6d-e18f-49e3-9145-c9502e9f5075","resource":{"resourceType":"Encounter","id":"d6acfd6d-e18f-49e3-9145-c9502e9f5075","meta":{"profile":["http://hl7.org/fhir/us/qicore/StructureDefinition/qicore-encounter"]},"status":"finished","class":{"system":"http://terminology.hl7.org/CodeSystem/v3-ActCode","code":"IMP","display":"inpatient encounter"},"type":[{"coding":[{"system":"http://snomed.info/sct","code":"8715000"}]}],"subject":{"reference":"Patient/4fc421c7-e490-4d4e-a326-53d08635efb9"},"period":{"start":"2026-11-01T08:00:00.000+00:00","end":"2026-11-26T08:15:00.000+00:00"},"length":{"value":25,"unit":"days"},"location":[{"location":{"reference":"Location/9a261957-1328-4d47-ba9f-979f17db5a98"},"period":{"start":"2026-11-01T09:00:00.000+00:00","end":"2026-11-10T08:15:00.000+00:00"}}]},"request":{"method":"PUT","url":"Encounter/d6acfd6d-e18f-49e3-9145-c9502e9f5075"}},{"fullUrl":"Patient/4fc421c7-e490-4d4e-a326-53d08635efb9","resource":{"resourceType":"Patient","id":"4fc421c7-e490-4d4e-a326-53d08635efb9","meta":{"profile":["http://hl7.org/fhir/us/qicore/StructureDefinition/qicore-patient"]},"text":{"status":"generated","div":"<div xmlns=\"http://www.w3.org/1999/xhtml\"><div class=\"hapiHeaderText\">MedReasonMARixDAVFPDuringOBS <b>NUMERPASS </b></div><table class=\"hapiPropertyTable\"><tbody><tr><td>Identifier</td><td>d5661b6a7ac7a6b9f13847d23af8475a</td></tr><tr><td>Date of birth</td><td><span>02 January 1974</span></td></tr></tbody></table></div>"},"extension":[{"url":"http://hl7.org/fhir/us/core/StructureDefinition/us-core-race","extension":[{"url":"ombCategory","valueCoding":{"system":"urn:oid:2.16.840.1.113883.6.238","code":"1002-5","display":"American Indian or Alaska Native","userSelected":true}},{"url":"text","valueString":"American Indian or Alaska Native"}]},{"url":"http://hl7.org/fhir/us/core/StructureDefinition/us-core-ethnicity","extension":[{"url":"ombCategory","valueCoding":{"system":"urn:oid:2.16.840.1.113883.6.238","code":"2135-2","display":"Hispanic or Latino","userSelected":true}},{"url":"text","valueString":"Hispanic or Latino"}]}],"identifier":[{"type":{"coding":[{"system":"http://terminology.hl7.org/CodeSystem/v2-0203","code":"MR"}]},"system":"https://bonnie-fhir.healthit.gov/","value":"612e6b8102c62a011f2ee0a5"}],"active":true,"name":[{"use":"usual","family":"NUMERPass","given":["MedReasonMARixDAVFPDuringOBS"]}],"gender":"male","birthDate":"1975-01-02"},"request":{"method":"PUT","url":"Patient/4fc421c7-e490-4d4e-a326-53d08635efb9"}},{"fullUrl":"Bundle/612e6b8102c62a011f2ee0a5","resource":{"resourceType":"Bundle","id":"612e6b8102c62a011f2ee0a5","type":"transaction","entry":[{"fullUrl":"https://madie.cms.gov/Patient/4fc421c7-e490-4d4e-a326-53d08635efb9","resource":{"resourceType":"Patient","id":"4fc421c7-e490-4d4e-a326-53d08635efb9","meta":{"profile":["http://hl7.org/fhir/us/qicore/StructureDefinition/qicore-patient"]},"text":{"status":"generated","div":"<div xmlns=\"http://www.w3.org/1999/xhtml\"><div class=\"hapiHeaderText\">MedReasonMARixDAVFPDuringOBS <b>NUMERPASS </b></div><table class=\"hapiPropertyTable\"><tbody><tr><td>Identifier</td><td>d5661b6a7ac7a6b9f13847d23af8475a</td></tr><tr><td>Date of birth</td><td><span>02 January 1974</span></td></tr></tbody></table></div>"},"extension":[{"url":"http://hl7.org/fhir/us/core/StructureDefinition/us-core-race","extension":[{"url":"ombCategory","valueCoding":{"system":"urn:oid:2.16.840.1.113883.6.238","code":"1002-5","display":"American Indian or Alaska Native","userSelected":true}},{"url":"text","valueString":"American Indian or Alaska Native"}]},{"url":"http://hl7.org/fhir/us/core/StructureDefinition/us-core-ethnicity","extension":[{"url":"ombCategory","valueCoding":{"system":"urn:oid:2.16.840.1.113883.6.238","code":"2135-2","display":"Hispanic or Latino","userSelected":true}},{"url":"text","valueString":"Hispanic or Latino"}]}],"identifier":[{"type":{"coding":[{"system":"http://terminology.hl7.org/CodeSystem/v2-0203","code":"MR"}]},"system":"https://bonnie-fhir.healthit.gov/","value":"612e6b8102c62a011f2ee0a5"}],"active":true,"name":[{"use":"usual","family":"NUMERPass","given":["MedReasonMARixDAVFPDuringOBS"]}],"gender":"male","birthDate":"1975-01-02"},"request":{"method":"PUT","url":"Patient/4fc421c7-e490-4d4e-a326-53d08635efb9"}},{"fullUrl":"https://madie.cms.gov/Encounter/1e988ea3-e922-46dc-9dab-7096e32777d7","resource":{"resourceType":"Encounter","id":"1e988ea3-e922-46dc-9dab-7096e32777d7","meta":{"profile":["http://hl7.org/fhir/us/qicore/StructureDefinition/qicore-encounter"]},"status":"finished","class":{"system":"http://terminology.hl7.org/CodeSystem/v3-ActCode","code":"OBSENC","display":"observation encounter"},"type":[{"coding":[{"system":"http://snomed.info/sct","code":"448951000124107"}]}],"subject":{"reference":"Patient/4fc421c7-e490-4d4e-a326-53d08635efb9"},"period":{"start":"2026-10-31T05:00:00.000+00:00","end":"2026-11-01T08:00:00.000+00:00"},"length":{"value":1,"unit":"days"}},"request":{"method":"PUT","url":"Encounter/1e988ea3-e922-46dc-9dab-7096e32777d7"}},{"fullUrl":"https://madie.cms.gov/Encounter/d6acfd6d-e18f-49e3-9145-c9502e9f5075","resource":{"resourceType":"Encounter","id":"d6acfd6d-e18f-49e3-9145-c9502e9f5075","meta":{"profile":["http://hl7.org/fhir/us/qicore/StructureDefinition/qicore-encounter"]},"status":"finished","class":{"system":"http://terminology.hl7.org/CodeSystem/v3-ActCode","code":"IMP","display":"inpatient encounter"},"type":[{"coding":[{"system":"http://snomed.info/sct","code":"8715000"}]}],"subject":{"reference":"Patient/4fc421c7-e490-4d4e-a326-53d08635efb9"},"period":{"start":"2026-11-01T08:00:00.000+00:00","end":"2026-11-26T08:15:00.000+00:00"},"length":{"value":25,"unit":"days"},"location":[{"location":{"reference":"Location/9a261957-1328-4d47-ba9f-979f17db5a98"},"period":{"start":"2026-11-01T09:00:00.000+00:00","end":"2026-11-10T08:15:00.000+00:00"}}]},"request":{"method":"PUT","url":"Encounter/d6acfd6d-e18f-49e3-9145-c9502e9f5075"}},{"fullUrl":"https://madie.cms.gov/Coverage/a9b1032b-62c4-41db-8b3b-3858adb6027f","resource":{"resourceType":"Coverage","id":"a9b1032b-62c4-41db-8b3b-3858adb6027f","status":"active","beneficiary":{"reference":"Patient/4fc421c7-e490-4d4e-a326-53d08635efb9"},"period":{"start":"1975-01-02T08:00:00.000+00:00"},"payor":[{"reference":"Organization/79025a29-0f18-4177-8142-60623b8f4af0"}]},"request":{"method":"PUT","url":"Coverage/a9b1032b-62c4-41db-8b3b-3858adb6027f"}},{"fullUrl":"https://madie.cms.gov/Procedure/f122837c-333c-4c22-9781-bc603870a789","resource":{"resourceType":"Procedure","id":"f122837c-333c-4c22-9781-bc603870a789","meta":{"profile":["http://hl7.org/fhir/us/qicore/StructureDefinition/qicore-procedurenotdone"]},"extension":[{"url":"http://hl7.org/fhir/us/qicore/StructureDefinition/qicore-recorded","valueDateTime":"2026-10-31T11:35:00.000+00:00"}],"status":"not-done","statusReason":{"coding":[{"system":"http://snomed.info/sct","code":"183932001","display":"Procedure contraindicated (situation)","userSelected":true}]},"code":{"coding":[{"system":"http://snomed.info/sct","code":"424831005","display":"Application of foot pump (procedure)","userSelected":true}]},"subject":{"reference":"Patient/4fc421c7-e490-4d4e-a326-53d08635efb9"},"_performedDateTime":{"extension":[{"url":"http://hl7.org/fhir/StructureDefinition/data-absent-reason","valueCode":"not-performed"}]}},"request":{"method":"PUT","url":"Procedure/f122837c-333c-4c22-9781-bc603870a789"}},{"fullUrl":"https://madie.cms.gov/MedicationAdministration/eee6befa-bfb4-411c-9c19-1e8dfd153083","resource":{"resourceType":"MedicationAdministration","id":"eee6befa-bfb4-411c-9c19-1e8dfd153083","meta":{"profile":["http://hl7.org/fhir/us/qicore/StructureDefinition/qicore-medicationadministrationnotdone"]},"extension":[{"url":"http://hl7.org/fhir/us/qicore/StructureDefinition/qicore-recorded","valueDateTime":"2026-10-31T07:00:00.000+00:00"}],"status":"not-done","statusReason":[{"coding":[{"system":"http://snomed.info/sct","code":"183932001","display":"Procedure contraindicated (situation)","userSelected":true}]}],"medicationCodeableConcept":{"coding":[{"system":"http://www.nlm.nih.gov/research/umls/rxnorm","code":"2588062","display":"rivaroxaban 1 MG/ML Oral Suspension"}]},"subject":{"reference":"Patient/4fc421c7-e490-4d4e-a326-53d08635efb9"},"effectivePeriod":{"start":"2026-10-31T07:00:00.000+00:00"}},"request":{"method":"PUT","url":"MedicationAdministration/eee6befa-bfb4-411c-9c19-1e8dfd153083"}},{"fullUrl":"https://madie.cms.gov/Location/9a261957-1328-4d47-ba9f-979f17db5a98","resource":{"resourceType":"Location","id":"9a261957-1328-4d47-ba9f-979f17db5a98","meta":{"profile":["http://hl7.org/fhir/us/qicore/StructureDefinition/qicore-location"]},"identifier":[{"use":"usual","system":"http://exampleoflocation.com","value":"B1-S.F2"}],"name":"Medical Surgical East, first floor","type":[{"coding":[{"system":"https://www.cdc.gov/nhsn/cdaportal/terminology/codesystem/hsloc.html","code":"1025-6","display":"Trauma Critical Care","userSelected":true}]}]},"request":{"method":"PUT","url":"Location/9a261957-1328-4d47-ba9f-979f17db5a98"}},{"fullUrl":"https://madie.cms.gov/Organization/79025a29-0f18-4177-8142-60623b8f4af0","resource":{"resourceType":"Organization","id":"79025a29-0f18-4177-8142-60623b8f4af0","meta":{"profile":["http://hl7.org/fhir/us/qicore/StructureDefinition/qicore-organization"]},"identifier":[{"use":"temp","system":"urn:oid:2.16.840.1.113883.4.4","value":"21-3259825"}],"active":true,"type":[{"coding":[{"system":"http://terminology.hl7.org/CodeSystem/organization-type","code":"pay","display":"Payer"}]}],"name":"Blue Cross Blue Shield of Texas","telecom":[{"system":"phone","value":"(+1) 972-766-6900"}],"address":[{"use":"billing","type":"postal","line":["P.O. Box 660044"],"city":"Dallas","state":"TX","postalCode":"75266-0044","country":"USA"}]},"request":{"method":"PUT","url":"Organization/79025a29-0f18-4177-8142-60623b8f4af0"}},{"fullUrl":"https://madie.cms.gov/Practitioner/973e6d0c-9978-482c-bfd2-1b61666ee98c","resource":{"resourceType":"Practitioner","id":"973e6d0c-9978-482c-bfd2-1b61666ee98c","identifier":[{"system":"http://hl7.org/fhir/sid/us-npi","value":"123456"}],"name":[{"family":"Evil","prefix":["Dr"]}]},"request":{"method":"PUT","url":"Practitioner/973e6d0c-9978-482c-bfd2-1b61666ee98c"}},{"fullUrl":"https://madie.cms.gov/MeasureReport/09429142-7451-412d-be12-7db3a2c694f9","resource":{"resourceType":"MeasureReport","id":"09429142-7451-412d-be12-7db3a2c694f9","meta":{"profile":["http://hl7.org/fhir/us/cqfmeasures/StructureDefinition/test-case-cqfm"]},"contained":[{"resourceType":"Parameters","id":"d325be8e-2b7e-4e41-8cf7-879d03114403-parameters","parameter":[{"name":"subject","valueString":"4fc421c7-e490-4d4e-a326-53d08635efb9"}]}],"extension":[{"url":"http://hl7.org/fhir/StructureDefinition/cqf-inputParameters","valueReference":{"reference":"#d325be8e-2b7e-4e41-8cf7-879d03114403-parameters"}},{"url":"http://hl7.org/fhir/us/cqfmeasures/StructureDefinition/cqfm-testCaseDescription","valueMarkdown":"meets IPP, meets Denominator, VFP appled not done MedRsn and Riv not done MedRsn - during Observation service"}],"modifierExtension":[{"url":"http://hl7.org/fhir/us/cqfmeasures/StructureDefinition/cqfm-isTestCase","valueBoolean":true}],"status":"complete","type":"individual","measure":"https://madie.cms.gov/Measure/CMS190VTEProphylaxisICUFHIR","period":{"start":"2026-01-01","end":"2026-12-31"},"group":[{"id":"Group_1","population":[{"id":"InitialPopulation_1","code":{"coding":[{"system":"http://terminology.hl7.org/CodeSystem/measure-population","code":"initial-population","display":"Initial Population"}]},"count":1},{"id":"Denominator_1","code":{"coding":[{"system":"http://terminology.hl7.org/CodeSystem/measure-population","code":"denominator","display":"Denominator"}]},"count":1},{"id":"DenominatorExclusion_1","code":{"coding":[{"system":"http://terminology.hl7.org/CodeSystem/measure-population","code":"denominator-exclusion","display":"Denominator Exclusion"}]},"count":0},{"id":"Numerator_1","code":{"coding":[{"system":"http://terminology.hl7.org/CodeSystem/measure-population","code":"numerator","display":"Numerator"}]},"count":1},{"id":"DenominatorException_1","code":{"coding":[{"system":"http://terminology.hl7.org/CodeSystem/measure-population","code":"denominator-exception","display":"Denominator Exception"}]},"count":0}],"measureScore":{"value":0.0}}],"evaluatedResource":[{"reference":"Patient/4fc421c7-e490-4d4e-a326-53d08635efb9"},{"reference":"Encounter/1e988ea3-e922-46dc-9dab-7096e32777d7"},{"reference":"Encounter/d6acfd6d-e18f-49e3-9145-c9502e9f5075"},{"reference":"Coverage/a9b1032b-62c4-41db-8b3b-3858adb6027f"},{"reference":"Procedure/f122837c-333c-4c22-9781-bc603870a789"},{"reference":"MedicationAdministration/eee6befa-bfb4-411c-9c19-1e8dfd153083"},{"reference":"Location/9a261957-1328-4d47-ba9f-979f17db5a98"},{"reference":"Organization/79025a29-0f18-4177-8142-60623b8f4af0"},{"reference":"Practitioner/973e6d0c-9978-482c-bfd2-1b61666ee98c"}]},"request":{"method":"PUT","url":"MeasureReport/09429142-7451-412d-be12-7db3a2c694f9"}}]},"request":{"method":"PUT","url":"Bundle/612e6b8102c62a011f2ee0a5"}},{"fullUrl":"Location/9a261957-1328-4d47-ba9f-979f17db5a98","resource":{"resourceType":"Location","id":"9a261957-1328-4d47-ba9f-979f17db5a98","meta":{"profile":["http://hl7.org/fhir/us/qicore/StructureDefinition/qicore-location"]},"identifier":[{"use":"usual","system":"http://exampleoflocation.com","value":"B1-S.F2"}],"name":"Medical Surgical East, first floor","type":[{"coding":[{"system":"https://www.cdc.gov/nhsn/cdaportal/terminology/codesystem/hsloc.html","code":"1025-6","display":"Trauma Critical Care","userSelected":true}]}]},"request":{"method":"PUT","url":"Location/9a261957-1328-4d47-ba9f-979f17db5a98"}},{"fullUrl":"MedicationAdministration/eee6befa-bfb4-411c-9c19-1e8dfd153083","resource":{"resourceType":"MedicationAdministration","id":"eee6befa-bfb4-411c-9c19-1e8dfd153083","meta":{"profile":["http://hl7.org/fhir/us/qicore/StructureDefinition/qicore-medicationadministrationnotdone"]},"extension":[{"url":"http://hl7.org/fhir/us/qicore/StructureDefinition/qicore-recorded","valueDateTime":"2026-10-31T07:00:00.000+00:00"}],"status":"not-done","statusReason":[{"coding":[{"system":"http://snomed.info/sct","code":"183932001","display":"Procedure contraindicated (situation)","userSelected":true}]}],"medicationCodeableConcept":{"coding":[{"system":"http://www.nlm.nih.gov/research/umls/rxnorm","code":"2588062","display":"rivaroxaban 1 MG/ML Oral Suspension"}]},"subject":{"reference":"Patient/4fc421c7-e490-4d4e-a326-53d08635efb9"},"effectivePeriod":{"start":"2026-10-31T07:00:00.000+00:00"}},"request":{"method":"PUT","url":"MedicationAdministration/eee6befa-bfb4-411c-9c19-1e8dfd153083"}},{"fullUrl":"Practitioner/973e6d0c-9978-482c-bfd2-1b61666ee98c","resource":{"resourceType":"Practitioner","id":"973e6d0c-9978-482c-bfd2-1b61666ee98c","identifier":[{"system":"http://hl7.org/fhir/sid/us-npi","value":"123456"}],"name":[{"family":"Evil","prefix":["Dr"]}]},"request":{"method":"PUT","url":"Practitioner/973e6d0c-9978-482c-bfd2-1b61666ee98c"}},{"fullUrl":"Encounter/1e988ea3-e922-46dc-9dab-7096e32777d7","resource":{"resourceType":"Encounter","id":"1e988ea3-e922-46dc-9dab-7096e32777d7","meta":{"profile":["http://hl7.org/fhir/us/qicore/StructureDefinition/qicore-encounter"]},"status":"finished","class":{"system":"http://terminology.hl7.org/CodeSystem/v3-ActCode","code":"OBSENC","display":"observation encounter"},"type":[{"coding":[{"system":"http://snomed.info/sct","code":"448951000124107"}]}],"subject":{"reference":"Patient/4fc421c7-e490-4d4e-a326-53d08635efb9"},"period":{"start":"2026-10-31T05:00:00.000+00:00","end":"2026-11-01T08:00:00.000+00:00"},"length":{"value":1,"unit":"days"}},"request":{"method":"PUT","url":"Encounter/1e988ea3-e922-46dc-9dab-7096e32777d7"}},{"fullUrl":"Procedure/f122837c-333c-4c22-9781-bc603870a789","resource":{"resourceType":"Procedure","id":"f122837c-333c-4c22-9781-bc603870a789","meta":{"profile":["http://hl7.org/fhir/us/qicore/StructureDefinition/qicore-procedurenotdone"]},"extension":[{"url":"http://hl7.org/fhir/us/qicore/StructureDefinition/qicore-recorded","valueDateTime":"2026-10-31T11:35:00.000+00:00"}],"status":"not-done","statusReason":{"coding":[{"system":"http://snomed.info/sct","code":"183932001","display":"Procedure contraindicated (situation)","userSelected":true}]},"code":{"coding":[{"system":"http://snomed.info/sct","code":"424831005","display":"Application of foot pump (procedure)","userSelected":true}]},"subject":{"reference":"Patient/4fc421c7-e490-4d4e-a326-53d08635efb9"},"_performedDateTime":{"extension":[{"url":"http://hl7.org/fhir/StructureDefinition/data-absent-reason","valueCode":"not-performed"}]}},"request":{"method":"PUT","url":"Procedure/f122837c-333c-4c22-9781-bc603870a789"}},{"fullUrl":"MeasureReport/09429142-7451-412d-be12-7db3a2c694f9","resource":{"resourceType":"MeasureReport","id":"09429142-7451-412d-be12-7db3a2c694f9","meta":{"profile":["http://hl7.org/fhir/us/cqfmeasures/StructureDefinition/test-case-cqfm"]},"contained":[{"resourceType":"Parameters","id":"d325be8e-2b7e-4e41-8cf7-879d03114403-parameters","parameter":[{"name":"subject","valueString":"4fc421c7-e490-4d4e-a326-53d08635efb9"}]}],"extension":[{"url":"http://hl7.org/fhir/StructureDefinition/cqf-inputParameters","valueReference":{"reference":"#d325be8e-2b7e-4e41-8cf7-879d03114403-parameters"}},{"url":"http://hl7.org/fhir/us/cqfmeasures/StructureDefinition/cqfm-testCaseDescription","valueMarkdown":"meets IPP, meets Denominator, VFP appled not done MedRsn and Riv not done MedRsn - during Observation service"}],"modifierExtension":[{"url":"http://hl7.org/fhir/us/cqfmeasures/StructureDefinition/cqfm-isTestCase","valueBoolean":true}],"status":"complete","type":"individual","measure":"https://madie.cms.gov/Measure/CMS190VTEProphylaxisICUFHIR","period":{"start":"2026-01-01","end":"2026-12-31"},"group":[{"id":"Group_1","population":[{"id":"InitialPopulation_1","code":{"coding":[{"system":"http://terminology.hl7.org/CodeSystem/measure-population","code":"initial-population","display":"Initial Population"}]},"count":1},{"id":"Denominator_1","code":{"coding":[{"system":"http://terminology.hl7.org/CodeSystem/measure-population","code":"denominator","display":"Denominator"}]},"count":1},{"id":"DenominatorExclusion_1","code":{"coding":[{"system":"http://terminology.hl7.org/CodeSystem/measure-population","code":"denominator-exclusion","display":"Denominator Exclusion"}]},"count":0},{"id":"Numerator_1","code":{"coding":[{"system":"http://terminology.hl7.org/CodeSystem/measure-population","code":"numerator","display":"Numerator"}]},"count":1},{"id":"DenominatorException_1","code":{"coding":[{"system":"http://terminology.hl7.org/CodeSystem/measure-population","code":"denominator-exception","display":"Denominator Exception"}]},"count":0}],"measureScore":{"value":0.0}}],"evaluatedResource":[{"reference":"Patient/4fc421c7-e490-4d4e-a326-53d08635efb9"},{"reference":"Encounter/1e988ea3-e922-46dc-9dab-7096e32777d7"},{"reference":"Encounter/d6acfd6d-e18f-49e3-9145-c9502e9f5075"},{"reference":"Coverage/a9b1032b-62c4-41db-8b3b-3858adb6027f"},{"reference":"Procedure/f122837c-333c-4c22-9781-bc603870a789"},{"reference":"MedicationAdministration/eee6befa-bfb4-411c-9c19-1e8dfd153083"},{"reference":"Location/9a261957-1328-4d47-ba9f-979f17db5a98"},{"reference":"Organization/79025a29-0f18-4177-8142-60623b8f4af0"},{"reference":"Practitioner/973e6d0c-9978-482c-bfd2-1b61666ee98c"}]},"request":{"method":"PUT","url":"MeasureReport/09429142-7451-412d-be12-7db3a2c694f9"}},{"fullUrl":"Coverage/a9b1032b-62c4-41db-8b3b-3858adb6027f","resource":{"resourceType":"Coverage","id":"a9b1032b-62c4-41db-8b3b-3858adb6027f","status":"active","beneficiary":{"reference":"Patient/4fc421c7-e490-4d4e-a326-53d08635efb9"},"period":{"start":"1975-01-02T08:00:00.000+00:00"},"payor":[{"reference":"Organization/79025a29-0f18-4177-8142-60623b8f4af0"}]},"request":{"method":"PUT","url":"Coverage/a9b1032b-62c4-41db-8b3b-3858adb6027f"}},{"fullUrl":"Organization/79025a29-0f18-4177-8142-60623b8f4af0","resource":{"resourceType":"Organization","id":"79025a29-0f18-4177-8142-60623b8f4af0","meta":{"profile":["http://hl7.org/fhir/us/qicore/StructureDefinition/qicore-organization"]},"identifier":[{"use":"temp","system":"urn:oid:2.16.840.1.113883.4.4","value":"21-3259825"}],"active":true,"type":[{"coding":[{"system":"http://terminology.hl7.org/CodeSystem/organization-type","code":"pay","display":"Payer"}]}],"name":"Blue Cross Blue Shield of Texas","telecom":[{"system":"phone","value":"(+1) 972-766-6900"}],"address":[{"use":"billing","type":"postal","line":["P.O. Box 660044"],"city":"Dallas","state":"TX","postalCode":"75266-0044","country":"USA"}]},"request":{"method":"PUT","url":"Organization/79025a29-0f18-4177-8142-60623b8f4af0"}}]}