{"resourceType":"Bundle","id":"tests-67df96df-45ff-4387-bc4d-04055a95483f-bundle","type":"transaction","entry":[{"fullUrl":"Bundle/612e6f6d02c62a011f2f1cad","resource":{"resourceType":"Bundle","id":"612e6f6d02c62a011f2f1cad","type":"transaction","entry":[{"fullUrl":"https://madie.cms.gov/Patient/67df96df-45ff-4387-bc4d-04055a95483f","resource":{"resourceType":"Patient","id":"67df96df-45ff-4387-bc4d-04055a95483f","meta":{"profile":["http://hl7.org/fhir/us/qicore/StructureDefinition/qicore-patient"]},"text":{"status":"generated","div":"<div xmlns=\"http://www.w3.org/1999/xhtml\"><div class=\"hapiHeaderText\">TestMultipleOccur1inDen1inNum <b>NUMERPASS </b></div><table class=\"hapiPropertyTable\"><tbody><tr><td>Identifier</td><td>9a2b10a8b5b2082e23f2748100ecbdeaeee7f4e84632ea8fa273e55b42847316</td></tr><tr><td>Date of birth</td><td><span>03 March 1974</span></td></tr></tbody></table></div>"},"extension":[{"url":"http://hl7.org/fhir/us/core/StructureDefinition/us-core-race","extension":[{"url":"ombCategory","valueCoding":{"system":"urn:oid:2.16.840.1.113883.6.238","code":"1002-5","display":"American Indian or Alaska Native","userSelected":true}},{"url":"text","valueString":"American Indian or Alaska Native"}]},{"url":"http://hl7.org/fhir/us/core/StructureDefinition/us-core-ethnicity","extension":[{"url":"ombCategory","valueCoding":{"system":"urn:oid:2.16.840.1.113883.6.238","code":"2135-2","display":"Hispanic or Latino","userSelected":true}},{"url":"text","valueString":"Hispanic or Latino"}]}],"identifier":[{"type":{"coding":[{"system":"http://terminology.hl7.org/CodeSystem/v2-0203","code":"MR"}]},"system":"https://bonnie-fhir.healthit.gov/","value":"612e6f6d02c62a011f2f1cad"}],"active":true,"name":[{"use":"usual","family":"NUMERPass","given":["TestMultipleOccur1inDen1inNum"]}],"gender":"female","birthDate":"1975-03-03"},"request":{"method":"PUT","url":"Patient/67df96df-45ff-4387-bc4d-04055a95483f"}},{"fullUrl":"https://madie.cms.gov/Encounter/b477e2da-b041-4b9f-8ba7-c0a96ed19f56","resource":{"resourceType":"Encounter","id":"b477e2da-b041-4b9f-8ba7-c0a96ed19f56","meta":{"profile":["http://hl7.org/fhir/us/qicore/StructureDefinition/qicore-encounter"]},"status":"finished","class":{"system":"http://terminology.hl7.org/CodeSystem/v3-ActCode","code":"IMP","display":"inpatient encounter"},"type":[{"coding":[{"system":"http://snomed.info/sct","code":"183452005"}]}],"subject":{"reference":"Patient/67df96df-45ff-4387-bc4d-04055a95483f"},"period":{"start":"2026-03-22T08:00:00.000+00:00","end":"2026-03-22T08:15:00.000+00:00"},"length":{"value":0,"unit":"days"}},"request":{"method":"PUT","url":"Encounter/b477e2da-b041-4b9f-8ba7-c0a96ed19f56"}},{"fullUrl":"https://madie.cms.gov/Encounter/f82c9e7b-b7b8-4ffb-a9fa-ebbc47824b4f","resource":{"resourceType":"Encounter","id":"f82c9e7b-b7b8-4ffb-a9fa-ebbc47824b4f","meta":{"profile":["http://hl7.org/fhir/us/qicore/StructureDefinition/qicore-encounter"]},"status":"finished","class":{"system":"http://terminology.hl7.org/CodeSystem/v3-ActCode","code":"EMER","display":"emergency"},"type":[{"coding":[{"system":"http://snomed.info/sct","code":"4525004"}]}],"subject":{"reference":"Patient/67df96df-45ff-4387-bc4d-04055a95483f"},"period":{"start":"2026-12-06T02:00:00.000+00:00","end":"2026-12-06T08:15:00.000+00:00"},"length":{"value":0,"unit":"days"}},"request":{"method":"PUT","url":"Encounter/f82c9e7b-b7b8-4ffb-a9fa-ebbc47824b4f"}},{"fullUrl":"https://madie.cms.gov/Encounter/79756f71-7a8c-4c35-80ed-00f7eb73c9e7","resource":{"resourceType":"Encounter","id":"79756f71-7a8c-4c35-80ed-00f7eb73c9e7","meta":{"profile":["http://hl7.org/fhir/us/qicore/StructureDefinition/qicore-encounter"]},"status":"finished","class":{"system":"http://terminology.hl7.org/CodeSystem/v3-ActCode","code":"IMP","display":"inpatient encounter"},"type":[{"coding":[{"system":"http://snomed.info/sct","code":"8715000"}]}],"subject":{"reference":"Patient/67df96df-45ff-4387-bc4d-04055a95483f"},"period":{"start":"2026-12-06T08:45:00.000+00:00","end":"2026-12-30T08:15:00.000+00:00"},"length":{"value":24,"unit":"days"},"location":[{"location":{"reference":"Location/7d41e313-0d92-45ce-bb23-8cb3c69f064a"},"period":{"start":"2026-12-06T09:00:00.000+00:00","end":"2026-12-12T08:15:00.000+00:00"}}]},"request":{"method":"PUT","url":"Encounter/79756f71-7a8c-4c35-80ed-00f7eb73c9e7"}},{"fullUrl":"https://madie.cms.gov/Coverage/b7bf3281-9d86-44ca-97f2-d3880735db69","resource":{"resourceType":"Coverage","id":"b7bf3281-9d86-44ca-97f2-d3880735db69","status":"active","beneficiary":{"reference":"Patient/67df96df-45ff-4387-bc4d-04055a95483f"},"period":{"start":"1975-03-03T08:00:00.000+00:00"},"payor":[{"reference":"Organization/3fea4891-ee40-49d5-aeb8-e8c8b334638e"}]},"request":{"method":"PUT","url":"Coverage/b7bf3281-9d86-44ca-97f2-d3880735db69"}},{"fullUrl":"https://madie.cms.gov/MedicationAdministration/74f5e70f-5b1e-46ab-98b9-3ec1e4f03d52","resource":{"resourceType":"MedicationAdministration","id":"74f5e70f-5b1e-46ab-98b9-3ec1e4f03d52","meta":{"profile":["http://hl7.org/fhir/us/qicore/StructureDefinition/qicore-medicationadministration"]},"status":"completed","medicationCodeableConcept":{"coding":[{"system":"http://www.nlm.nih.gov/research/umls/rxnorm","code":"308351"}]},"subject":{"reference":"Patient/67df96df-45ff-4387-bc4d-04055a95483f"},"effectivePeriod":{"start":"2026-12-06T06:30:00.000+00:00"}},"request":{"method":"PUT","url":"MedicationAdministration/74f5e70f-5b1e-46ab-98b9-3ec1e4f03d52"}},{"fullUrl":"https://madie.cms.gov/Location/7d41e313-0d92-45ce-bb23-8cb3c69f064a","resource":{"resourceType":"Location","id":"7d41e313-0d92-45ce-bb23-8cb3c69f064a","meta":{"profile":["http://hl7.org/fhir/us/qicore/StructureDefinition/qicore-location"]},"identifier":[{"use":"usual","system":"http://exampleoflocation.com","value":"B1-S.F2"}],"name":"Medical Surgical East, first floor","type":[{"coding":[{"system":"https://www.cdc.gov/nhsn/cdaportal/terminology/codesystem/hsloc.html","code":"1025-6","display":"Trauma Critical Care","userSelected":true}]}]},"request":{"method":"PUT","url":"Location/7d41e313-0d92-45ce-bb23-8cb3c69f064a"}},{"fullUrl":"https://madie.cms.gov/Organization/3fea4891-ee40-49d5-aeb8-e8c8b334638e","resource":{"resourceType":"Organization","id":"3fea4891-ee40-49d5-aeb8-e8c8b334638e","meta":{"profile":["http://hl7.org/fhir/us/qicore/StructureDefinition/qicore-organization"]},"identifier":[{"use":"temp","system":"urn:oid:2.16.840.1.113883.4.4","value":"21-3259825"}],"active":true,"type":[{"coding":[{"system":"http://terminology.hl7.org/CodeSystem/organization-type","code":"pay","display":"Payer"}]}],"name":"Blue Cross Blue Shield of Texas","telecom":[{"system":"phone","value":"(+1) 972-766-6900"}],"address":[{"use":"billing","type":"postal","line":["P.O. Box 660044"],"city":"Dallas","state":"TX","postalCode":"75266-0044","country":"USA"}]},"request":{"method":"PUT","url":"Organization/3fea4891-ee40-49d5-aeb8-e8c8b334638e"}},{"fullUrl":"https://madie.cms.gov/Practitioner/463f124e-6887-4c03-8320-7a71c88b3f2e","resource":{"resourceType":"Practitioner","id":"463f124e-6887-4c03-8320-7a71c88b3f2e","identifier":[{"system":"http://hl7.org/fhir/sid/us-npi","value":"123456"}],"name":[{"family":"Evil","prefix":["Dr"]}]},"request":{"method":"PUT","url":"Practitioner/463f124e-6887-4c03-8320-7a71c88b3f2e"}},{"fullUrl":"https://madie.cms.gov/MeasureReport/942660b7-f8e4-4a11-83e3-bba5fc534ae8","resource":{"resourceType":"MeasureReport","id":"942660b7-f8e4-4a11-83e3-bba5fc534ae8","meta":{"profile":["http://hl7.org/fhir/us/cqfmeasures/StructureDefinition/test-case-cqfm"]},"contained":[{"resourceType":"Parameters","id":"5ffaf1e7-3927-4109-b118-2980765190a6-parameters","parameter":[{"name":"subject","valueString":"67df96df-45ff-4387-bc4d-04055a95483f"}]}],"extension":[{"url":"http://hl7.org/fhir/StructureDefinition/cqf-inputParameters","valueReference":{"reference":"#5ffaf1e7-3927-4109-b118-2980765190a6-parameters"}},{"url":"http://hl7.org/fhir/us/cqfmeasures/StructureDefinition/cqfm-testCaseDescription","valueMarkdown":" Patient has 2 encounters, first encounter has NO ICU, but second encounter  meets IPP, meets Denominator, medication administered:Thrombin during ED, ED endTime less than 1 hour before Start of ICU\n"}],"modifierExtension":[{"url":"http://hl7.org/fhir/us/cqfmeasures/StructureDefinition/cqfm-isTestCase","valueBoolean":true}],"status":"complete","type":"individual","measure":"https://madie.cms.gov/Measure/CMS190VTEProphylaxisICUFHIR","period":{"start":"2026-01-01","end":"2026-12-31"},"group":[{"id":"Group_1","population":[{"id":"InitialPopulation_1","code":{"coding":[{"system":"http://terminology.hl7.org/CodeSystem/measure-population","code":"initial-population","display":"Initial Population"}]},"count":2},{"id":"Denominator_1","code":{"coding":[{"system":"http://terminology.hl7.org/CodeSystem/measure-population","code":"denominator","display":"Denominator"}]},"count":1},{"id":"DenominatorExclusion_1","code":{"coding":[{"system":"http://terminology.hl7.org/CodeSystem/measure-population","code":"denominator-exclusion","display":"Denominator Exclusion"}]},"count":0},{"id":"Numerator_1","code":{"coding":[{"system":"http://terminology.hl7.org/CodeSystem/measure-population","code":"numerator","display":"Numerator"}]},"count":1},{"id":"DenominatorException_1","code":{"coding":[{"system":"http://terminology.hl7.org/CodeSystem/measure-population","code":"denominator-exception","display":"Denominator Exception"}]},"count":0}],"measureScore":{"value":0.0}}],"evaluatedResource":[{"reference":"Patient/67df96df-45ff-4387-bc4d-04055a95483f"},{"reference":"Encounter/b477e2da-b041-4b9f-8ba7-c0a96ed19f56"},{"reference":"Encounter/f82c9e7b-b7b8-4ffb-a9fa-ebbc47824b4f"},{"reference":"Encounter/79756f71-7a8c-4c35-80ed-00f7eb73c9e7"},{"reference":"Coverage/b7bf3281-9d86-44ca-97f2-d3880735db69"},{"reference":"MedicationAdministration/74f5e70f-5b1e-46ab-98b9-3ec1e4f03d52"},{"reference":"Location/7d41e313-0d92-45ce-bb23-8cb3c69f064a"},{"reference":"Organization/3fea4891-ee40-49d5-aeb8-e8c8b334638e"},{"reference":"Practitioner/463f124e-6887-4c03-8320-7a71c88b3f2e"}]},"request":{"method":"PUT","url":"MeasureReport/942660b7-f8e4-4a11-83e3-bba5fc534ae8"}}]},"request":{"method":"PUT","url":"Bundle/612e6f6d02c62a011f2f1cad"}},{"fullUrl":"Organization/3fea4891-ee40-49d5-aeb8-e8c8b334638e","resource":{"resourceType":"Organization","id":"3fea4891-ee40-49d5-aeb8-e8c8b334638e","meta":{"profile":["http://hl7.org/fhir/us/qicore/StructureDefinition/qicore-organization"]},"identifier":[{"use":"temp","system":"urn:oid:2.16.840.1.113883.4.4","value":"21-3259825"}],"active":true,"type":[{"coding":[{"system":"http://terminology.hl7.org/CodeSystem/organization-type","code":"pay","display":"Payer"}]}],"name":"Blue Cross Blue Shield of Texas","telecom":[{"system":"phone","value":"(+1) 972-766-6900"}],"address":[{"use":"billing","type":"postal","line":["P.O. Box 660044"],"city":"Dallas","state":"TX","postalCode":"75266-0044","country":"USA"}]},"request":{"method":"PUT","url":"Organization/3fea4891-ee40-49d5-aeb8-e8c8b334638e"}},{"fullUrl":"MedicationAdministration/74f5e70f-5b1e-46ab-98b9-3ec1e4f03d52","resource":{"resourceType":"MedicationAdministration","id":"74f5e70f-5b1e-46ab-98b9-3ec1e4f03d52","meta":{"profile":["http://hl7.org/fhir/us/qicore/StructureDefinition/qicore-medicationadministration"]},"status":"completed","medicationCodeableConcept":{"coding":[{"system":"http://www.nlm.nih.gov/research/umls/rxnorm","code":"308351"}]},"subject":{"reference":"Patient/67df96df-45ff-4387-bc4d-04055a95483f"},"effectivePeriod":{"start":"2026-12-06T06:30:00.000+00:00"}},"request":{"method":"PUT","url":"MedicationAdministration/74f5e70f-5b1e-46ab-98b9-3ec1e4f03d52"}},{"fullUrl":"Encounter/b477e2da-b041-4b9f-8ba7-c0a96ed19f56","resource":{"resourceType":"Encounter","id":"b477e2da-b041-4b9f-8ba7-c0a96ed19f56","meta":{"profile":["http://hl7.org/fhir/us/qicore/StructureDefinition/qicore-encounter"]},"status":"finished","class":{"system":"http://terminology.hl7.org/CodeSystem/v3-ActCode","code":"IMP","display":"inpatient encounter"},"type":[{"coding":[{"system":"http://snomed.info/sct","code":"183452005"}]}],"subject":{"reference":"Patient/67df96df-45ff-4387-bc4d-04055a95483f"},"period":{"start":"2026-03-22T08:00:00.000+00:00","end":"2026-03-22T08:15:00.000+00:00"},"length":{"value":0,"unit":"days"}},"request":{"method":"PUT","url":"Encounter/b477e2da-b041-4b9f-8ba7-c0a96ed19f56"}},{"fullUrl":"MeasureReport/942660b7-f8e4-4a11-83e3-bba5fc534ae8","resource":{"resourceType":"MeasureReport","id":"942660b7-f8e4-4a11-83e3-bba5fc534ae8","meta":{"profile":["http://hl7.org/fhir/us/cqfmeasures/StructureDefinition/test-case-cqfm"]},"contained":[{"resourceType":"Parameters","id":"5ffaf1e7-3927-4109-b118-2980765190a6-parameters","parameter":[{"name":"subject","valueString":"67df96df-45ff-4387-bc4d-04055a95483f"}]}],"extension":[{"url":"http://hl7.org/fhir/StructureDefinition/cqf-inputParameters","valueReference":{"reference":"#5ffaf1e7-3927-4109-b118-2980765190a6-parameters"}},{"url":"http://hl7.org/fhir/us/cqfmeasures/StructureDefinition/cqfm-testCaseDescription","valueMarkdown":" Patient has 2 encounters, first encounter has NO ICU, but second encounter  meets IPP, meets Denominator, medication administered:Thrombin during ED, ED endTime less than 1 hour before Start of ICU\n"}],"modifierExtension":[{"url":"http://hl7.org/fhir/us/cqfmeasures/StructureDefinition/cqfm-isTestCase","valueBoolean":true}],"status":"complete","type":"individual","measure":"https://madie.cms.gov/Measure/CMS190VTEProphylaxisICUFHIR","period":{"start":"2026-01-01","end":"2026-12-31"},"group":[{"id":"Group_1","population":[{"id":"InitialPopulation_1","code":{"coding":[{"system":"http://terminology.hl7.org/CodeSystem/measure-population","code":"initial-population","display":"Initial Population"}]},"count":2},{"id":"Denominator_1","code":{"coding":[{"system":"http://terminology.hl7.org/CodeSystem/measure-population","code":"denominator","display":"Denominator"}]},"count":1},{"id":"DenominatorExclusion_1","code":{"coding":[{"system":"http://terminology.hl7.org/CodeSystem/measure-population","code":"denominator-exclusion","display":"Denominator Exclusion"}]},"count":0},{"id":"Numerator_1","code":{"coding":[{"system":"http://terminology.hl7.org/CodeSystem/measure-population","code":"numerator","display":"Numerator"}]},"count":1},{"id":"DenominatorException_1","code":{"coding":[{"system":"http://terminology.hl7.org/CodeSystem/measure-population","code":"denominator-exception","display":"Denominator Exception"}]},"count":0}],"measureScore":{"value":0.0}}],"evaluatedResource":[{"reference":"Patient/67df96df-45ff-4387-bc4d-04055a95483f"},{"reference":"Encounter/b477e2da-b041-4b9f-8ba7-c0a96ed19f56"},{"reference":"Encounter/f82c9e7b-b7b8-4ffb-a9fa-ebbc47824b4f"},{"reference":"Encounter/79756f71-7a8c-4c35-80ed-00f7eb73c9e7"},{"reference":"Coverage/b7bf3281-9d86-44ca-97f2-d3880735db69"},{"reference":"MedicationAdministration/74f5e70f-5b1e-46ab-98b9-3ec1e4f03d52"},{"reference":"Location/7d41e313-0d92-45ce-bb23-8cb3c69f064a"},{"reference":"Organization/3fea4891-ee40-49d5-aeb8-e8c8b334638e"},{"reference":"Practitioner/463f124e-6887-4c03-8320-7a71c88b3f2e"}]},"request":{"method":"PUT","url":"MeasureReport/942660b7-f8e4-4a11-83e3-bba5fc534ae8"}},{"fullUrl":"Encounter/f82c9e7b-b7b8-4ffb-a9fa-ebbc47824b4f","resource":{"resourceType":"Encounter","id":"f82c9e7b-b7b8-4ffb-a9fa-ebbc47824b4f","meta":{"profile":["http://hl7.org/fhir/us/qicore/StructureDefinition/qicore-encounter"]},"status":"finished","class":{"system":"http://terminology.hl7.org/CodeSystem/v3-ActCode","code":"EMER","display":"emergency"},"type":[{"coding":[{"system":"http://snomed.info/sct","code":"4525004"}]}],"subject":{"reference":"Patient/67df96df-45ff-4387-bc4d-04055a95483f"},"period":{"start":"2026-12-06T02:00:00.000+00:00","end":"2026-12-06T08:15:00.000+00:00"},"length":{"value":0,"unit":"days"}},"request":{"method":"PUT","url":"Encounter/f82c9e7b-b7b8-4ffb-a9fa-ebbc47824b4f"}},{"fullUrl":"Practitioner/463f124e-6887-4c03-8320-7a71c88b3f2e","resource":{"resourceType":"Practitioner","id":"463f124e-6887-4c03-8320-7a71c88b3f2e","identifier":[{"system":"http://hl7.org/fhir/sid/us-npi","value":"123456"}],"name":[{"family":"Evil","prefix":["Dr"]}]},"request":{"method":"PUT","url":"Practitioner/463f124e-6887-4c03-8320-7a71c88b3f2e"}},{"fullUrl":"Encounter/79756f71-7a8c-4c35-80ed-00f7eb73c9e7","resource":{"resourceType":"Encounter","id":"79756f71-7a8c-4c35-80ed-00f7eb73c9e7","meta":{"profile":["http://hl7.org/fhir/us/qicore/StructureDefinition/qicore-encounter"]},"status":"finished","class":{"system":"http://terminology.hl7.org/CodeSystem/v3-ActCode","code":"IMP","display":"inpatient encounter"},"type":[{"coding":[{"system":"http://snomed.info/sct","code":"8715000"}]}],"subject":{"reference":"Patient/67df96df-45ff-4387-bc4d-04055a95483f"},"period":{"start":"2026-12-06T08:45:00.000+00:00","end":"2026-12-30T08:15:00.000+00:00"},"length":{"value":24,"unit":"days"},"location":[{"location":{"reference":"Location/7d41e313-0d92-45ce-bb23-8cb3c69f064a"},"period":{"start":"2026-12-06T09:00:00.000+00:00","end":"2026-12-12T08:15:00.000+00:00"}}]},"request":{"method":"PUT","url":"Encounter/79756f71-7a8c-4c35-80ed-00f7eb73c9e7"}},{"fullUrl":"Coverage/b7bf3281-9d86-44ca-97f2-d3880735db69","resource":{"resourceType":"Coverage","id":"b7bf3281-9d86-44ca-97f2-d3880735db69","status":"active","beneficiary":{"reference":"Patient/67df96df-45ff-4387-bc4d-04055a95483f"},"period":{"start":"1975-03-03T08:00:00.000+00:00"},"payor":[{"reference":"Organization/3fea4891-ee40-49d5-aeb8-e8c8b334638e"}]},"request":{"method":"PUT","url":"Coverage/b7bf3281-9d86-44ca-97f2-d3880735db69"}},{"fullUrl":"Patient/67df96df-45ff-4387-bc4d-04055a95483f","resource":{"resourceType":"Patient","id":"67df96df-45ff-4387-bc4d-04055a95483f","meta":{"profile":["http://hl7.org/fhir/us/qicore/StructureDefinition/qicore-patient"]},"text":{"status":"generated","div":"<div xmlns=\"http://www.w3.org/1999/xhtml\"><div class=\"hapiHeaderText\">TestMultipleOccur1inDen1inNum <b>NUMERPASS </b></div><table class=\"hapiPropertyTable\"><tbody><tr><td>Identifier</td><td>9a2b10a8b5b2082e23f2748100ecbdeaeee7f4e84632ea8fa273e55b42847316</td></tr><tr><td>Date of birth</td><td><span>03 March 1974</span></td></tr></tbody></table></div>"},"extension":[{"url":"http://hl7.org/fhir/us/core/StructureDefinition/us-core-race","extension":[{"url":"ombCategory","valueCoding":{"system":"urn:oid:2.16.840.1.113883.6.238","code":"1002-5","display":"American Indian or Alaska Native","userSelected":true}},{"url":"text","valueString":"American Indian or Alaska Native"}]},{"url":"http://hl7.org/fhir/us/core/StructureDefinition/us-core-ethnicity","extension":[{"url":"ombCategory","valueCoding":{"system":"urn:oid:2.16.840.1.113883.6.238","code":"2135-2","display":"Hispanic or Latino","userSelected":true}},{"url":"text","valueString":"Hispanic or Latino"}]}],"identifier":[{"type":{"coding":[{"system":"http://terminology.hl7.org/CodeSystem/v2-0203","code":"MR"}]},"system":"https://bonnie-fhir.healthit.gov/","value":"612e6f6d02c62a011f2f1cad"}],"active":true,"name":[{"use":"usual","family":"NUMERPass","given":["TestMultipleOccur1inDen1inNum"]}],"gender":"female","birthDate":"1975-03-03"},"request":{"method":"PUT","url":"Patient/67df96df-45ff-4387-bc4d-04055a95483f"}},{"fullUrl":"Location/7d41e313-0d92-45ce-bb23-8cb3c69f064a","resource":{"resourceType":"Location","id":"7d41e313-0d92-45ce-bb23-8cb3c69f064a","meta":{"profile":["http://hl7.org/fhir/us/qicore/StructureDefinition/qicore-location"]},"identifier":[{"use":"usual","system":"http://exampleoflocation.com","value":"B1-S.F2"}],"name":"Medical Surgical East, first floor","type":[{"coding":[{"system":"https://www.cdc.gov/nhsn/cdaportal/terminology/codesystem/hsloc.html","code":"1025-6","display":"Trauma Critical Care","userSelected":true}]}]},"request":{"method":"PUT","url":"Location/7d41e313-0d92-45ce-bb23-8cb3c69f064a"}}]}