{"resourceType":"Bundle","id":"tests-f4ff5419-ce35-4a19-9a6e-7e69977d51b8-bundle","type":"transaction","entry":[{"fullUrl":"Bundle/612e6b9302c62a011f2ee63c","resource":{"resourceType":"Bundle","id":"612e6b9302c62a011f2ee63c","type":"transaction","entry":[{"fullUrl":"https://madie.cms.gov/Patient/f4ff5419-ce35-4a19-9a6e-7e69977d51b8","resource":{"resourceType":"Patient","id":"f4ff5419-ce35-4a19-9a6e-7e69977d51b8","meta":{"profile":["http://hl7.org/fhir/us/qicore/StructureDefinition/qicore-patient"]},"text":{"status":"generated","div":"<div xmlns=\"http://www.w3.org/1999/xhtml\"><div class=\"hapiHeaderText\">PtRefDOIPC2DayAFEncBFICU <b>NUMERPASS </b></div><table class=\"hapiPropertyTable\"><tbody><tr><td>Identifier</td><td>24fc1ce85ce14557dd4d9eba17df9f17</td></tr><tr><td>Date of birth</td><td><span>02 January 1974</span></td></tr></tbody></table></div>"},"extension":[{"url":"http://hl7.org/fhir/us/core/StructureDefinition/us-core-race","extension":[{"url":"ombCategory","valueCoding":{"system":"urn:oid:2.16.840.1.113883.6.238","code":"1002-5","display":"American Indian or Alaska Native","userSelected":true}},{"url":"text","valueString":"American Indian or Alaska Native"}]},{"url":"http://hl7.org/fhir/us/core/StructureDefinition/us-core-ethnicity","extension":[{"url":"ombCategory","valueCoding":{"system":"urn:oid:2.16.840.1.113883.6.238","code":"2135-2","display":"Hispanic or Latino","userSelected":true}},{"url":"text","valueString":"Hispanic or Latino"}]}],"identifier":[{"type":{"coding":[{"system":"http://terminology.hl7.org/CodeSystem/v2-0203","code":"MR"}]},"system":"https://bonnie-fhir.healthit.gov/","value":"612e6b9302c62a011f2ee63c"}],"active":true,"name":[{"use":"usual","family":"NUMERPass","given":["PtRefDOIPC2DayAFEncBFICU"]}],"gender":"male","birthDate":"1975-01-02"},"request":{"method":"PUT","url":"Patient/f4ff5419-ce35-4a19-9a6e-7e69977d51b8"}},{"fullUrl":"https://madie.cms.gov/Encounter/a1ef411d-2b18-446f-9067-9f77f3aa3f9f","resource":{"resourceType":"Encounter","id":"a1ef411d-2b18-446f-9067-9f77f3aa3f9f","meta":{"profile":["http://hl7.org/fhir/us/qicore/StructureDefinition/qicore-encounter"]},"status":"finished","class":{"system":"http://terminology.hl7.org/CodeSystem/v3-ActCode","code":"IMP","display":"inpatient encounter"},"type":[{"coding":[{"system":"http://snomed.info/sct","code":"8715000"}]}],"subject":{"reference":"Patient/f4ff5419-ce35-4a19-9a6e-7e69977d51b8"},"period":{"start":"2026-11-01T08:00:00.000+00:00","end":"2026-11-26T08:15:00.000+00:00"},"length":{"value":25,"unit":"days"},"location":[{"location":{"reference":"Location/d15b016e-76fd-4efd-a662-aa8fab9bfb49"},"period":{"start":"2026-11-04T09:00:00.000+00:00","end":"2026-11-06T08:15:00.000+00:00"}}]},"request":{"method":"PUT","url":"Encounter/a1ef411d-2b18-446f-9067-9f77f3aa3f9f"}},{"fullUrl":"https://madie.cms.gov/Coverage/48f0a5e6-6bf3-4f53-a098-8094ba8b0612","resource":{"resourceType":"Coverage","id":"48f0a5e6-6bf3-4f53-a098-8094ba8b0612","status":"active","beneficiary":{"reference":"Patient/f4ff5419-ce35-4a19-9a6e-7e69977d51b8"},"period":{"start":"1975-01-02T08:00:00.000+00:00"},"payor":[{"reference":"Organization/b4a617a8-53e7-4942-b602-a1704b16cd0c"}]},"request":{"method":"PUT","url":"Coverage/48f0a5e6-6bf3-4f53-a098-8094ba8b0612"}},{"fullUrl":"https://madie.cms.gov/ServiceRequest/a4e1bcd8-397d-49db-ad5a-e38e8a763e85","resource":{"resourceType":"ServiceRequest","id":"a4e1bcd8-397d-49db-ad5a-e38e8a763e85","meta":{"profile":["http://hl7.org/fhir/us/qicore/StructureDefinition/qicore-servicenotrequested"]},"extension":[{"url":"http://hl7.org/fhir/us/qicore/StructureDefinition/qicore-doNotPerformReason","valueCodeableConcept":{"coding":[{"system":"http://snomed.info/sct","code":"443390004","display":"Refusal of treatment by patient (situation)"}]}}],"status":"completed","intent":"order","doNotPerform":true,"code":{"coding":[{"system":"http://snomed.info/sct","code":"428411000124104","display":"Intermittent pneumatic compression boot (physical object)","userSelected":true}]},"subject":{"reference":"Patient/f4ff5419-ce35-4a19-9a6e-7e69977d51b8"},"authoredOn":"2026-11-03T11:00:00.000+00:00"},"request":{"method":"PUT","url":"ServiceRequest/a4e1bcd8-397d-49db-ad5a-e38e8a763e85"}},{"fullUrl":"https://madie.cms.gov/Location/d15b016e-76fd-4efd-a662-aa8fab9bfb49","resource":{"resourceType":"Location","id":"d15b016e-76fd-4efd-a662-aa8fab9bfb49","meta":{"profile":["http://hl7.org/fhir/us/qicore/StructureDefinition/qicore-location"]},"identifier":[{"use":"usual","system":"http://exampleoflocation.com","value":"B1-S.F2"}],"name":"Medical Surgical East, first floor","type":[{"coding":[{"system":"https://www.cdc.gov/nhsn/cdaportal/terminology/codesystem/hsloc.html","code":"1025-6","display":"Trauma Critical Care","userSelected":true}]}]},"request":{"method":"PUT","url":"Location/d15b016e-76fd-4efd-a662-aa8fab9bfb49"}},{"fullUrl":"https://madie.cms.gov/Organization/b4a617a8-53e7-4942-b602-a1704b16cd0c","resource":{"resourceType":"Organization","id":"b4a617a8-53e7-4942-b602-a1704b16cd0c","meta":{"profile":["http://hl7.org/fhir/us/qicore/StructureDefinition/qicore-organization"]},"identifier":[{"use":"temp","system":"urn:oid:2.16.840.1.113883.4.4","value":"21-3259825"}],"active":true,"type":[{"coding":[{"system":"http://terminology.hl7.org/CodeSystem/organization-type","code":"pay","display":"Payer"}]}],"name":"Blue Cross Blue Shield of Texas","telecom":[{"system":"phone","value":"(+1) 972-766-6900"}],"address":[{"use":"billing","type":"postal","line":["P.O. Box 660044"],"city":"Dallas","state":"TX","postalCode":"75266-0044","country":"USA"}]},"request":{"method":"PUT","url":"Organization/b4a617a8-53e7-4942-b602-a1704b16cd0c"}},{"fullUrl":"https://madie.cms.gov/Practitioner/90e17779-45bd-4689-a909-b9fbf415b04e","resource":{"resourceType":"Practitioner","id":"90e17779-45bd-4689-a909-b9fbf415b04e","identifier":[{"system":"http://hl7.org/fhir/sid/us-npi","value":"123456"}],"name":[{"family":"Evil","prefix":["Dr"]}]},"request":{"method":"PUT","url":"Practitioner/90e17779-45bd-4689-a909-b9fbf415b04e"}},{"fullUrl":"https://madie.cms.gov/MeasureReport/0276c9b6-9fe0-43e4-86f4-07d7ae5a3169","resource":{"resourceType":"MeasureReport","id":"0276c9b6-9fe0-43e4-86f4-07d7ae5a3169","meta":{"profile":["http://hl7.org/fhir/us/cqfmeasures/StructureDefinition/test-case-cqfm"]},"contained":[{"resourceType":"Parameters","id":"0710b0f9-be31-4d0f-95df-d7b35deeec8f-parameters","parameter":[{"name":"subject","valueString":"f4ff5419-ce35-4a19-9a6e-7e69977d51b8"}]}],"extension":[{"url":"http://hl7.org/fhir/StructureDefinition/cqf-inputParameters","valueReference":{"reference":"#0710b0f9-be31-4d0f-95df-d7b35deeec8f-parameters"}},{"url":"http://hl7.org/fhir/us/cqfmeasures/StructureDefinition/cqfm-testCaseDescription","valueMarkdown":"meets IPP, meets Denominator, IPC ordered not done PatRfsl 12day after Encounter  before ICU start\n"}],"modifierExtension":[{"url":"http://hl7.org/fhir/us/cqfmeasures/StructureDefinition/cqfm-isTestCase","valueBoolean":true}],"status":"complete","type":"individual","measure":"https://madie.cms.gov/Measure/CMS190VTEProphylaxisICUFHIR","period":{"start":"2026-01-01","end":"2026-12-31"},"group":[{"id":"Group_1","population":[{"id":"InitialPopulation_1","code":{"coding":[{"system":"http://terminology.hl7.org/CodeSystem/measure-population","code":"initial-population","display":"Initial Population"}]},"count":1},{"id":"Denominator_1","code":{"coding":[{"system":"http://terminology.hl7.org/CodeSystem/measure-population","code":"denominator","display":"Denominator"}]},"count":1},{"id":"DenominatorExclusion_1","code":{"coding":[{"system":"http://terminology.hl7.org/CodeSystem/measure-population","code":"denominator-exclusion","display":"Denominator Exclusion"}]},"count":0},{"id":"Numerator_1","code":{"coding":[{"system":"http://terminology.hl7.org/CodeSystem/measure-population","code":"numerator","display":"Numerator"}]},"count":1},{"id":"DenominatorException_1","code":{"coding":[{"system":"http://terminology.hl7.org/CodeSystem/measure-population","code":"denominator-exception","display":"Denominator Exception"}]},"count":0}],"measureScore":{"value":0.0}}],"evaluatedResource":[{"reference":"Patient/f4ff5419-ce35-4a19-9a6e-7e69977d51b8"},{"reference":"Encounter/a1ef411d-2b18-446f-9067-9f77f3aa3f9f"},{"reference":"Coverage/48f0a5e6-6bf3-4f53-a098-8094ba8b0612"},{"reference":"ServiceRequest/a4e1bcd8-397d-49db-ad5a-e38e8a763e85"},{"reference":"Location/d15b016e-76fd-4efd-a662-aa8fab9bfb49"},{"reference":"Organization/b4a617a8-53e7-4942-b602-a1704b16cd0c"},{"reference":"Practitioner/90e17779-45bd-4689-a909-b9fbf415b04e"}]},"request":{"method":"PUT","url":"MeasureReport/0276c9b6-9fe0-43e4-86f4-07d7ae5a3169"}}]},"request":{"method":"PUT","url":"Bundle/612e6b9302c62a011f2ee63c"}},{"fullUrl":"Organization/b4a617a8-53e7-4942-b602-a1704b16cd0c","resource":{"resourceType":"Organization","id":"b4a617a8-53e7-4942-b602-a1704b16cd0c","meta":{"profile":["http://hl7.org/fhir/us/qicore/StructureDefinition/qicore-organization"]},"identifier":[{"use":"temp","system":"urn:oid:2.16.840.1.113883.4.4","value":"21-3259825"}],"active":true,"type":[{"coding":[{"system":"http://terminology.hl7.org/CodeSystem/organization-type","code":"pay","display":"Payer"}]}],"name":"Blue Cross Blue Shield of Texas","telecom":[{"system":"phone","value":"(+1) 972-766-6900"}],"address":[{"use":"billing","type":"postal","line":["P.O. Box 660044"],"city":"Dallas","state":"TX","postalCode":"75266-0044","country":"USA"}]},"request":{"method":"PUT","url":"Organization/b4a617a8-53e7-4942-b602-a1704b16cd0c"}},{"fullUrl":"Practitioner/90e17779-45bd-4689-a909-b9fbf415b04e","resource":{"resourceType":"Practitioner","id":"90e17779-45bd-4689-a909-b9fbf415b04e","identifier":[{"system":"http://hl7.org/fhir/sid/us-npi","value":"123456"}],"name":[{"family":"Evil","prefix":["Dr"]}]},"request":{"method":"PUT","url":"Practitioner/90e17779-45bd-4689-a909-b9fbf415b04e"}},{"fullUrl":"Coverage/48f0a5e6-6bf3-4f53-a098-8094ba8b0612","resource":{"resourceType":"Coverage","id":"48f0a5e6-6bf3-4f53-a098-8094ba8b0612","status":"active","beneficiary":{"reference":"Patient/f4ff5419-ce35-4a19-9a6e-7e69977d51b8"},"period":{"start":"1975-01-02T08:00:00.000+00:00"},"payor":[{"reference":"Organization/b4a617a8-53e7-4942-b602-a1704b16cd0c"}]},"request":{"method":"PUT","url":"Coverage/48f0a5e6-6bf3-4f53-a098-8094ba8b0612"}},{"fullUrl":"Location/d15b016e-76fd-4efd-a662-aa8fab9bfb49","resource":{"resourceType":"Location","id":"d15b016e-76fd-4efd-a662-aa8fab9bfb49","meta":{"profile":["http://hl7.org/fhir/us/qicore/StructureDefinition/qicore-location"]},"identifier":[{"use":"usual","system":"http://exampleoflocation.com","value":"B1-S.F2"}],"name":"Medical Surgical East, first floor","type":[{"coding":[{"system":"https://www.cdc.gov/nhsn/cdaportal/terminology/codesystem/hsloc.html","code":"1025-6","display":"Trauma Critical Care","userSelected":true}]}]},"request":{"method":"PUT","url":"Location/d15b016e-76fd-4efd-a662-aa8fab9bfb49"}},{"fullUrl":"Encounter/a1ef411d-2b18-446f-9067-9f77f3aa3f9f","resource":{"resourceType":"Encounter","id":"a1ef411d-2b18-446f-9067-9f77f3aa3f9f","meta":{"profile":["http://hl7.org/fhir/us/qicore/StructureDefinition/qicore-encounter"]},"status":"finished","class":{"system":"http://terminology.hl7.org/CodeSystem/v3-ActCode","code":"IMP","display":"inpatient encounter"},"type":[{"coding":[{"system":"http://snomed.info/sct","code":"8715000"}]}],"subject":{"reference":"Patient/f4ff5419-ce35-4a19-9a6e-7e69977d51b8"},"period":{"start":"2026-11-01T08:00:00.000+00:00","end":"2026-11-26T08:15:00.000+00:00"},"length":{"value":25,"unit":"days"},"location":[{"location":{"reference":"Location/d15b016e-76fd-4efd-a662-aa8fab9bfb49"},"period":{"start":"2026-11-04T09:00:00.000+00:00","end":"2026-11-06T08:15:00.000+00:00"}}]},"request":{"method":"PUT","url":"Encounter/a1ef411d-2b18-446f-9067-9f77f3aa3f9f"}},{"fullUrl":"ServiceRequest/a4e1bcd8-397d-49db-ad5a-e38e8a763e85","resource":{"resourceType":"ServiceRequest","id":"a4e1bcd8-397d-49db-ad5a-e38e8a763e85","meta":{"profile":["http://hl7.org/fhir/us/qicore/StructureDefinition/qicore-servicenotrequested"]},"extension":[{"url":"http://hl7.org/fhir/us/qicore/StructureDefinition/qicore-doNotPerformReason","valueCodeableConcept":{"coding":[{"system":"http://snomed.info/sct","code":"443390004","display":"Refusal of treatment by patient (situation)"}]}}],"status":"completed","intent":"order","doNotPerform":true,"code":{"coding":[{"system":"http://snomed.info/sct","code":"428411000124104","display":"Intermittent pneumatic compression boot (physical object)","userSelected":true}]},"subject":{"reference":"Patient/f4ff5419-ce35-4a19-9a6e-7e69977d51b8"},"authoredOn":"2026-11-03T11:00:00.000+00:00"},"request":{"method":"PUT","url":"ServiceRequest/a4e1bcd8-397d-49db-ad5a-e38e8a763e85"}},{"fullUrl":"Patient/f4ff5419-ce35-4a19-9a6e-7e69977d51b8","resource":{"resourceType":"Patient","id":"f4ff5419-ce35-4a19-9a6e-7e69977d51b8","meta":{"profile":["http://hl7.org/fhir/us/qicore/StructureDefinition/qicore-patient"]},"text":{"status":"generated","div":"<div xmlns=\"http://www.w3.org/1999/xhtml\"><div class=\"hapiHeaderText\">PtRefDOIPC2DayAFEncBFICU <b>NUMERPASS </b></div><table class=\"hapiPropertyTable\"><tbody><tr><td>Identifier</td><td>24fc1ce85ce14557dd4d9eba17df9f17</td></tr><tr><td>Date of birth</td><td><span>02 January 1974</span></td></tr></tbody></table></div>"},"extension":[{"url":"http://hl7.org/fhir/us/core/StructureDefinition/us-core-race","extension":[{"url":"ombCategory","valueCoding":{"system":"urn:oid:2.16.840.1.113883.6.238","code":"1002-5","display":"American Indian or Alaska Native","userSelected":true}},{"url":"text","valueString":"American Indian or Alaska Native"}]},{"url":"http://hl7.org/fhir/us/core/StructureDefinition/us-core-ethnicity","extension":[{"url":"ombCategory","valueCoding":{"system":"urn:oid:2.16.840.1.113883.6.238","code":"2135-2","display":"Hispanic or Latino","userSelected":true}},{"url":"text","valueString":"Hispanic or Latino"}]}],"identifier":[{"type":{"coding":[{"system":"http://terminology.hl7.org/CodeSystem/v2-0203","code":"MR"}]},"system":"https://bonnie-fhir.healthit.gov/","value":"612e6b9302c62a011f2ee63c"}],"active":true,"name":[{"use":"usual","family":"NUMERPass","given":["PtRefDOIPC2DayAFEncBFICU"]}],"gender":"male","birthDate":"1975-01-02"},"request":{"method":"PUT","url":"Patient/f4ff5419-ce35-4a19-9a6e-7e69977d51b8"}},{"fullUrl":"MeasureReport/0276c9b6-9fe0-43e4-86f4-07d7ae5a3169","resource":{"resourceType":"MeasureReport","id":"0276c9b6-9fe0-43e4-86f4-07d7ae5a3169","meta":{"profile":["http://hl7.org/fhir/us/cqfmeasures/StructureDefinition/test-case-cqfm"]},"contained":[{"resourceType":"Parameters","id":"0710b0f9-be31-4d0f-95df-d7b35deeec8f-parameters","parameter":[{"name":"subject","valueString":"f4ff5419-ce35-4a19-9a6e-7e69977d51b8"}]}],"extension":[{"url":"http://hl7.org/fhir/StructureDefinition/cqf-inputParameters","valueReference":{"reference":"#0710b0f9-be31-4d0f-95df-d7b35deeec8f-parameters"}},{"url":"http://hl7.org/fhir/us/cqfmeasures/StructureDefinition/cqfm-testCaseDescription","valueMarkdown":"meets IPP, meets Denominator, IPC ordered not done PatRfsl 12day after Encounter  before ICU start\n"}],"modifierExtension":[{"url":"http://hl7.org/fhir/us/cqfmeasures/StructureDefinition/cqfm-isTestCase","valueBoolean":true}],"status":"complete","type":"individual","measure":"https://madie.cms.gov/Measure/CMS190VTEProphylaxisICUFHIR","period":{"start":"2026-01-01","end":"2026-12-31"},"group":[{"id":"Group_1","population":[{"id":"InitialPopulation_1","code":{"coding":[{"system":"http://terminology.hl7.org/CodeSystem/measure-population","code":"initial-population","display":"Initial Population"}]},"count":1},{"id":"Denominator_1","code":{"coding":[{"system":"http://terminology.hl7.org/CodeSystem/measure-population","code":"denominator","display":"Denominator"}]},"count":1},{"id":"DenominatorExclusion_1","code":{"coding":[{"system":"http://terminology.hl7.org/CodeSystem/measure-population","code":"denominator-exclusion","display":"Denominator Exclusion"}]},"count":0},{"id":"Numerator_1","code":{"coding":[{"system":"http://terminology.hl7.org/CodeSystem/measure-population","code":"numerator","display":"Numerator"}]},"count":1},{"id":"DenominatorException_1","code":{"coding":[{"system":"http://terminology.hl7.org/CodeSystem/measure-population","code":"denominator-exception","display":"Denominator Exception"}]},"count":0}],"measureScore":{"value":0.0}}],"evaluatedResource":[{"reference":"Patient/f4ff5419-ce35-4a19-9a6e-7e69977d51b8"},{"reference":"Encounter/a1ef411d-2b18-446f-9067-9f77f3aa3f9f"},{"reference":"Coverage/48f0a5e6-6bf3-4f53-a098-8094ba8b0612"},{"reference":"ServiceRequest/a4e1bcd8-397d-49db-ad5a-e38e8a763e85"},{"reference":"Location/d15b016e-76fd-4efd-a662-aa8fab9bfb49"},{"reference":"Organization/b4a617a8-53e7-4942-b602-a1704b16cd0c"},{"reference":"Practitioner/90e17779-45bd-4689-a909-b9fbf415b04e"}]},"request":{"method":"PUT","url":"MeasureReport/0276c9b6-9fe0-43e4-86f4-07d7ae5a3169"}}]}