{"resourceType":"Bundle","id":"tests-0d48b3b3-c5f0-4955-810d-eb4f1b8714ca-bundle","type":"transaction","entry":[{"fullUrl":"Location/175fc102-2154-4e4f-a6e6-10a3170419d9","resource":{"resourceType":"Location","id":"175fc102-2154-4e4f-a6e6-10a3170419d9","meta":{"profile":["http://hl7.org/fhir/us/qicore/StructureDefinition/qicore-location"]},"identifier":[{"use":"usual","system":"http://exampleoflocation.com","value":"B1-S.F2"}],"name":"Medical Surgical East, first floor","type":[{"coding":[{"system":"https://www.cdc.gov/nhsn/cdaportal/terminology/codesystem/hsloc.html","code":"1025-6","display":"Trauma Critical Care","userSelected":true}]}]},"request":{"method":"PUT","url":"Location/175fc102-2154-4e4f-a6e6-10a3170419d9"}},{"fullUrl":"Coverage/f58a7244-463d-43df-9c00-67dd14a8056c","resource":{"resourceType":"Coverage","id":"f58a7244-463d-43df-9c00-67dd14a8056c","status":"active","beneficiary":{"reference":"Patient/0d48b3b3-c5f0-4955-810d-eb4f1b8714ca"},"period":{"start":"1975-03-03T08:00:00.000+00:00"},"payor":[{"reference":"Organization/f82e64bf-68ae-40ff-a276-f12d7d1394c9"}]},"request":{"method":"PUT","url":"Coverage/f58a7244-463d-43df-9c00-67dd14a8056c"}},{"fullUrl":"Condition/92fba422-f75d-41fb-9395-c8c3d8d3d232","resource":{"resourceType":"Condition","id":"92fba422-f75d-41fb-9395-c8c3d8d3d232","meta":{"profile":["http://hl7.org/fhir/us/qicore/StructureDefinition/qicore-condition-encounter-diagnosis"]},"category":[{"coding":[{"system":"http://terminology.hl7.org/CodeSystem/condition-category","code":"encounter-diagnosis","display":"Encounter Diagnosis"}]}],"code":{"coding":[{"system":"http://snomed.info/sct","version":"2025-09","code":"120041000119109","display":"Atrial fibrillation with rapid ventricular response (disorder)","userSelected":true}]},"subject":{"reference":"Patient/0d48b3b3-c5f0-4955-810d-eb4f1b8714ca"},"recordedDate":"2026-10-20T08:00:00.000+00:00"},"request":{"method":"PUT","url":"Condition/92fba422-f75d-41fb-9395-c8c3d8d3d232"}},{"fullUrl":"Organization/f82e64bf-68ae-40ff-a276-f12d7d1394c9","resource":{"resourceType":"Organization","id":"f82e64bf-68ae-40ff-a276-f12d7d1394c9","meta":{"profile":["http://hl7.org/fhir/us/qicore/StructureDefinition/qicore-organization"]},"identifier":[{"use":"temp","system":"urn:oid:2.16.840.1.113883.4.4","value":"21-3259825"}],"active":true,"type":[{"coding":[{"system":"http://terminology.hl7.org/CodeSystem/organization-type","code":"pay","display":"Payer"}]}],"name":"Blue Cross Blue Shield of Texas","telecom":[{"system":"phone","value":"(+1) 972-766-6900"}],"address":[{"use":"billing","type":"postal","line":["P.O. Box 660044"],"city":"Dallas","state":"TX","postalCode":"75266-0044","country":"USA"}]},"request":{"method":"PUT","url":"Organization/f82e64bf-68ae-40ff-a276-f12d7d1394c9"}},{"fullUrl":"Patient/0d48b3b3-c5f0-4955-810d-eb4f1b8714ca","resource":{"resourceType":"Patient","id":"0d48b3b3-c5f0-4955-810d-eb4f1b8714ca","meta":{"profile":["http://hl7.org/fhir/us/qicore/StructureDefinition/qicore-patient"]},"text":{"status":"generated","div":"<div xmlns=\"http://www.w3.org/1999/xhtml\"><div class=\"hapiHeaderText\">FactorXa1MinAfterICUStartEncDxAFib <b>NUMERPASS </b></div><table class=\"hapiPropertyTable\"><tbody><tr><td>Identifier</td><td>213d087eb3bd92b3f3f6cdf55e6533f5</td></tr><tr><td>Date of birth</td><td><span>03 March 1974</span></td></tr></tbody></table></div>"},"extension":[{"url":"http://hl7.org/fhir/us/core/StructureDefinition/us-core-race","extension":[{"url":"ombCategory","valueCoding":{"system":"urn:oid:2.16.840.1.113883.6.238","code":"1002-5","display":"American Indian or Alaska Native","userSelected":true}},{"url":"text","valueString":"American Indian or Alaska Native"}]},{"url":"http://hl7.org/fhir/us/core/StructureDefinition/us-core-ethnicity","extension":[{"url":"ombCategory","valueCoding":{"system":"urn:oid:2.16.840.1.113883.6.238","code":"2135-2","display":"Hispanic or Latino","userSelected":true}},{"url":"text","valueString":"Hispanic or Latino"}]}],"identifier":[{"type":{"coding":[{"system":"http://terminology.hl7.org/CodeSystem/v2-0203","code":"MR"}]},"system":"https://bonnie-fhir.healthit.gov/","value":"612e6f3902c62a011f2f1183"}],"active":true,"name":[{"use":"usual","family":"NUMERPass","given":["FactorXa1MinAfterICUStartEncDxAFib"]}],"gender":"female","birthDate":"1975-03-03"},"request":{"method":"PUT","url":"Patient/0d48b3b3-c5f0-4955-810d-eb4f1b8714ca"}},{"fullUrl":"Bundle/612e6f3902c62a011f2f1183","resource":{"resourceType":"Bundle","id":"612e6f3902c62a011f2f1183","type":"transaction","entry":[{"fullUrl":"https://madie.cms.gov/Patient/0d48b3b3-c5f0-4955-810d-eb4f1b8714ca","resource":{"resourceType":"Patient","id":"0d48b3b3-c5f0-4955-810d-eb4f1b8714ca","meta":{"profile":["http://hl7.org/fhir/us/qicore/StructureDefinition/qicore-patient"]},"text":{"status":"generated","div":"<div xmlns=\"http://www.w3.org/1999/xhtml\"><div class=\"hapiHeaderText\">FactorXa1MinAfterICUStartEncDxAFib <b>NUMERPASS </b></div><table class=\"hapiPropertyTable\"><tbody><tr><td>Identifier</td><td>213d087eb3bd92b3f3f6cdf55e6533f5</td></tr><tr><td>Date of birth</td><td><span>03 March 1974</span></td></tr></tbody></table></div>"},"extension":[{"url":"http://hl7.org/fhir/us/core/StructureDefinition/us-core-race","extension":[{"url":"ombCategory","valueCoding":{"system":"urn:oid:2.16.840.1.113883.6.238","code":"1002-5","display":"American Indian or Alaska Native","userSelected":true}},{"url":"text","valueString":"American Indian or Alaska Native"}]},{"url":"http://hl7.org/fhir/us/core/StructureDefinition/us-core-ethnicity","extension":[{"url":"ombCategory","valueCoding":{"system":"urn:oid:2.16.840.1.113883.6.238","code":"2135-2","display":"Hispanic or Latino","userSelected":true}},{"url":"text","valueString":"Hispanic or Latino"}]}],"identifier":[{"type":{"coding":[{"system":"http://terminology.hl7.org/CodeSystem/v2-0203","code":"MR"}]},"system":"https://bonnie-fhir.healthit.gov/","value":"612e6f3902c62a011f2f1183"}],"active":true,"name":[{"use":"usual","family":"NUMERPass","given":["FactorXa1MinAfterICUStartEncDxAFib"]}],"gender":"female","birthDate":"1975-03-03"},"request":{"method":"PUT","url":"Patient/0d48b3b3-c5f0-4955-810d-eb4f1b8714ca"}},{"fullUrl":"https://madie.cms.gov/Encounter/71c45fe3-47e9-45b3-bc79-2d71d21cd1a9","resource":{"resourceType":"Encounter","id":"71c45fe3-47e9-45b3-bc79-2d71d21cd1a9","meta":{"profile":["http://hl7.org/fhir/us/qicore/StructureDefinition/qicore-encounter"]},"status":"finished","class":{"system":"http://terminology.hl7.org/CodeSystem/v3-ActCode","code":"IMP","display":"inpatient encounter"},"type":[{"coding":[{"system":"http://snomed.info/sct","code":"8715000"}]}],"subject":{"reference":"Patient/0d48b3b3-c5f0-4955-810d-eb4f1b8714ca"},"period":{"start":"2026-12-04T08:00:00.000+00:00","end":"2026-12-30T08:15:00.000+00:00"},"length":{"value":26,"unit":"days"},"reasonReference":[{"reference":"Condition/92fba422-f75d-41fb-9395-c8c3d8d3d232"}],"location":[{"location":{"reference":"Location/175fc102-2154-4e4f-a6e6-10a3170419d9"},"period":{"start":"2026-12-06T08:00:00.000+00:00","end":"2026-12-08T08:15:00.000+00:00"}}]},"request":{"method":"PUT","url":"Encounter/71c45fe3-47e9-45b3-bc79-2d71d21cd1a9"}},{"fullUrl":"https://madie.cms.gov/Coverage/f58a7244-463d-43df-9c00-67dd14a8056c","resource":{"resourceType":"Coverage","id":"f58a7244-463d-43df-9c00-67dd14a8056c","status":"active","beneficiary":{"reference":"Patient/0d48b3b3-c5f0-4955-810d-eb4f1b8714ca"},"period":{"start":"1975-03-03T08:00:00.000+00:00"},"payor":[{"reference":"Organization/f82e64bf-68ae-40ff-a276-f12d7d1394c9"}]},"request":{"method":"PUT","url":"Coverage/f58a7244-463d-43df-9c00-67dd14a8056c"}},{"fullUrl":"https://madie.cms.gov/MedicationAdministration/62c4de9f-228d-472a-a7d3-7a7aba2b4a3c","resource":{"resourceType":"MedicationAdministration","id":"62c4de9f-228d-472a-a7d3-7a7aba2b4a3c","meta":{"profile":["http://hl7.org/fhir/us/qicore/StructureDefinition/qicore-medicationadministration"]},"status":"completed","medicationCodeableConcept":{"coding":[{"system":"http://www.nlm.nih.gov/research/umls/rxnorm","code":"1364435","display":"apixaban 2.5 MG Oral Tablet","userSelected":true}]},"subject":{"reference":"Patient/0d48b3b3-c5f0-4955-810d-eb4f1b8714ca"},"effectivePeriod":{"start":"2026-12-06T08:01:00.000+00:00"}},"request":{"method":"PUT","url":"MedicationAdministration/62c4de9f-228d-472a-a7d3-7a7aba2b4a3c"}},{"fullUrl":"https://madie.cms.gov/Location/175fc102-2154-4e4f-a6e6-10a3170419d9","resource":{"resourceType":"Location","id":"175fc102-2154-4e4f-a6e6-10a3170419d9","meta":{"profile":["http://hl7.org/fhir/us/qicore/StructureDefinition/qicore-location"]},"identifier":[{"use":"usual","system":"http://exampleoflocation.com","value":"B1-S.F2"}],"name":"Medical Surgical East, first floor","type":[{"coding":[{"system":"https://www.cdc.gov/nhsn/cdaportal/terminology/codesystem/hsloc.html","code":"1025-6","display":"Trauma Critical Care","userSelected":true}]}]},"request":{"method":"PUT","url":"Location/175fc102-2154-4e4f-a6e6-10a3170419d9"}},{"fullUrl":"https://madie.cms.gov/Condition/92fba422-f75d-41fb-9395-c8c3d8d3d232","resource":{"resourceType":"Condition","id":"92fba422-f75d-41fb-9395-c8c3d8d3d232","meta":{"profile":["http://hl7.org/fhir/us/qicore/StructureDefinition/qicore-condition-encounter-diagnosis"]},"category":[{"coding":[{"system":"http://terminology.hl7.org/CodeSystem/condition-category","code":"encounter-diagnosis","display":"Encounter Diagnosis"}]}],"code":{"coding":[{"system":"http://snomed.info/sct","version":"2025-09","code":"120041000119109","display":"Atrial fibrillation with rapid ventricular response (disorder)","userSelected":true}]},"subject":{"reference":"Patient/0d48b3b3-c5f0-4955-810d-eb4f1b8714ca"},"recordedDate":"2026-10-20T08:00:00.000+00:00"},"request":{"method":"PUT","url":"Condition/92fba422-f75d-41fb-9395-c8c3d8d3d232"}},{"fullUrl":"https://madie.cms.gov/Organization/f82e64bf-68ae-40ff-a276-f12d7d1394c9","resource":{"resourceType":"Organization","id":"f82e64bf-68ae-40ff-a276-f12d7d1394c9","meta":{"profile":["http://hl7.org/fhir/us/qicore/StructureDefinition/qicore-organization"]},"identifier":[{"use":"temp","system":"urn:oid:2.16.840.1.113883.4.4","value":"21-3259825"}],"active":true,"type":[{"coding":[{"system":"http://terminology.hl7.org/CodeSystem/organization-type","code":"pay","display":"Payer"}]}],"name":"Blue Cross Blue Shield of Texas","telecom":[{"system":"phone","value":"(+1) 972-766-6900"}],"address":[{"use":"billing","type":"postal","line":["P.O. Box 660044"],"city":"Dallas","state":"TX","postalCode":"75266-0044","country":"USA"}]},"request":{"method":"PUT","url":"Organization/f82e64bf-68ae-40ff-a276-f12d7d1394c9"}},{"fullUrl":"https://madie.cms.gov/Practitioner/716ea84a-06e9-44ba-a48c-1430209443ba","resource":{"resourceType":"Practitioner","id":"716ea84a-06e9-44ba-a48c-1430209443ba","identifier":[{"system":"http://hl7.org/fhir/sid/us-npi","value":"123456"}],"name":[{"family":"Evil","prefix":["Dr"]}]},"request":{"method":"PUT","url":"Practitioner/716ea84a-06e9-44ba-a48c-1430209443ba"}},{"fullUrl":"https://madie.cms.gov/MeasureReport/6958858c-62e1-427f-a270-8aecd36f138e","resource":{"resourceType":"MeasureReport","id":"6958858c-62e1-427f-a270-8aecd36f138e","meta":{"profile":["http://hl7.org/fhir/us/cqfmeasures/StructureDefinition/test-case-cqfm"]},"contained":[{"resourceType":"Parameters","id":"ca1cac18-5137-4c58-bf7d-d8b90a9708d2-parameters","parameter":[{"name":"subject","valueString":"0d48b3b3-c5f0-4955-810d-eb4f1b8714ca"}]}],"extension":[{"url":"http://hl7.org/fhir/StructureDefinition/cqf-inputParameters","valueReference":{"reference":"#ca1cac18-5137-4c58-bf7d-d8b90a9708d2-parameters"}},{"url":"http://hl7.org/fhir/us/cqfmeasures/StructureDefinition/cqfm-testCaseDescription","valueMarkdown":"Oral factor Xa administered 1 min after ICU.start, Enc Dx of atrial fibrillation.\n"}],"modifierExtension":[{"url":"http://hl7.org/fhir/us/cqfmeasures/StructureDefinition/cqfm-isTestCase","valueBoolean":true}],"status":"complete","type":"individual","measure":"https://madie.cms.gov/Measure/CMS190VTEProphylaxisICUFHIR","period":{"start":"2026-01-01","end":"2026-12-31"},"group":[{"id":"Group_1","population":[{"id":"InitialPopulation_1","code":{"coding":[{"system":"http://terminology.hl7.org/CodeSystem/measure-population","code":"initial-population","display":"Initial Population"}]},"count":1},{"id":"Denominator_1","code":{"coding":[{"system":"http://terminology.hl7.org/CodeSystem/measure-population","code":"denominator","display":"Denominator"}]},"count":1},{"id":"DenominatorExclusion_1","code":{"coding":[{"system":"http://terminology.hl7.org/CodeSystem/measure-population","code":"denominator-exclusion","display":"Denominator Exclusion"}]},"count":0},{"id":"Numerator_1","code":{"coding":[{"system":"http://terminology.hl7.org/CodeSystem/measure-population","code":"numerator","display":"Numerator"}]},"count":1},{"id":"DenominatorException_1","code":{"coding":[{"system":"http://terminology.hl7.org/CodeSystem/measure-population","code":"denominator-exception","display":"Denominator Exception"}]},"count":0}],"measureScore":{"value":0.0}}],"evaluatedResource":[{"reference":"Patient/0d48b3b3-c5f0-4955-810d-eb4f1b8714ca"},{"reference":"Encounter/71c45fe3-47e9-45b3-bc79-2d71d21cd1a9"},{"reference":"Coverage/f58a7244-463d-43df-9c00-67dd14a8056c"},{"reference":"MedicationAdministration/62c4de9f-228d-472a-a7d3-7a7aba2b4a3c"},{"reference":"Location/175fc102-2154-4e4f-a6e6-10a3170419d9"},{"reference":"Condition/92fba422-f75d-41fb-9395-c8c3d8d3d232"},{"reference":"Organization/f82e64bf-68ae-40ff-a276-f12d7d1394c9"},{"reference":"Practitioner/716ea84a-06e9-44ba-a48c-1430209443ba"}]},"request":{"method":"PUT","url":"MeasureReport/6958858c-62e1-427f-a270-8aecd36f138e"}}]},"request":{"method":"PUT","url":"Bundle/612e6f3902c62a011f2f1183"}},{"fullUrl":"Practitioner/716ea84a-06e9-44ba-a48c-1430209443ba","resource":{"resourceType":"Practitioner","id":"716ea84a-06e9-44ba-a48c-1430209443ba","identifier":[{"system":"http://hl7.org/fhir/sid/us-npi","value":"123456"}],"name":[{"family":"Evil","prefix":["Dr"]}]},"request":{"method":"PUT","url":"Practitioner/716ea84a-06e9-44ba-a48c-1430209443ba"}},{"fullUrl":"MeasureReport/6958858c-62e1-427f-a270-8aecd36f138e","resource":{"resourceType":"MeasureReport","id":"6958858c-62e1-427f-a270-8aecd36f138e","meta":{"profile":["http://hl7.org/fhir/us/cqfmeasures/StructureDefinition/test-case-cqfm"]},"contained":[{"resourceType":"Parameters","id":"ca1cac18-5137-4c58-bf7d-d8b90a9708d2-parameters","parameter":[{"name":"subject","valueString":"0d48b3b3-c5f0-4955-810d-eb4f1b8714ca"}]}],"extension":[{"url":"http://hl7.org/fhir/StructureDefinition/cqf-inputParameters","valueReference":{"reference":"#ca1cac18-5137-4c58-bf7d-d8b90a9708d2-parameters"}},{"url":"http://hl7.org/fhir/us/cqfmeasures/StructureDefinition/cqfm-testCaseDescription","valueMarkdown":"Oral factor Xa administered 1 min after ICU.start, Enc Dx of atrial fibrillation.\n"}],"modifierExtension":[{"url":"http://hl7.org/fhir/us/cqfmeasures/StructureDefinition/cqfm-isTestCase","valueBoolean":true}],"status":"complete","type":"individual","measure":"https://madie.cms.gov/Measure/CMS190VTEProphylaxisICUFHIR","period":{"start":"2026-01-01","end":"2026-12-31"},"group":[{"id":"Group_1","population":[{"id":"InitialPopulation_1","code":{"coding":[{"system":"http://terminology.hl7.org/CodeSystem/measure-population","code":"initial-population","display":"Initial Population"}]},"count":1},{"id":"Denominator_1","code":{"coding":[{"system":"http://terminology.hl7.org/CodeSystem/measure-population","code":"denominator","display":"Denominator"}]},"count":1},{"id":"DenominatorExclusion_1","code":{"coding":[{"system":"http://terminology.hl7.org/CodeSystem/measure-population","code":"denominator-exclusion","display":"Denominator Exclusion"}]},"count":0},{"id":"Numerator_1","code":{"coding":[{"system":"http://terminology.hl7.org/CodeSystem/measure-population","code":"numerator","display":"Numerator"}]},"count":1},{"id":"DenominatorException_1","code":{"coding":[{"system":"http://terminology.hl7.org/CodeSystem/measure-population","code":"denominator-exception","display":"Denominator Exception"}]},"count":0}],"measureScore":{"value":0.0}}],"evaluatedResource":[{"reference":"Patient/0d48b3b3-c5f0-4955-810d-eb4f1b8714ca"},{"reference":"Encounter/71c45fe3-47e9-45b3-bc79-2d71d21cd1a9"},{"reference":"Coverage/f58a7244-463d-43df-9c00-67dd14a8056c"},{"reference":"MedicationAdministration/62c4de9f-228d-472a-a7d3-7a7aba2b4a3c"},{"reference":"Location/175fc102-2154-4e4f-a6e6-10a3170419d9"},{"reference":"Condition/92fba422-f75d-41fb-9395-c8c3d8d3d232"},{"reference":"Organization/f82e64bf-68ae-40ff-a276-f12d7d1394c9"},{"reference":"Practitioner/716ea84a-06e9-44ba-a48c-1430209443ba"}]},"request":{"method":"PUT","url":"MeasureReport/6958858c-62e1-427f-a270-8aecd36f138e"}},{"fullUrl":"Encounter/71c45fe3-47e9-45b3-bc79-2d71d21cd1a9","resource":{"resourceType":"Encounter","id":"71c45fe3-47e9-45b3-bc79-2d71d21cd1a9","meta":{"profile":["http://hl7.org/fhir/us/qicore/StructureDefinition/qicore-encounter"]},"status":"finished","class":{"system":"http://terminology.hl7.org/CodeSystem/v3-ActCode","code":"IMP","display":"inpatient encounter"},"type":[{"coding":[{"system":"http://snomed.info/sct","code":"8715000"}]}],"subject":{"reference":"Patient/0d48b3b3-c5f0-4955-810d-eb4f1b8714ca"},"period":{"start":"2026-12-04T08:00:00.000+00:00","end":"2026-12-30T08:15:00.000+00:00"},"length":{"value":26,"unit":"days"},"reasonReference":[{"reference":"Condition/92fba422-f75d-41fb-9395-c8c3d8d3d232"}],"location":[{"location":{"reference":"Location/175fc102-2154-4e4f-a6e6-10a3170419d9"},"period":{"start":"2026-12-06T08:00:00.000+00:00","end":"2026-12-08T08:15:00.000+00:00"}}]},"request":{"method":"PUT","url":"Encounter/71c45fe3-47e9-45b3-bc79-2d71d21cd1a9"}},{"fullUrl":"MedicationAdministration/62c4de9f-228d-472a-a7d3-7a7aba2b4a3c","resource":{"resourceType":"MedicationAdministration","id":"62c4de9f-228d-472a-a7d3-7a7aba2b4a3c","meta":{"profile":["http://hl7.org/fhir/us/qicore/StructureDefinition/qicore-medicationadministration"]},"status":"completed","medicationCodeableConcept":{"coding":[{"system":"http://www.nlm.nih.gov/research/umls/rxnorm","code":"1364435","display":"apixaban 2.5 MG Oral Tablet","userSelected":true}]},"subject":{"reference":"Patient/0d48b3b3-c5f0-4955-810d-eb4f1b8714ca"},"effectivePeriod":{"start":"2026-12-06T08:01:00.000+00:00"}},"request":{"method":"PUT","url":"MedicationAdministration/62c4de9f-228d-472a-a7d3-7a7aba2b4a3c"}}]}