{"resourceType":"Bundle","id":"tests-98d6da30-f55a-411d-94b4-359b204bcb5a-bundle","type":"transaction","entry":[{"fullUrl":"Practitioner/76d6fd91-cad6-472e-9e69-d6e9e43e5daf","resource":{"resourceType":"Practitioner","id":"76d6fd91-cad6-472e-9e69-d6e9e43e5daf","identifier":[{"system":"http://hl7.org/fhir/sid/us-npi","value":"123456"}],"name":[{"family":"Evil","prefix":["Dr"]}]},"request":{"method":"PUT","url":"Practitioner/76d6fd91-cad6-472e-9e69-d6e9e43e5daf"}},{"fullUrl":"MeasureReport/856edf10-7117-4ab9-a03f-a081517f95a9","resource":{"resourceType":"MeasureReport","id":"856edf10-7117-4ab9-a03f-a081517f95a9","meta":{"profile":["http://hl7.org/fhir/us/cqfmeasures/StructureDefinition/test-case-cqfm"]},"contained":[{"resourceType":"Parameters","id":"3dbcca34-5fbd-4f7b-988c-6a9fa2f1af9b-parameters","parameter":[{"name":"subject","valueString":"98d6da30-f55a-411d-94b4-359b204bcb5a"}]}],"extension":[{"url":"http://hl7.org/fhir/StructureDefinition/cqf-inputParameters","valueReference":{"reference":"#3dbcca34-5fbd-4f7b-988c-6a9fa2f1af9b-parameters"}},{"url":"http://hl7.org/fhir/us/cqfmeasures/StructureDefinition/cqfm-testCaseDescription","valueMarkdown":"Patient refusal for Unfractionated Heparin with Task Rejected"}],"modifierExtension":[{"url":"http://hl7.org/fhir/us/cqfmeasures/StructureDefinition/cqfm-isTestCase","valueBoolean":true}],"status":"complete","type":"individual","measure":"https://madie.cms.gov/Measure/CMS190VTEProphylaxisICUFHIR","period":{"start":"2026-01-01","end":"2026-12-31"},"group":[{"id":"Group_1","population":[{"id":"InitialPopulation_1","code":{"coding":[{"system":"http://terminology.hl7.org/CodeSystem/measure-population","code":"initial-population","display":"Initial Population"}]},"count":1},{"id":"Denominator_1","code":{"coding":[{"system":"http://terminology.hl7.org/CodeSystem/measure-population","code":"denominator","display":"Denominator"}]},"count":1},{"id":"DenominatorExclusion_1","code":{"coding":[{"system":"http://terminology.hl7.org/CodeSystem/measure-population","code":"denominator-exclusion","display":"Denominator Exclusion"}]},"count":0},{"id":"Numerator_1","code":{"coding":[{"system":"http://terminology.hl7.org/CodeSystem/measure-population","code":"numerator","display":"Numerator"}]},"count":1},{"id":"DenominatorException_1","code":{"coding":[{"system":"http://terminology.hl7.org/CodeSystem/measure-population","code":"denominator-exception","display":"Denominator Exception"}]},"count":0}],"measureScore":{"value":0.0}}],"evaluatedResource":[{"reference":"Patient/98d6da30-f55a-411d-94b4-359b204bcb5a"},{"reference":"Encounter/43a4b4a6-bcb1-41b0-8e3e-33d2619b59b8"},{"reference":"Coverage/d7f5a023-f6f8-4380-93ac-361f2d7064c8"},{"reference":"MedicationRequest/a1b7b9bb-defb-4887-ab63-c73ba0e25387"},{"reference":"Task/b8e138c9-9f98-4853-bff2-0871c4d4b94e"},{"reference":"Location/df07b42e-03d6-4c7d-a227-8b51889323df"},{"reference":"Organization/f7d86fc0-2608-4369-b5b8-d47ae19a66d8"},{"reference":"Practitioner/76d6fd91-cad6-472e-9e69-d6e9e43e5daf"}]},"request":{"method":"PUT","url":"MeasureReport/856edf10-7117-4ab9-a03f-a081517f95a9"}},{"fullUrl":"Encounter/43a4b4a6-bcb1-41b0-8e3e-33d2619b59b8","resource":{"resourceType":"Encounter","id":"43a4b4a6-bcb1-41b0-8e3e-33d2619b59b8","meta":{"profile":["http://hl7.org/fhir/us/qicore/StructureDefinition/qicore-encounter"]},"status":"finished","class":{"system":"http://terminology.hl7.org/CodeSystem/v3-ActCode","code":"IMP","display":"inpatient encounter"},"type":[{"coding":[{"system":"http://snomed.info/sct","code":"8715000"}]}],"subject":{"reference":"Patient/98d6da30-f55a-411d-94b4-359b204bcb5a"},"period":{"start":"2026-11-01T08:00:00Z","end":"2026-11-26T08:15:00.000+00:00"},"length":{"value":25,"unit":"days"},"location":[{"location":{"reference":"Location/df07b42e-03d6-4c7d-a227-8b51889323df"},"period":{"start":"2026-11-04T09:00:00Z","end":"2026-11-06T08:15:00.000+00:00"}}]},"request":{"method":"PUT","url":"Encounter/43a4b4a6-bcb1-41b0-8e3e-33d2619b59b8"}},{"fullUrl":"MedicationRequest/a1b7b9bb-defb-4887-ab63-c73ba0e25387","resource":{"resourceType":"MedicationRequest","id":"a1b7b9bb-defb-4887-ab63-c73ba0e25387","meta":{"profile":["http://hl7.org/fhir/us/qicore/StructureDefinition/qicore-medicationrequest"]},"status":"active","intent":"order","category":[{"coding":[{"system":"http://terminology.hl7.org/CodeSystem/medicationrequest-category","code":"inpatient"}]}],"doNotPerform":false,"medicationCodeableConcept":{"coding":[{"system":"http://www.nlm.nih.gov/research/umls/rxnorm","code":"1658647"}]},"subject":{"reference":"Patient/98d6da30-f55a-411d-94b4-359b204bcb5a"},"authoredOn":"2026-11-01T08:00:00Z","requester":{"reference":"Practitioner/123456"},"dosageInstruction":[{"timing":{"repeat":{"boundsPeriod":{"start":"2026-11-03T09:00:00Z"}}}}]},"request":{"method":"PUT","url":"MedicationRequest/a1b7b9bb-defb-4887-ab63-c73ba0e25387"}},{"fullUrl":"Coverage/d7f5a023-f6f8-4380-93ac-361f2d7064c8","resource":{"resourceType":"Coverage","id":"d7f5a023-f6f8-4380-93ac-361f2d7064c8","status":"active","beneficiary":{"reference":"Patient/98d6da30-f55a-411d-94b4-359b204bcb5a"},"period":{"start":"1975-01-02T08:00:00Z"},"payor":[{"reference":"Organization/f7d86fc0-2608-4369-b5b8-d47ae19a66d8"}]},"request":{"method":"PUT","url":"Coverage/d7f5a023-f6f8-4380-93ac-361f2d7064c8"}},{"fullUrl":"Task/b8e138c9-9f98-4853-bff2-0871c4d4b94e","resource":{"resourceType":"Task","id":"b8e138c9-9f98-4853-bff2-0871c4d4b94e","meta":{"profile":["http://hl7.org/fhir/us/qicore/StructureDefinition/qicore-taskrejected"]},"status":"rejected","statusReason":{"coding":[{"system":"http://snomed.info/sct","code":"443390004","display":"Refusal of treatment by patient (situation)","userSelected":true}]},"code":{"coding":[{"system":"http://hl7.org/fhir/CodeSystem/task-code","code":"fulfill"}]},"focus":{"reference":"MedicationRequest/a1b7b9bb-defb-4887-ab63-c73ba0e25387"},"executionPeriod":{"start":"2026-11-01T09:00:00Z","end":"2026-11-03T09:00:00.000+00:00"}},"request":{"method":"PUT","url":"Task/b8e138c9-9f98-4853-bff2-0871c4d4b94e"}},{"fullUrl":"Location/df07b42e-03d6-4c7d-a227-8b51889323df","resource":{"resourceType":"Location","id":"df07b42e-03d6-4c7d-a227-8b51889323df","meta":{"profile":["http://hl7.org/fhir/us/qicore/StructureDefinition/qicore-location"]},"identifier":[{"use":"usual","system":"http://exampleoflocation.com","value":"B1-S.F2"}],"name":"Medical Surgical East, first floor","type":[{"coding":[{"system":"https://www.cdc.gov/nhsn/cdaportal/terminology/codesystem/hsloc.html","code":"1025-6","display":"Trauma Critical Care","userSelected":true}]}]},"request":{"method":"PUT","url":"Location/df07b42e-03d6-4c7d-a227-8b51889323df"}},{"fullUrl":"Patient/98d6da30-f55a-411d-94b4-359b204bcb5a","resource":{"resourceType":"Patient","id":"98d6da30-f55a-411d-94b4-359b204bcb5a","meta":{"profile":["http://hl7.org/fhir/us/qicore/StructureDefinition/qicore-patient"]},"text":{"status":"generated","div":"<div xmlns=\"http://www.w3.org/1999/xhtml\"><div class=\"hapiHeaderText\">PtRefMOLMWHDayAfterICU<b>NUMERPASS </b></div><table class=\"hapiPropertyTable\"><tbody><tr><td>Identifier</td><td>bec2580a47ed4bf7691b191e0654b2de</td></tr><tr><td>Date of birth</td><td><span>02 January 1974</span></td></tr></tbody></table></div>"},"extension":[{"url":"http://hl7.org/fhir/us/core/StructureDefinition/us-core-race","extension":[{"url":"ombCategory","valueCoding":{"system":"urn:oid:2.16.840.1.113883.6.238","code":"1002-5","display":"American Indian or Alaska Native","userSelected":true}},{"url":"text","valueString":"American Indian or Alaska Native"}]},{"url":"http://hl7.org/fhir/us/core/StructureDefinition/us-core-ethnicity","extension":[{"url":"ombCategory","valueCoding":{"system":"urn:oid:2.16.840.1.113883.6.238","code":"2135-2","display":"Hispanic or Latino","userSelected":true}},{"url":"text","valueString":"Hispanic or Latino"}]}],"identifier":[{"type":{"coding":[{"system":"http://terminology.hl7.org/CodeSystem/v2-0203","code":"MR"}]},"system":"https://bonnie-fhir.healthit.gov/","value":"612e6b2e02c62a011f2ecc92"}],"active":true,"name":[{"use":"usual","family":"NUMERPass","given":["PtRefMOUnfractionatedHeparinTaskReject"]}],"gender":"male","birthDate":"1975-01-02"},"request":{"method":"PUT","url":"Patient/98d6da30-f55a-411d-94b4-359b204bcb5a"}},{"fullUrl":"Bundle/612e6b2e02c62a011f2ecc92","resource":{"resourceType":"Bundle","id":"612e6b2e02c62a011f2ecc92","type":"transaction","entry":[{"fullUrl":"https://madie.cms.gov/Patient/98d6da30-f55a-411d-94b4-359b204bcb5a","resource":{"resourceType":"Patient","id":"98d6da30-f55a-411d-94b4-359b204bcb5a","meta":{"profile":["http://hl7.org/fhir/us/qicore/StructureDefinition/qicore-patient"]},"text":{"status":"generated","div":"<div xmlns=\"http://www.w3.org/1999/xhtml\"><div class=\"hapiHeaderText\">PtRefMOLMWHDayAfterICU<b>NUMERPASS </b></div><table class=\"hapiPropertyTable\"><tbody><tr><td>Identifier</td><td>bec2580a47ed4bf7691b191e0654b2de</td></tr><tr><td>Date of birth</td><td><span>02 January 1974</span></td></tr></tbody></table></div>"},"extension":[{"url":"http://hl7.org/fhir/us/core/StructureDefinition/us-core-race","extension":[{"url":"ombCategory","valueCoding":{"system":"urn:oid:2.16.840.1.113883.6.238","code":"1002-5","display":"American Indian or Alaska Native","userSelected":true}},{"url":"text","valueString":"American Indian or Alaska Native"}]},{"url":"http://hl7.org/fhir/us/core/StructureDefinition/us-core-ethnicity","extension":[{"url":"ombCategory","valueCoding":{"system":"urn:oid:2.16.840.1.113883.6.238","code":"2135-2","display":"Hispanic or Latino","userSelected":true}},{"url":"text","valueString":"Hispanic or Latino"}]}],"identifier":[{"type":{"coding":[{"system":"http://terminology.hl7.org/CodeSystem/v2-0203","code":"MR"}]},"system":"https://bonnie-fhir.healthit.gov/","value":"612e6b2e02c62a011f2ecc92"}],"active":true,"name":[{"use":"usual","family":"NUMERPass","given":["PtRefMOUnfractionatedHeparinTaskReject"]}],"gender":"male","birthDate":"1975-01-02"},"request":{"method":"PUT","url":"Patient/98d6da30-f55a-411d-94b4-359b204bcb5a"}},{"fullUrl":"https://madie.cms.gov/Encounter/43a4b4a6-bcb1-41b0-8e3e-33d2619b59b8","resource":{"resourceType":"Encounter","id":"43a4b4a6-bcb1-41b0-8e3e-33d2619b59b8","meta":{"profile":["http://hl7.org/fhir/us/qicore/StructureDefinition/qicore-encounter"]},"status":"finished","class":{"system":"http://terminology.hl7.org/CodeSystem/v3-ActCode","code":"IMP","display":"inpatient encounter"},"type":[{"coding":[{"system":"http://snomed.info/sct","code":"8715000"}]}],"subject":{"reference":"Patient/98d6da30-f55a-411d-94b4-359b204bcb5a"},"period":{"start":"2026-11-01T08:00:00Z","end":"2026-11-26T08:15:00.000+00:00"},"length":{"value":25,"unit":"days"},"location":[{"location":{"reference":"Location/df07b42e-03d6-4c7d-a227-8b51889323df"},"period":{"start":"2026-11-04T09:00:00Z","end":"2026-11-06T08:15:00.000+00:00"}}]},"request":{"method":"PUT","url":"Encounter/43a4b4a6-bcb1-41b0-8e3e-33d2619b59b8"}},{"fullUrl":"https://madie.cms.gov/Coverage/d7f5a023-f6f8-4380-93ac-361f2d7064c8","resource":{"resourceType":"Coverage","id":"d7f5a023-f6f8-4380-93ac-361f2d7064c8","status":"active","beneficiary":{"reference":"Patient/98d6da30-f55a-411d-94b4-359b204bcb5a"},"period":{"start":"1975-01-02T08:00:00Z"},"payor":[{"reference":"Organization/f7d86fc0-2608-4369-b5b8-d47ae19a66d8"}]},"request":{"method":"PUT","url":"Coverage/d7f5a023-f6f8-4380-93ac-361f2d7064c8"}},{"fullUrl":"https://madie.cms.gov/MedicationRequest/a1b7b9bb-defb-4887-ab63-c73ba0e25387","resource":{"resourceType":"MedicationRequest","id":"a1b7b9bb-defb-4887-ab63-c73ba0e25387","meta":{"profile":["http://hl7.org/fhir/us/qicore/StructureDefinition/qicore-medicationrequest"]},"status":"active","intent":"order","category":[{"coding":[{"system":"http://terminology.hl7.org/CodeSystem/medicationrequest-category","code":"inpatient"}]}],"doNotPerform":false,"medicationCodeableConcept":{"coding":[{"system":"http://www.nlm.nih.gov/research/umls/rxnorm","code":"1658647"}]},"subject":{"reference":"Patient/98d6da30-f55a-411d-94b4-359b204bcb5a"},"authoredOn":"2026-11-01T08:00:00Z","requester":{"reference":"Practitioner/123456"},"dosageInstruction":[{"timing":{"repeat":{"boundsPeriod":{"start":"2026-11-03T09:00:00Z"}}}}]},"request":{"method":"PUT","url":"MedicationRequest/a1b7b9bb-defb-4887-ab63-c73ba0e25387"}},{"fullUrl":"https://madie.cms.gov/Task/b8e138c9-9f98-4853-bff2-0871c4d4b94e","resource":{"resourceType":"Task","id":"b8e138c9-9f98-4853-bff2-0871c4d4b94e","meta":{"profile":["http://hl7.org/fhir/us/qicore/StructureDefinition/qicore-taskrejected"]},"status":"rejected","statusReason":{"coding":[{"system":"http://snomed.info/sct","code":"443390004","display":"Refusal of treatment by patient (situation)","userSelected":true}]},"code":{"coding":[{"system":"http://hl7.org/fhir/CodeSystem/task-code","code":"fulfill"}]},"focus":{"reference":"MedicationRequest/a1b7b9bb-defb-4887-ab63-c73ba0e25387"},"executionPeriod":{"start":"2026-11-01T09:00:00Z","end":"2026-11-03T09:00:00.000+00:00"}},"request":{"method":"PUT","url":"Task/b8e138c9-9f98-4853-bff2-0871c4d4b94e"}},{"fullUrl":"https://madie.cms.gov/Location/df07b42e-03d6-4c7d-a227-8b51889323df","resource":{"resourceType":"Location","id":"df07b42e-03d6-4c7d-a227-8b51889323df","meta":{"profile":["http://hl7.org/fhir/us/qicore/StructureDefinition/qicore-location"]},"identifier":[{"use":"usual","system":"http://exampleoflocation.com","value":"B1-S.F2"}],"name":"Medical Surgical East, first floor","type":[{"coding":[{"system":"https://www.cdc.gov/nhsn/cdaportal/terminology/codesystem/hsloc.html","code":"1025-6","display":"Trauma Critical Care","userSelected":true}]}]},"request":{"method":"PUT","url":"Location/df07b42e-03d6-4c7d-a227-8b51889323df"}},{"fullUrl":"https://madie.cms.gov/Organization/f7d86fc0-2608-4369-b5b8-d47ae19a66d8","resource":{"resourceType":"Organization","id":"f7d86fc0-2608-4369-b5b8-d47ae19a66d8","meta":{"profile":["http://hl7.org/fhir/us/qicore/StructureDefinition/qicore-organization"]},"identifier":[{"use":"temp","system":"urn:oid:2.16.840.1.113883.4.4","value":"21-3259825"}],"active":true,"type":[{"coding":[{"system":"http://terminology.hl7.org/CodeSystem/organization-type","code":"pay","display":"Payer"}]}],"name":"Blue Cross Blue Shield of Texas","telecom":[{"system":"phone","value":"(+1) 972-766-6900"}],"address":[{"use":"billing","type":"postal","line":["P.O. Box 660044"],"city":"Dallas","state":"TX","postalCode":"75266-0044","country":"USA"}]},"request":{"method":"PUT","url":"Organization/f7d86fc0-2608-4369-b5b8-d47ae19a66d8"}},{"fullUrl":"https://madie.cms.gov/Practitioner/76d6fd91-cad6-472e-9e69-d6e9e43e5daf","resource":{"resourceType":"Practitioner","id":"76d6fd91-cad6-472e-9e69-d6e9e43e5daf","identifier":[{"system":"http://hl7.org/fhir/sid/us-npi","value":"123456"}],"name":[{"family":"Evil","prefix":["Dr"]}]},"request":{"method":"PUT","url":"Practitioner/76d6fd91-cad6-472e-9e69-d6e9e43e5daf"}},{"fullUrl":"https://madie.cms.gov/MeasureReport/856edf10-7117-4ab9-a03f-a081517f95a9","resource":{"resourceType":"MeasureReport","id":"856edf10-7117-4ab9-a03f-a081517f95a9","meta":{"profile":["http://hl7.org/fhir/us/cqfmeasures/StructureDefinition/test-case-cqfm"]},"contained":[{"resourceType":"Parameters","id":"3dbcca34-5fbd-4f7b-988c-6a9fa2f1af9b-parameters","parameter":[{"name":"subject","valueString":"98d6da30-f55a-411d-94b4-359b204bcb5a"}]}],"extension":[{"url":"http://hl7.org/fhir/StructureDefinition/cqf-inputParameters","valueReference":{"reference":"#3dbcca34-5fbd-4f7b-988c-6a9fa2f1af9b-parameters"}},{"url":"http://hl7.org/fhir/us/cqfmeasures/StructureDefinition/cqfm-testCaseDescription","valueMarkdown":"Patient refusal for Unfractionated Heparin with Task Rejected"}],"modifierExtension":[{"url":"http://hl7.org/fhir/us/cqfmeasures/StructureDefinition/cqfm-isTestCase","valueBoolean":true}],"status":"complete","type":"individual","measure":"https://madie.cms.gov/Measure/CMS190VTEProphylaxisICUFHIR","period":{"start":"2026-01-01","end":"2026-12-31"},"group":[{"id":"Group_1","population":[{"id":"InitialPopulation_1","code":{"coding":[{"system":"http://terminology.hl7.org/CodeSystem/measure-population","code":"initial-population","display":"Initial Population"}]},"count":1},{"id":"Denominator_1","code":{"coding":[{"system":"http://terminology.hl7.org/CodeSystem/measure-population","code":"denominator","display":"Denominator"}]},"count":1},{"id":"DenominatorExclusion_1","code":{"coding":[{"system":"http://terminology.hl7.org/CodeSystem/measure-population","code":"denominator-exclusion","display":"Denominator Exclusion"}]},"count":0},{"id":"Numerator_1","code":{"coding":[{"system":"http://terminology.hl7.org/CodeSystem/measure-population","code":"numerator","display":"Numerator"}]},"count":1},{"id":"DenominatorException_1","code":{"coding":[{"system":"http://terminology.hl7.org/CodeSystem/measure-population","code":"denominator-exception","display":"Denominator Exception"}]},"count":0}],"measureScore":{"value":0.0}}],"evaluatedResource":[{"reference":"Patient/98d6da30-f55a-411d-94b4-359b204bcb5a"},{"reference":"Encounter/43a4b4a6-bcb1-41b0-8e3e-33d2619b59b8"},{"reference":"Coverage/d7f5a023-f6f8-4380-93ac-361f2d7064c8"},{"reference":"MedicationRequest/a1b7b9bb-defb-4887-ab63-c73ba0e25387"},{"reference":"Task/b8e138c9-9f98-4853-bff2-0871c4d4b94e"},{"reference":"Location/df07b42e-03d6-4c7d-a227-8b51889323df"},{"reference":"Organization/f7d86fc0-2608-4369-b5b8-d47ae19a66d8"},{"reference":"Practitioner/76d6fd91-cad6-472e-9e69-d6e9e43e5daf"}]},"request":{"method":"PUT","url":"MeasureReport/856edf10-7117-4ab9-a03f-a081517f95a9"}}]},"request":{"method":"PUT","url":"Bundle/612e6b2e02c62a011f2ecc92"}},{"fullUrl":"Organization/f7d86fc0-2608-4369-b5b8-d47ae19a66d8","resource":{"resourceType":"Organization","id":"f7d86fc0-2608-4369-b5b8-d47ae19a66d8","meta":{"profile":["http://hl7.org/fhir/us/qicore/StructureDefinition/qicore-organization"]},"identifier":[{"use":"temp","system":"urn:oid:2.16.840.1.113883.4.4","value":"21-3259825"}],"active":true,"type":[{"coding":[{"system":"http://terminology.hl7.org/CodeSystem/organization-type","code":"pay","display":"Payer"}]}],"name":"Blue Cross Blue Shield of Texas","telecom":[{"system":"phone","value":"(+1) 972-766-6900"}],"address":[{"use":"billing","type":"postal","line":["P.O. Box 660044"],"city":"Dallas","state":"TX","postalCode":"75266-0044","country":"USA"}]},"request":{"method":"PUT","url":"Organization/f7d86fc0-2608-4369-b5b8-d47ae19a66d8"}}]}