{"resourceType":"Bundle","id":"tests-f8f09c1f-37fc-4088-a39d-710971b626b7-bundle","type":"transaction","entry":[{"fullUrl":"Organization/5004268f-da52-45e5-a22f-bd9701d5a6b6","resource":{"resourceType":"Organization","id":"5004268f-da52-45e5-a22f-bd9701d5a6b6","meta":{"profile":["http://hl7.org/fhir/us/qicore/StructureDefinition/qicore-organization"]},"identifier":[{"use":"temp","system":"urn:oid:2.16.840.1.113883.4.4","value":"21-3259825"}],"active":true,"type":[{"coding":[{"system":"http://terminology.hl7.org/CodeSystem/organization-type","code":"pay","display":"Payer"}]}],"name":"Blue Cross Blue Shield of Texas","telecom":[{"system":"phone","value":"(+1) 972-766-6900"}],"address":[{"use":"billing","type":"postal","line":["P.O. Box 660044"],"city":"Dallas","state":"TX","postalCode":"75266-0044","country":"USA"}]},"request":{"method":"PUT","url":"Organization/5004268f-da52-45e5-a22f-bd9701d5a6b6"}},{"fullUrl":"MeasureReport/cc068cc1-14d0-4992-bd50-d0705a301f3b","resource":{"resourceType":"MeasureReport","id":"cc068cc1-14d0-4992-bd50-d0705a301f3b","meta":{"profile":["http://hl7.org/fhir/us/cqfmeasures/StructureDefinition/test-case-cqfm"]},"contained":[{"resourceType":"Parameters","id":"e82a7cd8-b4c6-49d6-9277-a06938989080-parameters","parameter":[{"name":"subject","valueString":"f8f09c1f-37fc-4088-a39d-710971b626b7"}]}],"extension":[{"url":"http://hl7.org/fhir/StructureDefinition/cqf-inputParameters","valueReference":{"reference":"#e82a7cd8-b4c6-49d6-9277-a06938989080-parameters"}},{"url":"http://hl7.org/fhir/us/cqfmeasures/StructureDefinition/cqfm-testCaseDescription","valueMarkdown":"meets IPP and Denominator, inpatient visit starts >1 hour after the end of ED visit(Global Hosp without Ed) AND Comfort Measures are performed 1 min before Ed. This case pass DenExcl because CM is on the same day as Adm even ED > 1 hr before Adm\n"}],"modifierExtension":[{"url":"http://hl7.org/fhir/us/cqfmeasures/StructureDefinition/cqfm-isTestCase","valueBoolean":true}],"status":"complete","type":"individual","measure":"https://madie.cms.gov/Measure/CMS190VTEProphylaxisICUFHIR","period":{"start":"2026-01-01","end":"2026-12-31"},"group":[{"id":"Group_1","population":[{"id":"InitialPopulation_1","code":{"coding":[{"system":"http://terminology.hl7.org/CodeSystem/measure-population","code":"initial-population","display":"Initial Population"}]},"count":1},{"id":"Denominator_1","code":{"coding":[{"system":"http://terminology.hl7.org/CodeSystem/measure-population","code":"denominator","display":"Denominator"}]},"count":1},{"id":"DenominatorExclusion_1","code":{"coding":[{"system":"http://terminology.hl7.org/CodeSystem/measure-population","code":"denominator-exclusion","display":"Denominator Exclusion"}]},"count":1},{"id":"Numerator_1","code":{"coding":[{"system":"http://terminology.hl7.org/CodeSystem/measure-population","code":"numerator","display":"Numerator"}]},"count":0},{"id":"DenominatorException_1","code":{"coding":[{"system":"http://terminology.hl7.org/CodeSystem/measure-population","code":"denominator-exception","display":"Denominator Exception"}]},"count":0}],"measureScore":{"value":0.0}}],"evaluatedResource":[{"reference":"Patient/f8f09c1f-37fc-4088-a39d-710971b626b7"},{"reference":"Encounter/c796a9cb-5f82-4523-a21a-2a2db2c9330a"},{"reference":"Encounter/c085d173-251e-4469-9038-ce7ad83ff4e5"},{"reference":"Procedure/1056a52e-0526-4baf-ae7f-1a7d75bfd16c"},{"reference":"Coverage/10a090da-010f-4405-8034-fbe6283e1e2d"},{"reference":"Location/05338036-0d36-4c2a-8061-4b3e6210965b"},{"reference":"Organization/5004268f-da52-45e5-a22f-bd9701d5a6b6"},{"reference":"Practitioner/cf63799a-aa86-403c-85b5-e2e228b61d30"}]},"request":{"method":"PUT","url":"MeasureReport/cc068cc1-14d0-4992-bd50-d0705a301f3b"}},{"fullUrl":"Bundle/612e6e7b02c62a011f2ee895","resource":{"resourceType":"Bundle","id":"612e6e7b02c62a011f2ee895","type":"transaction","entry":[{"fullUrl":"https://madie.cms.gov/Patient/f8f09c1f-37fc-4088-a39d-710971b626b7","resource":{"resourceType":"Patient","id":"f8f09c1f-37fc-4088-a39d-710971b626b7","meta":{"profile":["http://hl7.org/fhir/us/qicore/StructureDefinition/qicore-patient"]},"text":{"status":"generated","div":"<div xmlns=\"http://www.w3.org/1999/xhtml\"><div class=\"hapiHeaderText\">CMOPerf1minB4EDEDGT1hBFAdm<b>DENEXPASS </b></div><table class=\"hapiPropertyTable\"><tbody><tr><td>Identifier</td><td>a87f61f9ee97e4d61378f0c75a641367aa32c8b61235755a5325165362b79a51</td></tr><tr><td>Date of birth</td><td><span>03 March 1974</span></td></tr></tbody></table></div>"},"extension":[{"url":"http://hl7.org/fhir/us/core/StructureDefinition/us-core-race","extension":[{"url":"ombCategory","valueCoding":{"system":"urn:oid:2.16.840.1.113883.6.238","code":"1002-5","display":"American Indian or Alaska Native","userSelected":true}},{"url":"text","valueString":"American Indian or Alaska Native"}]},{"url":"http://hl7.org/fhir/us/core/StructureDefinition/us-core-ethnicity","extension":[{"url":"ombCategory","valueCoding":{"system":"urn:oid:2.16.840.1.113883.6.238","code":"2135-2","display":"Hispanic or Latino","userSelected":true}},{"url":"text","valueString":"Hispanic or Latino"}]}],"identifier":[{"type":{"coding":[{"system":"http://terminology.hl7.org/CodeSystem/v2-0203","code":"MR"}]},"system":"https://bonnie-fhir.healthit.gov/","value":"612e6e7b02c62a011f2ee895"}],"active":true,"name":[{"use":"usual","family":"DENEXPass","given":["CMOPerf1minB4EDEDGT1hBFAdm"]}],"gender":"female","birthDate":"1975-03-03"},"request":{"method":"PUT","url":"Patient/f8f09c1f-37fc-4088-a39d-710971b626b7"}},{"fullUrl":"https://madie.cms.gov/Encounter/c796a9cb-5f82-4523-a21a-2a2db2c9330a","resource":{"resourceType":"Encounter","id":"c796a9cb-5f82-4523-a21a-2a2db2c9330a","meta":{"profile":["http://hl7.org/fhir/us/qicore/StructureDefinition/qicore-encounter"]},"status":"finished","class":{"system":"http://terminology.hl7.org/CodeSystem/v3-ActCode","code":"EMER","display":"emergency"},"type":[{"coding":[{"system":"http://snomed.info/sct","code":"4525004"}]}],"subject":{"reference":"Patient/f8f09c1f-37fc-4088-a39d-710971b626b7"},"period":{"start":"2026-12-04T06:00:00.000+00:00","end":"2026-12-04T06:30:00.000+00:00"},"length":{"value":0.0,"unit":"days"}},"request":{"method":"PUT","url":"Encounter/c796a9cb-5f82-4523-a21a-2a2db2c9330a"}},{"fullUrl":"https://madie.cms.gov/Encounter/c085d173-251e-4469-9038-ce7ad83ff4e5","resource":{"resourceType":"Encounter","id":"c085d173-251e-4469-9038-ce7ad83ff4e5","meta":{"profile":["http://hl7.org/fhir/us/qicore/StructureDefinition/qicore-encounter"]},"status":"finished","class":{"system":"http://terminology.hl7.org/CodeSystem/v3-ActCode","code":"IMP","display":"inpatient encounter"},"type":[{"coding":[{"system":"http://snomed.info/sct","code":"8715000"}]}],"subject":{"reference":"Patient/f8f09c1f-37fc-4088-a39d-710971b626b7"},"period":{"start":"2026-12-04T08:00:00.000+00:00","end":"2026-12-30T08:15:00.000+00:00"},"length":{"value":26.0,"unit":"days"},"location":[{"location":{"reference":"Location/05338036-0d36-4c2a-8061-4b3e6210965b"},"period":{"start":"2026-12-26T08:00:00.000+00:00","end":"2026-12-28T08:15:00.000+00:00"}}]},"request":{"method":"PUT","url":"Encounter/c085d173-251e-4469-9038-ce7ad83ff4e5"}},{"fullUrl":"https://madie.cms.gov/Procedure/1056a52e-0526-4baf-ae7f-1a7d75bfd16c","resource":{"resourceType":"Procedure","id":"1056a52e-0526-4baf-ae7f-1a7d75bfd16c","meta":{"profile":["http://hl7.org/fhir/us/qicore/StructureDefinition/qicore-procedure"]},"extension":[{"url":"http://hl7.org/fhir/us/qicore/StructureDefinition/qicore-recorded","valueDateTime":"2013-12-04T13:35:00.000+00:00"}],"status":"completed","code":{"coding":[{"system":"http://snomed.info/sct","code":"133918004"}]},"subject":{"reference":"Patient/f8f09c1f-37fc-4088-a39d-710971b626b7"},"performedPeriod":{"start":"2026-12-04T05:59:00.000+00:00"}},"request":{"method":"PUT","url":"Procedure/1056a52e-0526-4baf-ae7f-1a7d75bfd16c"}},{"fullUrl":"https://madie.cms.gov/Coverage/10a090da-010f-4405-8034-fbe6283e1e2d","resource":{"resourceType":"Coverage","id":"10a090da-010f-4405-8034-fbe6283e1e2d","status":"active","beneficiary":{"reference":"Patient/f8f09c1f-37fc-4088-a39d-710971b626b7"},"period":{"start":"1975-03-03T08:00:00.000+00:00"},"payor":[{"reference":"Organization/5004268f-da52-45e5-a22f-bd9701d5a6b6"}]},"request":{"method":"PUT","url":"Coverage/10a090da-010f-4405-8034-fbe6283e1e2d"}},{"fullUrl":"https://madie.cms.gov/Location/05338036-0d36-4c2a-8061-4b3e6210965b","resource":{"resourceType":"Location","id":"05338036-0d36-4c2a-8061-4b3e6210965b","meta":{"profile":["http://hl7.org/fhir/us/qicore/StructureDefinition/qicore-location"]},"identifier":[{"use":"usual","system":"http://exampleoflocation.com","value":"B1-S.F2"}],"name":"Medical Surgical East, first floor","type":[{"coding":[{"system":"https://www.cdc.gov/nhsn/cdaportal/terminology/codesystem/hsloc.html","code":"1025-6","display":"Trauma Critical Care","userSelected":true}]}]},"request":{"method":"PUT","url":"Location/05338036-0d36-4c2a-8061-4b3e6210965b"}},{"fullUrl":"https://madie.cms.gov/Organization/5004268f-da52-45e5-a22f-bd9701d5a6b6","resource":{"resourceType":"Organization","id":"5004268f-da52-45e5-a22f-bd9701d5a6b6","meta":{"profile":["http://hl7.org/fhir/us/qicore/StructureDefinition/qicore-organization"]},"identifier":[{"use":"temp","system":"urn:oid:2.16.840.1.113883.4.4","value":"21-3259825"}],"active":true,"type":[{"coding":[{"system":"http://terminology.hl7.org/CodeSystem/organization-type","code":"pay","display":"Payer"}]}],"name":"Blue Cross Blue Shield of Texas","telecom":[{"system":"phone","value":"(+1) 972-766-6900"}],"address":[{"use":"billing","type":"postal","line":["P.O. Box 660044"],"city":"Dallas","state":"TX","postalCode":"75266-0044","country":"USA"}]},"request":{"method":"PUT","url":"Organization/5004268f-da52-45e5-a22f-bd9701d5a6b6"}},{"fullUrl":"https://madie.cms.gov/Practitioner/cf63799a-aa86-403c-85b5-e2e228b61d30","resource":{"resourceType":"Practitioner","id":"cf63799a-aa86-403c-85b5-e2e228b61d30","identifier":[{"system":"http://hl7.org/fhir/sid/us-npi","value":"123456"}],"name":[{"family":"Evil","prefix":["Dr"]}]},"request":{"method":"PUT","url":"Practitioner/cf63799a-aa86-403c-85b5-e2e228b61d30"}},{"fullUrl":"https://madie.cms.gov/MeasureReport/cc068cc1-14d0-4992-bd50-d0705a301f3b","resource":{"resourceType":"MeasureReport","id":"cc068cc1-14d0-4992-bd50-d0705a301f3b","meta":{"profile":["http://hl7.org/fhir/us/cqfmeasures/StructureDefinition/test-case-cqfm"]},"contained":[{"resourceType":"Parameters","id":"e82a7cd8-b4c6-49d6-9277-a06938989080-parameters","parameter":[{"name":"subject","valueString":"f8f09c1f-37fc-4088-a39d-710971b626b7"}]}],"extension":[{"url":"http://hl7.org/fhir/StructureDefinition/cqf-inputParameters","valueReference":{"reference":"#e82a7cd8-b4c6-49d6-9277-a06938989080-parameters"}},{"url":"http://hl7.org/fhir/us/cqfmeasures/StructureDefinition/cqfm-testCaseDescription","valueMarkdown":"meets IPP and Denominator, inpatient visit starts >1 hour after the end of ED visit(Global Hosp without Ed) AND Comfort Measures are performed 1 min before Ed. This case pass DenExcl because CM is on the same day as Adm even ED > 1 hr before Adm\n"}],"modifierExtension":[{"url":"http://hl7.org/fhir/us/cqfmeasures/StructureDefinition/cqfm-isTestCase","valueBoolean":true}],"status":"complete","type":"individual","measure":"https://madie.cms.gov/Measure/CMS190VTEProphylaxisICUFHIR","period":{"start":"2026-01-01","end":"2026-12-31"},"group":[{"id":"Group_1","population":[{"id":"InitialPopulation_1","code":{"coding":[{"system":"http://terminology.hl7.org/CodeSystem/measure-population","code":"initial-population","display":"Initial Population"}]},"count":1},{"id":"Denominator_1","code":{"coding":[{"system":"http://terminology.hl7.org/CodeSystem/measure-population","code":"denominator","display":"Denominator"}]},"count":1},{"id":"DenominatorExclusion_1","code":{"coding":[{"system":"http://terminology.hl7.org/CodeSystem/measure-population","code":"denominator-exclusion","display":"Denominator Exclusion"}]},"count":1},{"id":"Numerator_1","code":{"coding":[{"system":"http://terminology.hl7.org/CodeSystem/measure-population","code":"numerator","display":"Numerator"}]},"count":0},{"id":"DenominatorException_1","code":{"coding":[{"system":"http://terminology.hl7.org/CodeSystem/measure-population","code":"denominator-exception","display":"Denominator Exception"}]},"count":0}],"measureScore":{"value":0.0}}],"evaluatedResource":[{"reference":"Patient/f8f09c1f-37fc-4088-a39d-710971b626b7"},{"reference":"Encounter/c796a9cb-5f82-4523-a21a-2a2db2c9330a"},{"reference":"Encounter/c085d173-251e-4469-9038-ce7ad83ff4e5"},{"reference":"Procedure/1056a52e-0526-4baf-ae7f-1a7d75bfd16c"},{"reference":"Coverage/10a090da-010f-4405-8034-fbe6283e1e2d"},{"reference":"Location/05338036-0d36-4c2a-8061-4b3e6210965b"},{"reference":"Organization/5004268f-da52-45e5-a22f-bd9701d5a6b6"},{"reference":"Practitioner/cf63799a-aa86-403c-85b5-e2e228b61d30"}]},"request":{"method":"PUT","url":"MeasureReport/cc068cc1-14d0-4992-bd50-d0705a301f3b"}}]},"request":{"method":"PUT","url":"Bundle/612e6e7b02c62a011f2ee895"}},{"fullUrl":"Encounter/c085d173-251e-4469-9038-ce7ad83ff4e5","resource":{"resourceType":"Encounter","id":"c085d173-251e-4469-9038-ce7ad83ff4e5","meta":{"profile":["http://hl7.org/fhir/us/qicore/StructureDefinition/qicore-encounter"]},"status":"finished","class":{"system":"http://terminology.hl7.org/CodeSystem/v3-ActCode","code":"IMP","display":"inpatient encounter"},"type":[{"coding":[{"system":"http://snomed.info/sct","code":"8715000"}]}],"subject":{"reference":"Patient/f8f09c1f-37fc-4088-a39d-710971b626b7"},"period":{"start":"2026-12-04T08:00:00.000+00:00","end":"2026-12-30T08:15:00.000+00:00"},"length":{"value":26.0,"unit":"days"},"location":[{"location":{"reference":"Location/05338036-0d36-4c2a-8061-4b3e6210965b"},"period":{"start":"2026-12-26T08:00:00.000+00:00","end":"2026-12-28T08:15:00.000+00:00"}}]},"request":{"method":"PUT","url":"Encounter/c085d173-251e-4469-9038-ce7ad83ff4e5"}},{"fullUrl":"Encounter/c796a9cb-5f82-4523-a21a-2a2db2c9330a","resource":{"resourceType":"Encounter","id":"c796a9cb-5f82-4523-a21a-2a2db2c9330a","meta":{"profile":["http://hl7.org/fhir/us/qicore/StructureDefinition/qicore-encounter"]},"status":"finished","class":{"system":"http://terminology.hl7.org/CodeSystem/v3-ActCode","code":"EMER","display":"emergency"},"type":[{"coding":[{"system":"http://snomed.info/sct","code":"4525004"}]}],"subject":{"reference":"Patient/f8f09c1f-37fc-4088-a39d-710971b626b7"},"period":{"start":"2026-12-04T06:00:00.000+00:00","end":"2026-12-04T06:30:00.000+00:00"},"length":{"value":0.0,"unit":"days"}},"request":{"method":"PUT","url":"Encounter/c796a9cb-5f82-4523-a21a-2a2db2c9330a"}},{"fullUrl":"Patient/f8f09c1f-37fc-4088-a39d-710971b626b7","resource":{"resourceType":"Patient","id":"f8f09c1f-37fc-4088-a39d-710971b626b7","meta":{"profile":["http://hl7.org/fhir/us/qicore/StructureDefinition/qicore-patient"]},"text":{"status":"generated","div":"<div xmlns=\"http://www.w3.org/1999/xhtml\"><div class=\"hapiHeaderText\">CMOPerf1minB4EDEDGT1hBFAdm<b>DENEXPASS </b></div><table class=\"hapiPropertyTable\"><tbody><tr><td>Identifier</td><td>a87f61f9ee97e4d61378f0c75a641367aa32c8b61235755a5325165362b79a51</td></tr><tr><td>Date of birth</td><td><span>03 March 1974</span></td></tr></tbody></table></div>"},"extension":[{"url":"http://hl7.org/fhir/us/core/StructureDefinition/us-core-race","extension":[{"url":"ombCategory","valueCoding":{"system":"urn:oid:2.16.840.1.113883.6.238","code":"1002-5","display":"American Indian or Alaska Native","userSelected":true}},{"url":"text","valueString":"American Indian or Alaska Native"}]},{"url":"http://hl7.org/fhir/us/core/StructureDefinition/us-core-ethnicity","extension":[{"url":"ombCategory","valueCoding":{"system":"urn:oid:2.16.840.1.113883.6.238","code":"2135-2","display":"Hispanic or Latino","userSelected":true}},{"url":"text","valueString":"Hispanic or Latino"}]}],"identifier":[{"type":{"coding":[{"system":"http://terminology.hl7.org/CodeSystem/v2-0203","code":"MR"}]},"system":"https://bonnie-fhir.healthit.gov/","value":"612e6e7b02c62a011f2ee895"}],"active":true,"name":[{"use":"usual","family":"DENEXPass","given":["CMOPerf1minB4EDEDGT1hBFAdm"]}],"gender":"female","birthDate":"1975-03-03"},"request":{"method":"PUT","url":"Patient/f8f09c1f-37fc-4088-a39d-710971b626b7"}},{"fullUrl":"Procedure/1056a52e-0526-4baf-ae7f-1a7d75bfd16c","resource":{"resourceType":"Procedure","id":"1056a52e-0526-4baf-ae7f-1a7d75bfd16c","meta":{"profile":["http://hl7.org/fhir/us/qicore/StructureDefinition/qicore-procedure"]},"extension":[{"url":"http://hl7.org/fhir/us/qicore/StructureDefinition/qicore-recorded","valueDateTime":"2013-12-04T13:35:00.000+00:00"}],"status":"completed","code":{"coding":[{"system":"http://snomed.info/sct","code":"133918004"}]},"subject":{"reference":"Patient/f8f09c1f-37fc-4088-a39d-710971b626b7"},"performedPeriod":{"start":"2026-12-04T05:59:00.000+00:00"}},"request":{"method":"PUT","url":"Procedure/1056a52e-0526-4baf-ae7f-1a7d75bfd16c"}},{"fullUrl":"Practitioner/cf63799a-aa86-403c-85b5-e2e228b61d30","resource":{"resourceType":"Practitioner","id":"cf63799a-aa86-403c-85b5-e2e228b61d30","identifier":[{"system":"http://hl7.org/fhir/sid/us-npi","value":"123456"}],"name":[{"family":"Evil","prefix":["Dr"]}]},"request":{"method":"PUT","url":"Practitioner/cf63799a-aa86-403c-85b5-e2e228b61d30"}},{"fullUrl":"Location/05338036-0d36-4c2a-8061-4b3e6210965b","resource":{"resourceType":"Location","id":"05338036-0d36-4c2a-8061-4b3e6210965b","meta":{"profile":["http://hl7.org/fhir/us/qicore/StructureDefinition/qicore-location"]},"identifier":[{"use":"usual","system":"http://exampleoflocation.com","value":"B1-S.F2"}],"name":"Medical Surgical East, first floor","type":[{"coding":[{"system":"https://www.cdc.gov/nhsn/cdaportal/terminology/codesystem/hsloc.html","code":"1025-6","display":"Trauma Critical Care","userSelected":true}]}]},"request":{"method":"PUT","url":"Location/05338036-0d36-4c2a-8061-4b3e6210965b"}},{"fullUrl":"Coverage/10a090da-010f-4405-8034-fbe6283e1e2d","resource":{"resourceType":"Coverage","id":"10a090da-010f-4405-8034-fbe6283e1e2d","status":"active","beneficiary":{"reference":"Patient/f8f09c1f-37fc-4088-a39d-710971b626b7"},"period":{"start":"1975-03-03T08:00:00.000+00:00"},"payor":[{"reference":"Organization/5004268f-da52-45e5-a22f-bd9701d5a6b6"}]},"request":{"method":"PUT","url":"Coverage/10a090da-010f-4405-8034-fbe6283e1e2d"}}]}