{"resourceType":"Bundle","id":"tests-d4f8ae8a-1adf-4438-bc81-f9efcd4a1361-bundle","type":"transaction","entry":[{"resource":{"resourceType":"Organization","id":"f8277942-f880-496d-aad4-817b82ceabac","meta":{"profile":["http://hl7.org/fhir/us/qicore/StructureDefinition/qicore-organization"]},"identifier":[{"use":"temp","system":"urn:oid:2.16.840.1.113883.4.4","value":"21-3259825"}],"active":true,"type":[{"coding":[{"system":"http://terminology.hl7.org/CodeSystem/organization-type","code":"pay","display":"Payer"}]}],"name":"Blue Cross Blue Shield of Texas","telecom":[{"system":"phone","value":"(+1) 972-766-6900"}],"address":[{"use":"billing","type":"postal","line":["P.O. Box 660044"],"city":"Dallas","state":"TX","postalCode":"75266-0044","country":"USA"}]},"request":{"method":"PUT","url":"Organization/f8277942-f880-496d-aad4-817b82ceabac"}},{"resource":{"resourceType":"Observation","id":"0bd02326-9f40-4c86-ada9-2ba944d3278c","meta":{"profile":["http://hl7.org/fhir/us/qicore/StructureDefinition/qicore-observation-lab"]},"status":"final","category":[{"coding":[{"system":"http://terminology.hl7.org/CodeSystem/observation-category","code":"laboratory","display":"Laboratory"}]}],"code":{"coding":[{"system":"http://loinc.org","code":"34714-6"}]},"subject":{"reference":"Patient/d4f8ae8a-1adf-4438-bc81-f9efcd4a1361"},"effectivePeriod":{"start":"2026-12-06T11:30:00.000+00:00"},"valueInteger":3},"request":{"method":"PUT","url":"Observation/0bd02326-9f40-4c86-ada9-2ba944d3278c"}},{"resource":{"resourceType":"Encounter","id":"415d1667-3692-4534-af71-a8371764afb7","meta":{"profile":["http://hl7.org/fhir/us/qicore/StructureDefinition/qicore-encounter"]},"status":"finished","class":{"system":"http://terminology.hl7.org/CodeSystem/v3-ActCode","code":"IMP","display":"inpatient encounter"},"type":[{"coding":[{"system":"http://snomed.info/sct","code":"8715000"}]}],"subject":{"reference":"Patient/d4f8ae8a-1adf-4438-bc81-f9efcd4a1361"},"period":{"start":"2026-12-04T08:00:00.000+00:00","end":"2026-12-30T08:15:00.000+00:00"},"length":{"value":26,"unit":"days"},"location":[{"location":{"reference":"Location/7ef00e4e-b423-45bd-a9ba-1e0d3ba79227"},"period":{"start":"2026-12-06T09:00:00.000+00:00","end":"2026-12-12T08:15:00.000+00:00"}}]},"request":{"method":"PUT","url":"Encounter/415d1667-3692-4534-af71-a8371764afb7"}},{"resource":{"resourceType":"Coverage","id":"2da41455-e12c-4edc-bb20-931ddcd2d33e","status":"active","beneficiary":{"reference":"Patient/d4f8ae8a-1adf-4438-bc81-f9efcd4a1361"},"period":{"start":"1975-03-03T08:00:00.000+00:00"},"payor":[{"reference":"Organization/f8277942-f880-496d-aad4-817b82ceabac"}]},"request":{"method":"PUT","url":"Coverage/2da41455-e12c-4edc-bb20-931ddcd2d33e"}},{"resource":{"resourceType":"Practitioner","id":"9002ef67-28ff-4f8b-aca9-558ae2704e8c","identifier":[{"system":"http://hl7.org/fhir/sid/us-npi","value":"123456"}],"name":[{"family":"Evil","prefix":["Dr"]}]},"request":{"method":"PUT","url":"Practitioner/9002ef67-28ff-4f8b-aca9-558ae2704e8c"}},{"resource":{"resourceType":"Procedure","id":"b2c29d7c-f512-4c17-87ed-afc8703455f1","meta":{"profile":["http://hl7.org/fhir/us/qicore/StructureDefinition/qicore-procedure"]},"extension":[{"url":"http://hl7.org/fhir/us/qicore/StructureDefinition/qicore-recorded","valueDateTime":"2013-12-07T13:35:00.000+00:00"}],"status":"completed","code":{"coding":[{"system":"http://snomed.info/sct","code":"18946005"}]},"subject":{"reference":"Patient/d4f8ae8a-1adf-4438-bc81-f9efcd4a1361"},"performedPeriod":{"start":"2026-12-06T10:00:00.000+00:00","end":"2026-12-06T10:30:00.000+00:00"}},"request":{"method":"PUT","url":"Procedure/b2c29d7c-f512-4c17-87ed-afc8703455f1"}},{"resource":{"resourceType":"MeasureReport","id":"c27777fb-58e8-4e63-8f78-0612606d2465","meta":{"profile":["http://hl7.org/fhir/us/cqfmeasures/StructureDefinition/test-case-cqfm"]},"contained":[{"resourceType":"Parameters","id":"f7403b71-de31-4a15-8f08-4b1469c51d3a-parameters","parameter":[{"name":"subject","valueString":"d4f8ae8a-1adf-4438-bc81-f9efcd4a1361"}]}],"extension":[{"url":"http://hl7.org/fhir/StructureDefinition/cqf-inputParameters","valueReference":{"reference":"#f7403b71-de31-4a15-8f08-4b1469c51d3a-parameters"}},{"url":"http://hl7.org/fhir/us/cqfmeasures/StructureDefinition/cqfm-testCaseDescription","valueMarkdown":"FAIL - meets IPP, meets Denominator, INR=3.0 starts after Anesthesia ends, Anes ends after start of ICU\n"}],"modifierExtension":[{"url":"http://hl7.org/fhir/us/cqfmeasures/StructureDefinition/cqfm-isTestCase","valueBoolean":true}],"status":"complete","type":"individual","measure":"https://madie.cms.gov/Measure/CMS190VTEProphylaxisICUFHIR","period":{"start":"2026-01-01","end":"2026-12-31"},"group":[{"id":"Group_1","population":[{"id":"InitialPopulation_1","code":{"coding":[{"system":"http://terminology.hl7.org/CodeSystem/measure-population","code":"initial-population","display":"Initial Population"}]},"count":1},{"id":"Denominator_1","code":{"coding":[{"system":"http://terminology.hl7.org/CodeSystem/measure-population","code":"denominator","display":"Denominator"}]},"count":1},{"id":"DenominatorExclusion_1","code":{"coding":[{"system":"http://terminology.hl7.org/CodeSystem/measure-population","code":"denominator-exclusion","display":"Denominator Exclusion"}]},"count":0},{"id":"Numerator_1","code":{"coding":[{"system":"http://terminology.hl7.org/CodeSystem/measure-population","code":"numerator","display":"Numerator"}]},"count":0},{"id":"DenominatorException_1","code":{"coding":[{"system":"http://terminology.hl7.org/CodeSystem/measure-population","code":"denominator-exception","display":"Denominator Exception"}]},"count":0}],"measureScore":{"value":0.0}}],"evaluatedResource":[{"reference":"Patient/d4f8ae8a-1adf-4438-bc81-f9efcd4a1361"},{"reference":"Encounter/415d1667-3692-4534-af71-a8371764afb7"},{"reference":"Coverage/2da41455-e12c-4edc-bb20-931ddcd2d33e"},{"reference":"Observation/0bd02326-9f40-4c86-ada9-2ba944d3278c"},{"reference":"Procedure/b2c29d7c-f512-4c17-87ed-afc8703455f1"},{"reference":"Location/7ef00e4e-b423-45bd-a9ba-1e0d3ba79227"},{"reference":"Organization/f8277942-f880-496d-aad4-817b82ceabac"},{"reference":"Practitioner/9002ef67-28ff-4f8b-aca9-558ae2704e8c"}]},"request":{"method":"PUT","url":"MeasureReport/c27777fb-58e8-4e63-8f78-0612606d2465"}},{"resource":{"resourceType":"Patient","id":"d4f8ae8a-1adf-4438-bc81-f9efcd4a1361","meta":{"profile":["http://hl7.org/fhir/us/qicore/StructureDefinition/qicore-patient"]},"text":{"status":"generated","div":"<div xmlns=\"http://www.w3.org/1999/xhtml\"><div class=\"hapiHeaderText\">INREQ3AfterAnesEndsAfterStartICU <b>NUMERFAIL </b></div><table class=\"hapiPropertyTable\"><tbody><tr><td>Identifier</td><td>be18213b80546817f847863c73f29464</td></tr><tr><td>Date of birth</td><td><span>03 March 1974</span></td></tr></tbody></table></div>"},"extension":[{"url":"http://hl7.org/fhir/us/core/StructureDefinition/us-core-race","extension":[{"url":"ombCategory","valueCoding":{"system":"urn:oid:2.16.840.1.113883.6.238","code":"1002-5","display":"American Indian or Alaska Native","userSelected":true}},{"url":"text","valueString":"American Indian or Alaska Native"}]},{"url":"http://hl7.org/fhir/us/core/StructureDefinition/us-core-ethnicity","extension":[{"url":"ombCategory","valueCoding":{"system":"urn:oid:2.16.840.1.113883.6.238","code":"2135-2","display":"Hispanic or Latino","userSelected":true}},{"url":"text","valueString":"Hispanic or Latino"}]}],"identifier":[{"type":{"coding":[{"system":"http://terminology.hl7.org/CodeSystem/v2-0203","code":"MR"}]},"system":"https://bonnie-fhir.healthit.gov/","value":"612e6ef502c62a011f2f027f"}],"active":true,"name":[{"use":"usual","family":"NUMERFail","given":["INREQ3AfterAnesEndsAfterStartICU"]}],"gender":"female","birthDate":"1975-03-03"},"request":{"method":"PUT","url":"Patient/d4f8ae8a-1adf-4438-bc81-f9efcd4a1361"}},{"resource":{"resourceType":"Location","id":"7ef00e4e-b423-45bd-a9ba-1e0d3ba79227","meta":{"profile":["http://hl7.org/fhir/us/qicore/StructureDefinition/qicore-location"]},"identifier":[{"use":"usual","system":"http://exampleoflocation.com","value":"B1-S.F2"}],"name":"Medical Surgical East, first floor","type":[{"coding":[{"system":"https://www.cdc.gov/nhsn/cdaportal/terminology/codesystem/hsloc.html","code":"1025-6","display":"Trauma Critical Care","userSelected":true}]}]},"request":{"method":"PUT","url":"Location/7ef00e4e-b423-45bd-a9ba-1e0d3ba79227"}},{"resource":{"resourceType":"Bundle","id":"612e6ef502c62a011f2f027f","type":"transaction","entry":[{"fullUrl":"https://madie.cms.gov/Patient/d4f8ae8a-1adf-4438-bc81-f9efcd4a1361","resource":{"resourceType":"Patient","id":"d4f8ae8a-1adf-4438-bc81-f9efcd4a1361","meta":{"profile":["http://hl7.org/fhir/us/qicore/StructureDefinition/qicore-patient"]},"text":{"status":"generated","div":"<div xmlns=\"http://www.w3.org/1999/xhtml\"><div class=\"hapiHeaderText\">INREQ3AfterAnesEndsAfterStartICU <b>NUMERFAIL </b></div><table class=\"hapiPropertyTable\"><tbody><tr><td>Identifier</td><td>be18213b80546817f847863c73f29464</td></tr><tr><td>Date of birth</td><td><span>03 March 1974</span></td></tr></tbody></table></div>"},"extension":[{"url":"http://hl7.org/fhir/us/core/StructureDefinition/us-core-race","extension":[{"url":"ombCategory","valueCoding":{"system":"urn:oid:2.16.840.1.113883.6.238","code":"1002-5","display":"American Indian or Alaska Native","userSelected":true}},{"url":"text","valueString":"American Indian or Alaska Native"}]},{"url":"http://hl7.org/fhir/us/core/StructureDefinition/us-core-ethnicity","extension":[{"url":"ombCategory","valueCoding":{"system":"urn:oid:2.16.840.1.113883.6.238","code":"2135-2","display":"Hispanic or Latino","userSelected":true}},{"url":"text","valueString":"Hispanic or Latino"}]}],"identifier":[{"type":{"coding":[{"system":"http://terminology.hl7.org/CodeSystem/v2-0203","code":"MR"}]},"system":"https://bonnie-fhir.healthit.gov/","value":"612e6ef502c62a011f2f027f"}],"active":true,"name":[{"use":"usual","family":"NUMERFail","given":["INREQ3AfterAnesEndsAfterStartICU"]}],"gender":"female","birthDate":"1975-03-03"},"request":{"method":"PUT","url":"Patient/d4f8ae8a-1adf-4438-bc81-f9efcd4a1361"}},{"fullUrl":"https://madie.cms.gov/Encounter/415d1667-3692-4534-af71-a8371764afb7","resource":{"resourceType":"Encounter","id":"415d1667-3692-4534-af71-a8371764afb7","meta":{"profile":["http://hl7.org/fhir/us/qicore/StructureDefinition/qicore-encounter"]},"status":"finished","class":{"system":"http://terminology.hl7.org/CodeSystem/v3-ActCode","code":"IMP","display":"inpatient encounter"},"type":[{"coding":[{"system":"http://snomed.info/sct","code":"8715000"}]}],"subject":{"reference":"Patient/d4f8ae8a-1adf-4438-bc81-f9efcd4a1361"},"period":{"start":"2026-12-04T08:00:00.000+00:00","end":"2026-12-30T08:15:00.000+00:00"},"length":{"value":26,"unit":"days"},"location":[{"location":{"reference":"Location/7ef00e4e-b423-45bd-a9ba-1e0d3ba79227"},"period":{"start":"2026-12-06T09:00:00.000+00:00","end":"2026-12-12T08:15:00.000+00:00"}}]},"request":{"method":"PUT","url":"Encounter/415d1667-3692-4534-af71-a8371764afb7"}},{"fullUrl":"https://madie.cms.gov/Coverage/2da41455-e12c-4edc-bb20-931ddcd2d33e","resource":{"resourceType":"Coverage","id":"2da41455-e12c-4edc-bb20-931ddcd2d33e","status":"active","beneficiary":{"reference":"Patient/d4f8ae8a-1adf-4438-bc81-f9efcd4a1361"},"period":{"start":"1975-03-03T08:00:00.000+00:00"},"payor":[{"reference":"Organization/f8277942-f880-496d-aad4-817b82ceabac"}]},"request":{"method":"PUT","url":"Coverage/2da41455-e12c-4edc-bb20-931ddcd2d33e"}},{"fullUrl":"https://madie.cms.gov/Observation/0bd02326-9f40-4c86-ada9-2ba944d3278c","resource":{"resourceType":"Observation","id":"0bd02326-9f40-4c86-ada9-2ba944d3278c","meta":{"profile":["http://hl7.org/fhir/us/qicore/StructureDefinition/qicore-observation-lab"]},"status":"final","category":[{"coding":[{"system":"http://terminology.hl7.org/CodeSystem/observation-category","code":"laboratory","display":"Laboratory"}]}],"code":{"coding":[{"system":"http://loinc.org","code":"34714-6"}]},"subject":{"reference":"Patient/d4f8ae8a-1adf-4438-bc81-f9efcd4a1361"},"effectivePeriod":{"start":"2026-12-06T11:30:00.000+00:00"},"valueInteger":3},"request":{"method":"PUT","url":"Observation/0bd02326-9f40-4c86-ada9-2ba944d3278c"}},{"fullUrl":"https://madie.cms.gov/Procedure/b2c29d7c-f512-4c17-87ed-afc8703455f1","resource":{"resourceType":"Procedure","id":"b2c29d7c-f512-4c17-87ed-afc8703455f1","meta":{"profile":["http://hl7.org/fhir/us/qicore/StructureDefinition/qicore-procedure"]},"extension":[{"url":"http://hl7.org/fhir/us/qicore/StructureDefinition/qicore-recorded","valueDateTime":"2013-12-07T13:35:00.000+00:00"}],"status":"completed","code":{"coding":[{"system":"http://snomed.info/sct","code":"18946005"}]},"subject":{"reference":"Patient/d4f8ae8a-1adf-4438-bc81-f9efcd4a1361"},"performedPeriod":{"start":"2026-12-06T10:00:00.000+00:00","end":"2026-12-06T10:30:00.000+00:00"}},"request":{"method":"PUT","url":"Procedure/b2c29d7c-f512-4c17-87ed-afc8703455f1"}},{"fullUrl":"https://madie.cms.gov/Location/7ef00e4e-b423-45bd-a9ba-1e0d3ba79227","resource":{"resourceType":"Location","id":"7ef00e4e-b423-45bd-a9ba-1e0d3ba79227","meta":{"profile":["http://hl7.org/fhir/us/qicore/StructureDefinition/qicore-location"]},"identifier":[{"use":"usual","system":"http://exampleoflocation.com","value":"B1-S.F2"}],"name":"Medical Surgical East, first floor","type":[{"coding":[{"system":"https://www.cdc.gov/nhsn/cdaportal/terminology/codesystem/hsloc.html","code":"1025-6","display":"Trauma Critical Care","userSelected":true}]}]},"request":{"method":"PUT","url":"Location/7ef00e4e-b423-45bd-a9ba-1e0d3ba79227"}},{"fullUrl":"https://madie.cms.gov/Organization/f8277942-f880-496d-aad4-817b82ceabac","resource":{"resourceType":"Organization","id":"f8277942-f880-496d-aad4-817b82ceabac","meta":{"profile":["http://hl7.org/fhir/us/qicore/StructureDefinition/qicore-organization"]},"identifier":[{"use":"temp","system":"urn:oid:2.16.840.1.113883.4.4","value":"21-3259825"}],"active":true,"type":[{"coding":[{"system":"http://terminology.hl7.org/CodeSystem/organization-type","code":"pay","display":"Payer"}]}],"name":"Blue Cross Blue Shield of Texas","telecom":[{"system":"phone","value":"(+1) 972-766-6900"}],"address":[{"use":"billing","type":"postal","line":["P.O. Box 660044"],"city":"Dallas","state":"TX","postalCode":"75266-0044","country":"USA"}]},"request":{"method":"PUT","url":"Organization/f8277942-f880-496d-aad4-817b82ceabac"}},{"fullUrl":"https://madie.cms.gov/Practitioner/9002ef67-28ff-4f8b-aca9-558ae2704e8c","resource":{"resourceType":"Practitioner","id":"9002ef67-28ff-4f8b-aca9-558ae2704e8c","identifier":[{"system":"http://hl7.org/fhir/sid/us-npi","value":"123456"}],"name":[{"family":"Evil","prefix":["Dr"]}]},"request":{"method":"PUT","url":"Practitioner/9002ef67-28ff-4f8b-aca9-558ae2704e8c"}},{"fullUrl":"https://madie.cms.gov/MeasureReport/c27777fb-58e8-4e63-8f78-0612606d2465","resource":{"resourceType":"MeasureReport","id":"c27777fb-58e8-4e63-8f78-0612606d2465","meta":{"profile":["http://hl7.org/fhir/us/cqfmeasures/StructureDefinition/test-case-cqfm"]},"contained":[{"resourceType":"Parameters","id":"f7403b71-de31-4a15-8f08-4b1469c51d3a-parameters","parameter":[{"name":"subject","valueString":"d4f8ae8a-1adf-4438-bc81-f9efcd4a1361"}]}],"extension":[{"url":"http://hl7.org/fhir/StructureDefinition/cqf-inputParameters","valueReference":{"reference":"#f7403b71-de31-4a15-8f08-4b1469c51d3a-parameters"}},{"url":"http://hl7.org/fhir/us/cqfmeasures/StructureDefinition/cqfm-testCaseDescription","valueMarkdown":"FAIL - meets IPP, meets Denominator, INR=3.0 starts after Anesthesia ends, Anes ends after start of ICU\n"}],"modifierExtension":[{"url":"http://hl7.org/fhir/us/cqfmeasures/StructureDefinition/cqfm-isTestCase","valueBoolean":true}],"status":"complete","type":"individual","measure":"https://madie.cms.gov/Measure/CMS190VTEProphylaxisICUFHIR","period":{"start":"2026-01-01","end":"2026-12-31"},"group":[{"id":"Group_1","population":[{"id":"InitialPopulation_1","code":{"coding":[{"system":"http://terminology.hl7.org/CodeSystem/measure-population","code":"initial-population","display":"Initial Population"}]},"count":1},{"id":"Denominator_1","code":{"coding":[{"system":"http://terminology.hl7.org/CodeSystem/measure-population","code":"denominator","display":"Denominator"}]},"count":1},{"id":"DenominatorExclusion_1","code":{"coding":[{"system":"http://terminology.hl7.org/CodeSystem/measure-population","code":"denominator-exclusion","display":"Denominator Exclusion"}]},"count":0},{"id":"Numerator_1","code":{"coding":[{"system":"http://terminology.hl7.org/CodeSystem/measure-population","code":"numerator","display":"Numerator"}]},"count":0},{"id":"DenominatorException_1","code":{"coding":[{"system":"http://terminology.hl7.org/CodeSystem/measure-population","code":"denominator-exception","display":"Denominator Exception"}]},"count":0}],"measureScore":{"value":0.0}}],"evaluatedResource":[{"reference":"Patient/d4f8ae8a-1adf-4438-bc81-f9efcd4a1361"},{"reference":"Encounter/415d1667-3692-4534-af71-a8371764afb7"},{"reference":"Coverage/2da41455-e12c-4edc-bb20-931ddcd2d33e"},{"reference":"Observation/0bd02326-9f40-4c86-ada9-2ba944d3278c"},{"reference":"Procedure/b2c29d7c-f512-4c17-87ed-afc8703455f1"},{"reference":"Location/7ef00e4e-b423-45bd-a9ba-1e0d3ba79227"},{"reference":"Organization/f8277942-f880-496d-aad4-817b82ceabac"},{"reference":"Practitioner/9002ef67-28ff-4f8b-aca9-558ae2704e8c"}]},"request":{"method":"PUT","url":"MeasureReport/c27777fb-58e8-4e63-8f78-0612606d2465"}}]},"request":{"method":"PUT","url":"Bundle/612e6ef502c62a011f2f027f"}}]}