{"resourceType":"Bundle","id":"tests-4ad66db5-d557-4199-9b82-dfd9cc013c9f-bundle","type":"transaction","entry":[{"fullUrl":"Bundle/612e6a7002c62a011f2ea15f","resource":{"resourceType":"Bundle","id":"612e6a7002c62a011f2ea15f","type":"transaction","entry":[{"fullUrl":"https://madie.cms.gov/Patient/4ad66db5-d557-4199-9b82-dfd9cc013c9f","resource":{"resourceType":"Patient","id":"4ad66db5-d557-4199-9b82-dfd9cc013c9f","meta":{"profile":["http://hl7.org/fhir/us/qicore/StructureDefinition/qicore-patient"]},"text":{"status":"generated","div":"<div xmlns=\"http://www.w3.org/1999/xhtml\"><div class=\"hapiHeaderText\">PtRefDOGCSMedReasonMALDUHOnEDEnd <b>NUMERPASS </b></div><table class=\"hapiPropertyTable\"><tbody><tr><td>Identifier</td><td>24fc1ce85ce14557dd4d9eba17df9f17</td></tr><tr><td>Date of birth</td><td><span>02 January 1974</span></td></tr></tbody></table></div>"},"extension":[{"url":"http://hl7.org/fhir/us/core/StructureDefinition/us-core-race","extension":[{"url":"ombCategory","valueCoding":{"system":"urn:oid:2.16.840.1.113883.6.238","code":"1002-5","display":"American Indian or Alaska Native","userSelected":true}},{"url":"text","valueString":"American Indian or Alaska Native"}]},{"url":"http://hl7.org/fhir/us/core/StructureDefinition/us-core-ethnicity","extension":[{"url":"ombCategory","valueCoding":{"system":"urn:oid:2.16.840.1.113883.6.238","code":"2135-2","display":"Hispanic or Latino","userSelected":true}},{"url":"text","valueString":"Hispanic or Latino"}]}],"identifier":[{"type":{"coding":[{"system":"http://terminology.hl7.org/CodeSystem/v2-0203","code":"MR"}]},"system":"https://bonnie-fhir.healthit.gov/","value":"612e6a7002c62a011f2ea15f"}],"active":true,"name":[{"use":"usual","family":"NUMERPass","given":["PtRefDOGCSMedReasonMALDUHOnEDEnd"]}],"gender":"male","birthDate":"1975-01-02"},"request":{"method":"PUT","url":"Patient/4ad66db5-d557-4199-9b82-dfd9cc013c9f"}},{"fullUrl":"https://madie.cms.gov/Encounter/38fc15f7-636f-46f4-a478-28bb70b3a461","resource":{"resourceType":"Encounter","id":"38fc15f7-636f-46f4-a478-28bb70b3a461","meta":{"profile":["http://hl7.org/fhir/us/qicore/StructureDefinition/qicore-encounter"]},"status":"finished","class":{"system":"http://terminology.hl7.org/CodeSystem/v3-ActCode","code":"EMER","display":"emergency"},"type":[{"coding":[{"system":"http://snomed.info/sct","code":"4525004"}]}],"subject":{"reference":"Patient/4ad66db5-d557-4199-9b82-dfd9cc013c9f"},"period":{"start":"2026-10-31T05:00:00.000+00:00","end":"2026-11-01T07:15:00.000+00:00"},"length":{"value":1,"unit":"days"}},"request":{"method":"PUT","url":"Encounter/38fc15f7-636f-46f4-a478-28bb70b3a461"}},{"fullUrl":"https://madie.cms.gov/Encounter/8e2d4044-4503-4cf6-a49e-bf481581f8ea","resource":{"resourceType":"Encounter","id":"8e2d4044-4503-4cf6-a49e-bf481581f8ea","meta":{"profile":["http://hl7.org/fhir/us/qicore/StructureDefinition/qicore-encounter"]},"status":"finished","class":{"system":"http://terminology.hl7.org/CodeSystem/v3-ActCode","code":"IMP","display":"inpatient encounter"},"type":[{"coding":[{"system":"http://snomed.info/sct","code":"8715000"}]}],"subject":{"reference":"Patient/4ad66db5-d557-4199-9b82-dfd9cc013c9f"},"period":{"start":"2026-11-01T08:00:00.000+00:00","end":"2026-11-26T08:15:00.000+00:00"},"length":{"value":25,"unit":"days"},"location":[{"location":{"reference":"Location/8eccda6d-4b0c-4645-90e1-2b6b93274120"},"period":{"start":"2026-11-03T09:00:00.000+00:00","end":"2026-11-05T08:15:00.000+00:00"}}]},"request":{"method":"PUT","url":"Encounter/8e2d4044-4503-4cf6-a49e-bf481581f8ea"}},{"fullUrl":"https://madie.cms.gov/Coverage/4d95e7b2-db0e-42ce-9c6a-aacc9e34ed4a","resource":{"resourceType":"Coverage","id":"4d95e7b2-db0e-42ce-9c6a-aacc9e34ed4a","status":"active","beneficiary":{"reference":"Patient/4ad66db5-d557-4199-9b82-dfd9cc013c9f"},"period":{"start":"1975-01-02T08:00:00.000+00:00"},"payor":[{"reference":"Organization/0a486cc2-e562-4a0c-8b24-043e39685d48"}]},"request":{"method":"PUT","url":"Coverage/4d95e7b2-db0e-42ce-9c6a-aacc9e34ed4a"}},{"fullUrl":"https://madie.cms.gov/ServiceRequest/edaa582b-268d-46cd-9cc8-08e25d83c84f","resource":{"resourceType":"ServiceRequest","id":"edaa582b-268d-46cd-9cc8-08e25d83c84f","meta":{"profile":["http://hl7.org/fhir/us/qicore/StructureDefinition/qicore-servicenotrequested"]},"extension":[{"url":"http://hl7.org/fhir/us/qicore/StructureDefinition/qicore-doNotPerformReason","valueCodeableConcept":{"coding":[{"system":"http://snomed.info/sct","code":"443390004","display":"Refusal of treatment by patient (situation)"}]}}],"status":"completed","intent":"order","doNotPerform":true,"code":{"coding":[{"system":"http://snomed.info/sct","version":"2025-03","code":"348681001","display":"Graduated compression elastic hosiery (physical object)","userSelected":true}]},"subject":{"reference":"Patient/4ad66db5-d557-4199-9b82-dfd9cc013c9f"},"authoredOn":"2026-11-01T07:15:00.000+00:00"},"request":{"method":"PUT","url":"ServiceRequest/edaa582b-268d-46cd-9cc8-08e25d83c84f"}},{"fullUrl":"https://madie.cms.gov/MedicationAdministration/9f130be1-b839-4412-b9f1-76e0a9610ba6","resource":{"resourceType":"MedicationAdministration","id":"9f130be1-b839-4412-b9f1-76e0a9610ba6","meta":{"profile":["http://hl7.org/fhir/us/qicore/StructureDefinition/qicore-mednotadministered"]},"extension":[{"url":"http://hl7.org/fhir/us/qicore/StructureDefinition/qicore-recorded","valueDateTime":"2026-11-02T11:00:00.000+00:00"}],"status":"not-done","statusReason":[{"coding":[{"system":"http://snomed.info/sct","code":"183932001"}]}],"medicationCodeableConcept":{"coding":[{"system":"http://www.nlm.nih.gov/research/umls/rxnorm","code":"1361574"}]},"subject":{"reference":"Patient/4ad66db5-d557-4199-9b82-dfd9cc013c9f"},"effectivePeriod":{"start":"2026-11-02T11:00:00.000+00:00"}},"request":{"method":"PUT","url":"MedicationAdministration/9f130be1-b839-4412-b9f1-76e0a9610ba6"}},{"fullUrl":"https://madie.cms.gov/Location/8eccda6d-4b0c-4645-90e1-2b6b93274120","resource":{"resourceType":"Location","id":"8eccda6d-4b0c-4645-90e1-2b6b93274120","meta":{"profile":["http://hl7.org/fhir/us/qicore/StructureDefinition/qicore-location"]},"identifier":[{"use":"usual","system":"http://exampleoflocation.com","value":"B1-S.F2"}],"name":"Medical Surgical East, first floor","type":[{"coding":[{"system":"https://www.cdc.gov/nhsn/cdaportal/terminology/codesystem/hsloc.html","code":"1025-6","display":"Trauma Critical Care","userSelected":true}]}]},"request":{"method":"PUT","url":"Location/8eccda6d-4b0c-4645-90e1-2b6b93274120"}},{"fullUrl":"https://madie.cms.gov/Organization/0a486cc2-e562-4a0c-8b24-043e39685d48","resource":{"resourceType":"Organization","id":"0a486cc2-e562-4a0c-8b24-043e39685d48","meta":{"profile":["http://hl7.org/fhir/us/qicore/StructureDefinition/qicore-organization"]},"identifier":[{"use":"temp","system":"urn:oid:2.16.840.1.113883.4.4","value":"21-3259825"}],"active":true,"type":[{"coding":[{"system":"http://terminology.hl7.org/CodeSystem/organization-type","code":"pay","display":"Payer"}]}],"name":"Blue Cross Blue Shield of Texas","telecom":[{"system":"phone","value":"(+1) 972-766-6900"}],"address":[{"use":"billing","type":"postal","line":["P.O. Box 660044"],"city":"Dallas","state":"TX","postalCode":"75266-0044","country":"USA"}]},"request":{"method":"PUT","url":"Organization/0a486cc2-e562-4a0c-8b24-043e39685d48"}},{"fullUrl":"https://madie.cms.gov/Practitioner/93c975b8-f430-434f-8d07-cbc2cf9c566d","resource":{"resourceType":"Practitioner","id":"93c975b8-f430-434f-8d07-cbc2cf9c566d","identifier":[{"system":"http://hl7.org/fhir/sid/us-npi","value":"123456"}],"name":[{"family":"Evil","prefix":["Dr"]}]},"request":{"method":"PUT","url":"Practitioner/93c975b8-f430-434f-8d07-cbc2cf9c566d"}},{"fullUrl":"https://madie.cms.gov/MeasureReport/55cb0d2d-7c86-4dd6-b201-c42ab3f818a6","resource":{"resourceType":"MeasureReport","id":"55cb0d2d-7c86-4dd6-b201-c42ab3f818a6","meta":{"profile":["http://hl7.org/fhir/us/cqfmeasures/StructureDefinition/test-case-cqfm"]},"contained":[{"resourceType":"Parameters","id":"b4480ab4-2e8a-4b7a-9b64-dd146785e613-parameters","parameter":[{"name":"subject","valueString":"4ad66db5-d557-4199-9b82-dfd9cc013c9f"}]}],"extension":[{"url":"http://hl7.org/fhir/StructureDefinition/cqf-inputParameters","valueReference":{"reference":"#b4480ab4-2e8a-4b7a-9b64-dd146785e613-parameters"}},{"url":"http://hl7.org/fhir/us/cqfmeasures/StructureDefinition/cqfm-testCaseDescription","valueMarkdown":"meets IPP, meets Denominator, GCS ordered not done PatRfsl and Unfractionated Heparin not done MedRsn - on ED EndTime\n"}],"modifierExtension":[{"url":"http://hl7.org/fhir/us/cqfmeasures/StructureDefinition/cqfm-isTestCase","valueBoolean":true}],"status":"complete","type":"individual","measure":"https://madie.cms.gov/Measure/CMS190VTEProphylaxisICUFHIR","period":{"start":"2026-01-01","end":"2026-12-31"},"group":[{"id":"Group_1","population":[{"id":"InitialPopulation_1","code":{"coding":[{"system":"http://terminology.hl7.org/CodeSystem/measure-population","code":"initial-population","display":"Initial Population"}]},"count":1},{"id":"Denominator_1","code":{"coding":[{"system":"http://terminology.hl7.org/CodeSystem/measure-population","code":"denominator","display":"Denominator"}]},"count":1},{"id":"DenominatorExclusion_1","code":{"coding":[{"system":"http://terminology.hl7.org/CodeSystem/measure-population","code":"denominator-exclusion","display":"Denominator Exclusion"}]},"count":0},{"id":"Numerator_1","code":{"coding":[{"system":"http://terminology.hl7.org/CodeSystem/measure-population","code":"numerator","display":"Numerator"}]},"count":1},{"id":"DenominatorException_1","code":{"coding":[{"system":"http://terminology.hl7.org/CodeSystem/measure-population","code":"denominator-exception","display":"Denominator Exception"}]},"count":0}],"measureScore":{"value":0.0}}],"evaluatedResource":[{"reference":"Patient/4ad66db5-d557-4199-9b82-dfd9cc013c9f"},{"reference":"Encounter/38fc15f7-636f-46f4-a478-28bb70b3a461"},{"reference":"Encounter/8e2d4044-4503-4cf6-a49e-bf481581f8ea"},{"reference":"Coverage/4d95e7b2-db0e-42ce-9c6a-aacc9e34ed4a"},{"reference":"ServiceRequest/edaa582b-268d-46cd-9cc8-08e25d83c84f"},{"reference":"MedicationAdministration/9f130be1-b839-4412-b9f1-76e0a9610ba6"},{"reference":"Location/8eccda6d-4b0c-4645-90e1-2b6b93274120"},{"reference":"Organization/0a486cc2-e562-4a0c-8b24-043e39685d48"},{"reference":"Practitioner/93c975b8-f430-434f-8d07-cbc2cf9c566d"}]},"request":{"method":"PUT","url":"MeasureReport/55cb0d2d-7c86-4dd6-b201-c42ab3f818a6"}}]},"request":{"method":"PUT","url":"Bundle/612e6a7002c62a011f2ea15f"}},{"fullUrl":"Patient/4ad66db5-d557-4199-9b82-dfd9cc013c9f","resource":{"resourceType":"Patient","id":"4ad66db5-d557-4199-9b82-dfd9cc013c9f","meta":{"profile":["http://hl7.org/fhir/us/qicore/StructureDefinition/qicore-patient"]},"text":{"status":"generated","div":"<div xmlns=\"http://www.w3.org/1999/xhtml\"><div class=\"hapiHeaderText\">PtRefDOGCSMedReasonMALDUHOnEDEnd <b>NUMERPASS </b></div><table class=\"hapiPropertyTable\"><tbody><tr><td>Identifier</td><td>24fc1ce85ce14557dd4d9eba17df9f17</td></tr><tr><td>Date of birth</td><td><span>02 January 1974</span></td></tr></tbody></table></div>"},"extension":[{"url":"http://hl7.org/fhir/us/core/StructureDefinition/us-core-race","extension":[{"url":"ombCategory","valueCoding":{"system":"urn:oid:2.16.840.1.113883.6.238","code":"1002-5","display":"American Indian or Alaska Native","userSelected":true}},{"url":"text","valueString":"American Indian or Alaska Native"}]},{"url":"http://hl7.org/fhir/us/core/StructureDefinition/us-core-ethnicity","extension":[{"url":"ombCategory","valueCoding":{"system":"urn:oid:2.16.840.1.113883.6.238","code":"2135-2","display":"Hispanic or Latino","userSelected":true}},{"url":"text","valueString":"Hispanic or Latino"}]}],"identifier":[{"type":{"coding":[{"system":"http://terminology.hl7.org/CodeSystem/v2-0203","code":"MR"}]},"system":"https://bonnie-fhir.healthit.gov/","value":"612e6a7002c62a011f2ea15f"}],"active":true,"name":[{"use":"usual","family":"NUMERPass","given":["PtRefDOGCSMedReasonMALDUHOnEDEnd"]}],"gender":"male","birthDate":"1975-01-02"},"request":{"method":"PUT","url":"Patient/4ad66db5-d557-4199-9b82-dfd9cc013c9f"}},{"fullUrl":"Practitioner/93c975b8-f430-434f-8d07-cbc2cf9c566d","resource":{"resourceType":"Practitioner","id":"93c975b8-f430-434f-8d07-cbc2cf9c566d","identifier":[{"system":"http://hl7.org/fhir/sid/us-npi","value":"123456"}],"name":[{"family":"Evil","prefix":["Dr"]}]},"request":{"method":"PUT","url":"Practitioner/93c975b8-f430-434f-8d07-cbc2cf9c566d"}},{"fullUrl":"ServiceRequest/edaa582b-268d-46cd-9cc8-08e25d83c84f","resource":{"resourceType":"ServiceRequest","id":"edaa582b-268d-46cd-9cc8-08e25d83c84f","meta":{"profile":["http://hl7.org/fhir/us/qicore/StructureDefinition/qicore-servicenotrequested"]},"extension":[{"url":"http://hl7.org/fhir/us/qicore/StructureDefinition/qicore-doNotPerformReason","valueCodeableConcept":{"coding":[{"system":"http://snomed.info/sct","code":"443390004","display":"Refusal of treatment by patient (situation)"}]}}],"status":"completed","intent":"order","doNotPerform":true,"code":{"coding":[{"system":"http://snomed.info/sct","version":"2025-03","code":"348681001","display":"Graduated compression elastic hosiery (physical object)","userSelected":true}]},"subject":{"reference":"Patient/4ad66db5-d557-4199-9b82-dfd9cc013c9f"},"authoredOn":"2026-11-01T07:15:00.000+00:00"},"request":{"method":"PUT","url":"ServiceRequest/edaa582b-268d-46cd-9cc8-08e25d83c84f"}},{"fullUrl":"Encounter/38fc15f7-636f-46f4-a478-28bb70b3a461","resource":{"resourceType":"Encounter","id":"38fc15f7-636f-46f4-a478-28bb70b3a461","meta":{"profile":["http://hl7.org/fhir/us/qicore/StructureDefinition/qicore-encounter"]},"status":"finished","class":{"system":"http://terminology.hl7.org/CodeSystem/v3-ActCode","code":"EMER","display":"emergency"},"type":[{"coding":[{"system":"http://snomed.info/sct","code":"4525004"}]}],"subject":{"reference":"Patient/4ad66db5-d557-4199-9b82-dfd9cc013c9f"},"period":{"start":"2026-10-31T05:00:00.000+00:00","end":"2026-11-01T07:15:00.000+00:00"},"length":{"value":1,"unit":"days"}},"request":{"method":"PUT","url":"Encounter/38fc15f7-636f-46f4-a478-28bb70b3a461"}},{"fullUrl":"Encounter/8e2d4044-4503-4cf6-a49e-bf481581f8ea","resource":{"resourceType":"Encounter","id":"8e2d4044-4503-4cf6-a49e-bf481581f8ea","meta":{"profile":["http://hl7.org/fhir/us/qicore/StructureDefinition/qicore-encounter"]},"status":"finished","class":{"system":"http://terminology.hl7.org/CodeSystem/v3-ActCode","code":"IMP","display":"inpatient encounter"},"type":[{"coding":[{"system":"http://snomed.info/sct","code":"8715000"}]}],"subject":{"reference":"Patient/4ad66db5-d557-4199-9b82-dfd9cc013c9f"},"period":{"start":"2026-11-01T08:00:00.000+00:00","end":"2026-11-26T08:15:00.000+00:00"},"length":{"value":25,"unit":"days"},"location":[{"location":{"reference":"Location/8eccda6d-4b0c-4645-90e1-2b6b93274120"},"period":{"start":"2026-11-03T09:00:00.000+00:00","end":"2026-11-05T08:15:00.000+00:00"}}]},"request":{"method":"PUT","url":"Encounter/8e2d4044-4503-4cf6-a49e-bf481581f8ea"}},{"fullUrl":"Location/8eccda6d-4b0c-4645-90e1-2b6b93274120","resource":{"resourceType":"Location","id":"8eccda6d-4b0c-4645-90e1-2b6b93274120","meta":{"profile":["http://hl7.org/fhir/us/qicore/StructureDefinition/qicore-location"]},"identifier":[{"use":"usual","system":"http://exampleoflocation.com","value":"B1-S.F2"}],"name":"Medical Surgical East, first floor","type":[{"coding":[{"system":"https://www.cdc.gov/nhsn/cdaportal/terminology/codesystem/hsloc.html","code":"1025-6","display":"Trauma Critical Care","userSelected":true}]}]},"request":{"method":"PUT","url":"Location/8eccda6d-4b0c-4645-90e1-2b6b93274120"}},{"fullUrl":"Coverage/4d95e7b2-db0e-42ce-9c6a-aacc9e34ed4a","resource":{"resourceType":"Coverage","id":"4d95e7b2-db0e-42ce-9c6a-aacc9e34ed4a","status":"active","beneficiary":{"reference":"Patient/4ad66db5-d557-4199-9b82-dfd9cc013c9f"},"period":{"start":"1975-01-02T08:00:00.000+00:00"},"payor":[{"reference":"Organization/0a486cc2-e562-4a0c-8b24-043e39685d48"}]},"request":{"method":"PUT","url":"Coverage/4d95e7b2-db0e-42ce-9c6a-aacc9e34ed4a"}},{"fullUrl":"MeasureReport/55cb0d2d-7c86-4dd6-b201-c42ab3f818a6","resource":{"resourceType":"MeasureReport","id":"55cb0d2d-7c86-4dd6-b201-c42ab3f818a6","meta":{"profile":["http://hl7.org/fhir/us/cqfmeasures/StructureDefinition/test-case-cqfm"]},"contained":[{"resourceType":"Parameters","id":"b4480ab4-2e8a-4b7a-9b64-dd146785e613-parameters","parameter":[{"name":"subject","valueString":"4ad66db5-d557-4199-9b82-dfd9cc013c9f"}]}],"extension":[{"url":"http://hl7.org/fhir/StructureDefinition/cqf-inputParameters","valueReference":{"reference":"#b4480ab4-2e8a-4b7a-9b64-dd146785e613-parameters"}},{"url":"http://hl7.org/fhir/us/cqfmeasures/StructureDefinition/cqfm-testCaseDescription","valueMarkdown":"meets IPP, meets Denominator, GCS ordered not done PatRfsl and Unfractionated Heparin not done MedRsn - on ED EndTime\n"}],"modifierExtension":[{"url":"http://hl7.org/fhir/us/cqfmeasures/StructureDefinition/cqfm-isTestCase","valueBoolean":true}],"status":"complete","type":"individual","measure":"https://madie.cms.gov/Measure/CMS190VTEProphylaxisICUFHIR","period":{"start":"2026-01-01","end":"2026-12-31"},"group":[{"id":"Group_1","population":[{"id":"InitialPopulation_1","code":{"coding":[{"system":"http://terminology.hl7.org/CodeSystem/measure-population","code":"initial-population","display":"Initial Population"}]},"count":1},{"id":"Denominator_1","code":{"coding":[{"system":"http://terminology.hl7.org/CodeSystem/measure-population","code":"denominator","display":"Denominator"}]},"count":1},{"id":"DenominatorExclusion_1","code":{"coding":[{"system":"http://terminology.hl7.org/CodeSystem/measure-population","code":"denominator-exclusion","display":"Denominator Exclusion"}]},"count":0},{"id":"Numerator_1","code":{"coding":[{"system":"http://terminology.hl7.org/CodeSystem/measure-population","code":"numerator","display":"Numerator"}]},"count":1},{"id":"DenominatorException_1","code":{"coding":[{"system":"http://terminology.hl7.org/CodeSystem/measure-population","code":"denominator-exception","display":"Denominator Exception"}]},"count":0}],"measureScore":{"value":0.0}}],"evaluatedResource":[{"reference":"Patient/4ad66db5-d557-4199-9b82-dfd9cc013c9f"},{"reference":"Encounter/38fc15f7-636f-46f4-a478-28bb70b3a461"},{"reference":"Encounter/8e2d4044-4503-4cf6-a49e-bf481581f8ea"},{"reference":"Coverage/4d95e7b2-db0e-42ce-9c6a-aacc9e34ed4a"},{"reference":"ServiceRequest/edaa582b-268d-46cd-9cc8-08e25d83c84f"},{"reference":"MedicationAdministration/9f130be1-b839-4412-b9f1-76e0a9610ba6"},{"reference":"Location/8eccda6d-4b0c-4645-90e1-2b6b93274120"},{"reference":"Organization/0a486cc2-e562-4a0c-8b24-043e39685d48"},{"reference":"Practitioner/93c975b8-f430-434f-8d07-cbc2cf9c566d"}]},"request":{"method":"PUT","url":"MeasureReport/55cb0d2d-7c86-4dd6-b201-c42ab3f818a6"}},{"fullUrl":"Organization/0a486cc2-e562-4a0c-8b24-043e39685d48","resource":{"resourceType":"Organization","id":"0a486cc2-e562-4a0c-8b24-043e39685d48","meta":{"profile":["http://hl7.org/fhir/us/qicore/StructureDefinition/qicore-organization"]},"identifier":[{"use":"temp","system":"urn:oid:2.16.840.1.113883.4.4","value":"21-3259825"}],"active":true,"type":[{"coding":[{"system":"http://terminology.hl7.org/CodeSystem/organization-type","code":"pay","display":"Payer"}]}],"name":"Blue Cross Blue Shield of Texas","telecom":[{"system":"phone","value":"(+1) 972-766-6900"}],"address":[{"use":"billing","type":"postal","line":["P.O. Box 660044"],"city":"Dallas","state":"TX","postalCode":"75266-0044","country":"USA"}]},"request":{"method":"PUT","url":"Organization/0a486cc2-e562-4a0c-8b24-043e39685d48"}},{"fullUrl":"MedicationAdministration/9f130be1-b839-4412-b9f1-76e0a9610ba6","resource":{"resourceType":"MedicationAdministration","id":"9f130be1-b839-4412-b9f1-76e0a9610ba6","meta":{"profile":["http://hl7.org/fhir/us/qicore/StructureDefinition/qicore-mednotadministered"]},"extension":[{"url":"http://hl7.org/fhir/us/qicore/StructureDefinition/qicore-recorded","valueDateTime":"2026-11-02T11:00:00.000+00:00"}],"status":"not-done","statusReason":[{"coding":[{"system":"http://snomed.info/sct","code":"183932001"}]}],"medicationCodeableConcept":{"coding":[{"system":"http://www.nlm.nih.gov/research/umls/rxnorm","code":"1361574"}]},"subject":{"reference":"Patient/4ad66db5-d557-4199-9b82-dfd9cc013c9f"},"effectivePeriod":{"start":"2026-11-02T11:00:00.000+00:00"}},"request":{"method":"PUT","url":"MedicationAdministration/9f130be1-b839-4412-b9f1-76e0a9610ba6"}}]}