{"resourceType":"Bundle","id":"tests-4d76c150-b6a5-4a1a-8801-81c24ce398b7-bundle","type":"transaction","entry":[{"fullUrl":"Bundle/612e6f5002c62a011f2f15ec","resource":{"resourceType":"Bundle","id":"612e6f5002c62a011f2f15ec","type":"transaction","entry":[{"fullUrl":"https://madie.cms.gov/Patient/4d76c150-b6a5-4a1a-8801-81c24ce398b7","resource":{"resourceType":"Patient","id":"4d76c150-b6a5-4a1a-8801-81c24ce398b7","meta":{"profile":["http://hl7.org/fhir/us/qicore/StructureDefinition/qicore-patient"]},"text":{"status":"generated","div":"<div xmlns=\"http://www.w3.org/1999/xhtml\"><div class=\"hapiHeaderText\">GlycoOnAnesEndDayAfterICU <b>NUMERPASS </b></div><table class=\"hapiPropertyTable\"><tbody><tr><td>Identifier</td><td>749173f2040124b092bc1729ffb06eac</td></tr><tr><td>Date of birth</td><td><span>03 March 1974</span></td></tr></tbody></table></div>"},"extension":[{"url":"http://hl7.org/fhir/us/core/StructureDefinition/us-core-race","extension":[{"url":"ombCategory","valueCoding":{"system":"urn:oid:2.16.840.1.113883.6.238","code":"1002-5","display":"American Indian or Alaska Native","userSelected":true}},{"url":"text","valueString":"American Indian or Alaska Native"}]},{"url":"http://hl7.org/fhir/us/core/StructureDefinition/us-core-ethnicity","extension":[{"url":"ombCategory","valueCoding":{"system":"urn:oid:2.16.840.1.113883.6.238","code":"2135-2","display":"Hispanic or Latino","userSelected":true}},{"url":"text","valueString":"Hispanic or Latino"}]}],"identifier":[{"type":{"coding":[{"system":"http://terminology.hl7.org/CodeSystem/v2-0203","code":"MR"}]},"system":"https://bonnie-fhir.healthit.gov/","value":"612e6f5002c62a011f2f15ec"}],"active":true,"name":[{"use":"usual","family":"NUMERPass","given":["GlycoOnAnesEndDayAfterICU"]}],"gender":"female","birthDate":"1975-03-03"},"request":{"method":"PUT","url":"Patient/4d76c150-b6a5-4a1a-8801-81c24ce398b7"}},{"fullUrl":"https://madie.cms.gov/Encounter/a5fab3b5-af24-48d7-87a9-25abd6a4564e","resource":{"resourceType":"Encounter","id":"a5fab3b5-af24-48d7-87a9-25abd6a4564e","meta":{"profile":["http://hl7.org/fhir/us/qicore/StructureDefinition/qicore-encounter"]},"status":"finished","class":{"system":"http://terminology.hl7.org/CodeSystem/v3-ActCode","code":"IMP","display":"inpatient encounter"},"type":[{"coding":[{"system":"http://snomed.info/sct","code":"8715000"}]}],"subject":{"reference":"Patient/4d76c150-b6a5-4a1a-8801-81c24ce398b7"},"period":{"start":"2026-12-04T08:00:00.000+00:00","end":"2026-12-30T08:15:00.000+00:00"},"length":{"value":26.0,"unit":"days"},"location":[{"location":{"reference":"Location/fb7af870-deff-4182-a7a9-a1e821e497de"},"period":{"start":"2026-12-06T08:00:00.000+00:00","end":"2026-12-12T08:15:00.000+00:00"}}]},"request":{"method":"PUT","url":"Encounter/a5fab3b5-af24-48d7-87a9-25abd6a4564e"}},{"fullUrl":"https://madie.cms.gov/Coverage/cd9f40ae-dc04-4bf4-ad8f-d104375241df","resource":{"resourceType":"Coverage","id":"cd9f40ae-dc04-4bf4-ad8f-d104375241df","status":"active","beneficiary":{"reference":"Patient/4d76c150-b6a5-4a1a-8801-81c24ce398b7"},"period":{"start":"1975-03-03T08:00:00.000+00:00"},"payor":[{"reference":"Organization/d53c08dc-5e88-4b34-8346-39ecd24faff9"}]},"request":{"method":"PUT","url":"Coverage/cd9f40ae-dc04-4bf4-ad8f-d104375241df"}},{"fullUrl":"https://madie.cms.gov/MedicationAdministration/7e4933e7-dc59-485d-ad82-4d171d08b35c","resource":{"resourceType":"MedicationAdministration","id":"7e4933e7-dc59-485d-ad82-4d171d08b35c","meta":{"profile":["http://hl7.org/fhir/us/qicore/StructureDefinition/qicore-medicationadministration"]},"status":"completed","medicationCodeableConcept":{"coding":[{"system":"http://www.nlm.nih.gov/research/umls/rxnorm","code":"200349"}]},"subject":{"reference":"Patient/4d76c150-b6a5-4a1a-8801-81c24ce398b7"},"effectivePeriod":{"start":"2026-12-07T11:15:00.000+00:00"}},"request":{"method":"PUT","url":"MedicationAdministration/7e4933e7-dc59-485d-ad82-4d171d08b35c"}},{"fullUrl":"https://madie.cms.gov/Procedure/2d02cce8-0aa4-4ab3-82a7-1daec5c0c7dd","resource":{"resourceType":"Procedure","id":"2d02cce8-0aa4-4ab3-82a7-1daec5c0c7dd","meta":{"profile":["http://hl7.org/fhir/us/qicore/StructureDefinition/qicore-procedure"]},"extension":[{"url":"http://hl7.org/fhir/us/qicore/StructureDefinition/qicore-recorded","valueDateTime":"2013-12-07T13:35:00.000+00:00"}],"status":"completed","code":{"coding":[{"system":"http://snomed.info/sct","code":"18946005"}]},"subject":{"reference":"Patient/4d76c150-b6a5-4a1a-8801-81c24ce398b7"},"performedPeriod":{"start":"2026-12-07T10:00:00.000+00:00","end":"2026-12-07T11:15:00.000+00:00"}},"request":{"method":"PUT","url":"Procedure/2d02cce8-0aa4-4ab3-82a7-1daec5c0c7dd"}},{"fullUrl":"https://madie.cms.gov/Location/fb7af870-deff-4182-a7a9-a1e821e497de","resource":{"resourceType":"Location","id":"fb7af870-deff-4182-a7a9-a1e821e497de","meta":{"profile":["http://hl7.org/fhir/us/qicore/StructureDefinition/qicore-location"]},"identifier":[{"use":"usual","system":"http://exampleoflocation.com","value":"B1-S.F2"}],"name":"Medical Surgical East, first floor","type":[{"coding":[{"system":"https://www.cdc.gov/nhsn/cdaportal/terminology/codesystem/hsloc.html","code":"1025-6","display":"Trauma Critical Care","userSelected":true}]}]},"request":{"method":"PUT","url":"Location/fb7af870-deff-4182-a7a9-a1e821e497de"}},{"fullUrl":"https://madie.cms.gov/Organization/d53c08dc-5e88-4b34-8346-39ecd24faff9","resource":{"resourceType":"Organization","id":"d53c08dc-5e88-4b34-8346-39ecd24faff9","meta":{"profile":["http://hl7.org/fhir/us/qicore/StructureDefinition/qicore-organization"]},"identifier":[{"use":"temp","system":"urn:oid:2.16.840.1.113883.4.4","value":"21-3259825"}],"active":true,"type":[{"coding":[{"system":"http://terminology.hl7.org/CodeSystem/organization-type","code":"pay","display":"Payer"}]}],"name":"Blue Cross Blue Shield of Texas","telecom":[{"system":"phone","value":"(+1) 972-766-6900"}],"address":[{"use":"billing","type":"postal","line":["P.O. Box 660044"],"city":"Dallas","state":"TX","postalCode":"75266-0044","country":"USA"}]},"request":{"method":"PUT","url":"Organization/d53c08dc-5e88-4b34-8346-39ecd24faff9"}},{"fullUrl":"https://madie.cms.gov/Practitioner/e5b241e1-5d95-4d70-b4ea-77c95e5b1883","resource":{"resourceType":"Practitioner","id":"e5b241e1-5d95-4d70-b4ea-77c95e5b1883","identifier":[{"system":"http://hl7.org/fhir/sid/us-npi","value":"123456"}],"name":[{"family":"Evil","prefix":["Dr"]}]},"request":{"method":"PUT","url":"Practitioner/e5b241e1-5d95-4d70-b4ea-77c95e5b1883"}},{"fullUrl":"https://madie.cms.gov/MeasureReport/c1a5f48b-3d46-4539-b29f-f78c934a2a88","resource":{"resourceType":"MeasureReport","id":"c1a5f48b-3d46-4539-b29f-f78c934a2a88","meta":{"profile":["http://hl7.org/fhir/us/cqfmeasures/StructureDefinition/test-case-cqfm"]},"contained":[{"resourceType":"Parameters","id":"8240edff-a426-42ef-80ac-ba2d56f10ba0-parameters","parameter":[{"name":"subject","valueString":"4d76c150-b6a5-4a1a-8801-81c24ce398b7"}]}],"extension":[{"url":"http://hl7.org/fhir/StructureDefinition/cqf-inputParameters","valueReference":{"reference":"#8240edff-a426-42ef-80ac-ba2d56f10ba0-parameters"}},{"url":"http://hl7.org/fhir/us/cqfmeasures/StructureDefinition/cqfm-testCaseDescription","valueMarkdown":"Glycoprotein IIb/IIIa Inhibitors administered concurrentwith end of neuraxial anesthesia\n"}],"modifierExtension":[{"url":"http://hl7.org/fhir/us/cqfmeasures/StructureDefinition/cqfm-isTestCase","valueBoolean":true}],"status":"complete","type":"individual","measure":"https://madie.cms.gov/Measure/CMS190VTEProphylaxisICUFHIR","period":{"start":"2026-01-01","end":"2026-12-31"},"group":[{"id":"Group_1","population":[{"id":"InitialPopulation_1","code":{"coding":[{"system":"http://terminology.hl7.org/CodeSystem/measure-population","code":"initial-population","display":"Initial Population"}]},"count":1},{"id":"Denominator_1","code":{"coding":[{"system":"http://terminology.hl7.org/CodeSystem/measure-population","code":"denominator","display":"Denominator"}]},"count":1},{"id":"DenominatorExclusion_1","code":{"coding":[{"system":"http://terminology.hl7.org/CodeSystem/measure-population","code":"denominator-exclusion","display":"Denominator Exclusion"}]},"count":0},{"id":"Numerator_1","code":{"coding":[{"system":"http://terminology.hl7.org/CodeSystem/measure-population","code":"numerator","display":"Numerator"}]},"count":1},{"id":"DenominatorException_1","code":{"coding":[{"system":"http://terminology.hl7.org/CodeSystem/measure-population","code":"denominator-exception","display":"Denominator Exception"}]},"count":0}],"measureScore":{"value":0.0}}],"evaluatedResource":[{"reference":"Patient/4d76c150-b6a5-4a1a-8801-81c24ce398b7"},{"reference":"Encounter/a5fab3b5-af24-48d7-87a9-25abd6a4564e"},{"reference":"Coverage/cd9f40ae-dc04-4bf4-ad8f-d104375241df"},{"reference":"MedicationAdministration/7e4933e7-dc59-485d-ad82-4d171d08b35c"},{"reference":"Procedure/2d02cce8-0aa4-4ab3-82a7-1daec5c0c7dd"},{"reference":"Location/fb7af870-deff-4182-a7a9-a1e821e497de"},{"reference":"Organization/d53c08dc-5e88-4b34-8346-39ecd24faff9"},{"reference":"Practitioner/e5b241e1-5d95-4d70-b4ea-77c95e5b1883"}]},"request":{"method":"PUT","url":"MeasureReport/c1a5f48b-3d46-4539-b29f-f78c934a2a88"}}]},"request":{"method":"PUT","url":"Bundle/612e6f5002c62a011f2f15ec"}},{"fullUrl":"Coverage/cd9f40ae-dc04-4bf4-ad8f-d104375241df","resource":{"resourceType":"Coverage","id":"cd9f40ae-dc04-4bf4-ad8f-d104375241df","status":"active","beneficiary":{"reference":"Patient/4d76c150-b6a5-4a1a-8801-81c24ce398b7"},"period":{"start":"1975-03-03T08:00:00.000+00:00"},"payor":[{"reference":"Organization/d53c08dc-5e88-4b34-8346-39ecd24faff9"}]},"request":{"method":"PUT","url":"Coverage/cd9f40ae-dc04-4bf4-ad8f-d104375241df"}},{"fullUrl":"MeasureReport/c1a5f48b-3d46-4539-b29f-f78c934a2a88","resource":{"resourceType":"MeasureReport","id":"c1a5f48b-3d46-4539-b29f-f78c934a2a88","meta":{"profile":["http://hl7.org/fhir/us/cqfmeasures/StructureDefinition/test-case-cqfm"]},"contained":[{"resourceType":"Parameters","id":"8240edff-a426-42ef-80ac-ba2d56f10ba0-parameters","parameter":[{"name":"subject","valueString":"4d76c150-b6a5-4a1a-8801-81c24ce398b7"}]}],"extension":[{"url":"http://hl7.org/fhir/StructureDefinition/cqf-inputParameters","valueReference":{"reference":"#8240edff-a426-42ef-80ac-ba2d56f10ba0-parameters"}},{"url":"http://hl7.org/fhir/us/cqfmeasures/StructureDefinition/cqfm-testCaseDescription","valueMarkdown":"Glycoprotein IIb/IIIa Inhibitors administered concurrentwith end of neuraxial anesthesia\n"}],"modifierExtension":[{"url":"http://hl7.org/fhir/us/cqfmeasures/StructureDefinition/cqfm-isTestCase","valueBoolean":true}],"status":"complete","type":"individual","measure":"https://madie.cms.gov/Measure/CMS190VTEProphylaxisICUFHIR","period":{"start":"2026-01-01","end":"2026-12-31"},"group":[{"id":"Group_1","population":[{"id":"InitialPopulation_1","code":{"coding":[{"system":"http://terminology.hl7.org/CodeSystem/measure-population","code":"initial-population","display":"Initial Population"}]},"count":1},{"id":"Denominator_1","code":{"coding":[{"system":"http://terminology.hl7.org/CodeSystem/measure-population","code":"denominator","display":"Denominator"}]},"count":1},{"id":"DenominatorExclusion_1","code":{"coding":[{"system":"http://terminology.hl7.org/CodeSystem/measure-population","code":"denominator-exclusion","display":"Denominator Exclusion"}]},"count":0},{"id":"Numerator_1","code":{"coding":[{"system":"http://terminology.hl7.org/CodeSystem/measure-population","code":"numerator","display":"Numerator"}]},"count":1},{"id":"DenominatorException_1","code":{"coding":[{"system":"http://terminology.hl7.org/CodeSystem/measure-population","code":"denominator-exception","display":"Denominator Exception"}]},"count":0}],"measureScore":{"value":0.0}}],"evaluatedResource":[{"reference":"Patient/4d76c150-b6a5-4a1a-8801-81c24ce398b7"},{"reference":"Encounter/a5fab3b5-af24-48d7-87a9-25abd6a4564e"},{"reference":"Coverage/cd9f40ae-dc04-4bf4-ad8f-d104375241df"},{"reference":"MedicationAdministration/7e4933e7-dc59-485d-ad82-4d171d08b35c"},{"reference":"Procedure/2d02cce8-0aa4-4ab3-82a7-1daec5c0c7dd"},{"reference":"Location/fb7af870-deff-4182-a7a9-a1e821e497de"},{"reference":"Organization/d53c08dc-5e88-4b34-8346-39ecd24faff9"},{"reference":"Practitioner/e5b241e1-5d95-4d70-b4ea-77c95e5b1883"}]},"request":{"method":"PUT","url":"MeasureReport/c1a5f48b-3d46-4539-b29f-f78c934a2a88"}},{"fullUrl":"Procedure/2d02cce8-0aa4-4ab3-82a7-1daec5c0c7dd","resource":{"resourceType":"Procedure","id":"2d02cce8-0aa4-4ab3-82a7-1daec5c0c7dd","meta":{"profile":["http://hl7.org/fhir/us/qicore/StructureDefinition/qicore-procedure"]},"extension":[{"url":"http://hl7.org/fhir/us/qicore/StructureDefinition/qicore-recorded","valueDateTime":"2013-12-07T13:35:00.000+00:00"}],"status":"completed","code":{"coding":[{"system":"http://snomed.info/sct","code":"18946005"}]},"subject":{"reference":"Patient/4d76c150-b6a5-4a1a-8801-81c24ce398b7"},"performedPeriod":{"start":"2026-12-07T10:00:00.000+00:00","end":"2026-12-07T11:15:00.000+00:00"}},"request":{"method":"PUT","url":"Procedure/2d02cce8-0aa4-4ab3-82a7-1daec5c0c7dd"}},{"fullUrl":"Patient/4d76c150-b6a5-4a1a-8801-81c24ce398b7","resource":{"resourceType":"Patient","id":"4d76c150-b6a5-4a1a-8801-81c24ce398b7","meta":{"profile":["http://hl7.org/fhir/us/qicore/StructureDefinition/qicore-patient"]},"text":{"status":"generated","div":"<div xmlns=\"http://www.w3.org/1999/xhtml\"><div class=\"hapiHeaderText\">GlycoOnAnesEndDayAfterICU <b>NUMERPASS </b></div><table class=\"hapiPropertyTable\"><tbody><tr><td>Identifier</td><td>749173f2040124b092bc1729ffb06eac</td></tr><tr><td>Date of birth</td><td><span>03 March 1974</span></td></tr></tbody></table></div>"},"extension":[{"url":"http://hl7.org/fhir/us/core/StructureDefinition/us-core-race","extension":[{"url":"ombCategory","valueCoding":{"system":"urn:oid:2.16.840.1.113883.6.238","code":"1002-5","display":"American Indian or Alaska Native","userSelected":true}},{"url":"text","valueString":"American Indian or Alaska Native"}]},{"url":"http://hl7.org/fhir/us/core/StructureDefinition/us-core-ethnicity","extension":[{"url":"ombCategory","valueCoding":{"system":"urn:oid:2.16.840.1.113883.6.238","code":"2135-2","display":"Hispanic or Latino","userSelected":true}},{"url":"text","valueString":"Hispanic or Latino"}]}],"identifier":[{"type":{"coding":[{"system":"http://terminology.hl7.org/CodeSystem/v2-0203","code":"MR"}]},"system":"https://bonnie-fhir.healthit.gov/","value":"612e6f5002c62a011f2f15ec"}],"active":true,"name":[{"use":"usual","family":"NUMERPass","given":["GlycoOnAnesEndDayAfterICU"]}],"gender":"female","birthDate":"1975-03-03"},"request":{"method":"PUT","url":"Patient/4d76c150-b6a5-4a1a-8801-81c24ce398b7"}},{"fullUrl":"Organization/d53c08dc-5e88-4b34-8346-39ecd24faff9","resource":{"resourceType":"Organization","id":"d53c08dc-5e88-4b34-8346-39ecd24faff9","meta":{"profile":["http://hl7.org/fhir/us/qicore/StructureDefinition/qicore-organization"]},"identifier":[{"use":"temp","system":"urn:oid:2.16.840.1.113883.4.4","value":"21-3259825"}],"active":true,"type":[{"coding":[{"system":"http://terminology.hl7.org/CodeSystem/organization-type","code":"pay","display":"Payer"}]}],"name":"Blue Cross Blue Shield of Texas","telecom":[{"system":"phone","value":"(+1) 972-766-6900"}],"address":[{"use":"billing","type":"postal","line":["P.O. Box 660044"],"city":"Dallas","state":"TX","postalCode":"75266-0044","country":"USA"}]},"request":{"method":"PUT","url":"Organization/d53c08dc-5e88-4b34-8346-39ecd24faff9"}},{"fullUrl":"Practitioner/e5b241e1-5d95-4d70-b4ea-77c95e5b1883","resource":{"resourceType":"Practitioner","id":"e5b241e1-5d95-4d70-b4ea-77c95e5b1883","identifier":[{"system":"http://hl7.org/fhir/sid/us-npi","value":"123456"}],"name":[{"family":"Evil","prefix":["Dr"]}]},"request":{"method":"PUT","url":"Practitioner/e5b241e1-5d95-4d70-b4ea-77c95e5b1883"}},{"fullUrl":"MedicationAdministration/7e4933e7-dc59-485d-ad82-4d171d08b35c","resource":{"resourceType":"MedicationAdministration","id":"7e4933e7-dc59-485d-ad82-4d171d08b35c","meta":{"profile":["http://hl7.org/fhir/us/qicore/StructureDefinition/qicore-medicationadministration"]},"status":"completed","medicationCodeableConcept":{"coding":[{"system":"http://www.nlm.nih.gov/research/umls/rxnorm","code":"200349"}]},"subject":{"reference":"Patient/4d76c150-b6a5-4a1a-8801-81c24ce398b7"},"effectivePeriod":{"start":"2026-12-07T11:15:00.000+00:00"}},"request":{"method":"PUT","url":"MedicationAdministration/7e4933e7-dc59-485d-ad82-4d171d08b35c"}},{"fullUrl":"Location/fb7af870-deff-4182-a7a9-a1e821e497de","resource":{"resourceType":"Location","id":"fb7af870-deff-4182-a7a9-a1e821e497de","meta":{"profile":["http://hl7.org/fhir/us/qicore/StructureDefinition/qicore-location"]},"identifier":[{"use":"usual","system":"http://exampleoflocation.com","value":"B1-S.F2"}],"name":"Medical Surgical East, first floor","type":[{"coding":[{"system":"https://www.cdc.gov/nhsn/cdaportal/terminology/codesystem/hsloc.html","code":"1025-6","display":"Trauma Critical Care","userSelected":true}]}]},"request":{"method":"PUT","url":"Location/fb7af870-deff-4182-a7a9-a1e821e497de"}},{"fullUrl":"Encounter/a5fab3b5-af24-48d7-87a9-25abd6a4564e","resource":{"resourceType":"Encounter","id":"a5fab3b5-af24-48d7-87a9-25abd6a4564e","meta":{"profile":["http://hl7.org/fhir/us/qicore/StructureDefinition/qicore-encounter"]},"status":"finished","class":{"system":"http://terminology.hl7.org/CodeSystem/v3-ActCode","code":"IMP","display":"inpatient encounter"},"type":[{"coding":[{"system":"http://snomed.info/sct","code":"8715000"}]}],"subject":{"reference":"Patient/4d76c150-b6a5-4a1a-8801-81c24ce398b7"},"period":{"start":"2026-12-04T08:00:00.000+00:00","end":"2026-12-30T08:15:00.000+00:00"},"length":{"value":26.0,"unit":"days"},"location":[{"location":{"reference":"Location/fb7af870-deff-4182-a7a9-a1e821e497de"},"period":{"start":"2026-12-06T08:00:00.000+00:00","end":"2026-12-12T08:15:00.000+00:00"}}]},"request":{"method":"PUT","url":"Encounter/a5fab3b5-af24-48d7-87a9-25abd6a4564e"}}]}