{"resourceType":"Bundle","id":"tests-c0481b47-738b-4a09-8901-915ece2beb7e-bundle","type":"transaction","entry":[{"fullUrl":"Patient/c0481b47-738b-4a09-8901-915ece2beb7e","resource":{"resourceType":"Patient","id":"c0481b47-738b-4a09-8901-915ece2beb7e","meta":{"profile":["http://hl7.org/fhir/us/qicore/StructureDefinition/qicore-patient"]},"text":{"status":"generated","div":"<div xmlns=\"http://www.w3.org/1999/xhtml\"><div class=\"hapiHeaderText\">PtRefMALDUH1MinBfEDEnd <b>NUMERPASS </b></div><table class=\"hapiPropertyTable\"><tbody><tr><td>Identifier</td><td>24fc1ce85ce14557dd4d9eba17df9f17</td></tr><tr><td>Date of birth</td><td><span>02 January 1974</span></td></tr></tbody></table></div>"},"extension":[{"url":"http://hl7.org/fhir/us/core/StructureDefinition/us-core-race","extension":[{"url":"ombCategory","valueCoding":{"system":"urn:oid:2.16.840.1.113883.6.238","code":"1002-5","display":"American Indian or Alaska Native","userSelected":true}},{"url":"text","valueString":"American Indian or Alaska Native"}]},{"url":"http://hl7.org/fhir/us/core/StructureDefinition/us-core-ethnicity","extension":[{"url":"ombCategory","valueCoding":{"system":"urn:oid:2.16.840.1.113883.6.238","code":"2135-2","display":"Hispanic or Latino","userSelected":true}},{"url":"text","valueString":"Hispanic or Latino"}]}],"identifier":[{"type":{"coding":[{"system":"http://terminology.hl7.org/CodeSystem/v2-0203","code":"MR"}]},"system":"https://bonnie-fhir.healthit.gov/","value":"612e6a7002c62a011f2ea15f"}],"active":true,"name":[{"use":"usual","family":"NUMERPass","given":["PtRefMALDUH1MinBfEDEnd"]}],"gender":"male","birthDate":"1975-01-02"},"request":{"method":"PUT","url":"Patient/c0481b47-738b-4a09-8901-915ece2beb7e"}},{"fullUrl":"Practitioner/11a0ec00-9201-4ddb-bc66-e5fe2f9fe123","resource":{"resourceType":"Practitioner","id":"11a0ec00-9201-4ddb-bc66-e5fe2f9fe123","identifier":[{"system":"http://hl7.org/fhir/sid/us-npi","value":"123456"}],"name":[{"family":"Evil","prefix":["Dr"]}]},"request":{"method":"PUT","url":"Practitioner/11a0ec00-9201-4ddb-bc66-e5fe2f9fe123"}},{"fullUrl":"Encounter/c07b35b5-90fc-42bd-af42-afcc122d3dab","resource":{"resourceType":"Encounter","id":"c07b35b5-90fc-42bd-af42-afcc122d3dab","meta":{"profile":["http://hl7.org/fhir/us/qicore/StructureDefinition/qicore-encounter"]},"status":"finished","class":{"system":"http://terminology.hl7.org/CodeSystem/v3-ActCode","code":"EMER","display":"emergency"},"type":[{"coding":[{"system":"http://snomed.info/sct","code":"4525004"}]}],"subject":{"reference":"Patient/c0481b47-738b-4a09-8901-915ece2beb7e"},"period":{"start":"2026-10-31T05:00:00.000+00:00","end":"2026-11-01T07:15:00.000+00:00"},"length":{"value":1,"unit":"days"}},"request":{"method":"PUT","url":"Encounter/c07b35b5-90fc-42bd-af42-afcc122d3dab"}},{"fullUrl":"Organization/a8ccc8f1-2135-4737-bc99-31569480bff4","resource":{"resourceType":"Organization","id":"a8ccc8f1-2135-4737-bc99-31569480bff4","meta":{"profile":["http://hl7.org/fhir/us/qicore/StructureDefinition/qicore-organization"]},"identifier":[{"use":"temp","system":"urn:oid:2.16.840.1.113883.4.4","value":"21-3259825"}],"active":true,"type":[{"coding":[{"system":"http://terminology.hl7.org/CodeSystem/organization-type","code":"pay","display":"Payer"}]}],"name":"Blue Cross Blue Shield of Texas","telecom":[{"system":"phone","value":"(+1) 972-766-6900"}],"address":[{"use":"billing","type":"postal","line":["P.O. Box 660044"],"city":"Dallas","state":"TX","postalCode":"75266-0044","country":"USA"}]},"request":{"method":"PUT","url":"Organization/a8ccc8f1-2135-4737-bc99-31569480bff4"}},{"fullUrl":"MedicationAdministration/9cec0113-c8f3-4881-995c-d51e9ace7868","resource":{"resourceType":"MedicationAdministration","id":"9cec0113-c8f3-4881-995c-d51e9ace7868","meta":{"profile":["http://hl7.org/fhir/us/qicore/StructureDefinition/qicore-medicationadministrationnotdone"]},"extension":[{"url":"http://hl7.org/fhir/us/qicore/StructureDefinition/qicore-recorded","valueDateTime":"2026-11-01T07:14:00.000+00:00"}],"status":"not-done","statusReason":[{"coding":[{"system":"http://snomed.info/sct","code":"443390004","display":"Refusal of treatment by patient (situation)"}]}],"medicationCodeableConcept":{"coding":[{"system":"http://www.nlm.nih.gov/research/umls/rxnorm","code":"1361574"}]},"subject":{"reference":"Patient/c0481b47-738b-4a09-8901-915ece2beb7e"},"effectivePeriod":{"start":"2026-11-02T11:00:00.000+00:00"}},"request":{"method":"PUT","url":"MedicationAdministration/9cec0113-c8f3-4881-995c-d51e9ace7868"}},{"fullUrl":"Location/3d45fe8c-b779-4cc8-a1eb-a69aea175bb0","resource":{"resourceType":"Location","id":"3d45fe8c-b779-4cc8-a1eb-a69aea175bb0","meta":{"profile":["http://hl7.org/fhir/us/qicore/StructureDefinition/qicore-location"]},"identifier":[{"use":"usual","system":"http://exampleoflocation.com","value":"B1-S.F2"}],"name":"Medical Surgical East, first floor","type":[{"coding":[{"system":"https://www.cdc.gov/nhsn/cdaportal/terminology/codesystem/hsloc.html","code":"1025-6","display":"Trauma Critical Care","userSelected":true}]}]},"request":{"method":"PUT","url":"Location/3d45fe8c-b779-4cc8-a1eb-a69aea175bb0"}},{"fullUrl":"Coverage/8f3cf5af-b29d-4046-a55b-39ad81ce2cb8","resource":{"resourceType":"Coverage","id":"8f3cf5af-b29d-4046-a55b-39ad81ce2cb8","status":"active","beneficiary":{"reference":"Patient/c0481b47-738b-4a09-8901-915ece2beb7e"},"period":{"start":"1975-01-02T08:00:00.000+00:00"},"payor":[{"reference":"Organization/a8ccc8f1-2135-4737-bc99-31569480bff4"}]},"request":{"method":"PUT","url":"Coverage/8f3cf5af-b29d-4046-a55b-39ad81ce2cb8"}},{"fullUrl":"Encounter/6b7e26a8-bdf0-4cfb-845b-3fbe9a22800d","resource":{"resourceType":"Encounter","id":"6b7e26a8-bdf0-4cfb-845b-3fbe9a22800d","meta":{"profile":["http://hl7.org/fhir/us/qicore/StructureDefinition/qicore-encounter"]},"status":"finished","class":{"system":"http://terminology.hl7.org/CodeSystem/v3-ActCode","code":"IMP","display":"inpatient encounter"},"type":[{"coding":[{"system":"http://snomed.info/sct","code":"8715000"}]}],"subject":{"reference":"Patient/c0481b47-738b-4a09-8901-915ece2beb7e"},"period":{"start":"2026-11-01T08:00:00.000+00:00","end":"2026-11-26T08:15:00.000+00:00"},"length":{"value":25,"unit":"days"},"location":[{"location":{"reference":"Location/3d45fe8c-b779-4cc8-a1eb-a69aea175bb0"},"period":{"start":"2026-11-03T09:00:00.000+00:00","end":"2026-11-05T08:15:00.000+00:00"}}]},"request":{"method":"PUT","url":"Encounter/6b7e26a8-bdf0-4cfb-845b-3fbe9a22800d"}},{"fullUrl":"MeasureReport/6c62f444-ba66-4767-ba17-ae2c7a695b07","resource":{"resourceType":"MeasureReport","id":"6c62f444-ba66-4767-ba17-ae2c7a695b07","meta":{"profile":["http://hl7.org/fhir/us/cqfmeasures/StructureDefinition/test-case-cqfm"]},"contained":[{"resourceType":"Parameters","id":"1a972757-93e1-43ad-8148-daaa6d049dac-parameters","parameter":[{"name":"subject","valueString":"c0481b47-738b-4a09-8901-915ece2beb7e"}]}],"extension":[{"url":"http://hl7.org/fhir/StructureDefinition/cqf-inputParameters","valueReference":{"reference":"#1a972757-93e1-43ad-8148-daaa6d049dac-parameters"}},{"url":"http://hl7.org/fhir/us/cqfmeasures/StructureDefinition/cqfm-testCaseDescription","valueMarkdown":"Patient refuses LDUH administration in ED.\n"}],"modifierExtension":[{"url":"http://hl7.org/fhir/us/cqfmeasures/StructureDefinition/cqfm-isTestCase","valueBoolean":true}],"status":"complete","type":"individual","measure":"https://madie.cms.gov/Measure/CMS190VTEProphylaxisICUFHIR","period":{"start":"2026-01-01","end":"2026-12-31"},"group":[{"id":"Group_1","population":[{"id":"InitialPopulation_1","code":{"coding":[{"system":"http://terminology.hl7.org/CodeSystem/measure-population","code":"initial-population","display":"Initial Population"}]},"count":1},{"id":"Denominator_1","code":{"coding":[{"system":"http://terminology.hl7.org/CodeSystem/measure-population","code":"denominator","display":"Denominator"}]},"count":1},{"id":"DenominatorExclusion_1","code":{"coding":[{"system":"http://terminology.hl7.org/CodeSystem/measure-population","code":"denominator-exclusion","display":"Denominator Exclusion"}]},"count":0},{"id":"Numerator_1","code":{"coding":[{"system":"http://terminology.hl7.org/CodeSystem/measure-population","code":"numerator","display":"Numerator"}]},"count":1},{"id":"DenominatorException_1","code":{"coding":[{"system":"http://terminology.hl7.org/CodeSystem/measure-population","code":"denominator-exception","display":"Denominator Exception"}]},"count":0}],"measureScore":{"value":0.0}}],"evaluatedResource":[{"reference":"Patient/c0481b47-738b-4a09-8901-915ece2beb7e"},{"reference":"Encounter/c07b35b5-90fc-42bd-af42-afcc122d3dab"},{"reference":"Encounter/6b7e26a8-bdf0-4cfb-845b-3fbe9a22800d"},{"reference":"Coverage/8f3cf5af-b29d-4046-a55b-39ad81ce2cb8"},{"reference":"MedicationAdministration/9cec0113-c8f3-4881-995c-d51e9ace7868"},{"reference":"Location/3d45fe8c-b779-4cc8-a1eb-a69aea175bb0"},{"reference":"Organization/a8ccc8f1-2135-4737-bc99-31569480bff4"},{"reference":"Practitioner/11a0ec00-9201-4ddb-bc66-e5fe2f9fe123"}]},"request":{"method":"PUT","url":"MeasureReport/6c62f444-ba66-4767-ba17-ae2c7a695b07"}},{"fullUrl":"Bundle/612e6a7002c62a011f2ea15f","resource":{"resourceType":"Bundle","id":"612e6a7002c62a011f2ea15f","type":"transaction","entry":[{"fullUrl":"https://madie.cms.gov/Patient/c0481b47-738b-4a09-8901-915ece2beb7e","resource":{"resourceType":"Patient","id":"c0481b47-738b-4a09-8901-915ece2beb7e","meta":{"profile":["http://hl7.org/fhir/us/qicore/StructureDefinition/qicore-patient"]},"text":{"status":"generated","div":"<div xmlns=\"http://www.w3.org/1999/xhtml\"><div class=\"hapiHeaderText\">PtRefMALDUH1MinBfEDEnd <b>NUMERPASS </b></div><table class=\"hapiPropertyTable\"><tbody><tr><td>Identifier</td><td>24fc1ce85ce14557dd4d9eba17df9f17</td></tr><tr><td>Date of birth</td><td><span>02 January 1974</span></td></tr></tbody></table></div>"},"extension":[{"url":"http://hl7.org/fhir/us/core/StructureDefinition/us-core-race","extension":[{"url":"ombCategory","valueCoding":{"system":"urn:oid:2.16.840.1.113883.6.238","code":"1002-5","display":"American Indian or Alaska Native","userSelected":true}},{"url":"text","valueString":"American Indian or Alaska Native"}]},{"url":"http://hl7.org/fhir/us/core/StructureDefinition/us-core-ethnicity","extension":[{"url":"ombCategory","valueCoding":{"system":"urn:oid:2.16.840.1.113883.6.238","code":"2135-2","display":"Hispanic or Latino","userSelected":true}},{"url":"text","valueString":"Hispanic or Latino"}]}],"identifier":[{"type":{"coding":[{"system":"http://terminology.hl7.org/CodeSystem/v2-0203","code":"MR"}]},"system":"https://bonnie-fhir.healthit.gov/","value":"612e6a7002c62a011f2ea15f"}],"active":true,"name":[{"use":"usual","family":"NUMERPass","given":["PtRefMALDUH1MinBfEDEnd"]}],"gender":"male","birthDate":"1975-01-02"},"request":{"method":"PUT","url":"Patient/c0481b47-738b-4a09-8901-915ece2beb7e"}},{"fullUrl":"https://madie.cms.gov/Encounter/c07b35b5-90fc-42bd-af42-afcc122d3dab","resource":{"resourceType":"Encounter","id":"c07b35b5-90fc-42bd-af42-afcc122d3dab","meta":{"profile":["http://hl7.org/fhir/us/qicore/StructureDefinition/qicore-encounter"]},"status":"finished","class":{"system":"http://terminology.hl7.org/CodeSystem/v3-ActCode","code":"EMER","display":"emergency"},"type":[{"coding":[{"system":"http://snomed.info/sct","code":"4525004"}]}],"subject":{"reference":"Patient/c0481b47-738b-4a09-8901-915ece2beb7e"},"period":{"start":"2026-10-31T05:00:00.000+00:00","end":"2026-11-01T07:15:00.000+00:00"},"length":{"value":1,"unit":"days"}},"request":{"method":"PUT","url":"Encounter/c07b35b5-90fc-42bd-af42-afcc122d3dab"}},{"fullUrl":"https://madie.cms.gov/Encounter/6b7e26a8-bdf0-4cfb-845b-3fbe9a22800d","resource":{"resourceType":"Encounter","id":"6b7e26a8-bdf0-4cfb-845b-3fbe9a22800d","meta":{"profile":["http://hl7.org/fhir/us/qicore/StructureDefinition/qicore-encounter"]},"status":"finished","class":{"system":"http://terminology.hl7.org/CodeSystem/v3-ActCode","code":"IMP","display":"inpatient encounter"},"type":[{"coding":[{"system":"http://snomed.info/sct","code":"8715000"}]}],"subject":{"reference":"Patient/c0481b47-738b-4a09-8901-915ece2beb7e"},"period":{"start":"2026-11-01T08:00:00.000+00:00","end":"2026-11-26T08:15:00.000+00:00"},"length":{"value":25,"unit":"days"},"location":[{"location":{"reference":"Location/3d45fe8c-b779-4cc8-a1eb-a69aea175bb0"},"period":{"start":"2026-11-03T09:00:00.000+00:00","end":"2026-11-05T08:15:00.000+00:00"}}]},"request":{"method":"PUT","url":"Encounter/6b7e26a8-bdf0-4cfb-845b-3fbe9a22800d"}},{"fullUrl":"https://madie.cms.gov/Coverage/8f3cf5af-b29d-4046-a55b-39ad81ce2cb8","resource":{"resourceType":"Coverage","id":"8f3cf5af-b29d-4046-a55b-39ad81ce2cb8","status":"active","beneficiary":{"reference":"Patient/c0481b47-738b-4a09-8901-915ece2beb7e"},"period":{"start":"1975-01-02T08:00:00.000+00:00"},"payor":[{"reference":"Organization/a8ccc8f1-2135-4737-bc99-31569480bff4"}]},"request":{"method":"PUT","url":"Coverage/8f3cf5af-b29d-4046-a55b-39ad81ce2cb8"}},{"fullUrl":"https://madie.cms.gov/MedicationAdministration/9cec0113-c8f3-4881-995c-d51e9ace7868","resource":{"resourceType":"MedicationAdministration","id":"9cec0113-c8f3-4881-995c-d51e9ace7868","meta":{"profile":["http://hl7.org/fhir/us/qicore/StructureDefinition/qicore-medicationadministrationnotdone"]},"extension":[{"url":"http://hl7.org/fhir/us/qicore/StructureDefinition/qicore-recorded","valueDateTime":"2026-11-01T07:14:00.000+00:00"}],"status":"not-done","statusReason":[{"coding":[{"system":"http://snomed.info/sct","code":"443390004","display":"Refusal of treatment by patient (situation)"}]}],"medicationCodeableConcept":{"coding":[{"system":"http://www.nlm.nih.gov/research/umls/rxnorm","code":"1361574"}]},"subject":{"reference":"Patient/c0481b47-738b-4a09-8901-915ece2beb7e"},"effectivePeriod":{"start":"2026-11-02T11:00:00.000+00:00"}},"request":{"method":"PUT","url":"MedicationAdministration/9cec0113-c8f3-4881-995c-d51e9ace7868"}},{"fullUrl":"https://madie.cms.gov/Location/3d45fe8c-b779-4cc8-a1eb-a69aea175bb0","resource":{"resourceType":"Location","id":"3d45fe8c-b779-4cc8-a1eb-a69aea175bb0","meta":{"profile":["http://hl7.org/fhir/us/qicore/StructureDefinition/qicore-location"]},"identifier":[{"use":"usual","system":"http://exampleoflocation.com","value":"B1-S.F2"}],"name":"Medical Surgical East, first floor","type":[{"coding":[{"system":"https://www.cdc.gov/nhsn/cdaportal/terminology/codesystem/hsloc.html","code":"1025-6","display":"Trauma Critical Care","userSelected":true}]}]},"request":{"method":"PUT","url":"Location/3d45fe8c-b779-4cc8-a1eb-a69aea175bb0"}},{"fullUrl":"https://madie.cms.gov/Organization/a8ccc8f1-2135-4737-bc99-31569480bff4","resource":{"resourceType":"Organization","id":"a8ccc8f1-2135-4737-bc99-31569480bff4","meta":{"profile":["http://hl7.org/fhir/us/qicore/StructureDefinition/qicore-organization"]},"identifier":[{"use":"temp","system":"urn:oid:2.16.840.1.113883.4.4","value":"21-3259825"}],"active":true,"type":[{"coding":[{"system":"http://terminology.hl7.org/CodeSystem/organization-type","code":"pay","display":"Payer"}]}],"name":"Blue Cross Blue Shield of Texas","telecom":[{"system":"phone","value":"(+1) 972-766-6900"}],"address":[{"use":"billing","type":"postal","line":["P.O. Box 660044"],"city":"Dallas","state":"TX","postalCode":"75266-0044","country":"USA"}]},"request":{"method":"PUT","url":"Organization/a8ccc8f1-2135-4737-bc99-31569480bff4"}},{"fullUrl":"https://madie.cms.gov/Practitioner/11a0ec00-9201-4ddb-bc66-e5fe2f9fe123","resource":{"resourceType":"Practitioner","id":"11a0ec00-9201-4ddb-bc66-e5fe2f9fe123","identifier":[{"system":"http://hl7.org/fhir/sid/us-npi","value":"123456"}],"name":[{"family":"Evil","prefix":["Dr"]}]},"request":{"method":"PUT","url":"Practitioner/11a0ec00-9201-4ddb-bc66-e5fe2f9fe123"}},{"fullUrl":"https://madie.cms.gov/MeasureReport/6c62f444-ba66-4767-ba17-ae2c7a695b07","resource":{"resourceType":"MeasureReport","id":"6c62f444-ba66-4767-ba17-ae2c7a695b07","meta":{"profile":["http://hl7.org/fhir/us/cqfmeasures/StructureDefinition/test-case-cqfm"]},"contained":[{"resourceType":"Parameters","id":"1a972757-93e1-43ad-8148-daaa6d049dac-parameters","parameter":[{"name":"subject","valueString":"c0481b47-738b-4a09-8901-915ece2beb7e"}]}],"extension":[{"url":"http://hl7.org/fhir/StructureDefinition/cqf-inputParameters","valueReference":{"reference":"#1a972757-93e1-43ad-8148-daaa6d049dac-parameters"}},{"url":"http://hl7.org/fhir/us/cqfmeasures/StructureDefinition/cqfm-testCaseDescription","valueMarkdown":"Patient refuses LDUH administration in ED.\n"}],"modifierExtension":[{"url":"http://hl7.org/fhir/us/cqfmeasures/StructureDefinition/cqfm-isTestCase","valueBoolean":true}],"status":"complete","type":"individual","measure":"https://madie.cms.gov/Measure/CMS190VTEProphylaxisICUFHIR","period":{"start":"2026-01-01","end":"2026-12-31"},"group":[{"id":"Group_1","population":[{"id":"InitialPopulation_1","code":{"coding":[{"system":"http://terminology.hl7.org/CodeSystem/measure-population","code":"initial-population","display":"Initial Population"}]},"count":1},{"id":"Denominator_1","code":{"coding":[{"system":"http://terminology.hl7.org/CodeSystem/measure-population","code":"denominator","display":"Denominator"}]},"count":1},{"id":"DenominatorExclusion_1","code":{"coding":[{"system":"http://terminology.hl7.org/CodeSystem/measure-population","code":"denominator-exclusion","display":"Denominator Exclusion"}]},"count":0},{"id":"Numerator_1","code":{"coding":[{"system":"http://terminology.hl7.org/CodeSystem/measure-population","code":"numerator","display":"Numerator"}]},"count":1},{"id":"DenominatorException_1","code":{"coding":[{"system":"http://terminology.hl7.org/CodeSystem/measure-population","code":"denominator-exception","display":"Denominator Exception"}]},"count":0}],"measureScore":{"value":0.0}}],"evaluatedResource":[{"reference":"Patient/c0481b47-738b-4a09-8901-915ece2beb7e"},{"reference":"Encounter/c07b35b5-90fc-42bd-af42-afcc122d3dab"},{"reference":"Encounter/6b7e26a8-bdf0-4cfb-845b-3fbe9a22800d"},{"reference":"Coverage/8f3cf5af-b29d-4046-a55b-39ad81ce2cb8"},{"reference":"MedicationAdministration/9cec0113-c8f3-4881-995c-d51e9ace7868"},{"reference":"Location/3d45fe8c-b779-4cc8-a1eb-a69aea175bb0"},{"reference":"Organization/a8ccc8f1-2135-4737-bc99-31569480bff4"},{"reference":"Practitioner/11a0ec00-9201-4ddb-bc66-e5fe2f9fe123"}]},"request":{"method":"PUT","url":"MeasureReport/6c62f444-ba66-4767-ba17-ae2c7a695b07"}}]},"request":{"method":"PUT","url":"Bundle/612e6a7002c62a011f2ea15f"}}]}