{"resourceType":"Bundle","id":"tests-9ddea16c-55d3-4dda-a1d8-a256fbff0b64-bundle","type":"transaction","entry":[{"fullUrl":"Encounter/e01e17a0-af38-4a43-896a-c1b83eb7d419","resource":{"resourceType":"Encounter","id":"e01e17a0-af38-4a43-896a-c1b83eb7d419","meta":{"profile":["http://hl7.org/fhir/us/qicore/StructureDefinition/qicore-encounter"]},"status":"finished","class":{"system":"http://terminology.hl7.org/CodeSystem/v3-ActCode","code":"IMP","display":"inpatient encounter"},"type":[{"coding":[{"system":"http://snomed.info/sct","code":"8715000"}]}],"subject":{"reference":"Patient/9ddea16c-55d3-4dda-a1d8-a256fbff0b64"},"period":{"start":"2026-12-01T00:00:00.000+00:00","end":"2026-12-31T23:59:00.000+00:00"},"length":{"value":30,"unit":"days"},"location":[{"location":{"reference":"Location/e1e12abb-15bb-4d85-8329-d784311c0c3f"},"period":{"start":"2026-12-01T05:00:00.000+00:00","end":"2026-12-15T23:59:00.000+00:00"}}]},"request":{"method":"PUT","url":"Encounter/e01e17a0-af38-4a43-896a-c1b83eb7d419"}},{"fullUrl":"Bundle/612e6f2702c62a011f2f0db5","resource":{"resourceType":"Bundle","id":"612e6f2702c62a011f2f0db5","type":"transaction","entry":[{"fullUrl":"https://madie.cms.gov/Patient/9ddea16c-55d3-4dda-a1d8-a256fbff0b64","resource":{"resourceType":"Patient","id":"9ddea16c-55d3-4dda-a1d8-a256fbff0b64","meta":{"profile":["http://hl7.org/fhir/us/qicore/StructureDefinition/qicore-patient"]},"text":{"status":"generated","div":"<div xmlns=\"http://www.w3.org/1999/xhtml\"><div class=\"hapiHeaderText\">MedRsnLDUHVFP1MinAFAnesEnds1DayAFICU <b>NUMERPASS </b></div><table class=\"hapiPropertyTable\"><tbody><tr><td>Identifier</td><td>c46ac45885afaf33533a822506cc9d0e</td></tr><tr><td>Date of birth</td><td><span>03 March 1974</span></td></tr></tbody></table></div>"},"extension":[{"url":"http://hl7.org/fhir/us/core/StructureDefinition/us-core-race","extension":[{"url":"ombCategory","valueCoding":{"system":"urn:oid:2.16.840.1.113883.6.238","code":"1002-5","display":"American Indian or Alaska Native","userSelected":true}},{"url":"text","valueString":"American Indian or Alaska Native"}]},{"url":"http://hl7.org/fhir/us/core/StructureDefinition/us-core-ethnicity","extension":[{"url":"ombCategory","valueCoding":{"system":"urn:oid:2.16.840.1.113883.6.238","code":"2135-2","display":"Hispanic or Latino","userSelected":true}},{"url":"text","valueString":"Hispanic or Latino"}]}],"identifier":[{"type":{"coding":[{"system":"http://terminology.hl7.org/CodeSystem/v2-0203","code":"MR"}]},"system":"https://bonnie-fhir.healthit.gov/","value":"612e6f2702c62a011f2f0db5"}],"active":true,"name":[{"use":"usual","family":"NUMERPass","given":["MedRsnLDUHVFP1MinAFAnesEnds1DayAFICU"]}],"gender":"female","birthDate":"1975-03-03"},"request":{"method":"PUT","url":"Patient/9ddea16c-55d3-4dda-a1d8-a256fbff0b64"}},{"fullUrl":"https://madie.cms.gov/Encounter/e01e17a0-af38-4a43-896a-c1b83eb7d419","resource":{"resourceType":"Encounter","id":"e01e17a0-af38-4a43-896a-c1b83eb7d419","meta":{"profile":["http://hl7.org/fhir/us/qicore/StructureDefinition/qicore-encounter"]},"status":"finished","class":{"system":"http://terminology.hl7.org/CodeSystem/v3-ActCode","code":"IMP","display":"inpatient encounter"},"type":[{"coding":[{"system":"http://snomed.info/sct","code":"8715000"}]}],"subject":{"reference":"Patient/9ddea16c-55d3-4dda-a1d8-a256fbff0b64"},"period":{"start":"2026-12-01T00:00:00.000+00:00","end":"2026-12-31T23:59:00.000+00:00"},"length":{"value":30,"unit":"days"},"location":[{"location":{"reference":"Location/e1e12abb-15bb-4d85-8329-d784311c0c3f"},"period":{"start":"2026-12-01T05:00:00.000+00:00","end":"2026-12-15T23:59:00.000+00:00"}}]},"request":{"method":"PUT","url":"Encounter/e01e17a0-af38-4a43-896a-c1b83eb7d419"}},{"fullUrl":"https://madie.cms.gov/Coverage/1b1ceef1-9e16-4f08-9098-e73114e2339d","resource":{"resourceType":"Coverage","id":"1b1ceef1-9e16-4f08-9098-e73114e2339d","status":"active","beneficiary":{"reference":"Patient/9ddea16c-55d3-4dda-a1d8-a256fbff0b64"},"period":{"start":"1975-03-03T08:00:00.000+00:00"},"payor":[{"reference":"Organization/a519c76c-240d-4a24-a6cb-c100e8494b22"}]},"request":{"method":"PUT","url":"Coverage/1b1ceef1-9e16-4f08-9098-e73114e2339d"}},{"fullUrl":"https://madie.cms.gov/MedicationAdministration/7e9e7846-712d-43db-a484-3141bc59921f","resource":{"resourceType":"MedicationAdministration","id":"7e9e7846-712d-43db-a484-3141bc59921f","meta":{"profile":["http://hl7.org/fhir/us/qicore/StructureDefinition/qicore-medicationadministrationnotdone"]},"extension":[{"url":"http://hl7.org/fhir/us/qicore/StructureDefinition/qicore-recorded","valueDateTime":"2026-12-02T15:11:00.000+00:00"}],"status":"not-done","statusReason":[{"coding":[{"system":"http://snomed.info/sct","code":"183932001","display":"Procedure contraindicated (situation)"}]}],"medicationCodeableConcept":{"coding":[{"system":"http://www.nlm.nih.gov/research/umls/rxnorm","code":"854228"}]},"subject":{"reference":"Patient/9ddea16c-55d3-4dda-a1d8-a256fbff0b64"},"effectivePeriod":{"start":"2026-12-02T15:11:00.000+00:00"}},"request":{"method":"PUT","url":"MedicationAdministration/7e9e7846-712d-43db-a484-3141bc59921f"}},{"fullUrl":"https://madie.cms.gov/Procedure/eca08c22-27c7-4aa4-8745-eb33d358499e","resource":{"resourceType":"Procedure","id":"eca08c22-27c7-4aa4-8745-eb33d358499e","meta":{"profile":["http://hl7.org/fhir/us/qicore/StructureDefinition/qicore-procedure"]},"extension":[{"url":"http://hl7.org/fhir/us/qicore/StructureDefinition/qicore-recorded","valueDateTime":"2013-12-04T13:35:00.000+00:00"}],"status":"completed","code":{"coding":[{"system":"http://snomed.info/sct","code":"18946005"}]},"subject":{"reference":"Patient/9ddea16c-55d3-4dda-a1d8-a256fbff0b64"},"performedPeriod":{"start":"2026-12-02T10:59:00.000+00:00","end":"2026-12-02T15:10:00.000+00:00"}},"request":{"method":"PUT","url":"Procedure/eca08c22-27c7-4aa4-8745-eb33d358499e"}},{"fullUrl":"https://madie.cms.gov/Location/e1e12abb-15bb-4d85-8329-d784311c0c3f","resource":{"resourceType":"Location","id":"e1e12abb-15bb-4d85-8329-d784311c0c3f","meta":{"profile":["http://hl7.org/fhir/us/qicore/StructureDefinition/qicore-location"]},"identifier":[{"use":"usual","system":"http://exampleoflocation.com","value":"B1-S.F2"}],"name":"Medical Surgical East, first floor","type":[{"coding":[{"system":"https://www.cdc.gov/nhsn/cdaportal/terminology/codesystem/hsloc.html","code":"1025-6","display":"Trauma Critical Care","userSelected":true}]}]},"request":{"method":"PUT","url":"Location/e1e12abb-15bb-4d85-8329-d784311c0c3f"}},{"fullUrl":"https://madie.cms.gov/Procedure/1219f200-84b8-4833-ab95-3ae2dd715bc2","resource":{"resourceType":"Procedure","id":"1219f200-84b8-4833-ab95-3ae2dd715bc2","meta":{"profile":["http://hl7.org/fhir/us/qicore/StructureDefinition/qicore-procedurenotdone"]},"extension":[{"url":"http://hl7.org/fhir/us/qicore/StructureDefinition/qicore-recorded","valueDateTime":"2026-12-02T15:11:00.000+00:00"}],"status":"not-done","statusReason":{"coding":[{"system":"http://snomed.info/sct","code":"183932001","display":"Procedure contraindicated (situation)","userSelected":true}]},"code":{"coding":[{"system":"http://snomed.info/sct","code":"442410008","display":"Application of venous foot pump (procedure)","userSelected":true}]},"subject":{"reference":"Patient/9ddea16c-55d3-4dda-a1d8-a256fbff0b64"},"_performedDateTime":{"extension":[{"url":"http://hl7.org/fhir/StructureDefinition/data-absent-reason","valueCode":"not-performed"}]}},"request":{"method":"PUT","url":"Procedure/1219f200-84b8-4833-ab95-3ae2dd715bc2"}},{"fullUrl":"https://madie.cms.gov/Organization/a519c76c-240d-4a24-a6cb-c100e8494b22","resource":{"resourceType":"Organization","id":"a519c76c-240d-4a24-a6cb-c100e8494b22","meta":{"profile":["http://hl7.org/fhir/us/qicore/StructureDefinition/qicore-organization"]},"identifier":[{"use":"temp","system":"urn:oid:2.16.840.1.113883.4.4","value":"21-3259825"}],"active":true,"type":[{"coding":[{"system":"http://terminology.hl7.org/CodeSystem/organization-type","code":"pay","display":"Payer"}]}],"name":"Blue Cross Blue Shield of Texas","telecom":[{"system":"phone","value":"(+1) 972-766-6900"}],"address":[{"use":"billing","type":"postal","line":["P.O. Box 660044"],"city":"Dallas","state":"TX","postalCode":"75266-0044","country":"USA"}]},"request":{"method":"PUT","url":"Organization/a519c76c-240d-4a24-a6cb-c100e8494b22"}},{"fullUrl":"https://madie.cms.gov/Practitioner/07d4b2fa-5c5b-4548-9177-d875537e50ae","resource":{"resourceType":"Practitioner","id":"07d4b2fa-5c5b-4548-9177-d875537e50ae","identifier":[{"system":"http://hl7.org/fhir/sid/us-npi","value":"123456"}],"name":[{"family":"Evil","prefix":["Dr"]}]},"request":{"method":"PUT","url":"Practitioner/07d4b2fa-5c5b-4548-9177-d875537e50ae"}},{"fullUrl":"https://madie.cms.gov/MeasureReport/abd9b34c-cf76-4aa4-9424-b8fa7405ac86","resource":{"resourceType":"MeasureReport","id":"abd9b34c-cf76-4aa4-9424-b8fa7405ac86","meta":{"profile":["http://hl7.org/fhir/us/cqfmeasures/StructureDefinition/test-case-cqfm"]},"contained":[{"resourceType":"Parameters","id":"bfc31a38-4dc4-41c9-a030-0f62e65e0273-parameters","parameter":[{"name":"subject","valueString":"9ddea16c-55d3-4dda-a1d8-a256fbff0b64"}]}],"extension":[{"url":"http://hl7.org/fhir/StructureDefinition/cqf-inputParameters","valueReference":{"reference":"#bfc31a38-4dc4-41c9-a030-0f62e65e0273-parameters"}},{"url":"http://hl7.org/fhir/us/cqfmeasures/StructureDefinition/cqfm-testCaseDescription","valueMarkdown":"Patient has a documented reason for no LDUH and a medical reason for no IPC 1 min after anesthesia end (and anesthesia ends 1 day after ICU admission). This case will also satisfy no VTE prophylaxis due to medical reason <=1 day after ICU.start\n"}],"modifierExtension":[{"url":"http://hl7.org/fhir/us/cqfmeasures/StructureDefinition/cqfm-isTestCase","valueBoolean":true}],"status":"complete","type":"individual","measure":"https://madie.cms.gov/Measure/CMS190VTEProphylaxisICUFHIR","period":{"start":"2026-01-01","end":"2026-12-31"},"group":[{"id":"Group_1","population":[{"id":"InitialPopulation_1","code":{"coding":[{"system":"http://terminology.hl7.org/CodeSystem/measure-population","code":"initial-population","display":"Initial Population"}]},"count":1},{"id":"Denominator_1","code":{"coding":[{"system":"http://terminology.hl7.org/CodeSystem/measure-population","code":"denominator","display":"Denominator"}]},"count":1},{"id":"DenominatorExclusion_1","code":{"coding":[{"system":"http://terminology.hl7.org/CodeSystem/measure-population","code":"denominator-exclusion","display":"Denominator Exclusion"}]},"count":0},{"id":"Numerator_1","code":{"coding":[{"system":"http://terminology.hl7.org/CodeSystem/measure-population","code":"numerator","display":"Numerator"}]},"count":1},{"id":"DenominatorException_1","code":{"coding":[{"system":"http://terminology.hl7.org/CodeSystem/measure-population","code":"denominator-exception","display":"Denominator Exception"}]},"count":0}],"measureScore":{"value":0.0}}],"evaluatedResource":[{"reference":"Patient/9ddea16c-55d3-4dda-a1d8-a256fbff0b64"},{"reference":"Encounter/e01e17a0-af38-4a43-896a-c1b83eb7d419"},{"reference":"Coverage/1b1ceef1-9e16-4f08-9098-e73114e2339d"},{"reference":"MedicationAdministration/7e9e7846-712d-43db-a484-3141bc59921f"},{"reference":"Procedure/eca08c22-27c7-4aa4-8745-eb33d358499e"},{"reference":"Location/e1e12abb-15bb-4d85-8329-d784311c0c3f"},{"reference":"Procedure/1219f200-84b8-4833-ab95-3ae2dd715bc2"},{"reference":"Organization/a519c76c-240d-4a24-a6cb-c100e8494b22"},{"reference":"Practitioner/07d4b2fa-5c5b-4548-9177-d875537e50ae"}]},"request":{"method":"PUT","url":"MeasureReport/abd9b34c-cf76-4aa4-9424-b8fa7405ac86"}}]},"request":{"method":"PUT","url":"Bundle/612e6f2702c62a011f2f0db5"}},{"fullUrl":"Procedure/1219f200-84b8-4833-ab95-3ae2dd715bc2","resource":{"resourceType":"Procedure","id":"1219f200-84b8-4833-ab95-3ae2dd715bc2","meta":{"profile":["http://hl7.org/fhir/us/qicore/StructureDefinition/qicore-procedurenotdone"]},"extension":[{"url":"http://hl7.org/fhir/us/qicore/StructureDefinition/qicore-recorded","valueDateTime":"2026-12-02T15:11:00.000+00:00"}],"status":"not-done","statusReason":{"coding":[{"system":"http://snomed.info/sct","code":"183932001","display":"Procedure contraindicated (situation)","userSelected":true}]},"code":{"coding":[{"system":"http://snomed.info/sct","code":"442410008","display":"Application of venous foot pump (procedure)","userSelected":true}]},"subject":{"reference":"Patient/9ddea16c-55d3-4dda-a1d8-a256fbff0b64"},"_performedDateTime":{"extension":[{"url":"http://hl7.org/fhir/StructureDefinition/data-absent-reason","valueCode":"not-performed"}]}},"request":{"method":"PUT","url":"Procedure/1219f200-84b8-4833-ab95-3ae2dd715bc2"}},{"fullUrl":"Patient/9ddea16c-55d3-4dda-a1d8-a256fbff0b64","resource":{"resourceType":"Patient","id":"9ddea16c-55d3-4dda-a1d8-a256fbff0b64","meta":{"profile":["http://hl7.org/fhir/us/qicore/StructureDefinition/qicore-patient"]},"text":{"status":"generated","div":"<div xmlns=\"http://www.w3.org/1999/xhtml\"><div class=\"hapiHeaderText\">MedRsnLDUHVFP1MinAFAnesEnds1DayAFICU <b>NUMERPASS </b></div><table class=\"hapiPropertyTable\"><tbody><tr><td>Identifier</td><td>c46ac45885afaf33533a822506cc9d0e</td></tr><tr><td>Date of birth</td><td><span>03 March 1974</span></td></tr></tbody></table></div>"},"extension":[{"url":"http://hl7.org/fhir/us/core/StructureDefinition/us-core-race","extension":[{"url":"ombCategory","valueCoding":{"system":"urn:oid:2.16.840.1.113883.6.238","code":"1002-5","display":"American Indian or Alaska Native","userSelected":true}},{"url":"text","valueString":"American Indian or Alaska Native"}]},{"url":"http://hl7.org/fhir/us/core/StructureDefinition/us-core-ethnicity","extension":[{"url":"ombCategory","valueCoding":{"system":"urn:oid:2.16.840.1.113883.6.238","code":"2135-2","display":"Hispanic or Latino","userSelected":true}},{"url":"text","valueString":"Hispanic or Latino"}]}],"identifier":[{"type":{"coding":[{"system":"http://terminology.hl7.org/CodeSystem/v2-0203","code":"MR"}]},"system":"https://bonnie-fhir.healthit.gov/","value":"612e6f2702c62a011f2f0db5"}],"active":true,"name":[{"use":"usual","family":"NUMERPass","given":["MedRsnLDUHVFP1MinAFAnesEnds1DayAFICU"]}],"gender":"female","birthDate":"1975-03-03"},"request":{"method":"PUT","url":"Patient/9ddea16c-55d3-4dda-a1d8-a256fbff0b64"}},{"fullUrl":"MedicationAdministration/7e9e7846-712d-43db-a484-3141bc59921f","resource":{"resourceType":"MedicationAdministration","id":"7e9e7846-712d-43db-a484-3141bc59921f","meta":{"profile":["http://hl7.org/fhir/us/qicore/StructureDefinition/qicore-medicationadministrationnotdone"]},"extension":[{"url":"http://hl7.org/fhir/us/qicore/StructureDefinition/qicore-recorded","valueDateTime":"2026-12-02T15:11:00.000+00:00"}],"status":"not-done","statusReason":[{"coding":[{"system":"http://snomed.info/sct","code":"183932001","display":"Procedure contraindicated (situation)"}]}],"medicationCodeableConcept":{"coding":[{"system":"http://www.nlm.nih.gov/research/umls/rxnorm","code":"854228"}]},"subject":{"reference":"Patient/9ddea16c-55d3-4dda-a1d8-a256fbff0b64"},"effectivePeriod":{"start":"2026-12-02T15:11:00.000+00:00"}},"request":{"method":"PUT","url":"MedicationAdministration/7e9e7846-712d-43db-a484-3141bc59921f"}},{"fullUrl":"MeasureReport/abd9b34c-cf76-4aa4-9424-b8fa7405ac86","resource":{"resourceType":"MeasureReport","id":"abd9b34c-cf76-4aa4-9424-b8fa7405ac86","meta":{"profile":["http://hl7.org/fhir/us/cqfmeasures/StructureDefinition/test-case-cqfm"]},"contained":[{"resourceType":"Parameters","id":"bfc31a38-4dc4-41c9-a030-0f62e65e0273-parameters","parameter":[{"name":"subject","valueString":"9ddea16c-55d3-4dda-a1d8-a256fbff0b64"}]}],"extension":[{"url":"http://hl7.org/fhir/StructureDefinition/cqf-inputParameters","valueReference":{"reference":"#bfc31a38-4dc4-41c9-a030-0f62e65e0273-parameters"}},{"url":"http://hl7.org/fhir/us/cqfmeasures/StructureDefinition/cqfm-testCaseDescription","valueMarkdown":"Patient has a documented reason for no LDUH and a medical reason for no IPC 1 min after anesthesia end (and anesthesia ends 1 day after ICU admission). This case will also satisfy no VTE prophylaxis due to medical reason <=1 day after ICU.start\n"}],"modifierExtension":[{"url":"http://hl7.org/fhir/us/cqfmeasures/StructureDefinition/cqfm-isTestCase","valueBoolean":true}],"status":"complete","type":"individual","measure":"https://madie.cms.gov/Measure/CMS190VTEProphylaxisICUFHIR","period":{"start":"2026-01-01","end":"2026-12-31"},"group":[{"id":"Group_1","population":[{"id":"InitialPopulation_1","code":{"coding":[{"system":"http://terminology.hl7.org/CodeSystem/measure-population","code":"initial-population","display":"Initial Population"}]},"count":1},{"id":"Denominator_1","code":{"coding":[{"system":"http://terminology.hl7.org/CodeSystem/measure-population","code":"denominator","display":"Denominator"}]},"count":1},{"id":"DenominatorExclusion_1","code":{"coding":[{"system":"http://terminology.hl7.org/CodeSystem/measure-population","code":"denominator-exclusion","display":"Denominator Exclusion"}]},"count":0},{"id":"Numerator_1","code":{"coding":[{"system":"http://terminology.hl7.org/CodeSystem/measure-population","code":"numerator","display":"Numerator"}]},"count":1},{"id":"DenominatorException_1","code":{"coding":[{"system":"http://terminology.hl7.org/CodeSystem/measure-population","code":"denominator-exception","display":"Denominator Exception"}]},"count":0}],"measureScore":{"value":0.0}}],"evaluatedResource":[{"reference":"Patient/9ddea16c-55d3-4dda-a1d8-a256fbff0b64"},{"reference":"Encounter/e01e17a0-af38-4a43-896a-c1b83eb7d419"},{"reference":"Coverage/1b1ceef1-9e16-4f08-9098-e73114e2339d"},{"reference":"MedicationAdministration/7e9e7846-712d-43db-a484-3141bc59921f"},{"reference":"Procedure/eca08c22-27c7-4aa4-8745-eb33d358499e"},{"reference":"Location/e1e12abb-15bb-4d85-8329-d784311c0c3f"},{"reference":"Procedure/1219f200-84b8-4833-ab95-3ae2dd715bc2"},{"reference":"Organization/a519c76c-240d-4a24-a6cb-c100e8494b22"},{"reference":"Practitioner/07d4b2fa-5c5b-4548-9177-d875537e50ae"}]},"request":{"method":"PUT","url":"MeasureReport/abd9b34c-cf76-4aa4-9424-b8fa7405ac86"}},{"fullUrl":"Location/e1e12abb-15bb-4d85-8329-d784311c0c3f","resource":{"resourceType":"Location","id":"e1e12abb-15bb-4d85-8329-d784311c0c3f","meta":{"profile":["http://hl7.org/fhir/us/qicore/StructureDefinition/qicore-location"]},"identifier":[{"use":"usual","system":"http://exampleoflocation.com","value":"B1-S.F2"}],"name":"Medical Surgical East, first floor","type":[{"coding":[{"system":"https://www.cdc.gov/nhsn/cdaportal/terminology/codesystem/hsloc.html","code":"1025-6","display":"Trauma Critical Care","userSelected":true}]}]},"request":{"method":"PUT","url":"Location/e1e12abb-15bb-4d85-8329-d784311c0c3f"}},{"fullUrl":"Coverage/1b1ceef1-9e16-4f08-9098-e73114e2339d","resource":{"resourceType":"Coverage","id":"1b1ceef1-9e16-4f08-9098-e73114e2339d","status":"active","beneficiary":{"reference":"Patient/9ddea16c-55d3-4dda-a1d8-a256fbff0b64"},"period":{"start":"1975-03-03T08:00:00.000+00:00"},"payor":[{"reference":"Organization/a519c76c-240d-4a24-a6cb-c100e8494b22"}]},"request":{"method":"PUT","url":"Coverage/1b1ceef1-9e16-4f08-9098-e73114e2339d"}},{"fullUrl":"Organization/a519c76c-240d-4a24-a6cb-c100e8494b22","resource":{"resourceType":"Organization","id":"a519c76c-240d-4a24-a6cb-c100e8494b22","meta":{"profile":["http://hl7.org/fhir/us/qicore/StructureDefinition/qicore-organization"]},"identifier":[{"use":"temp","system":"urn:oid:2.16.840.1.113883.4.4","value":"21-3259825"}],"active":true,"type":[{"coding":[{"system":"http://terminology.hl7.org/CodeSystem/organization-type","code":"pay","display":"Payer"}]}],"name":"Blue Cross Blue Shield of Texas","telecom":[{"system":"phone","value":"(+1) 972-766-6900"}],"address":[{"use":"billing","type":"postal","line":["P.O. Box 660044"],"city":"Dallas","state":"TX","postalCode":"75266-0044","country":"USA"}]},"request":{"method":"PUT","url":"Organization/a519c76c-240d-4a24-a6cb-c100e8494b22"}},{"fullUrl":"Procedure/eca08c22-27c7-4aa4-8745-eb33d358499e","resource":{"resourceType":"Procedure","id":"eca08c22-27c7-4aa4-8745-eb33d358499e","meta":{"profile":["http://hl7.org/fhir/us/qicore/StructureDefinition/qicore-procedure"]},"extension":[{"url":"http://hl7.org/fhir/us/qicore/StructureDefinition/qicore-recorded","valueDateTime":"2013-12-04T13:35:00.000+00:00"}],"status":"completed","code":{"coding":[{"system":"http://snomed.info/sct","code":"18946005"}]},"subject":{"reference":"Patient/9ddea16c-55d3-4dda-a1d8-a256fbff0b64"},"performedPeriod":{"start":"2026-12-02T10:59:00.000+00:00","end":"2026-12-02T15:10:00.000+00:00"}},"request":{"method":"PUT","url":"Procedure/eca08c22-27c7-4aa4-8745-eb33d358499e"}},{"fullUrl":"Practitioner/07d4b2fa-5c5b-4548-9177-d875537e50ae","resource":{"resourceType":"Practitioner","id":"07d4b2fa-5c5b-4548-9177-d875537e50ae","identifier":[{"system":"http://hl7.org/fhir/sid/us-npi","value":"123456"}],"name":[{"family":"Evil","prefix":["Dr"]}]},"request":{"method":"PUT","url":"Practitioner/07d4b2fa-5c5b-4548-9177-d875537e50ae"}}]}