{"resourceType":"Bundle","id":"tests-a0695e1d-fb04-4305-8cf6-904a8a237ebd-bundle","type":"transaction","entry":[{"resource":{"resourceType":"Bundle","id":"612e6f1b02c62a011f2f0ba0","type":"transaction","entry":[{"fullUrl":"https://madie.cms.gov/Patient/a0695e1d-fb04-4305-8cf6-904a8a237ebd","resource":{"resourceType":"Patient","id":"a0695e1d-fb04-4305-8cf6-904a8a237ebd","meta":{"profile":["http://hl7.org/fhir/us/qicore/StructureDefinition/qicore-patient"]},"text":{"status":"generated","div":"<div xmlns=\"http://www.w3.org/1999/xhtml\"><div class=\"hapiHeaderText\">ICUEnds1MinAfterEncEnd <b>DENOMFAIL </b></div><table class=\"hapiPropertyTable\"><tbody><tr><td>Identifier</td><td>009b2b3795c87569355f211b9e8d5ef5</td></tr><tr><td>Date of birth</td><td><span>03 March 1974</span></td></tr></tbody></table></div>"},"extension":[{"url":"http://hl7.org/fhir/us/core/StructureDefinition/us-core-race","extension":[{"url":"ombCategory","valueCoding":{"system":"urn:oid:2.16.840.1.113883.6.238","code":"1002-5","display":"American Indian or Alaska Native","userSelected":true}},{"url":"text","valueString":"American Indian or Alaska Native"}]},{"url":"http://hl7.org/fhir/us/core/StructureDefinition/us-core-ethnicity","extension":[{"url":"ombCategory","valueCoding":{"system":"urn:oid:2.16.840.1.113883.6.238","code":"2186-5","display":"Not Hispanic or Latino","userSelected":true}},{"url":"text","valueString":"Not Hispanic or Latino"}]}],"identifier":[{"type":{"coding":[{"system":"http://terminology.hl7.org/CodeSystem/v2-0203","code":"MR"}]},"system":"https://bonnie-fhir.healthit.gov/","value":"612e6f1b02c62a011f2f0ba0"}],"active":true,"name":[{"use":"usual","family":"DENOMFail","given":["ICUEnds1MinAfterEncEnd"]}],"gender":"female","birthDate":"1975-03-03"},"request":{"method":"PUT","url":"Patient/a0695e1d-fb04-4305-8cf6-904a8a237ebd"}},{"fullUrl":"https://madie.cms.gov/Encounter/6b211f8e-bfc0-44a5-b50c-758980ff5b9a","resource":{"resourceType":"Encounter","id":"6b211f8e-bfc0-44a5-b50c-758980ff5b9a","meta":{"profile":["http://hl7.org/fhir/us/qicore/StructureDefinition/qicore-encounter"]},"status":"finished","class":{"system":"http://terminology.hl7.org/CodeSystem/v3-ActCode","code":"IMP","display":"inpatient encounter"},"type":[{"coding":[{"system":"http://snomed.info/sct","code":"8715000"}]}],"subject":{"reference":"Patient/a0695e1d-fb04-4305-8cf6-904a8a237ebd"},"period":{"start":"2026-12-01T01:05:00.000+00:00","end":"2026-12-31T22:59:00.000+00:00"},"length":{"value":30.0,"unit":"days"},"location":[{"location":{"reference":"Location/intensive-care-unit-108a"},"period":{"start":"2026-12-30T23:59:00.000+00:00","end":"2026-12-31T23:00:00.000+00:00"}}]},"request":{"method":"PUT","url":"Encounter/6b211f8e-bfc0-44a5-b50c-758980ff5b9a"}},{"fullUrl":"https://madie.cms.gov/Location/44036645-ae47-416a-b30f-d4599f8566d9","resource":{"resourceType":"Location","id":"44036645-ae47-416a-b30f-d4599f8566d9","meta":{"profile":["http://hl7.org/fhir/us/qicore/StructureDefinition/qicore-location"]},"identifier":[{"use":"usual","system":"http://exampleoflocation.com","value":"B1-S.F2"}],"name":"Medical Surgical East, first floor","type":[{"coding":[{"system":"https://www.cdc.gov/nhsn/cdaportal/terminology/codesystem/hsloc.html","code":"1025-6","display":"Trauma Critical Care","userSelected":true}]}]},"request":{"method":"PUT","url":"Location/44036645-ae47-416a-b30f-d4599f8566d9"}},{"fullUrl":"https://madie.cms.gov/Coverage/5eb0cbe1-b8b2-4e44-9052-b25c43edd637","resource":{"resourceType":"Coverage","id":"5eb0cbe1-b8b2-4e44-9052-b25c43edd637","status":"active","beneficiary":{"reference":"Patient/a0695e1d-fb04-4305-8cf6-904a8a237ebd"},"period":{"start":"1975-03-03T08:00:00.000+00:00"},"payor":[{"reference":"Organization/83974198-f513-4897-9fa7-02bcc58b7282"}]},"request":{"method":"PUT","url":"Coverage/5eb0cbe1-b8b2-4e44-9052-b25c43edd637"}},{"fullUrl":"https://madie.cms.gov/Organization/83974198-f513-4897-9fa7-02bcc58b7282","resource":{"resourceType":"Organization","id":"83974198-f513-4897-9fa7-02bcc58b7282","meta":{"profile":["http://hl7.org/fhir/us/qicore/StructureDefinition/qicore-organization"]},"identifier":[{"use":"temp","system":"urn:oid:2.16.840.1.113883.4.4","value":"21-3259825"}],"active":true,"type":[{"coding":[{"system":"http://terminology.hl7.org/CodeSystem/organization-type","code":"pay","display":"Payer"}]}],"name":"Blue Cross Blue Shield of Texas","telecom":[{"system":"phone","value":"(+1) 972-766-6900"}],"address":[{"use":"billing","type":"postal","line":["P.O. Box 660044"],"city":"Dallas","state":"TX","postalCode":"75266-0044","country":"USA"}]},"request":{"method":"PUT","url":"Organization/83974198-f513-4897-9fa7-02bcc58b7282"}},{"fullUrl":"https://madie.cms.gov/Practitioner/4dac074b-8baa-4536-9bdb-d58cbf809888","resource":{"resourceType":"Practitioner","id":"4dac074b-8baa-4536-9bdb-d58cbf809888","identifier":[{"system":"http://hl7.org/fhir/sid/us-npi","value":"123456"}],"name":[{"family":"Evil","prefix":["Dr"]}]},"request":{"method":"PUT","url":"Practitioner/4dac074b-8baa-4536-9bdb-d58cbf809888"}},{"fullUrl":"https://madie.cms.gov/MeasureReport/564304d6-7da7-4a4f-b9f5-2d898dfff85f","resource":{"resourceType":"MeasureReport","id":"564304d6-7da7-4a4f-b9f5-2d898dfff85f","meta":{"profile":["http://hl7.org/fhir/us/cqfmeasures/StructureDefinition/test-case-cqfm"]},"contained":[{"resourceType":"Parameters","id":"508a759d-abab-4251-941f-e00cd8d7461b-parameters","parameter":[{"name":"subject","valueString":"a0695e1d-fb04-4305-8cf6-904a8a237ebd"}]}],"extension":[{"url":"http://hl7.org/fhir/StructureDefinition/cqf-inputParameters","valueReference":{"reference":"#508a759d-abab-4251-941f-e00cd8d7461b-parameters"}},{"url":"http://hl7.org/fhir/us/cqfmeasures/StructureDefinition/cqfm-testCaseDescription","valueMarkdown":"ICU ends 1 min after discharge\n"}],"modifierExtension":[{"url":"http://hl7.org/fhir/us/cqfmeasures/StructureDefinition/cqfm-isTestCase","valueBoolean":true}],"status":"complete","type":"individual","measure":"https://madie.cms.gov/Measure/CMS190VTEProphylaxisICUFHIR","period":{"start":"2026-01-01","end":"2026-12-31"},"group":[{"id":"Group_1","population":[{"id":"InitialPopulation_1","code":{"coding":[{"system":"http://terminology.hl7.org/CodeSystem/measure-population","code":"initial-population","display":"Initial Population"}]},"count":1},{"id":"Denominator_1","code":{"coding":[{"system":"http://terminology.hl7.org/CodeSystem/measure-population","code":"denominator","display":"Denominator"}]},"count":0},{"id":"DenominatorExclusion_1","code":{"coding":[{"system":"http://terminology.hl7.org/CodeSystem/measure-population","code":"denominator-exclusion","display":"Denominator Exclusion"}]},"count":0},{"id":"Numerator_1","code":{"coding":[{"system":"http://terminology.hl7.org/CodeSystem/measure-population","code":"numerator","display":"Numerator"}]},"count":0},{"id":"DenominatorException_1","code":{"coding":[{"system":"http://terminology.hl7.org/CodeSystem/measure-population","code":"denominator-exception","display":"Denominator Exception"}]},"count":0}],"measureScore":{"value":0.0}}],"evaluatedResource":[{"reference":"Patient/a0695e1d-fb04-4305-8cf6-904a8a237ebd"},{"reference":"Encounter/6b211f8e-bfc0-44a5-b50c-758980ff5b9a"},{"reference":"Location/44036645-ae47-416a-b30f-d4599f8566d9"},{"reference":"Coverage/5eb0cbe1-b8b2-4e44-9052-b25c43edd637"},{"reference":"Organization/83974198-f513-4897-9fa7-02bcc58b7282"},{"reference":"Practitioner/4dac074b-8baa-4536-9bdb-d58cbf809888"}]},"request":{"method":"PUT","url":"MeasureReport/564304d6-7da7-4a4f-b9f5-2d898dfff85f"}}]},"request":{"method":"PUT","url":"Bundle/612e6f1b02c62a011f2f0ba0"}},{"resource":{"resourceType":"Practitioner","id":"4dac074b-8baa-4536-9bdb-d58cbf809888","identifier":[{"system":"http://hl7.org/fhir/sid/us-npi","value":"123456"}],"name":[{"family":"Evil","prefix":["Dr"]}]},"request":{"method":"PUT","url":"Practitioner/4dac074b-8baa-4536-9bdb-d58cbf809888"}},{"resource":{"resourceType":"Coverage","id":"5eb0cbe1-b8b2-4e44-9052-b25c43edd637","status":"active","beneficiary":{"reference":"Patient/a0695e1d-fb04-4305-8cf6-904a8a237ebd"},"period":{"start":"1975-03-03T08:00:00.000+00:00"},"payor":[{"reference":"Organization/83974198-f513-4897-9fa7-02bcc58b7282"}]},"request":{"method":"PUT","url":"Coverage/5eb0cbe1-b8b2-4e44-9052-b25c43edd637"}},{"resource":{"resourceType":"Patient","id":"a0695e1d-fb04-4305-8cf6-904a8a237ebd","meta":{"profile":["http://hl7.org/fhir/us/qicore/StructureDefinition/qicore-patient"]},"text":{"status":"generated","div":"<div xmlns=\"http://www.w3.org/1999/xhtml\"><div class=\"hapiHeaderText\">ICUEnds1MinAfterEncEnd <b>DENOMFAIL </b></div><table class=\"hapiPropertyTable\"><tbody><tr><td>Identifier</td><td>009b2b3795c87569355f211b9e8d5ef5</td></tr><tr><td>Date of birth</td><td><span>03 March 1974</span></td></tr></tbody></table></div>"},"extension":[{"url":"http://hl7.org/fhir/us/core/StructureDefinition/us-core-race","extension":[{"url":"ombCategory","valueCoding":{"system":"urn:oid:2.16.840.1.113883.6.238","code":"1002-5","display":"American Indian or Alaska Native","userSelected":true}},{"url":"text","valueString":"American Indian or Alaska Native"}]},{"url":"http://hl7.org/fhir/us/core/StructureDefinition/us-core-ethnicity","extension":[{"url":"ombCategory","valueCoding":{"system":"urn:oid:2.16.840.1.113883.6.238","code":"2186-5","display":"Not Hispanic or Latino","userSelected":true}},{"url":"text","valueString":"Not Hispanic or Latino"}]}],"identifier":[{"type":{"coding":[{"system":"http://terminology.hl7.org/CodeSystem/v2-0203","code":"MR"}]},"system":"https://bonnie-fhir.healthit.gov/","value":"612e6f1b02c62a011f2f0ba0"}],"active":true,"name":[{"use":"usual","family":"DENOMFail","given":["ICUEnds1MinAfterEncEnd"]}],"gender":"female","birthDate":"1975-03-03"},"request":{"method":"PUT","url":"Patient/a0695e1d-fb04-4305-8cf6-904a8a237ebd"}},{"resource":{"resourceType":"MeasureReport","id":"564304d6-7da7-4a4f-b9f5-2d898dfff85f","meta":{"profile":["http://hl7.org/fhir/us/cqfmeasures/StructureDefinition/test-case-cqfm"]},"contained":[{"resourceType":"Parameters","id":"508a759d-abab-4251-941f-e00cd8d7461b-parameters","parameter":[{"name":"subject","valueString":"a0695e1d-fb04-4305-8cf6-904a8a237ebd"}]}],"extension":[{"url":"http://hl7.org/fhir/StructureDefinition/cqf-inputParameters","valueReference":{"reference":"#508a759d-abab-4251-941f-e00cd8d7461b-parameters"}},{"url":"http://hl7.org/fhir/us/cqfmeasures/StructureDefinition/cqfm-testCaseDescription","valueMarkdown":"ICU ends 1 min after discharge\n"}],"modifierExtension":[{"url":"http://hl7.org/fhir/us/cqfmeasures/StructureDefinition/cqfm-isTestCase","valueBoolean":true}],"status":"complete","type":"individual","measure":"https://madie.cms.gov/Measure/CMS190VTEProphylaxisICUFHIR","period":{"start":"2026-01-01","end":"2026-12-31"},"group":[{"id":"Group_1","population":[{"id":"InitialPopulation_1","code":{"coding":[{"system":"http://terminology.hl7.org/CodeSystem/measure-population","code":"initial-population","display":"Initial Population"}]},"count":1},{"id":"Denominator_1","code":{"coding":[{"system":"http://terminology.hl7.org/CodeSystem/measure-population","code":"denominator","display":"Denominator"}]},"count":0},{"id":"DenominatorExclusion_1","code":{"coding":[{"system":"http://terminology.hl7.org/CodeSystem/measure-population","code":"denominator-exclusion","display":"Denominator Exclusion"}]},"count":0},{"id":"Numerator_1","code":{"coding":[{"system":"http://terminology.hl7.org/CodeSystem/measure-population","code":"numerator","display":"Numerator"}]},"count":0},{"id":"DenominatorException_1","code":{"coding":[{"system":"http://terminology.hl7.org/CodeSystem/measure-population","code":"denominator-exception","display":"Denominator Exception"}]},"count":0}],"measureScore":{"value":0.0}}],"evaluatedResource":[{"reference":"Patient/a0695e1d-fb04-4305-8cf6-904a8a237ebd"},{"reference":"Encounter/6b211f8e-bfc0-44a5-b50c-758980ff5b9a"},{"reference":"Location/44036645-ae47-416a-b30f-d4599f8566d9"},{"reference":"Coverage/5eb0cbe1-b8b2-4e44-9052-b25c43edd637"},{"reference":"Organization/83974198-f513-4897-9fa7-02bcc58b7282"},{"reference":"Practitioner/4dac074b-8baa-4536-9bdb-d58cbf809888"}]},"request":{"method":"PUT","url":"MeasureReport/564304d6-7da7-4a4f-b9f5-2d898dfff85f"}},{"resource":{"resourceType":"Organization","id":"83974198-f513-4897-9fa7-02bcc58b7282","meta":{"profile":["http://hl7.org/fhir/us/qicore/StructureDefinition/qicore-organization"]},"identifier":[{"use":"temp","system":"urn:oid:2.16.840.1.113883.4.4","value":"21-3259825"}],"active":true,"type":[{"coding":[{"system":"http://terminology.hl7.org/CodeSystem/organization-type","code":"pay","display":"Payer"}]}],"name":"Blue Cross Blue Shield of Texas","telecom":[{"system":"phone","value":"(+1) 972-766-6900"}],"address":[{"use":"billing","type":"postal","line":["P.O. Box 660044"],"city":"Dallas","state":"TX","postalCode":"75266-0044","country":"USA"}]},"request":{"method":"PUT","url":"Organization/83974198-f513-4897-9fa7-02bcc58b7282"}},{"resource":{"resourceType":"Location","id":"44036645-ae47-416a-b30f-d4599f8566d9","meta":{"profile":["http://hl7.org/fhir/us/qicore/StructureDefinition/qicore-location"]},"identifier":[{"use":"usual","system":"http://exampleoflocation.com","value":"B1-S.F2"}],"name":"Medical Surgical East, first floor","type":[{"coding":[{"system":"https://www.cdc.gov/nhsn/cdaportal/terminology/codesystem/hsloc.html","code":"1025-6","display":"Trauma Critical Care","userSelected":true}]}]},"request":{"method":"PUT","url":"Location/44036645-ae47-416a-b30f-d4599f8566d9"}},{"resource":{"resourceType":"Encounter","id":"6b211f8e-bfc0-44a5-b50c-758980ff5b9a","meta":{"profile":["http://hl7.org/fhir/us/qicore/StructureDefinition/qicore-encounter"]},"status":"finished","class":{"system":"http://terminology.hl7.org/CodeSystem/v3-ActCode","code":"IMP","display":"inpatient encounter"},"type":[{"coding":[{"system":"http://snomed.info/sct","code":"8715000"}]}],"subject":{"reference":"Patient/a0695e1d-fb04-4305-8cf6-904a8a237ebd"},"period":{"start":"2026-12-01T01:05:00.000+00:00","end":"2026-12-31T22:59:00.000+00:00"},"length":{"value":30.0,"unit":"days"},"location":[{"location":{"reference":"Location/intensive-care-unit-108a"},"period":{"start":"2026-12-30T23:59:00.000+00:00","end":"2026-12-31T23:00:00.000+00:00"}}]},"request":{"method":"PUT","url":"Encounter/6b211f8e-bfc0-44a5-b50c-758980ff5b9a"}}]}