{"resourceType":"Bundle","id":"tests-a2563ca7-fda7-4cfd-a5cf-a688225749e2-bundle","type":"transaction","entry":[{"fullUrl":"MeasureReport/ecda96ad-ac3f-4bf2-a8db-69d635cad3db","resource":{"resourceType":"MeasureReport","id":"ecda96ad-ac3f-4bf2-a8db-69d635cad3db","meta":{"profile":["http://hl7.org/fhir/us/cqfmeasures/StructureDefinition/test-case-cqfm"]},"contained":[{"resourceType":"Parameters","id":"a5838fce-292d-46ed-a1fc-44d15e562a5b-parameters","parameter":[{"name":"subject","valueString":"a2563ca7-fda7-4cfd-a5cf-a688225749e2"}]}],"extension":[{"url":"http://hl7.org/fhir/StructureDefinition/cqf-inputParameters","valueReference":{"reference":"#a5838fce-292d-46ed-a1fc-44d15e562a5b-parameters"}},{"url":"http://hl7.org/fhir/us/cqfmeasures/StructureDefinition/cqfm-testCaseDescription","valueMarkdown":"oral factor Xa administered after Proc, Proc is 1 day after First ICU\n"}],"modifierExtension":[{"url":"http://hl7.org/fhir/us/cqfmeasures/StructureDefinition/cqfm-isTestCase","valueBoolean":true}],"status":"complete","type":"individual","measure":"https://madie.cms.gov/Measure/CMS190VTEProphylaxisICUFHIR","period":{"start":"2026-01-01","end":"2026-12-31"},"group":[{"id":"Group_1","population":[{"id":"InitialPopulation_1","code":{"coding":[{"system":"http://terminology.hl7.org/CodeSystem/measure-population","code":"initial-population","display":"Initial Population"}]},"count":1},{"id":"Denominator_1","code":{"coding":[{"system":"http://terminology.hl7.org/CodeSystem/measure-population","code":"denominator","display":"Denominator"}]},"count":1},{"id":"DenominatorExclusion_1","code":{"coding":[{"system":"http://terminology.hl7.org/CodeSystem/measure-population","code":"denominator-exclusion","display":"Denominator Exclusion"}]},"count":0},{"id":"Numerator_1","code":{"coding":[{"system":"http://terminology.hl7.org/CodeSystem/measure-population","code":"numerator","display":"Numerator"}]},"count":1},{"id":"DenominatorException_1","code":{"coding":[{"system":"http://terminology.hl7.org/CodeSystem/measure-population","code":"denominator-exception","display":"Denominator Exception"}]},"count":0}],"measureScore":{"value":0.0}}],"evaluatedResource":[{"reference":"Patient/a2563ca7-fda7-4cfd-a5cf-a688225749e2"},{"reference":"Encounter/177afa82-8d54-4048-bac1-a6a1df9fa20a"},{"reference":"Coverage/913bc9a9-bcfe-4b93-a1d9-1fdb55351ba4"},{"reference":"MedicationAdministration/a1530203-e581-47d5-ba44-f683dfc0285e"},{"reference":"Procedure/1c14d640-3288-4bf3-9809-10a06010280a"},{"reference":"Location/c33e0f13-5c97-4fea-8db4-029c1b73ecd6"},{"reference":"Condition/62aaee2c-9b8b-4947-8b1b-f4a1b52e817a"},{"reference":"Organization/46de5e8a-4393-422a-9f5d-15601eefb0a9"},{"reference":"Practitioner/a0f37606-5d4f-4afd-a333-c91b88fd51a3"}]},"request":{"method":"PUT","url":"MeasureReport/ecda96ad-ac3f-4bf2-a8db-69d635cad3db"}},{"fullUrl":"Location/c33e0f13-5c97-4fea-8db4-029c1b73ecd6","resource":{"resourceType":"Location","id":"c33e0f13-5c97-4fea-8db4-029c1b73ecd6","meta":{"profile":["http://hl7.org/fhir/us/qicore/StructureDefinition/qicore-location"]},"identifier":[{"use":"usual","system":"http://exampleoflocation.com","value":"B1-S.F2"}],"name":"Medical Surgical East, first floor","type":[{"coding":[{"system":"https://www.cdc.gov/nhsn/cdaportal/terminology/codesystem/hsloc.html","code":"1025-6","display":"Trauma Critical Care","userSelected":true}]}]},"request":{"method":"PUT","url":"Location/c33e0f13-5c97-4fea-8db4-029c1b73ecd6"}},{"fullUrl":"Bundle/612e6f3902c62a011f2f1183","resource":{"resourceType":"Bundle","id":"612e6f3902c62a011f2f1183","type":"transaction","entry":[{"fullUrl":"https://madie.cms.gov/Patient/a2563ca7-fda7-4cfd-a5cf-a688225749e2","resource":{"resourceType":"Patient","id":"a2563ca7-fda7-4cfd-a5cf-a688225749e2","meta":{"profile":["http://hl7.org/fhir/us/qicore/StructureDefinition/qicore-patient"]},"text":{"status":"generated","div":"<div xmlns=\"http://www.w3.org/1999/xhtml\"><div class=\"hapiHeaderText\">FactorXa1MinAfterICUStartDxAFib <b>NUMERPASS </b></div><table class=\"hapiPropertyTable\"><tbody><tr><td>Identifier</td><td>213d087eb3bd92b3f3f6cdf55e6533f5</td></tr><tr><td>Date of birth</td><td><span>03 March 1974</span></td></tr></tbody></table></div>"},"extension":[{"url":"http://hl7.org/fhir/us/core/StructureDefinition/us-core-race","extension":[{"url":"ombCategory","valueCoding":{"system":"urn:oid:2.16.840.1.113883.6.238","code":"1002-5","display":"American Indian or Alaska Native","userSelected":true}},{"url":"text","valueString":"American Indian or Alaska Native"}]},{"url":"http://hl7.org/fhir/us/core/StructureDefinition/us-core-ethnicity","extension":[{"url":"ombCategory","valueCoding":{"system":"urn:oid:2.16.840.1.113883.6.238","code":"2135-2","display":"Hispanic or Latino","userSelected":true}},{"url":"text","valueString":"Hispanic or Latino"}]}],"identifier":[{"type":{"coding":[{"system":"http://terminology.hl7.org/CodeSystem/v2-0203","code":"MR"}]},"system":"https://bonnie-fhir.healthit.gov/","value":"612e6f3902c62a011f2f1183"}],"active":true,"name":[{"use":"usual","family":"NUMERPass","given":["FactorXa1MinAfterICUStartDxAFib"]}],"gender":"female","birthDate":"1975-03-03"},"request":{"method":"PUT","url":"Patient/a2563ca7-fda7-4cfd-a5cf-a688225749e2"}},{"fullUrl":"https://madie.cms.gov/Encounter/177afa82-8d54-4048-bac1-a6a1df9fa20a","resource":{"resourceType":"Encounter","id":"177afa82-8d54-4048-bac1-a6a1df9fa20a","meta":{"profile":["http://hl7.org/fhir/us/qicore/StructureDefinition/qicore-encounter"]},"status":"finished","class":{"system":"http://terminology.hl7.org/CodeSystem/v3-ActCode","code":"IMP","display":"inpatient encounter"},"type":[{"coding":[{"system":"http://snomed.info/sct","code":"8715000"}]}],"subject":{"reference":"Patient/a2563ca7-fda7-4cfd-a5cf-a688225749e2"},"period":{"start":"2026-12-04T08:00:00.000+00:00","end":"2026-12-30T08:15:00.000+00:00"},"length":{"value":26,"unit":"days"},"location":[{"location":{"reference":"Location/c33e0f13-5c97-4fea-8db4-029c1b73ecd6"},"period":{"start":"2026-12-06T08:00:00.000+00:00","end":"2026-12-08T08:15:00.000+00:00"}}]},"request":{"method":"PUT","url":"Encounter/177afa82-8d54-4048-bac1-a6a1df9fa20a"}},{"fullUrl":"https://madie.cms.gov/Coverage/913bc9a9-bcfe-4b93-a1d9-1fdb55351ba4","resource":{"resourceType":"Coverage","id":"913bc9a9-bcfe-4b93-a1d9-1fdb55351ba4","status":"active","beneficiary":{"reference":"Patient/a2563ca7-fda7-4cfd-a5cf-a688225749e2"},"period":{"start":"1975-03-03T08:00:00.000+00:00"},"payor":[{"reference":"Organization/46de5e8a-4393-422a-9f5d-15601eefb0a9"}]},"request":{"method":"PUT","url":"Coverage/913bc9a9-bcfe-4b93-a1d9-1fdb55351ba4"}},{"fullUrl":"https://madie.cms.gov/MedicationAdministration/a1530203-e581-47d5-ba44-f683dfc0285e","resource":{"resourceType":"MedicationAdministration","id":"a1530203-e581-47d5-ba44-f683dfc0285e","meta":{"profile":["http://hl7.org/fhir/us/qicore/StructureDefinition/qicore-medicationadministration"]},"status":"completed","medicationCodeableConcept":{"coding":[{"system":"http://www.nlm.nih.gov/research/umls/rxnorm","code":"1364435","display":"apixaban 2.5 MG Oral Tablet","userSelected":true}]},"subject":{"reference":"Patient/a2563ca7-fda7-4cfd-a5cf-a688225749e2"},"effectivePeriod":{"start":"2026-12-07T08:01:00.000+00:00"}},"request":{"method":"PUT","url":"MedicationAdministration/a1530203-e581-47d5-ba44-f683dfc0285e"}},{"fullUrl":"https://madie.cms.gov/Procedure/1c14d640-3288-4bf3-9809-10a06010280a","resource":{"resourceType":"Procedure","id":"1c14d640-3288-4bf3-9809-10a06010280a","meta":{"profile":["http://hl7.org/fhir/us/qicore/StructureDefinition/qicore-procedure"]},"extension":[{"url":"http://hl7.org/fhir/us/qicore/StructureDefinition/qicore-recorded","valueDateTime":"2013-12-06T13:35:00.000+00:00"}],"status":"completed","code":{"coding":[{"system":"http://snomed.info/sct","code":"18946005"}]},"subject":{"reference":"Patient/a2563ca7-fda7-4cfd-a5cf-a688225749e2"},"performedPeriod":{"start":"2026-12-06T08:01:00.000+00:00","end":"2026-12-06T09:01:00.000+00:00"}},"request":{"method":"PUT","url":"Procedure/1c14d640-3288-4bf3-9809-10a06010280a"}},{"fullUrl":"https://madie.cms.gov/Location/c33e0f13-5c97-4fea-8db4-029c1b73ecd6","resource":{"resourceType":"Location","id":"c33e0f13-5c97-4fea-8db4-029c1b73ecd6","meta":{"profile":["http://hl7.org/fhir/us/qicore/StructureDefinition/qicore-location"]},"identifier":[{"use":"usual","system":"http://exampleoflocation.com","value":"B1-S.F2"}],"name":"Medical Surgical East, first floor","type":[{"coding":[{"system":"https://www.cdc.gov/nhsn/cdaportal/terminology/codesystem/hsloc.html","code":"1025-6","display":"Trauma Critical Care","userSelected":true}]}]},"request":{"method":"PUT","url":"Location/c33e0f13-5c97-4fea-8db4-029c1b73ecd6"}},{"fullUrl":"https://madie.cms.gov/Condition/62aaee2c-9b8b-4947-8b1b-f4a1b52e817a","resource":{"resourceType":"Condition","id":"62aaee2c-9b8b-4947-8b1b-f4a1b52e817a","meta":{"profile":["http://hl7.org/fhir/us/qicore/StructureDefinition/qicore-condition-problems-health-concerns"]},"clinicalStatus":{"coding":[{"system":"http://terminology.hl7.org/CodeSystem/condition-clinical","code":"active"}]},"verificationStatus":{"coding":[{"system":"http://terminology.hl7.org/CodeSystem/condition-ver-status","code":"confirmed"}]},"category":[{"coding":[{"system":"http://terminology.hl7.org/CodeSystem/condition-category","code":"problem-list-item","display":"Problem list Item"}]}],"code":{"coding":[{"system":"http://snomed.info/sct","version":"2025-09","code":"120041000119109","display":"Atrial fibrillation with rapid ventricular response (disorder)","userSelected":true}]},"subject":{"reference":"Patient/a2563ca7-fda7-4cfd-a5cf-a688225749e2"},"onsetPeriod":{"start":"2026-12-26T08:15:00.000+00:00"},"recordedDate":"2026-10-20T08:00:00.000+00:00"},"request":{"method":"PUT","url":"Condition/62aaee2c-9b8b-4947-8b1b-f4a1b52e817a"}},{"fullUrl":"https://madie.cms.gov/Organization/46de5e8a-4393-422a-9f5d-15601eefb0a9","resource":{"resourceType":"Organization","id":"46de5e8a-4393-422a-9f5d-15601eefb0a9","meta":{"profile":["http://hl7.org/fhir/us/qicore/StructureDefinition/qicore-organization"]},"identifier":[{"use":"temp","system":"urn:oid:2.16.840.1.113883.4.4","value":"21-3259825"}],"active":true,"type":[{"coding":[{"system":"http://terminology.hl7.org/CodeSystem/organization-type","code":"pay","display":"Payer"}]}],"name":"Blue Cross Blue Shield of Texas","telecom":[{"system":"phone","value":"(+1) 972-766-6900"}],"address":[{"use":"billing","type":"postal","line":["P.O. Box 660044"],"city":"Dallas","state":"TX","postalCode":"75266-0044","country":"USA"}]},"request":{"method":"PUT","url":"Organization/46de5e8a-4393-422a-9f5d-15601eefb0a9"}},{"fullUrl":"https://madie.cms.gov/Practitioner/a0f37606-5d4f-4afd-a333-c91b88fd51a3","resource":{"resourceType":"Practitioner","id":"a0f37606-5d4f-4afd-a333-c91b88fd51a3","identifier":[{"system":"http://hl7.org/fhir/sid/us-npi","value":"123456"}],"name":[{"family":"Evil","prefix":["Dr"]}]},"request":{"method":"PUT","url":"Practitioner/a0f37606-5d4f-4afd-a333-c91b88fd51a3"}},{"fullUrl":"https://madie.cms.gov/MeasureReport/ecda96ad-ac3f-4bf2-a8db-69d635cad3db","resource":{"resourceType":"MeasureReport","id":"ecda96ad-ac3f-4bf2-a8db-69d635cad3db","meta":{"profile":["http://hl7.org/fhir/us/cqfmeasures/StructureDefinition/test-case-cqfm"]},"contained":[{"resourceType":"Parameters","id":"a5838fce-292d-46ed-a1fc-44d15e562a5b-parameters","parameter":[{"name":"subject","valueString":"a2563ca7-fda7-4cfd-a5cf-a688225749e2"}]}],"extension":[{"url":"http://hl7.org/fhir/StructureDefinition/cqf-inputParameters","valueReference":{"reference":"#a5838fce-292d-46ed-a1fc-44d15e562a5b-parameters"}},{"url":"http://hl7.org/fhir/us/cqfmeasures/StructureDefinition/cqfm-testCaseDescription","valueMarkdown":"oral factor Xa administered after Proc, Proc is 1 day after First ICU\n"}],"modifierExtension":[{"url":"http://hl7.org/fhir/us/cqfmeasures/StructureDefinition/cqfm-isTestCase","valueBoolean":true}],"status":"complete","type":"individual","measure":"https://madie.cms.gov/Measure/CMS190VTEProphylaxisICUFHIR","period":{"start":"2026-01-01","end":"2026-12-31"},"group":[{"id":"Group_1","population":[{"id":"InitialPopulation_1","code":{"coding":[{"system":"http://terminology.hl7.org/CodeSystem/measure-population","code":"initial-population","display":"Initial Population"}]},"count":1},{"id":"Denominator_1","code":{"coding":[{"system":"http://terminology.hl7.org/CodeSystem/measure-population","code":"denominator","display":"Denominator"}]},"count":1},{"id":"DenominatorExclusion_1","code":{"coding":[{"system":"http://terminology.hl7.org/CodeSystem/measure-population","code":"denominator-exclusion","display":"Denominator Exclusion"}]},"count":0},{"id":"Numerator_1","code":{"coding":[{"system":"http://terminology.hl7.org/CodeSystem/measure-population","code":"numerator","display":"Numerator"}]},"count":1},{"id":"DenominatorException_1","code":{"coding":[{"system":"http://terminology.hl7.org/CodeSystem/measure-population","code":"denominator-exception","display":"Denominator Exception"}]},"count":0}],"measureScore":{"value":0.0}}],"evaluatedResource":[{"reference":"Patient/a2563ca7-fda7-4cfd-a5cf-a688225749e2"},{"reference":"Encounter/177afa82-8d54-4048-bac1-a6a1df9fa20a"},{"reference":"Coverage/913bc9a9-bcfe-4b93-a1d9-1fdb55351ba4"},{"reference":"MedicationAdministration/a1530203-e581-47d5-ba44-f683dfc0285e"},{"reference":"Procedure/1c14d640-3288-4bf3-9809-10a06010280a"},{"reference":"Location/c33e0f13-5c97-4fea-8db4-029c1b73ecd6"},{"reference":"Condition/62aaee2c-9b8b-4947-8b1b-f4a1b52e817a"},{"reference":"Organization/46de5e8a-4393-422a-9f5d-15601eefb0a9"},{"reference":"Practitioner/a0f37606-5d4f-4afd-a333-c91b88fd51a3"}]},"request":{"method":"PUT","url":"MeasureReport/ecda96ad-ac3f-4bf2-a8db-69d635cad3db"}}]},"request":{"method":"PUT","url":"Bundle/612e6f3902c62a011f2f1183"}},{"fullUrl":"Procedure/1c14d640-3288-4bf3-9809-10a06010280a","resource":{"resourceType":"Procedure","id":"1c14d640-3288-4bf3-9809-10a06010280a","meta":{"profile":["http://hl7.org/fhir/us/qicore/StructureDefinition/qicore-procedure"]},"extension":[{"url":"http://hl7.org/fhir/us/qicore/StructureDefinition/qicore-recorded","valueDateTime":"2013-12-06T13:35:00.000+00:00"}],"status":"completed","code":{"coding":[{"system":"http://snomed.info/sct","code":"18946005"}]},"subject":{"reference":"Patient/a2563ca7-fda7-4cfd-a5cf-a688225749e2"},"performedPeriod":{"start":"2026-12-06T08:01:00.000+00:00","end":"2026-12-06T09:01:00.000+00:00"}},"request":{"method":"PUT","url":"Procedure/1c14d640-3288-4bf3-9809-10a06010280a"}},{"fullUrl":"Organization/46de5e8a-4393-422a-9f5d-15601eefb0a9","resource":{"resourceType":"Organization","id":"46de5e8a-4393-422a-9f5d-15601eefb0a9","meta":{"profile":["http://hl7.org/fhir/us/qicore/StructureDefinition/qicore-organization"]},"identifier":[{"use":"temp","system":"urn:oid:2.16.840.1.113883.4.4","value":"21-3259825"}],"active":true,"type":[{"coding":[{"system":"http://terminology.hl7.org/CodeSystem/organization-type","code":"pay","display":"Payer"}]}],"name":"Blue Cross Blue Shield of Texas","telecom":[{"system":"phone","value":"(+1) 972-766-6900"}],"address":[{"use":"billing","type":"postal","line":["P.O. Box 660044"],"city":"Dallas","state":"TX","postalCode":"75266-0044","country":"USA"}]},"request":{"method":"PUT","url":"Organization/46de5e8a-4393-422a-9f5d-15601eefb0a9"}},{"fullUrl":"MedicationAdministration/a1530203-e581-47d5-ba44-f683dfc0285e","resource":{"resourceType":"MedicationAdministration","id":"a1530203-e581-47d5-ba44-f683dfc0285e","meta":{"profile":["http://hl7.org/fhir/us/qicore/StructureDefinition/qicore-medicationadministration"]},"status":"completed","medicationCodeableConcept":{"coding":[{"system":"http://www.nlm.nih.gov/research/umls/rxnorm","code":"1364435","display":"apixaban 2.5 MG Oral Tablet","userSelected":true}]},"subject":{"reference":"Patient/a2563ca7-fda7-4cfd-a5cf-a688225749e2"},"effectivePeriod":{"start":"2026-12-07T08:01:00.000+00:00"}},"request":{"method":"PUT","url":"MedicationAdministration/a1530203-e581-47d5-ba44-f683dfc0285e"}},{"fullUrl":"Coverage/913bc9a9-bcfe-4b93-a1d9-1fdb55351ba4","resource":{"resourceType":"Coverage","id":"913bc9a9-bcfe-4b93-a1d9-1fdb55351ba4","status":"active","beneficiary":{"reference":"Patient/a2563ca7-fda7-4cfd-a5cf-a688225749e2"},"period":{"start":"1975-03-03T08:00:00.000+00:00"},"payor":[{"reference":"Organization/46de5e8a-4393-422a-9f5d-15601eefb0a9"}]},"request":{"method":"PUT","url":"Coverage/913bc9a9-bcfe-4b93-a1d9-1fdb55351ba4"}},{"fullUrl":"Condition/62aaee2c-9b8b-4947-8b1b-f4a1b52e817a","resource":{"resourceType":"Condition","id":"62aaee2c-9b8b-4947-8b1b-f4a1b52e817a","meta":{"profile":["http://hl7.org/fhir/us/qicore/StructureDefinition/qicore-condition-problems-health-concerns"]},"clinicalStatus":{"coding":[{"system":"http://terminology.hl7.org/CodeSystem/condition-clinical","code":"active"}]},"verificationStatus":{"coding":[{"system":"http://terminology.hl7.org/CodeSystem/condition-ver-status","code":"confirmed"}]},"category":[{"coding":[{"system":"http://terminology.hl7.org/CodeSystem/condition-category","code":"problem-list-item","display":"Problem list Item"}]}],"code":{"coding":[{"system":"http://snomed.info/sct","version":"2025-09","code":"120041000119109","display":"Atrial fibrillation with rapid ventricular response (disorder)","userSelected":true}]},"subject":{"reference":"Patient/a2563ca7-fda7-4cfd-a5cf-a688225749e2"},"onsetPeriod":{"start":"2026-12-26T08:15:00.000+00:00"},"recordedDate":"2026-10-20T08:00:00.000+00:00"},"request":{"method":"PUT","url":"Condition/62aaee2c-9b8b-4947-8b1b-f4a1b52e817a"}},{"fullUrl":"Practitioner/a0f37606-5d4f-4afd-a333-c91b88fd51a3","resource":{"resourceType":"Practitioner","id":"a0f37606-5d4f-4afd-a333-c91b88fd51a3","identifier":[{"system":"http://hl7.org/fhir/sid/us-npi","value":"123456"}],"name":[{"family":"Evil","prefix":["Dr"]}]},"request":{"method":"PUT","url":"Practitioner/a0f37606-5d4f-4afd-a333-c91b88fd51a3"}},{"fullUrl":"Patient/a2563ca7-fda7-4cfd-a5cf-a688225749e2","resource":{"resourceType":"Patient","id":"a2563ca7-fda7-4cfd-a5cf-a688225749e2","meta":{"profile":["http://hl7.org/fhir/us/qicore/StructureDefinition/qicore-patient"]},"text":{"status":"generated","div":"<div xmlns=\"http://www.w3.org/1999/xhtml\"><div class=\"hapiHeaderText\">FactorXa1MinAfterICUStartDxAFib <b>NUMERPASS </b></div><table class=\"hapiPropertyTable\"><tbody><tr><td>Identifier</td><td>213d087eb3bd92b3f3f6cdf55e6533f5</td></tr><tr><td>Date of birth</td><td><span>03 March 1974</span></td></tr></tbody></table></div>"},"extension":[{"url":"http://hl7.org/fhir/us/core/StructureDefinition/us-core-race","extension":[{"url":"ombCategory","valueCoding":{"system":"urn:oid:2.16.840.1.113883.6.238","code":"1002-5","display":"American Indian or Alaska Native","userSelected":true}},{"url":"text","valueString":"American Indian or Alaska Native"}]},{"url":"http://hl7.org/fhir/us/core/StructureDefinition/us-core-ethnicity","extension":[{"url":"ombCategory","valueCoding":{"system":"urn:oid:2.16.840.1.113883.6.238","code":"2135-2","display":"Hispanic or Latino","userSelected":true}},{"url":"text","valueString":"Hispanic or Latino"}]}],"identifier":[{"type":{"coding":[{"system":"http://terminology.hl7.org/CodeSystem/v2-0203","code":"MR"}]},"system":"https://bonnie-fhir.healthit.gov/","value":"612e6f3902c62a011f2f1183"}],"active":true,"name":[{"use":"usual","family":"NUMERPass","given":["FactorXa1MinAfterICUStartDxAFib"]}],"gender":"female","birthDate":"1975-03-03"},"request":{"method":"PUT","url":"Patient/a2563ca7-fda7-4cfd-a5cf-a688225749e2"}},{"fullUrl":"Encounter/177afa82-8d54-4048-bac1-a6a1df9fa20a","resource":{"resourceType":"Encounter","id":"177afa82-8d54-4048-bac1-a6a1df9fa20a","meta":{"profile":["http://hl7.org/fhir/us/qicore/StructureDefinition/qicore-encounter"]},"status":"finished","class":{"system":"http://terminology.hl7.org/CodeSystem/v3-ActCode","code":"IMP","display":"inpatient encounter"},"type":[{"coding":[{"system":"http://snomed.info/sct","code":"8715000"}]}],"subject":{"reference":"Patient/a2563ca7-fda7-4cfd-a5cf-a688225749e2"},"period":{"start":"2026-12-04T08:00:00.000+00:00","end":"2026-12-30T08:15:00.000+00:00"},"length":{"value":26,"unit":"days"},"location":[{"location":{"reference":"Location/c33e0f13-5c97-4fea-8db4-029c1b73ecd6"},"period":{"start":"2026-12-06T08:00:00.000+00:00","end":"2026-12-08T08:15:00.000+00:00"}}]},"request":{"method":"PUT","url":"Encounter/177afa82-8d54-4048-bac1-a6a1df9fa20a"}}]}