{"resourceType":"Bundle","id":"tests-a9c75661-be1c-41b2-aa15-222cc7d2ca81-bundle","type":"transaction","entry":[{"fullUrl":"Location/09574739-7970-4da6-b51c-c26d4ba8da0c","resource":{"resourceType":"Location","id":"09574739-7970-4da6-b51c-c26d4ba8da0c","meta":{"profile":["http://hl7.org/fhir/us/qicore/StructureDefinition/qicore-location"]},"identifier":[{"use":"usual","system":"http://exampleoflocation.com","value":"B1-S.F2"}],"name":"Medical Surgical East, first floor","type":[{"coding":[{"system":"https://www.cdc.gov/nhsn/cdaportal/terminology/codesystem/hsloc.html","code":"1025-6","display":"Trauma Critical Care","userSelected":true}]}]},"request":{"method":"PUT","url":"Location/09574739-7970-4da6-b51c-c26d4ba8da0c"}},{"fullUrl":"Practitioner/cd1f2808-ba54-4b91-86c4-2f80aac0d393","resource":{"resourceType":"Practitioner","id":"cd1f2808-ba54-4b91-86c4-2f80aac0d393","identifier":[{"system":"http://hl7.org/fhir/sid/us-npi","value":"123456"}],"name":[{"family":"Evil","prefix":["Dr"]}]},"request":{"method":"PUT","url":"Practitioner/cd1f2808-ba54-4b91-86c4-2f80aac0d393"}},{"fullUrl":"Bundle/612e6ab302c62a011f2eafaf","resource":{"resourceType":"Bundle","id":"612e6ab302c62a011f2eafaf","type":"transaction","entry":[{"fullUrl":"https://madie.cms.gov/Patient/a9c75661-be1c-41b2-aa15-222cc7d2ca81","resource":{"resourceType":"Patient","id":"a9c75661-be1c-41b2-aa15-222cc7d2ca81","meta":{"profile":["http://hl7.org/fhir/us/qicore/StructureDefinition/qicore-patient"]},"text":{"status":"generated","div":"<div xmlns=\"http://www.w3.org/1999/xhtml\"><div class=\"hapiHeaderText\">PtRefDAGCSDuringED <b>NUMERPASS </b></div><table class=\"hapiPropertyTable\"><tbody><tr><td>Identifier</td><td>5f7ad5e9fc357bf072546722e2c19e60</td></tr><tr><td>Date of birth</td><td><span>02 January 1974</span></td></tr></tbody></table></div>"},"extension":[{"url":"http://hl7.org/fhir/us/core/StructureDefinition/us-core-race","extension":[{"url":"ombCategory","valueCoding":{"system":"urn:oid:2.16.840.1.113883.6.238","code":"1002-5","display":"American Indian or Alaska Native","userSelected":true}},{"url":"text","valueString":"American Indian or Alaska Native"}]},{"url":"http://hl7.org/fhir/us/core/StructureDefinition/us-core-ethnicity","extension":[{"url":"ombCategory","valueCoding":{"system":"urn:oid:2.16.840.1.113883.6.238","code":"2135-2","display":"Hispanic or Latino","userSelected":true}},{"url":"text","valueString":"Hispanic or Latino"}]}],"identifier":[{"type":{"coding":[{"system":"http://terminology.hl7.org/CodeSystem/v2-0203","code":"MR"}]},"system":"https://bonnie-fhir.healthit.gov/","value":"612e6ab302c62a011f2eafaf"}],"active":true,"name":[{"use":"usual","family":"NUMERPass","given":["PtRefDAGCSDuringED"]}],"gender":"male","birthDate":"1975-01-02"},"request":{"method":"PUT","url":"Patient/a9c75661-be1c-41b2-aa15-222cc7d2ca81"}},{"fullUrl":"https://madie.cms.gov/Encounter/72fe04f7-a4c8-45f0-b1bb-3b3b768b6a6b","resource":{"resourceType":"Encounter","id":"72fe04f7-a4c8-45f0-b1bb-3b3b768b6a6b","meta":{"profile":["http://hl7.org/fhir/us/qicore/StructureDefinition/qicore-encounter"]},"status":"finished","class":{"system":"http://terminology.hl7.org/CodeSystem/v3-ActCode","code":"EMER","display":"emergency"},"type":[{"coding":[{"system":"http://snomed.info/sct","code":"4525004"}]}],"subject":{"reference":"Patient/a9c75661-be1c-41b2-aa15-222cc7d2ca81"},"period":{"start":"2026-10-31T05:00:00.000+00:00","end":"2026-11-01T07:15:00.000+00:00"},"length":{"value":1,"unit":"days"}},"request":{"method":"PUT","url":"Encounter/72fe04f7-a4c8-45f0-b1bb-3b3b768b6a6b"}},{"fullUrl":"https://madie.cms.gov/Encounter/df6f3984-682d-4b3a-881f-79dfb7de8a3e","resource":{"resourceType":"Encounter","id":"df6f3984-682d-4b3a-881f-79dfb7de8a3e","meta":{"profile":["http://hl7.org/fhir/us/qicore/StructureDefinition/qicore-encounter"]},"status":"finished","class":{"system":"http://terminology.hl7.org/CodeSystem/v3-ActCode","code":"IMP","display":"inpatient encounter"},"type":[{"coding":[{"system":"http://snomed.info/sct","code":"8715000"}]}],"subject":{"reference":"Patient/a9c75661-be1c-41b2-aa15-222cc7d2ca81"},"period":{"start":"2026-11-01T08:00:00.000+00:00","end":"2026-11-26T08:15:00.000+00:00"},"length":{"value":25,"unit":"days"},"location":[{"location":{"reference":"Location/09574739-7970-4da6-b51c-c26d4ba8da0c"},"period":{"start":"2026-11-01T09:00:00.000+00:00","end":"2026-11-02T08:15:00.000+00:00"}}]},"request":{"method":"PUT","url":"Encounter/df6f3984-682d-4b3a-881f-79dfb7de8a3e"}},{"fullUrl":"https://madie.cms.gov/Coverage/f56e3b97-b219-47ac-9550-db3fa60f6f19","resource":{"resourceType":"Coverage","id":"f56e3b97-b219-47ac-9550-db3fa60f6f19","status":"active","beneficiary":{"reference":"Patient/a9c75661-be1c-41b2-aa15-222cc7d2ca81"},"period":{"start":"1975-01-02T08:00:00.000+00:00"},"payor":[{"reference":"Organization/6c3439a3-f110-48ec-a7eb-3ec4cc38c699"}]},"request":{"method":"PUT","url":"Coverage/f56e3b97-b219-47ac-9550-db3fa60f6f19"}},{"fullUrl":"https://madie.cms.gov/Procedure/33156dbd-d7b3-4274-8ce8-1c1d9938d23b","resource":{"resourceType":"Procedure","id":"33156dbd-d7b3-4274-8ce8-1c1d9938d23b","meta":{"profile":["http://hl7.org/fhir/us/qicore/StructureDefinition/qicore-procedurenotdone"]},"extension":[{"url":"http://hl7.org/fhir/us/qicore/StructureDefinition/qicore-recorded","valueDateTime":"2026-10-31T21:35:00.000+00:00"}],"status":"not-done","statusReason":{"coding":[{"system":"http://snomed.info/sct","code":"443390004","display":"Refusal of treatment by patient (situation)","userSelected":true}]},"code":{"coding":[{"system":"http://snomed.info/sct","version":"2025-03","code":"229511001","display":"Application of graduated compression garment (procedure)","userSelected":true}]},"subject":{"reference":"Patient/a9c75661-be1c-41b2-aa15-222cc7d2ca81"},"_performedDateTime":{"extension":[{"url":"http://hl7.org/fhir/StructureDefinition/data-absent-reason","valueCode":"not-performed"}]}},"request":{"method":"PUT","url":"Procedure/33156dbd-d7b3-4274-8ce8-1c1d9938d23b"}},{"fullUrl":"https://madie.cms.gov/Location/09574739-7970-4da6-b51c-c26d4ba8da0c","resource":{"resourceType":"Location","id":"09574739-7970-4da6-b51c-c26d4ba8da0c","meta":{"profile":["http://hl7.org/fhir/us/qicore/StructureDefinition/qicore-location"]},"identifier":[{"use":"usual","system":"http://exampleoflocation.com","value":"B1-S.F2"}],"name":"Medical Surgical East, first floor","type":[{"coding":[{"system":"https://www.cdc.gov/nhsn/cdaportal/terminology/codesystem/hsloc.html","code":"1025-6","display":"Trauma Critical Care","userSelected":true}]}]},"request":{"method":"PUT","url":"Location/09574739-7970-4da6-b51c-c26d4ba8da0c"}},{"fullUrl":"https://madie.cms.gov/Organization/6c3439a3-f110-48ec-a7eb-3ec4cc38c699","resource":{"resourceType":"Organization","id":"6c3439a3-f110-48ec-a7eb-3ec4cc38c699","meta":{"profile":["http://hl7.org/fhir/us/qicore/StructureDefinition/qicore-organization"]},"identifier":[{"use":"temp","system":"urn:oid:2.16.840.1.113883.4.4","value":"21-3259825"}],"active":true,"type":[{"coding":[{"system":"http://terminology.hl7.org/CodeSystem/organization-type","code":"pay","display":"Payer"}]}],"name":"Blue Cross Blue Shield of Texas","telecom":[{"system":"phone","value":"(+1) 972-766-6900"}],"address":[{"use":"billing","type":"postal","line":["P.O. Box 660044"],"city":"Dallas","state":"TX","postalCode":"75266-0044","country":"USA"}]},"request":{"method":"PUT","url":"Organization/6c3439a3-f110-48ec-a7eb-3ec4cc38c699"}},{"fullUrl":"https://madie.cms.gov/Practitioner/cd1f2808-ba54-4b91-86c4-2f80aac0d393","resource":{"resourceType":"Practitioner","id":"cd1f2808-ba54-4b91-86c4-2f80aac0d393","identifier":[{"system":"http://hl7.org/fhir/sid/us-npi","value":"123456"}],"name":[{"family":"Evil","prefix":["Dr"]}]},"request":{"method":"PUT","url":"Practitioner/cd1f2808-ba54-4b91-86c4-2f80aac0d393"}},{"fullUrl":"https://madie.cms.gov/MeasureReport/bc835499-2cc8-48f3-b312-579956b88f04","resource":{"resourceType":"MeasureReport","id":"bc835499-2cc8-48f3-b312-579956b88f04","meta":{"profile":["http://hl7.org/fhir/us/cqfmeasures/StructureDefinition/test-case-cqfm"]},"contained":[{"resourceType":"Parameters","id":"942b0fbc-dd70-4e0f-8965-9075d8d72a32-parameters","parameter":[{"name":"subject","valueString":"a9c75661-be1c-41b2-aa15-222cc7d2ca81"}]}],"extension":[{"url":"http://hl7.org/fhir/StructureDefinition/cqf-inputParameters","valueReference":{"reference":"#942b0fbc-dd70-4e0f-8965-9075d8d72a32-parameters"}},{"url":"http://hl7.org/fhir/us/cqfmeasures/StructureDefinition/cqfm-testCaseDescription","valueMarkdown":"meets IPP, meets Denominator, GCS applied not done patient Refusal  - during ED\n"}],"modifierExtension":[{"url":"http://hl7.org/fhir/us/cqfmeasures/StructureDefinition/cqfm-isTestCase","valueBoolean":true}],"status":"complete","type":"individual","measure":"https://madie.cms.gov/Measure/CMS190VTEProphylaxisICUFHIR","period":{"start":"2026-01-01","end":"2026-12-31"},"group":[{"id":"Group_1","population":[{"id":"InitialPopulation_1","code":{"coding":[{"system":"http://terminology.hl7.org/CodeSystem/measure-population","code":"initial-population","display":"Initial Population"}]},"count":1},{"id":"Denominator_1","code":{"coding":[{"system":"http://terminology.hl7.org/CodeSystem/measure-population","code":"denominator","display":"Denominator"}]},"count":1},{"id":"DenominatorExclusion_1","code":{"coding":[{"system":"http://terminology.hl7.org/CodeSystem/measure-population","code":"denominator-exclusion","display":"Denominator Exclusion"}]},"count":0},{"id":"Numerator_1","code":{"coding":[{"system":"http://terminology.hl7.org/CodeSystem/measure-population","code":"numerator","display":"Numerator"}]},"count":1},{"id":"DenominatorException_1","code":{"coding":[{"system":"http://terminology.hl7.org/CodeSystem/measure-population","code":"denominator-exception","display":"Denominator Exception"}]},"count":0}],"measureScore":{"value":0.0}}],"evaluatedResource":[{"reference":"Patient/a9c75661-be1c-41b2-aa15-222cc7d2ca81"},{"reference":"Encounter/72fe04f7-a4c8-45f0-b1bb-3b3b768b6a6b"},{"reference":"Encounter/df6f3984-682d-4b3a-881f-79dfb7de8a3e"},{"reference":"Coverage/f56e3b97-b219-47ac-9550-db3fa60f6f19"},{"reference":"Procedure/33156dbd-d7b3-4274-8ce8-1c1d9938d23b"},{"reference":"Location/09574739-7970-4da6-b51c-c26d4ba8da0c"},{"reference":"Organization/6c3439a3-f110-48ec-a7eb-3ec4cc38c699"},{"reference":"Practitioner/cd1f2808-ba54-4b91-86c4-2f80aac0d393"}]},"request":{"method":"PUT","url":"MeasureReport/bc835499-2cc8-48f3-b312-579956b88f04"}}]},"request":{"method":"PUT","url":"Bundle/612e6ab302c62a011f2eafaf"}},{"fullUrl":"Procedure/33156dbd-d7b3-4274-8ce8-1c1d9938d23b","resource":{"resourceType":"Procedure","id":"33156dbd-d7b3-4274-8ce8-1c1d9938d23b","meta":{"profile":["http://hl7.org/fhir/us/qicore/StructureDefinition/qicore-procedurenotdone"]},"extension":[{"url":"http://hl7.org/fhir/us/qicore/StructureDefinition/qicore-recorded","valueDateTime":"2026-10-31T21:35:00.000+00:00"}],"status":"not-done","statusReason":{"coding":[{"system":"http://snomed.info/sct","code":"443390004","display":"Refusal of treatment by patient (situation)","userSelected":true}]},"code":{"coding":[{"system":"http://snomed.info/sct","version":"2025-03","code":"229511001","display":"Application of graduated compression garment (procedure)","userSelected":true}]},"subject":{"reference":"Patient/a9c75661-be1c-41b2-aa15-222cc7d2ca81"},"_performedDateTime":{"extension":[{"url":"http://hl7.org/fhir/StructureDefinition/data-absent-reason","valueCode":"not-performed"}]}},"request":{"method":"PUT","url":"Procedure/33156dbd-d7b3-4274-8ce8-1c1d9938d23b"}},{"fullUrl":"Patient/a9c75661-be1c-41b2-aa15-222cc7d2ca81","resource":{"resourceType":"Patient","id":"a9c75661-be1c-41b2-aa15-222cc7d2ca81","meta":{"profile":["http://hl7.org/fhir/us/qicore/StructureDefinition/qicore-patient"]},"text":{"status":"generated","div":"<div xmlns=\"http://www.w3.org/1999/xhtml\"><div class=\"hapiHeaderText\">PtRefDAGCSDuringED <b>NUMERPASS </b></div><table class=\"hapiPropertyTable\"><tbody><tr><td>Identifier</td><td>5f7ad5e9fc357bf072546722e2c19e60</td></tr><tr><td>Date of birth</td><td><span>02 January 1974</span></td></tr></tbody></table></div>"},"extension":[{"url":"http://hl7.org/fhir/us/core/StructureDefinition/us-core-race","extension":[{"url":"ombCategory","valueCoding":{"system":"urn:oid:2.16.840.1.113883.6.238","code":"1002-5","display":"American Indian or Alaska Native","userSelected":true}},{"url":"text","valueString":"American Indian or Alaska Native"}]},{"url":"http://hl7.org/fhir/us/core/StructureDefinition/us-core-ethnicity","extension":[{"url":"ombCategory","valueCoding":{"system":"urn:oid:2.16.840.1.113883.6.238","code":"2135-2","display":"Hispanic or Latino","userSelected":true}},{"url":"text","valueString":"Hispanic or Latino"}]}],"identifier":[{"type":{"coding":[{"system":"http://terminology.hl7.org/CodeSystem/v2-0203","code":"MR"}]},"system":"https://bonnie-fhir.healthit.gov/","value":"612e6ab302c62a011f2eafaf"}],"active":true,"name":[{"use":"usual","family":"NUMERPass","given":["PtRefDAGCSDuringED"]}],"gender":"male","birthDate":"1975-01-02"},"request":{"method":"PUT","url":"Patient/a9c75661-be1c-41b2-aa15-222cc7d2ca81"}},{"fullUrl":"Encounter/df6f3984-682d-4b3a-881f-79dfb7de8a3e","resource":{"resourceType":"Encounter","id":"df6f3984-682d-4b3a-881f-79dfb7de8a3e","meta":{"profile":["http://hl7.org/fhir/us/qicore/StructureDefinition/qicore-encounter"]},"status":"finished","class":{"system":"http://terminology.hl7.org/CodeSystem/v3-ActCode","code":"IMP","display":"inpatient encounter"},"type":[{"coding":[{"system":"http://snomed.info/sct","code":"8715000"}]}],"subject":{"reference":"Patient/a9c75661-be1c-41b2-aa15-222cc7d2ca81"},"period":{"start":"2026-11-01T08:00:00.000+00:00","end":"2026-11-26T08:15:00.000+00:00"},"length":{"value":25,"unit":"days"},"location":[{"location":{"reference":"Location/09574739-7970-4da6-b51c-c26d4ba8da0c"},"period":{"start":"2026-11-01T09:00:00.000+00:00","end":"2026-11-02T08:15:00.000+00:00"}}]},"request":{"method":"PUT","url":"Encounter/df6f3984-682d-4b3a-881f-79dfb7de8a3e"}},{"fullUrl":"Encounter/72fe04f7-a4c8-45f0-b1bb-3b3b768b6a6b","resource":{"resourceType":"Encounter","id":"72fe04f7-a4c8-45f0-b1bb-3b3b768b6a6b","meta":{"profile":["http://hl7.org/fhir/us/qicore/StructureDefinition/qicore-encounter"]},"status":"finished","class":{"system":"http://terminology.hl7.org/CodeSystem/v3-ActCode","code":"EMER","display":"emergency"},"type":[{"coding":[{"system":"http://snomed.info/sct","code":"4525004"}]}],"subject":{"reference":"Patient/a9c75661-be1c-41b2-aa15-222cc7d2ca81"},"period":{"start":"2026-10-31T05:00:00.000+00:00","end":"2026-11-01T07:15:00.000+00:00"},"length":{"value":1,"unit":"days"}},"request":{"method":"PUT","url":"Encounter/72fe04f7-a4c8-45f0-b1bb-3b3b768b6a6b"}},{"fullUrl":"Coverage/f56e3b97-b219-47ac-9550-db3fa60f6f19","resource":{"resourceType":"Coverage","id":"f56e3b97-b219-47ac-9550-db3fa60f6f19","status":"active","beneficiary":{"reference":"Patient/a9c75661-be1c-41b2-aa15-222cc7d2ca81"},"period":{"start":"1975-01-02T08:00:00.000+00:00"},"payor":[{"reference":"Organization/6c3439a3-f110-48ec-a7eb-3ec4cc38c699"}]},"request":{"method":"PUT","url":"Coverage/f56e3b97-b219-47ac-9550-db3fa60f6f19"}},{"fullUrl":"Organization/6c3439a3-f110-48ec-a7eb-3ec4cc38c699","resource":{"resourceType":"Organization","id":"6c3439a3-f110-48ec-a7eb-3ec4cc38c699","meta":{"profile":["http://hl7.org/fhir/us/qicore/StructureDefinition/qicore-organization"]},"identifier":[{"use":"temp","system":"urn:oid:2.16.840.1.113883.4.4","value":"21-3259825"}],"active":true,"type":[{"coding":[{"system":"http://terminology.hl7.org/CodeSystem/organization-type","code":"pay","display":"Payer"}]}],"name":"Blue Cross Blue Shield of Texas","telecom":[{"system":"phone","value":"(+1) 972-766-6900"}],"address":[{"use":"billing","type":"postal","line":["P.O. Box 660044"],"city":"Dallas","state":"TX","postalCode":"75266-0044","country":"USA"}]},"request":{"method":"PUT","url":"Organization/6c3439a3-f110-48ec-a7eb-3ec4cc38c699"}},{"fullUrl":"MeasureReport/bc835499-2cc8-48f3-b312-579956b88f04","resource":{"resourceType":"MeasureReport","id":"bc835499-2cc8-48f3-b312-579956b88f04","meta":{"profile":["http://hl7.org/fhir/us/cqfmeasures/StructureDefinition/test-case-cqfm"]},"contained":[{"resourceType":"Parameters","id":"942b0fbc-dd70-4e0f-8965-9075d8d72a32-parameters","parameter":[{"name":"subject","valueString":"a9c75661-be1c-41b2-aa15-222cc7d2ca81"}]}],"extension":[{"url":"http://hl7.org/fhir/StructureDefinition/cqf-inputParameters","valueReference":{"reference":"#942b0fbc-dd70-4e0f-8965-9075d8d72a32-parameters"}},{"url":"http://hl7.org/fhir/us/cqfmeasures/StructureDefinition/cqfm-testCaseDescription","valueMarkdown":"meets IPP, meets Denominator, GCS applied not done patient Refusal  - during ED\n"}],"modifierExtension":[{"url":"http://hl7.org/fhir/us/cqfmeasures/StructureDefinition/cqfm-isTestCase","valueBoolean":true}],"status":"complete","type":"individual","measure":"https://madie.cms.gov/Measure/CMS190VTEProphylaxisICUFHIR","period":{"start":"2026-01-01","end":"2026-12-31"},"group":[{"id":"Group_1","population":[{"id":"InitialPopulation_1","code":{"coding":[{"system":"http://terminology.hl7.org/CodeSystem/measure-population","code":"initial-population","display":"Initial Population"}]},"count":1},{"id":"Denominator_1","code":{"coding":[{"system":"http://terminology.hl7.org/CodeSystem/measure-population","code":"denominator","display":"Denominator"}]},"count":1},{"id":"DenominatorExclusion_1","code":{"coding":[{"system":"http://terminology.hl7.org/CodeSystem/measure-population","code":"denominator-exclusion","display":"Denominator Exclusion"}]},"count":0},{"id":"Numerator_1","code":{"coding":[{"system":"http://terminology.hl7.org/CodeSystem/measure-population","code":"numerator","display":"Numerator"}]},"count":1},{"id":"DenominatorException_1","code":{"coding":[{"system":"http://terminology.hl7.org/CodeSystem/measure-population","code":"denominator-exception","display":"Denominator Exception"}]},"count":0}],"measureScore":{"value":0.0}}],"evaluatedResource":[{"reference":"Patient/a9c75661-be1c-41b2-aa15-222cc7d2ca81"},{"reference":"Encounter/72fe04f7-a4c8-45f0-b1bb-3b3b768b6a6b"},{"reference":"Encounter/df6f3984-682d-4b3a-881f-79dfb7de8a3e"},{"reference":"Coverage/f56e3b97-b219-47ac-9550-db3fa60f6f19"},{"reference":"Procedure/33156dbd-d7b3-4274-8ce8-1c1d9938d23b"},{"reference":"Location/09574739-7970-4da6-b51c-c26d4ba8da0c"},{"reference":"Organization/6c3439a3-f110-48ec-a7eb-3ec4cc38c699"},{"reference":"Practitioner/cd1f2808-ba54-4b91-86c4-2f80aac0d393"}]},"request":{"method":"PUT","url":"MeasureReport/bc835499-2cc8-48f3-b312-579956b88f04"}}]}