{"resourceType":"Bundle","id":"tests-4724cb2f-b5bd-4c50-85cc-4a5ba25f04ca-bundle","type":"transaction","entry":[{"fullUrl":"Bundle/612e6b9302c62a011f2ee63c","resource":{"resourceType":"Bundle","id":"612e6b9302c62a011f2ee63c","type":"transaction","entry":[{"fullUrl":"https://madie.cms.gov/Patient/4724cb2f-b5bd-4c50-85cc-4a5ba25f04ca","resource":{"resourceType":"Patient","id":"4724cb2f-b5bd-4c50-85cc-4a5ba25f04ca","meta":{"profile":["http://hl7.org/fhir/us/qicore/StructureDefinition/qicore-patient"]},"text":{"status":"generated","div":"<div xmlns=\"http://www.w3.org/1999/xhtml\"><div class=\"hapiHeaderText\">PtRefDOIPC2DayAFEncBFICU <b>NUMERPASS </b></div><table class=\"hapiPropertyTable\"><tbody><tr><td>Identifier</td><td>24fc1ce85ce14557dd4d9eba17df9f17</td></tr><tr><td>Date of birth</td><td><span>02 January 1974</span></td></tr></tbody></table></div>"},"extension":[{"url":"http://hl7.org/fhir/us/core/StructureDefinition/us-core-race","extension":[{"url":"ombCategory","valueCoding":{"system":"urn:oid:2.16.840.1.113883.6.238","code":"1002-5","display":"American Indian or Alaska Native","userSelected":true}},{"url":"text","valueString":"American Indian or Alaska Native"}]},{"url":"http://hl7.org/fhir/us/core/StructureDefinition/us-core-ethnicity","extension":[{"url":"ombCategory","valueCoding":{"system":"urn:oid:2.16.840.1.113883.6.238","code":"2135-2","display":"Hispanic or Latino","userSelected":true}},{"url":"text","valueString":"Hispanic or Latino"}]}],"identifier":[{"type":{"coding":[{"system":"http://terminology.hl7.org/CodeSystem/v2-0203","code":"MR"}]},"system":"https://bonnie-fhir.healthit.gov/","value":"612e6b9302c62a011f2ee63c"}],"active":true,"name":[{"use":"usual","family":"NUMERPass","given":["PtRefDOVFPTaskReject"]}],"gender":"male","birthDate":"1975-01-02"},"request":{"method":"PUT","url":"Patient/4724cb2f-b5bd-4c50-85cc-4a5ba25f04ca"}},{"fullUrl":"https://madie.cms.gov/Encounter/80536c36-9242-44ec-b8fb-82d597d73378","resource":{"resourceType":"Encounter","id":"80536c36-9242-44ec-b8fb-82d597d73378","meta":{"profile":["http://hl7.org/fhir/us/qicore/StructureDefinition/qicore-encounter"]},"status":"finished","class":{"system":"http://terminology.hl7.org/CodeSystem/v3-ActCode","code":"IMP","display":"inpatient encounter"},"type":[{"coding":[{"system":"http://snomed.info/sct","code":"8715000"}]}],"subject":{"reference":"Patient/4724cb2f-b5bd-4c50-85cc-4a5ba25f04ca"},"period":{"start":"2026-11-01T08:00:00Z","end":"2026-11-26T08:15:00.000+00:00"},"length":{"value":25,"unit":"days"},"location":[{"location":{"reference":"Location/616ea6a6-185c-4cdb-8321-b61dbe7c8e5b"},"period":{"start":"2026-11-04T09:00:00Z","end":"2026-11-06T08:15:00.000+00:00"}}]},"request":{"method":"PUT","url":"Encounter/80536c36-9242-44ec-b8fb-82d597d73378"}},{"fullUrl":"https://madie.cms.gov/Coverage/4f528509-0826-4d8b-9177-796f9da91c9f","resource":{"resourceType":"Coverage","id":"4f528509-0826-4d8b-9177-796f9da91c9f","status":"active","beneficiary":{"reference":"Patient/4724cb2f-b5bd-4c50-85cc-4a5ba25f04ca"},"period":{"start":"1975-01-02T08:00:00Z"},"payor":[{"reference":"Organization/e1c1a7ef-9950-4576-a7b2-9229a0547f32"}]},"request":{"method":"PUT","url":"Coverage/4f528509-0826-4d8b-9177-796f9da91c9f"}},{"fullUrl":"https://madie.cms.gov/ServiceRequest/0c288443-9c47-40e9-85d0-cd4227a0544f","resource":{"resourceType":"ServiceRequest","id":"0c288443-9c47-40e9-85d0-cd4227a0544f","meta":{"profile":["http://hl7.org/fhir/us/qicore/StructureDefinition/qicore-servicerequest"]},"status":"active","intent":"order","code":{"coding":[{"system":"http://snomed.info/sct","code":"401640004","display":"Compression hosiery class II thigh length stocking circular knit made to measure (physical object)","userSelected":true}]},"subject":{"reference":"Patient/4724cb2f-b5bd-4c50-85cc-4a5ba25f04ca"},"authoredOn":"2026-11-03T11:00:00"},"request":{"method":"PUT","url":"ServiceRequest/0c288443-9c47-40e9-85d0-cd4227a0544f"}},{"fullUrl":"https://madie.cms.gov/Task/6313dae6-7b15-41bf-b142-d592435f547a","resource":{"resourceType":"Task","id":"6313dae6-7b15-41bf-b142-d592435f547a","meta":{"profile":["http://hl7.org/fhir/us/qicore/StructureDefinition/qicore-taskrejected"]},"status":"rejected","statusReason":{"coding":[{"system":"http://snomed.info/sct","code":"443390004","display":"Refusal of treatment by patient (situation)","userSelected":true}]},"code":{"coding":[{"system":"http://hl7.org/fhir/CodeSystem/task-code","code":"fulfill"}]},"focus":{"reference":"ServiceRequest/0c288443-9c47-40e9-85d0-cd4227a0544f"},"executionPeriod":{"start":"2026-11-03T19:00:00","end":"2026-11-03T19:00:00"}},"request":{"method":"PUT","url":"Task/6313dae6-7b15-41bf-b142-d592435f547a"}},{"fullUrl":"https://madie.cms.gov/Location/616ea6a6-185c-4cdb-8321-b61dbe7c8e5b","resource":{"resourceType":"Location","id":"616ea6a6-185c-4cdb-8321-b61dbe7c8e5b","meta":{"profile":["http://hl7.org/fhir/us/qicore/StructureDefinition/qicore-location"]},"identifier":[{"use":"usual","system":"http://exampleoflocation.com","value":"B1-S.F2"}],"name":"Medical Surgical East, first floor","type":[{"coding":[{"system":"https://www.cdc.gov/nhsn/cdaportal/terminology/codesystem/hsloc.html","code":"1025-6","display":"Trauma Critical Care","userSelected":true}]}]},"request":{"method":"PUT","url":"Location/616ea6a6-185c-4cdb-8321-b61dbe7c8e5b"}},{"fullUrl":"https://madie.cms.gov/Organization/e1c1a7ef-9950-4576-a7b2-9229a0547f32","resource":{"resourceType":"Organization","id":"e1c1a7ef-9950-4576-a7b2-9229a0547f32","meta":{"profile":["http://hl7.org/fhir/us/qicore/StructureDefinition/qicore-organization"]},"identifier":[{"use":"temp","system":"urn:oid:2.16.840.1.113883.4.4","value":"21-3259825"}],"active":true,"type":[{"coding":[{"system":"http://terminology.hl7.org/CodeSystem/organization-type","code":"pay","display":"Payer"}]}],"name":"Blue Cross Blue Shield of Texas","telecom":[{"system":"phone","value":"(+1) 972-766-6900"}],"address":[{"use":"billing","type":"postal","line":["P.O. Box 660044"],"city":"Dallas","state":"TX","postalCode":"75266-0044","country":"USA"}]},"request":{"method":"PUT","url":"Organization/e1c1a7ef-9950-4576-a7b2-9229a0547f32"}},{"fullUrl":"https://madie.cms.gov/Practitioner/dd553cae-e0b5-4cc9-abf8-fa9329342b2a","resource":{"resourceType":"Practitioner","id":"dd553cae-e0b5-4cc9-abf8-fa9329342b2a","identifier":[{"system":"http://hl7.org/fhir/sid/us-npi","value":"123456"}],"name":[{"family":"Evil","prefix":["Dr"]}]},"request":{"method":"PUT","url":"Practitioner/dd553cae-e0b5-4cc9-abf8-fa9329342b2a"}},{"fullUrl":"https://madie.cms.gov/MeasureReport/17de14de-49fa-4c45-b0b1-bb7a1d616eb4","resource":{"resourceType":"MeasureReport","id":"17de14de-49fa-4c45-b0b1-bb7a1d616eb4","meta":{"profile":["http://hl7.org/fhir/us/cqfmeasures/StructureDefinition/test-case-cqfm"]},"contained":[{"resourceType":"Parameters","id":"f81c82bd-bd12-47ee-94db-4e5a29cff57a-parameters","parameter":[{"name":"subject","valueString":"4724cb2f-b5bd-4c50-85cc-4a5ba25f04ca"}]}],"extension":[{"url":"http://hl7.org/fhir/StructureDefinition/cqf-inputParameters","valueReference":{"reference":"#f81c82bd-bd12-47ee-94db-4e5a29cff57a-parameters"}},{"url":"http://hl7.org/fhir/us/cqfmeasures/StructureDefinition/cqfm-testCaseDescription","valueMarkdown":"meets IPP, meets Denominator, IPC ordered not done under TaskReject\n"}],"modifierExtension":[{"url":"http://hl7.org/fhir/us/cqfmeasures/StructureDefinition/cqfm-isTestCase","valueBoolean":true}],"status":"complete","type":"individual","measure":"https://madie.cms.gov/Measure/CMS190VTEProphylaxisICUFHIR","period":{"start":"2026-01-01","end":"2026-12-31"},"group":[{"id":"Group_1","population":[{"id":"InitialPopulation_1","code":{"coding":[{"system":"http://terminology.hl7.org/CodeSystem/measure-population","code":"initial-population","display":"Initial Population"}]},"count":1},{"id":"Denominator_1","code":{"coding":[{"system":"http://terminology.hl7.org/CodeSystem/measure-population","code":"denominator","display":"Denominator"}]},"count":1},{"id":"DenominatorExclusion_1","code":{"coding":[{"system":"http://terminology.hl7.org/CodeSystem/measure-population","code":"denominator-exclusion","display":"Denominator Exclusion"}]},"count":0},{"id":"Numerator_1","code":{"coding":[{"system":"http://terminology.hl7.org/CodeSystem/measure-population","code":"numerator","display":"Numerator"}]},"count":1},{"id":"DenominatorException_1","code":{"coding":[{"system":"http://terminology.hl7.org/CodeSystem/measure-population","code":"denominator-exception","display":"Denominator Exception"}]},"count":0}],"measureScore":{"value":0.0}}],"evaluatedResource":[{"reference":"Patient/4724cb2f-b5bd-4c50-85cc-4a5ba25f04ca"},{"reference":"Encounter/80536c36-9242-44ec-b8fb-82d597d73378"},{"reference":"Coverage/4f528509-0826-4d8b-9177-796f9da91c9f"},{"reference":"ServiceRequest/0c288443-9c47-40e9-85d0-cd4227a0544f"},{"reference":"Task/6313dae6-7b15-41bf-b142-d592435f547a"},{"reference":"Location/616ea6a6-185c-4cdb-8321-b61dbe7c8e5b"},{"reference":"Organization/e1c1a7ef-9950-4576-a7b2-9229a0547f32"},{"reference":"Practitioner/dd553cae-e0b5-4cc9-abf8-fa9329342b2a"}]},"request":{"method":"PUT","url":"MeasureReport/17de14de-49fa-4c45-b0b1-bb7a1d616eb4"}}]},"request":{"method":"PUT","url":"Bundle/612e6b9302c62a011f2ee63c"}},{"fullUrl":"Coverage/4f528509-0826-4d8b-9177-796f9da91c9f","resource":{"resourceType":"Coverage","id":"4f528509-0826-4d8b-9177-796f9da91c9f","status":"active","beneficiary":{"reference":"Patient/4724cb2f-b5bd-4c50-85cc-4a5ba25f04ca"},"period":{"start":"1975-01-02T08:00:00Z"},"payor":[{"reference":"Organization/e1c1a7ef-9950-4576-a7b2-9229a0547f32"}]},"request":{"method":"PUT","url":"Coverage/4f528509-0826-4d8b-9177-796f9da91c9f"}},{"fullUrl":"Location/616ea6a6-185c-4cdb-8321-b61dbe7c8e5b","resource":{"resourceType":"Location","id":"616ea6a6-185c-4cdb-8321-b61dbe7c8e5b","meta":{"profile":["http://hl7.org/fhir/us/qicore/StructureDefinition/qicore-location"]},"identifier":[{"use":"usual","system":"http://exampleoflocation.com","value":"B1-S.F2"}],"name":"Medical Surgical East, first floor","type":[{"coding":[{"system":"https://www.cdc.gov/nhsn/cdaportal/terminology/codesystem/hsloc.html","code":"1025-6","display":"Trauma Critical Care","userSelected":true}]}]},"request":{"method":"PUT","url":"Location/616ea6a6-185c-4cdb-8321-b61dbe7c8e5b"}},{"fullUrl":"Patient/4724cb2f-b5bd-4c50-85cc-4a5ba25f04ca","resource":{"resourceType":"Patient","id":"4724cb2f-b5bd-4c50-85cc-4a5ba25f04ca","meta":{"profile":["http://hl7.org/fhir/us/qicore/StructureDefinition/qicore-patient"]},"text":{"status":"generated","div":"<div xmlns=\"http://www.w3.org/1999/xhtml\"><div class=\"hapiHeaderText\">PtRefDOIPC2DayAFEncBFICU <b>NUMERPASS </b></div><table class=\"hapiPropertyTable\"><tbody><tr><td>Identifier</td><td>24fc1ce85ce14557dd4d9eba17df9f17</td></tr><tr><td>Date of birth</td><td><span>02 January 1974</span></td></tr></tbody></table></div>"},"extension":[{"url":"http://hl7.org/fhir/us/core/StructureDefinition/us-core-race","extension":[{"url":"ombCategory","valueCoding":{"system":"urn:oid:2.16.840.1.113883.6.238","code":"1002-5","display":"American Indian or Alaska Native","userSelected":true}},{"url":"text","valueString":"American Indian or Alaska Native"}]},{"url":"http://hl7.org/fhir/us/core/StructureDefinition/us-core-ethnicity","extension":[{"url":"ombCategory","valueCoding":{"system":"urn:oid:2.16.840.1.113883.6.238","code":"2135-2","display":"Hispanic or Latino","userSelected":true}},{"url":"text","valueString":"Hispanic or Latino"}]}],"identifier":[{"type":{"coding":[{"system":"http://terminology.hl7.org/CodeSystem/v2-0203","code":"MR"}]},"system":"https://bonnie-fhir.healthit.gov/","value":"612e6b9302c62a011f2ee63c"}],"active":true,"name":[{"use":"usual","family":"NUMERPass","given":["PtRefDOVFPTaskReject"]}],"gender":"male","birthDate":"1975-01-02"},"request":{"method":"PUT","url":"Patient/4724cb2f-b5bd-4c50-85cc-4a5ba25f04ca"}},{"fullUrl":"Practitioner/dd553cae-e0b5-4cc9-abf8-fa9329342b2a","resource":{"resourceType":"Practitioner","id":"dd553cae-e0b5-4cc9-abf8-fa9329342b2a","identifier":[{"system":"http://hl7.org/fhir/sid/us-npi","value":"123456"}],"name":[{"family":"Evil","prefix":["Dr"]}]},"request":{"method":"PUT","url":"Practitioner/dd553cae-e0b5-4cc9-abf8-fa9329342b2a"}},{"fullUrl":"Task/6313dae6-7b15-41bf-b142-d592435f547a","resource":{"resourceType":"Task","id":"6313dae6-7b15-41bf-b142-d592435f547a","meta":{"profile":["http://hl7.org/fhir/us/qicore/StructureDefinition/qicore-taskrejected"]},"status":"rejected","statusReason":{"coding":[{"system":"http://snomed.info/sct","code":"443390004","display":"Refusal of treatment by patient (situation)","userSelected":true}]},"code":{"coding":[{"system":"http://hl7.org/fhir/CodeSystem/task-code","code":"fulfill"}]},"focus":{"reference":"ServiceRequest/0c288443-9c47-40e9-85d0-cd4227a0544f"},"executionPeriod":{"start":"2026-11-03T19:00:00","end":"2026-11-03T19:00:00"}},"request":{"method":"PUT","url":"Task/6313dae6-7b15-41bf-b142-d592435f547a"}},{"fullUrl":"ServiceRequest/0c288443-9c47-40e9-85d0-cd4227a0544f","resource":{"resourceType":"ServiceRequest","id":"0c288443-9c47-40e9-85d0-cd4227a0544f","meta":{"profile":["http://hl7.org/fhir/us/qicore/StructureDefinition/qicore-servicerequest"]},"status":"active","intent":"order","code":{"coding":[{"system":"http://snomed.info/sct","code":"401640004","display":"Compression hosiery class II thigh length stocking circular knit made to measure (physical object)","userSelected":true}]},"subject":{"reference":"Patient/4724cb2f-b5bd-4c50-85cc-4a5ba25f04ca"},"authoredOn":"2026-11-03T11:00:00"},"request":{"method":"PUT","url":"ServiceRequest/0c288443-9c47-40e9-85d0-cd4227a0544f"}},{"fullUrl":"Encounter/80536c36-9242-44ec-b8fb-82d597d73378","resource":{"resourceType":"Encounter","id":"80536c36-9242-44ec-b8fb-82d597d73378","meta":{"profile":["http://hl7.org/fhir/us/qicore/StructureDefinition/qicore-encounter"]},"status":"finished","class":{"system":"http://terminology.hl7.org/CodeSystem/v3-ActCode","code":"IMP","display":"inpatient encounter"},"type":[{"coding":[{"system":"http://snomed.info/sct","code":"8715000"}]}],"subject":{"reference":"Patient/4724cb2f-b5bd-4c50-85cc-4a5ba25f04ca"},"period":{"start":"2026-11-01T08:00:00Z","end":"2026-11-26T08:15:00.000+00:00"},"length":{"value":25,"unit":"days"},"location":[{"location":{"reference":"Location/616ea6a6-185c-4cdb-8321-b61dbe7c8e5b"},"period":{"start":"2026-11-04T09:00:00Z","end":"2026-11-06T08:15:00.000+00:00"}}]},"request":{"method":"PUT","url":"Encounter/80536c36-9242-44ec-b8fb-82d597d73378"}},{"fullUrl":"Organization/e1c1a7ef-9950-4576-a7b2-9229a0547f32","resource":{"resourceType":"Organization","id":"e1c1a7ef-9950-4576-a7b2-9229a0547f32","meta":{"profile":["http://hl7.org/fhir/us/qicore/StructureDefinition/qicore-organization"]},"identifier":[{"use":"temp","system":"urn:oid:2.16.840.1.113883.4.4","value":"21-3259825"}],"active":true,"type":[{"coding":[{"system":"http://terminology.hl7.org/CodeSystem/organization-type","code":"pay","display":"Payer"}]}],"name":"Blue Cross Blue Shield of Texas","telecom":[{"system":"phone","value":"(+1) 972-766-6900"}],"address":[{"use":"billing","type":"postal","line":["P.O. Box 660044"],"city":"Dallas","state":"TX","postalCode":"75266-0044","country":"USA"}]},"request":{"method":"PUT","url":"Organization/e1c1a7ef-9950-4576-a7b2-9229a0547f32"}},{"fullUrl":"MeasureReport/17de14de-49fa-4c45-b0b1-bb7a1d616eb4","resource":{"resourceType":"MeasureReport","id":"17de14de-49fa-4c45-b0b1-bb7a1d616eb4","meta":{"profile":["http://hl7.org/fhir/us/cqfmeasures/StructureDefinition/test-case-cqfm"]},"contained":[{"resourceType":"Parameters","id":"f81c82bd-bd12-47ee-94db-4e5a29cff57a-parameters","parameter":[{"name":"subject","valueString":"4724cb2f-b5bd-4c50-85cc-4a5ba25f04ca"}]}],"extension":[{"url":"http://hl7.org/fhir/StructureDefinition/cqf-inputParameters","valueReference":{"reference":"#f81c82bd-bd12-47ee-94db-4e5a29cff57a-parameters"}},{"url":"http://hl7.org/fhir/us/cqfmeasures/StructureDefinition/cqfm-testCaseDescription","valueMarkdown":"meets IPP, meets Denominator, IPC ordered not done under TaskReject\n"}],"modifierExtension":[{"url":"http://hl7.org/fhir/us/cqfmeasures/StructureDefinition/cqfm-isTestCase","valueBoolean":true}],"status":"complete","type":"individual","measure":"https://madie.cms.gov/Measure/CMS190VTEProphylaxisICUFHIR","period":{"start":"2026-01-01","end":"2026-12-31"},"group":[{"id":"Group_1","population":[{"id":"InitialPopulation_1","code":{"coding":[{"system":"http://terminology.hl7.org/CodeSystem/measure-population","code":"initial-population","display":"Initial Population"}]},"count":1},{"id":"Denominator_1","code":{"coding":[{"system":"http://terminology.hl7.org/CodeSystem/measure-population","code":"denominator","display":"Denominator"}]},"count":1},{"id":"DenominatorExclusion_1","code":{"coding":[{"system":"http://terminology.hl7.org/CodeSystem/measure-population","code":"denominator-exclusion","display":"Denominator Exclusion"}]},"count":0},{"id":"Numerator_1","code":{"coding":[{"system":"http://terminology.hl7.org/CodeSystem/measure-population","code":"numerator","display":"Numerator"}]},"count":1},{"id":"DenominatorException_1","code":{"coding":[{"system":"http://terminology.hl7.org/CodeSystem/measure-population","code":"denominator-exception","display":"Denominator Exception"}]},"count":0}],"measureScore":{"value":0.0}}],"evaluatedResource":[{"reference":"Patient/4724cb2f-b5bd-4c50-85cc-4a5ba25f04ca"},{"reference":"Encounter/80536c36-9242-44ec-b8fb-82d597d73378"},{"reference":"Coverage/4f528509-0826-4d8b-9177-796f9da91c9f"},{"reference":"ServiceRequest/0c288443-9c47-40e9-85d0-cd4227a0544f"},{"reference":"Task/6313dae6-7b15-41bf-b142-d592435f547a"},{"reference":"Location/616ea6a6-185c-4cdb-8321-b61dbe7c8e5b"},{"reference":"Organization/e1c1a7ef-9950-4576-a7b2-9229a0547f32"},{"reference":"Practitioner/dd553cae-e0b5-4cc9-abf8-fa9329342b2a"}]},"request":{"method":"PUT","url":"MeasureReport/17de14de-49fa-4c45-b0b1-bb7a1d616eb4"}}]}