{"resourceType":"Bundle","id":"tests-67779759-3d22-4b31-b504-e04af90edfc0-bundle","type":"transaction","entry":[{"fullUrl":"Practitioner/0956f585-bb7b-4860-b452-ff41f42a6c8f","resource":{"resourceType":"Practitioner","id":"0956f585-bb7b-4860-b452-ff41f42a6c8f","identifier":[{"system":"http://hl7.org/fhir/sid/us-npi","value":"123456"}],"name":[{"family":"Evil","prefix":["Dr"]}]},"request":{"method":"PUT","url":"Practitioner/0956f585-bb7b-4860-b452-ff41f42a6c8f"}},{"fullUrl":"MeasureReport/b82af698-faa0-4f5d-b62f-031e89236c47","resource":{"resourceType":"MeasureReport","id":"b82af698-faa0-4f5d-b62f-031e89236c47","meta":{"profile":["http://hl7.org/fhir/us/cqfmeasures/StructureDefinition/test-case-cqfm"]},"contained":[{"resourceType":"Parameters","id":"4c454af9-7bc2-463b-84d7-af885fe5f1d2-parameters","parameter":[{"name":"subject","valueString":"67779759-3d22-4b31-b504-e04af90edfc0"}]}],"extension":[{"url":"http://hl7.org/fhir/StructureDefinition/cqf-inputParameters","valueReference":{"reference":"#4c454af9-7bc2-463b-84d7-af885fe5f1d2-parameters"}},{"url":"http://hl7.org/fhir/us/cqfmeasures/StructureDefinition/cqfm-testCaseDescription","valueMarkdown":"ICU ends concurrent with discharge\n"}],"modifierExtension":[{"url":"http://hl7.org/fhir/us/cqfmeasures/StructureDefinition/cqfm-isTestCase","valueBoolean":true}],"status":"complete","type":"individual","measure":"https://madie.cms.gov/Measure/CMS190VTEProphylaxisICUFHIR","period":{"start":"2026-01-01","end":"2026-12-31"},"group":[{"id":"Group_1","population":[{"id":"InitialPopulation_1","code":{"coding":[{"system":"http://terminology.hl7.org/CodeSystem/measure-population","code":"initial-population","display":"Initial Population"}]},"count":1},{"id":"Denominator_1","code":{"coding":[{"system":"http://terminology.hl7.org/CodeSystem/measure-population","code":"denominator","display":"Denominator"}]},"count":1},{"id":"DenominatorExclusion_1","code":{"coding":[{"system":"http://terminology.hl7.org/CodeSystem/measure-population","code":"denominator-exclusion","display":"Denominator Exclusion"}]},"count":0},{"id":"Numerator_1","code":{"coding":[{"system":"http://terminology.hl7.org/CodeSystem/measure-population","code":"numerator","display":"Numerator"}]},"count":0},{"id":"DenominatorException_1","code":{"coding":[{"system":"http://terminology.hl7.org/CodeSystem/measure-population","code":"denominator-exception","display":"Denominator Exception"}]},"count":0}],"measureScore":{"value":0.0}}],"evaluatedResource":[{"reference":"Patient/67779759-3d22-4b31-b504-e04af90edfc0"},{"reference":"Encounter/1cf3c5a9-2501-42dc-9496-e0f97baf5f4d"},{"reference":"Coverage/8e3f12f5-7379-4128-a62b-724b6421358e"},{"reference":"Location/f97ec361-ceba-47c9-9ec8-d1d0583353ce"},{"reference":"Organization/9de61e7d-e60a-482e-9fd9-a9bce2444e6d"},{"reference":"Practitioner/0956f585-bb7b-4860-b452-ff41f42a6c8f"}]},"request":{"method":"PUT","url":"MeasureReport/b82af698-faa0-4f5d-b62f-031e89236c47"}},{"fullUrl":"Coverage/8e3f12f5-7379-4128-a62b-724b6421358e","resource":{"resourceType":"Coverage","id":"8e3f12f5-7379-4128-a62b-724b6421358e","status":"active","beneficiary":{"reference":"Patient/67779759-3d22-4b31-b504-e04af90edfc0"},"period":{"start":"1975-03-03T08:00:00.000+00:00"},"payor":[{"reference":"Organization/9de61e7d-e60a-482e-9fd9-a9bce2444e6d"}]},"request":{"method":"PUT","url":"Coverage/8e3f12f5-7379-4128-a62b-724b6421358e"}},{"fullUrl":"Location/f97ec361-ceba-47c9-9ec8-d1d0583353ce","resource":{"resourceType":"Location","id":"f97ec361-ceba-47c9-9ec8-d1d0583353ce","meta":{"profile":["http://hl7.org/fhir/us/qicore/StructureDefinition/qicore-location"]},"identifier":[{"use":"usual","system":"http://exampleoflocation.com","value":"B1-S.F2"}],"name":"Medical Surgical East, first floor","type":[{"coding":[{"system":"https://www.cdc.gov/nhsn/cdaportal/terminology/codesystem/hsloc.html","code":"1025-6","display":"Trauma Critical Care","userSelected":true}]}]},"request":{"method":"PUT","url":"Location/f97ec361-ceba-47c9-9ec8-d1d0583353ce"}},{"fullUrl":"Organization/9de61e7d-e60a-482e-9fd9-a9bce2444e6d","resource":{"resourceType":"Organization","id":"9de61e7d-e60a-482e-9fd9-a9bce2444e6d","meta":{"profile":["http://hl7.org/fhir/us/qicore/StructureDefinition/qicore-organization"]},"identifier":[{"use":"temp","system":"urn:oid:2.16.840.1.113883.4.4","value":"21-3259825"}],"active":true,"type":[{"coding":[{"system":"http://terminology.hl7.org/CodeSystem/organization-type","code":"pay","display":"Payer"}]}],"name":"Blue Cross Blue Shield of Texas","telecom":[{"system":"phone","value":"(+1) 972-766-6900"}],"address":[{"use":"billing","type":"postal","line":["P.O. Box 660044"],"city":"Dallas","state":"TX","postalCode":"75266-0044","country":"USA"}]},"request":{"method":"PUT","url":"Organization/9de61e7d-e60a-482e-9fd9-a9bce2444e6d"}},{"fullUrl":"Patient/67779759-3d22-4b31-b504-e04af90edfc0","resource":{"resourceType":"Patient","id":"67779759-3d22-4b31-b504-e04af90edfc0","meta":{"profile":["http://hl7.org/fhir/us/qicore/StructureDefinition/qicore-patient"]},"text":{"status":"generated","div":"<div xmlns=\"http://www.w3.org/1999/xhtml\"><div class=\"hapiHeaderText\">ICUEndOnEncEnd <b>DENOMPASS </b></div><table class=\"hapiPropertyTable\"><tbody><tr><td>Identifier</td><td>d2ffb757f543275338776a1648cb3dc0</td></tr><tr><td>Date of birth</td><td><span>31 January 1979</span></td></tr></tbody></table></div>"},"extension":[{"url":"http://hl7.org/fhir/us/core/StructureDefinition/us-core-race","extension":[{"url":"ombCategory","valueCoding":{"system":"urn:oid:2.16.840.1.113883.6.238","code":"1002-5","display":"American Indian or Alaska Native","userSelected":true}},{"url":"text","valueString":"American Indian or Alaska Native"}]},{"url":"http://hl7.org/fhir/us/core/StructureDefinition/us-core-ethnicity","extension":[{"url":"ombCategory","valueCoding":{"system":"urn:oid:2.16.840.1.113883.6.238","code":"2135-2","display":"Hispanic or Latino","userSelected":true}},{"url":"text","valueString":"Hispanic or Latino"}]}],"identifier":[{"type":{"coding":[{"system":"http://terminology.hl7.org/CodeSystem/v2-0203","code":"MR"}]},"system":"https://bonnie-fhir.healthit.gov/","value":"612e6f1602c62a011f2f0b00"}],"active":true,"name":[{"use":"usual","family":"DENOMPass","given":["ICUEndOnEncEnd"]}],"gender":"male","birthDate":"1980-01-31"},"request":{"method":"PUT","url":"Patient/67779759-3d22-4b31-b504-e04af90edfc0"}},{"fullUrl":"Encounter/1cf3c5a9-2501-42dc-9496-e0f97baf5f4d","resource":{"resourceType":"Encounter","id":"1cf3c5a9-2501-42dc-9496-e0f97baf5f4d","meta":{"profile":["http://hl7.org/fhir/us/qicore/StructureDefinition/qicore-encounter"]},"status":"finished","class":{"system":"http://terminology.hl7.org/CodeSystem/v3-ActCode","code":"IMP","display":"inpatient encounter"},"type":[{"coding":[{"system":"http://snomed.info/sct","code":"8715000"}]}],"subject":{"reference":"Patient/67779759-3d22-4b31-b504-e04af90edfc0"},"period":{"start":"2026-12-01T00:00:00.000+00:00","end":"2026-12-31T23:59:00.000+00:00"},"length":{"value":30.0,"unit":"days"},"location":[{"location":{"reference":"Location/f97ec361-ceba-47c9-9ec8-d1d0583353ce"},"period":{"start":"2026-12-29T08:00:00.000+00:00","end":"2026-12-31T11:59:00.000+00:00"}}]},"request":{"method":"PUT","url":"Encounter/1cf3c5a9-2501-42dc-9496-e0f97baf5f4d"}},{"fullUrl":"Bundle/612e6f1602c62a011f2f0b00","resource":{"resourceType":"Bundle","id":"612e6f1602c62a011f2f0b00","type":"transaction","entry":[{"fullUrl":"https://madie.cms.gov/Patient/67779759-3d22-4b31-b504-e04af90edfc0","resource":{"resourceType":"Patient","id":"67779759-3d22-4b31-b504-e04af90edfc0","meta":{"profile":["http://hl7.org/fhir/us/qicore/StructureDefinition/qicore-patient"]},"text":{"status":"generated","div":"<div xmlns=\"http://www.w3.org/1999/xhtml\"><div class=\"hapiHeaderText\">ICUEndOnEncEnd <b>DENOMPASS </b></div><table class=\"hapiPropertyTable\"><tbody><tr><td>Identifier</td><td>d2ffb757f543275338776a1648cb3dc0</td></tr><tr><td>Date of birth</td><td><span>31 January 1979</span></td></tr></tbody></table></div>"},"extension":[{"url":"http://hl7.org/fhir/us/core/StructureDefinition/us-core-race","extension":[{"url":"ombCategory","valueCoding":{"system":"urn:oid:2.16.840.1.113883.6.238","code":"1002-5","display":"American Indian or Alaska Native","userSelected":true}},{"url":"text","valueString":"American Indian or Alaska Native"}]},{"url":"http://hl7.org/fhir/us/core/StructureDefinition/us-core-ethnicity","extension":[{"url":"ombCategory","valueCoding":{"system":"urn:oid:2.16.840.1.113883.6.238","code":"2135-2","display":"Hispanic or Latino","userSelected":true}},{"url":"text","valueString":"Hispanic or Latino"}]}],"identifier":[{"type":{"coding":[{"system":"http://terminology.hl7.org/CodeSystem/v2-0203","code":"MR"}]},"system":"https://bonnie-fhir.healthit.gov/","value":"612e6f1602c62a011f2f0b00"}],"active":true,"name":[{"use":"usual","family":"DENOMPass","given":["ICUEndOnEncEnd"]}],"gender":"male","birthDate":"1980-01-31"},"request":{"method":"PUT","url":"Patient/67779759-3d22-4b31-b504-e04af90edfc0"}},{"fullUrl":"https://madie.cms.gov/Encounter/1cf3c5a9-2501-42dc-9496-e0f97baf5f4d","resource":{"resourceType":"Encounter","id":"1cf3c5a9-2501-42dc-9496-e0f97baf5f4d","meta":{"profile":["http://hl7.org/fhir/us/qicore/StructureDefinition/qicore-encounter"]},"status":"finished","class":{"system":"http://terminology.hl7.org/CodeSystem/v3-ActCode","code":"IMP","display":"inpatient encounter"},"type":[{"coding":[{"system":"http://snomed.info/sct","code":"8715000"}]}],"subject":{"reference":"Patient/67779759-3d22-4b31-b504-e04af90edfc0"},"period":{"start":"2026-12-01T00:00:00.000+00:00","end":"2026-12-31T23:59:00.000+00:00"},"length":{"value":30.0,"unit":"days"},"location":[{"location":{"reference":"Location/f97ec361-ceba-47c9-9ec8-d1d0583353ce"},"period":{"start":"2026-12-29T08:00:00.000+00:00","end":"2026-12-31T11:59:00.000+00:00"}}]},"request":{"method":"PUT","url":"Encounter/1cf3c5a9-2501-42dc-9496-e0f97baf5f4d"}},{"fullUrl":"https://madie.cms.gov/Coverage/8e3f12f5-7379-4128-a62b-724b6421358e","resource":{"resourceType":"Coverage","id":"8e3f12f5-7379-4128-a62b-724b6421358e","status":"active","beneficiary":{"reference":"Patient/67779759-3d22-4b31-b504-e04af90edfc0"},"period":{"start":"1975-03-03T08:00:00.000+00:00"},"payor":[{"reference":"Organization/9de61e7d-e60a-482e-9fd9-a9bce2444e6d"}]},"request":{"method":"PUT","url":"Coverage/8e3f12f5-7379-4128-a62b-724b6421358e"}},{"fullUrl":"https://madie.cms.gov/Location/f97ec361-ceba-47c9-9ec8-d1d0583353ce","resource":{"resourceType":"Location","id":"f97ec361-ceba-47c9-9ec8-d1d0583353ce","meta":{"profile":["http://hl7.org/fhir/us/qicore/StructureDefinition/qicore-location"]},"identifier":[{"use":"usual","system":"http://exampleoflocation.com","value":"B1-S.F2"}],"name":"Medical Surgical East, first floor","type":[{"coding":[{"system":"https://www.cdc.gov/nhsn/cdaportal/terminology/codesystem/hsloc.html","code":"1025-6","display":"Trauma Critical Care","userSelected":true}]}]},"request":{"method":"PUT","url":"Location/f97ec361-ceba-47c9-9ec8-d1d0583353ce"}},{"fullUrl":"https://madie.cms.gov/Organization/9de61e7d-e60a-482e-9fd9-a9bce2444e6d","resource":{"resourceType":"Organization","id":"9de61e7d-e60a-482e-9fd9-a9bce2444e6d","meta":{"profile":["http://hl7.org/fhir/us/qicore/StructureDefinition/qicore-organization"]},"identifier":[{"use":"temp","system":"urn:oid:2.16.840.1.113883.4.4","value":"21-3259825"}],"active":true,"type":[{"coding":[{"system":"http://terminology.hl7.org/CodeSystem/organization-type","code":"pay","display":"Payer"}]}],"name":"Blue Cross Blue Shield of Texas","telecom":[{"system":"phone","value":"(+1) 972-766-6900"}],"address":[{"use":"billing","type":"postal","line":["P.O. Box 660044"],"city":"Dallas","state":"TX","postalCode":"75266-0044","country":"USA"}]},"request":{"method":"PUT","url":"Organization/9de61e7d-e60a-482e-9fd9-a9bce2444e6d"}},{"fullUrl":"https://madie.cms.gov/Practitioner/0956f585-bb7b-4860-b452-ff41f42a6c8f","resource":{"resourceType":"Practitioner","id":"0956f585-bb7b-4860-b452-ff41f42a6c8f","identifier":[{"system":"http://hl7.org/fhir/sid/us-npi","value":"123456"}],"name":[{"family":"Evil","prefix":["Dr"]}]},"request":{"method":"PUT","url":"Practitioner/0956f585-bb7b-4860-b452-ff41f42a6c8f"}},{"fullUrl":"https://madie.cms.gov/MeasureReport/b82af698-faa0-4f5d-b62f-031e89236c47","resource":{"resourceType":"MeasureReport","id":"b82af698-faa0-4f5d-b62f-031e89236c47","meta":{"profile":["http://hl7.org/fhir/us/cqfmeasures/StructureDefinition/test-case-cqfm"]},"contained":[{"resourceType":"Parameters","id":"4c454af9-7bc2-463b-84d7-af885fe5f1d2-parameters","parameter":[{"name":"subject","valueString":"67779759-3d22-4b31-b504-e04af90edfc0"}]}],"extension":[{"url":"http://hl7.org/fhir/StructureDefinition/cqf-inputParameters","valueReference":{"reference":"#4c454af9-7bc2-463b-84d7-af885fe5f1d2-parameters"}},{"url":"http://hl7.org/fhir/us/cqfmeasures/StructureDefinition/cqfm-testCaseDescription","valueMarkdown":"ICU ends concurrent with discharge\n"}],"modifierExtension":[{"url":"http://hl7.org/fhir/us/cqfmeasures/StructureDefinition/cqfm-isTestCase","valueBoolean":true}],"status":"complete","type":"individual","measure":"https://madie.cms.gov/Measure/CMS190VTEProphylaxisICUFHIR","period":{"start":"2026-01-01","end":"2026-12-31"},"group":[{"id":"Group_1","population":[{"id":"InitialPopulation_1","code":{"coding":[{"system":"http://terminology.hl7.org/CodeSystem/measure-population","code":"initial-population","display":"Initial Population"}]},"count":1},{"id":"Denominator_1","code":{"coding":[{"system":"http://terminology.hl7.org/CodeSystem/measure-population","code":"denominator","display":"Denominator"}]},"count":1},{"id":"DenominatorExclusion_1","code":{"coding":[{"system":"http://terminology.hl7.org/CodeSystem/measure-population","code":"denominator-exclusion","display":"Denominator Exclusion"}]},"count":0},{"id":"Numerator_1","code":{"coding":[{"system":"http://terminology.hl7.org/CodeSystem/measure-population","code":"numerator","display":"Numerator"}]},"count":0},{"id":"DenominatorException_1","code":{"coding":[{"system":"http://terminology.hl7.org/CodeSystem/measure-population","code":"denominator-exception","display":"Denominator Exception"}]},"count":0}],"measureScore":{"value":0.0}}],"evaluatedResource":[{"reference":"Patient/67779759-3d22-4b31-b504-e04af90edfc0"},{"reference":"Encounter/1cf3c5a9-2501-42dc-9496-e0f97baf5f4d"},{"reference":"Coverage/8e3f12f5-7379-4128-a62b-724b6421358e"},{"reference":"Location/f97ec361-ceba-47c9-9ec8-d1d0583353ce"},{"reference":"Organization/9de61e7d-e60a-482e-9fd9-a9bce2444e6d"},{"reference":"Practitioner/0956f585-bb7b-4860-b452-ff41f42a6c8f"}]},"request":{"method":"PUT","url":"MeasureReport/b82af698-faa0-4f5d-b62f-031e89236c47"}}]},"request":{"method":"PUT","url":"Bundle/612e6f1602c62a011f2f0b00"}}]}