{"resourceType":"Bundle","id":"tests-f028ed8f-f83b-4c77-bb08-2c4df7694a12-bundle","type":"transaction","entry":[{"resource":{"resourceType":"Organization","id":"83cf849b-60ec-4fec-9e03-6f28fe8a2fd1","meta":{"profile":["http://hl7.org/fhir/us/qicore/StructureDefinition/qicore-organization"]},"identifier":[{"use":"temp","system":"urn:oid:2.16.840.1.113883.4.4","value":"21-3259825"}],"active":true,"type":[{"coding":[{"system":"http://terminology.hl7.org/CodeSystem/organization-type","code":"pay","display":"Payer"}]}],"name":"Blue Cross Blue Shield of Texas","telecom":[{"system":"phone","value":"(+1) 972-766-6900"}],"address":[{"use":"billing","type":"postal","line":["P.O. Box 660044"],"city":"Dallas","state":"TX","postalCode":"75266-0044","country":"USA"}]},"request":{"method":"PUT","url":"Organization/83cf849b-60ec-4fec-9e03-6f28fe8a2fd1"}},{"resource":{"resourceType":"Procedure","id":"5710e3d4-2a7e-4a5b-9d2b-5a7e46713e92","meta":{"profile":["http://hl7.org/fhir/us/qicore/StructureDefinition/qicore-procedure"]},"extension":[{"url":"http://hl7.org/fhir/us/qicore/StructureDefinition/qicore-recorded","valueDateTime":"2013-12-09T13:35:00.000+00:00"}],"status":"completed","code":{"coding":[{"system":"http://snomed.info/sct","code":"18946005"}]},"subject":{"reference":"Patient/f028ed8f-f83b-4c77-bb08-2c4df7694a12"},"performedPeriod":{"end":"2026-12-07T11:15:00.000+00:00"}},"request":{"method":"PUT","url":"Procedure/5710e3d4-2a7e-4a5b-9d2b-5a7e46713e92"}},{"resource":{"resourceType":"Location","id":"c0b737b7-f9a3-4b0e-85f5-43771268dabc","meta":{"profile":["http://hl7.org/fhir/us/qicore/StructureDefinition/qicore-location"]},"identifier":[{"use":"usual","system":"http://exampleoflocation.com","value":"B1-S.F2"}],"name":"Medical Surgical East, first floor","type":[{"coding":[{"system":"https://www.cdc.gov/nhsn/cdaportal/terminology/codesystem/hsloc.html","code":"1025-6","display":"Trauma Critical Care","userSelected":true}]}]},"request":{"method":"PUT","url":"Location/c0b737b7-f9a3-4b0e-85f5-43771268dabc"}},{"resource":{"resourceType":"Practitioner","id":"d3225bf9-6cb0-40ce-b392-17b5cadfa38c","identifier":[{"system":"http://hl7.org/fhir/sid/us-npi","value":"123456"}],"name":[{"family":"Evil","prefix":["Dr"]}]},"request":{"method":"PUT","url":"Practitioner/d3225bf9-6cb0-40ce-b392-17b5cadfa38c"}},{"resource":{"resourceType":"Bundle","id":"612e6e8702c62a011f2eebda","type":"transaction","entry":[{"fullUrl":"https://madie.cms.gov/Patient/f028ed8f-f83b-4c77-bb08-2c4df7694a12","resource":{"resourceType":"Patient","id":"f028ed8f-f83b-4c77-bb08-2c4df7694a12","meta":{"profile":["http://hl7.org/fhir/us/qicore/StructureDefinition/qicore-patient"]},"text":{"status":"generated","div":"<div xmlns=\"http://www.w3.org/1999/xhtml\"><div class=\"hapiHeaderText\">CMOPerf_DayAfterAnes_ProcRvltDT <b>DENEXPASS </b></div><table class=\"hapiPropertyTable\"><tbody><tr><td>Identifier</td><td>0fe0fbaacaf0868ff4d29642725703ce</td></tr><tr><td>Date of birth</td><td><span>03 March 1974</span></td></tr></tbody></table></div>"},"extension":[{"url":"http://hl7.org/fhir/us/core/StructureDefinition/us-core-race","extension":[{"url":"ombCategory","valueCoding":{"system":"urn:oid:2.16.840.1.113883.6.238","code":"1002-5","display":"American Indian or Alaska Native","userSelected":true}},{"url":"text","valueString":"American Indian or Alaska Native"}]},{"url":"http://hl7.org/fhir/us/core/StructureDefinition/us-core-ethnicity","extension":[{"url":"ombCategory","valueCoding":{"system":"urn:oid:2.16.840.1.113883.6.238","code":"2135-2","display":"Hispanic or Latino","userSelected":true}},{"url":"text","valueString":"Hispanic or Latino"}]}],"identifier":[{"type":{"coding":[{"system":"http://terminology.hl7.org/CodeSystem/v2-0203","code":"MR"}]},"system":"https://bonnie-fhir.healthit.gov/","value":"612e6e8702c62a011f2eebda"}],"active":true,"name":[{"use":"usual","family":"DENEXPass","given":["CMOPerf_DayAfterAnes_ProcRvltDT"]}],"gender":"female","birthDate":"1975-03-03"},"request":{"method":"PUT","url":"Patient/f028ed8f-f83b-4c77-bb08-2c4df7694a12"}},{"fullUrl":"https://madie.cms.gov/Encounter/defecce8-1302-46f2-a67e-9070bda1c2e5","resource":{"resourceType":"Encounter","id":"defecce8-1302-46f2-a67e-9070bda1c2e5","meta":{"profile":["http://hl7.org/fhir/us/qicore/StructureDefinition/qicore-encounter"]},"status":"finished","class":{"system":"http://terminology.hl7.org/CodeSystem/v3-ActCode","code":"IMP","display":"inpatient encounter"},"type":[{"coding":[{"system":"http://snomed.info/sct","code":"8715000"}]}],"subject":{"reference":"Patient/f028ed8f-f83b-4c77-bb08-2c4df7694a12"},"period":{"start":"2026-12-04T08:00:00.000+00:00","end":"2026-12-30T08:15:00.000+00:00"},"length":{"value":26.0,"unit":"days"},"location":[{"location":{"reference":"Location/c0b737b7-f9a3-4b0e-85f5-43771268dabc"},"period":{"start":"2026-12-06T08:00:00.000+00:00","end":"2026-12-12T08:15:00.000+00:00"}}]},"request":{"method":"PUT","url":"Encounter/defecce8-1302-46f2-a67e-9070bda1c2e5"}},{"fullUrl":"https://madie.cms.gov/Procedure/4c1cb522-0d11-4822-a0f0-334aaeb39157","resource":{"resourceType":"Procedure","id":"4c1cb522-0d11-4822-a0f0-334aaeb39157","meta":{"profile":["http://hl7.org/fhir/us/qicore/StructureDefinition/qicore-procedure"]},"extension":[{"url":"http://hl7.org/fhir/us/qicore/StructureDefinition/qicore-recorded","valueDateTime":"2013-12-04T13:35:00.000+00:00"}],"status":"completed","code":{"coding":[{"system":"http://snomed.info/sct","code":"133918004"}]},"subject":{"reference":"Patient/f028ed8f-f83b-4c77-bb08-2c4df7694a12"},"performedDateTime":"2026-12-08T08:00:00.000+00:00"},"request":{"method":"PUT","url":"Procedure/4c1cb522-0d11-4822-a0f0-334aaeb39157"}},{"fullUrl":"https://madie.cms.gov/Coverage/6591be60-c654-4892-9ff1-f939f96fc858","resource":{"resourceType":"Coverage","id":"6591be60-c654-4892-9ff1-f939f96fc858","status":"active","beneficiary":{"reference":"Patient/f028ed8f-f83b-4c77-bb08-2c4df7694a12"},"period":{"start":"1975-03-03T08:00:00.000+00:00"},"payor":[{"reference":"Organization/83cf849b-60ec-4fec-9e03-6f28fe8a2fd1"}]},"request":{"method":"PUT","url":"Coverage/6591be60-c654-4892-9ff1-f939f96fc858"}},{"fullUrl":"https://madie.cms.gov/Procedure/5710e3d4-2a7e-4a5b-9d2b-5a7e46713e92","resource":{"resourceType":"Procedure","id":"5710e3d4-2a7e-4a5b-9d2b-5a7e46713e92","meta":{"profile":["http://hl7.org/fhir/us/qicore/StructureDefinition/qicore-procedure"]},"extension":[{"url":"http://hl7.org/fhir/us/qicore/StructureDefinition/qicore-recorded","valueDateTime":"2013-12-09T13:35:00.000+00:00"}],"status":"completed","code":{"coding":[{"system":"http://snomed.info/sct","code":"18946005"}]},"subject":{"reference":"Patient/f028ed8f-f83b-4c77-bb08-2c4df7694a12"},"performedPeriod":{"end":"2026-12-07T11:15:00.000+00:00"}},"request":{"method":"PUT","url":"Procedure/5710e3d4-2a7e-4a5b-9d2b-5a7e46713e92"}},{"fullUrl":"https://madie.cms.gov/Location/c0b737b7-f9a3-4b0e-85f5-43771268dabc","resource":{"resourceType":"Location","id":"c0b737b7-f9a3-4b0e-85f5-43771268dabc","meta":{"profile":["http://hl7.org/fhir/us/qicore/StructureDefinition/qicore-location"]},"identifier":[{"use":"usual","system":"http://exampleoflocation.com","value":"B1-S.F2"}],"name":"Medical Surgical East, first floor","type":[{"coding":[{"system":"https://www.cdc.gov/nhsn/cdaportal/terminology/codesystem/hsloc.html","code":"1025-6","display":"Trauma Critical Care","userSelected":true}]}]},"request":{"method":"PUT","url":"Location/c0b737b7-f9a3-4b0e-85f5-43771268dabc"}},{"fullUrl":"https://madie.cms.gov/Organization/83cf849b-60ec-4fec-9e03-6f28fe8a2fd1","resource":{"resourceType":"Organization","id":"83cf849b-60ec-4fec-9e03-6f28fe8a2fd1","meta":{"profile":["http://hl7.org/fhir/us/qicore/StructureDefinition/qicore-organization"]},"identifier":[{"use":"temp","system":"urn:oid:2.16.840.1.113883.4.4","value":"21-3259825"}],"active":true,"type":[{"coding":[{"system":"http://terminology.hl7.org/CodeSystem/organization-type","code":"pay","display":"Payer"}]}],"name":"Blue Cross Blue Shield of Texas","telecom":[{"system":"phone","value":"(+1) 972-766-6900"}],"address":[{"use":"billing","type":"postal","line":["P.O. Box 660044"],"city":"Dallas","state":"TX","postalCode":"75266-0044","country":"USA"}]},"request":{"method":"PUT","url":"Organization/83cf849b-60ec-4fec-9e03-6f28fe8a2fd1"}},{"fullUrl":"https://madie.cms.gov/Practitioner/d3225bf9-6cb0-40ce-b392-17b5cadfa38c","resource":{"resourceType":"Practitioner","id":"d3225bf9-6cb0-40ce-b392-17b5cadfa38c","identifier":[{"system":"http://hl7.org/fhir/sid/us-npi","value":"123456"}],"name":[{"family":"Evil","prefix":["Dr"]}]},"request":{"method":"PUT","url":"Practitioner/d3225bf9-6cb0-40ce-b392-17b5cadfa38c"}},{"fullUrl":"https://madie.cms.gov/MeasureReport/1cbe4aa4-c2c2-4080-825e-6541f4d2d2f9","resource":{"resourceType":"MeasureReport","id":"1cbe4aa4-c2c2-4080-825e-6541f4d2d2f9","meta":{"profile":["http://hl7.org/fhir/us/cqfmeasures/StructureDefinition/test-case-cqfm"]},"contained":[{"resourceType":"Parameters","id":"c90b8275-b54e-45ad-b3c4-7180fd569267-parameters","parameter":[{"name":"subject","valueString":"f028ed8f-f83b-4c77-bb08-2c4df7694a12"}]}],"extension":[{"url":"http://hl7.org/fhir/StructureDefinition/cqf-inputParameters","valueReference":{"reference":"#c90b8275-b54e-45ad-b3c4-7180fd569267-parameters"}},{"url":"http://hl7.org/fhir/us/cqfmeasures/StructureDefinition/cqfm-testCaseDescription","valueMarkdown":"comfort measures starts after neuraxial anesthesia by using Procedure relevant datetime. Using RevelantDT for both CMP and anethesia\n"}],"modifierExtension":[{"url":"http://hl7.org/fhir/us/cqfmeasures/StructureDefinition/cqfm-isTestCase","valueBoolean":true}],"status":"complete","type":"individual","measure":"https://madie.cms.gov/Measure/CMS190VTEProphylaxisICUFHIR","period":{"start":"2026-01-01","end":"2026-12-31"},"group":[{"id":"Group_1","population":[{"id":"InitialPopulation_1","code":{"coding":[{"system":"http://terminology.hl7.org/CodeSystem/measure-population","code":"initial-population","display":"Initial Population"}]},"count":1},{"id":"Denominator_1","code":{"coding":[{"system":"http://terminology.hl7.org/CodeSystem/measure-population","code":"denominator","display":"Denominator"}]},"count":1},{"id":"DenominatorExclusion_1","code":{"coding":[{"system":"http://terminology.hl7.org/CodeSystem/measure-population","code":"denominator-exclusion","display":"Denominator Exclusion"}]},"count":1},{"id":"Numerator_1","code":{"coding":[{"system":"http://terminology.hl7.org/CodeSystem/measure-population","code":"numerator","display":"Numerator"}]},"count":0},{"id":"DenominatorException_1","code":{"coding":[{"system":"http://terminology.hl7.org/CodeSystem/measure-population","code":"denominator-exception","display":"Denominator Exception"}]},"count":0}],"measureScore":{"value":0.0}}],"evaluatedResource":[{"reference":"Patient/f028ed8f-f83b-4c77-bb08-2c4df7694a12"},{"reference":"Encounter/defecce8-1302-46f2-a67e-9070bda1c2e5"},{"reference":"Procedure/4c1cb522-0d11-4822-a0f0-334aaeb39157"},{"reference":"Coverage/6591be60-c654-4892-9ff1-f939f96fc858"},{"reference":"Procedure/5710e3d4-2a7e-4a5b-9d2b-5a7e46713e92"},{"reference":"Location/c0b737b7-f9a3-4b0e-85f5-43771268dabc"},{"reference":"Organization/83cf849b-60ec-4fec-9e03-6f28fe8a2fd1"},{"reference":"Practitioner/d3225bf9-6cb0-40ce-b392-17b5cadfa38c"}]},"request":{"method":"PUT","url":"MeasureReport/1cbe4aa4-c2c2-4080-825e-6541f4d2d2f9"}}]},"request":{"method":"PUT","url":"Bundle/612e6e8702c62a011f2eebda"}},{"resource":{"resourceType":"Patient","id":"f028ed8f-f83b-4c77-bb08-2c4df7694a12","meta":{"profile":["http://hl7.org/fhir/us/qicore/StructureDefinition/qicore-patient"]},"text":{"status":"generated","div":"<div xmlns=\"http://www.w3.org/1999/xhtml\"><div class=\"hapiHeaderText\">CMOPerf_DayAfterAnes_ProcRvltDT <b>DENEXPASS </b></div><table class=\"hapiPropertyTable\"><tbody><tr><td>Identifier</td><td>0fe0fbaacaf0868ff4d29642725703ce</td></tr><tr><td>Date of birth</td><td><span>03 March 1974</span></td></tr></tbody></table></div>"},"extension":[{"url":"http://hl7.org/fhir/us/core/StructureDefinition/us-core-race","extension":[{"url":"ombCategory","valueCoding":{"system":"urn:oid:2.16.840.1.113883.6.238","code":"1002-5","display":"American Indian or Alaska Native","userSelected":true}},{"url":"text","valueString":"American Indian or Alaska Native"}]},{"url":"http://hl7.org/fhir/us/core/StructureDefinition/us-core-ethnicity","extension":[{"url":"ombCategory","valueCoding":{"system":"urn:oid:2.16.840.1.113883.6.238","code":"2135-2","display":"Hispanic or Latino","userSelected":true}},{"url":"text","valueString":"Hispanic or Latino"}]}],"identifier":[{"type":{"coding":[{"system":"http://terminology.hl7.org/CodeSystem/v2-0203","code":"MR"}]},"system":"https://bonnie-fhir.healthit.gov/","value":"612e6e8702c62a011f2eebda"}],"active":true,"name":[{"use":"usual","family":"DENEXPass","given":["CMOPerf_DayAfterAnes_ProcRvltDT"]}],"gender":"female","birthDate":"1975-03-03"},"request":{"method":"PUT","url":"Patient/f028ed8f-f83b-4c77-bb08-2c4df7694a12"}},{"resource":{"resourceType":"Coverage","id":"6591be60-c654-4892-9ff1-f939f96fc858","status":"active","beneficiary":{"reference":"Patient/f028ed8f-f83b-4c77-bb08-2c4df7694a12"},"period":{"start":"1975-03-03T08:00:00.000+00:00"},"payor":[{"reference":"Organization/83cf849b-60ec-4fec-9e03-6f28fe8a2fd1"}]},"request":{"method":"PUT","url":"Coverage/6591be60-c654-4892-9ff1-f939f96fc858"}},{"resource":{"resourceType":"MeasureReport","id":"1cbe4aa4-c2c2-4080-825e-6541f4d2d2f9","meta":{"profile":["http://hl7.org/fhir/us/cqfmeasures/StructureDefinition/test-case-cqfm"]},"contained":[{"resourceType":"Parameters","id":"c90b8275-b54e-45ad-b3c4-7180fd569267-parameters","parameter":[{"name":"subject","valueString":"f028ed8f-f83b-4c77-bb08-2c4df7694a12"}]}],"extension":[{"url":"http://hl7.org/fhir/StructureDefinition/cqf-inputParameters","valueReference":{"reference":"#c90b8275-b54e-45ad-b3c4-7180fd569267-parameters"}},{"url":"http://hl7.org/fhir/us/cqfmeasures/StructureDefinition/cqfm-testCaseDescription","valueMarkdown":"comfort measures starts after neuraxial anesthesia by using Procedure relevant datetime. Using RevelantDT for both CMP and anethesia\n"}],"modifierExtension":[{"url":"http://hl7.org/fhir/us/cqfmeasures/StructureDefinition/cqfm-isTestCase","valueBoolean":true}],"status":"complete","type":"individual","measure":"https://madie.cms.gov/Measure/CMS190VTEProphylaxisICUFHIR","period":{"start":"2026-01-01","end":"2026-12-31"},"group":[{"id":"Group_1","population":[{"id":"InitialPopulation_1","code":{"coding":[{"system":"http://terminology.hl7.org/CodeSystem/measure-population","code":"initial-population","display":"Initial Population"}]},"count":1},{"id":"Denominator_1","code":{"coding":[{"system":"http://terminology.hl7.org/CodeSystem/measure-population","code":"denominator","display":"Denominator"}]},"count":1},{"id":"DenominatorExclusion_1","code":{"coding":[{"system":"http://terminology.hl7.org/CodeSystem/measure-population","code":"denominator-exclusion","display":"Denominator Exclusion"}]},"count":1},{"id":"Numerator_1","code":{"coding":[{"system":"http://terminology.hl7.org/CodeSystem/measure-population","code":"numerator","display":"Numerator"}]},"count":0},{"id":"DenominatorException_1","code":{"coding":[{"system":"http://terminology.hl7.org/CodeSystem/measure-population","code":"denominator-exception","display":"Denominator Exception"}]},"count":0}],"measureScore":{"value":0.0}}],"evaluatedResource":[{"reference":"Patient/f028ed8f-f83b-4c77-bb08-2c4df7694a12"},{"reference":"Encounter/defecce8-1302-46f2-a67e-9070bda1c2e5"},{"reference":"Procedure/4c1cb522-0d11-4822-a0f0-334aaeb39157"},{"reference":"Coverage/6591be60-c654-4892-9ff1-f939f96fc858"},{"reference":"Procedure/5710e3d4-2a7e-4a5b-9d2b-5a7e46713e92"},{"reference":"Location/c0b737b7-f9a3-4b0e-85f5-43771268dabc"},{"reference":"Organization/83cf849b-60ec-4fec-9e03-6f28fe8a2fd1"},{"reference":"Practitioner/d3225bf9-6cb0-40ce-b392-17b5cadfa38c"}]},"request":{"method":"PUT","url":"MeasureReport/1cbe4aa4-c2c2-4080-825e-6541f4d2d2f9"}},{"resource":{"resourceType":"Encounter","id":"defecce8-1302-46f2-a67e-9070bda1c2e5","meta":{"profile":["http://hl7.org/fhir/us/qicore/StructureDefinition/qicore-encounter"]},"status":"finished","class":{"system":"http://terminology.hl7.org/CodeSystem/v3-ActCode","code":"IMP","display":"inpatient encounter"},"type":[{"coding":[{"system":"http://snomed.info/sct","code":"8715000"}]}],"subject":{"reference":"Patient/f028ed8f-f83b-4c77-bb08-2c4df7694a12"},"period":{"start":"2026-12-04T08:00:00.000+00:00","end":"2026-12-30T08:15:00.000+00:00"},"length":{"value":26.0,"unit":"days"},"location":[{"location":{"reference":"Location/c0b737b7-f9a3-4b0e-85f5-43771268dabc"},"period":{"start":"2026-12-06T08:00:00.000+00:00","end":"2026-12-12T08:15:00.000+00:00"}}]},"request":{"method":"PUT","url":"Encounter/defecce8-1302-46f2-a67e-9070bda1c2e5"}},{"resource":{"resourceType":"Procedure","id":"4c1cb522-0d11-4822-a0f0-334aaeb39157","meta":{"profile":["http://hl7.org/fhir/us/qicore/StructureDefinition/qicore-procedure"]},"extension":[{"url":"http://hl7.org/fhir/us/qicore/StructureDefinition/qicore-recorded","valueDateTime":"2013-12-04T13:35:00.000+00:00"}],"status":"completed","code":{"coding":[{"system":"http://snomed.info/sct","code":"133918004"}]},"subject":{"reference":"Patient/f028ed8f-f83b-4c77-bb08-2c4df7694a12"},"performedDateTime":"2026-12-08T08:00:00.000+00:00"},"request":{"method":"PUT","url":"Procedure/4c1cb522-0d11-4822-a0f0-334aaeb39157"}}]}