{"resourceType":"Bundle","id":"tests-b1affe12-1051-4c43-8b32-23db10550f20-bundle","type":"transaction","entry":[{"resource":{"resourceType":"Patient","id":"b1affe12-1051-4c43-8b32-23db10550f20","meta":{"profile":["http://hl7.org/fhir/us/qicore/StructureDefinition/qicore-patient"]},"text":{"status":"generated","div":"<div xmlns=\"http://www.w3.org/1999/xhtml\"><div class=\"hapiHeaderText\">1LOSLT1DayICU2ndICULOSGT1Day <b>DENOMPASS </b></div><table class=\"hapiPropertyTable\"><tbody><tr><td>Identifier</td><td>6d76be9baa47bc8df50fa14784b8bb58</td></tr><tr><td>Date of birth</td><td><span>03 March 1974</span></td></tr></tbody></table></div>"},"extension":[{"url":"http://hl7.org/fhir/us/core/StructureDefinition/us-core-race","extension":[{"url":"ombCategory","valueCoding":{"system":"urn:oid:2.16.840.1.113883.6.238","code":"1002-5","display":"American Indian or Alaska Native","userSelected":true}},{"url":"text","valueString":"American Indian or Alaska Native"}]},{"url":"http://hl7.org/fhir/us/core/StructureDefinition/us-core-ethnicity","extension":[{"url":"ombCategory","valueCoding":{"system":"urn:oid:2.16.840.1.113883.6.238","code":"2135-2","display":"Hispanic or Latino","userSelected":true}},{"url":"text","valueString":"Hispanic or Latino"}]}],"identifier":[{"type":{"coding":[{"system":"http://terminology.hl7.org/CodeSystem/v2-0203","code":"MR"}]},"system":"https://bonnie-fhir.healthit.gov/","value":"612e6ead02c62a011f2ef3a8"}],"active":true,"name":[{"use":"usual","family":"DENOMPass","given":["1LOSLT1DayICU2ndICULOSGT1Day"]}],"gender":"female","birthDate":"1975-03-03"},"request":{"method":"PUT","url":"Patient/b1affe12-1051-4c43-8b32-23db10550f20"}},{"resource":{"resourceType":"MedicationAdministration","id":"f45bb57e-15b6-4409-867d-1d9cb07c2965","meta":{"profile":["http://hl7.org/fhir/us/qicore/StructureDefinition/qicore-medicationadministration"]},"status":"completed","medicationCodeableConcept":{"coding":[{"system":"http://www.nlm.nih.gov/research/umls/rxnorm","code":"861356"}]},"subject":{"reference":"Patient/b1affe12-1051-4c43-8b32-23db10550f20"},"effectiveDateTime":"2026-12-31T08:05:00.000+00:00"},"request":{"method":"PUT","url":"MedicationAdministration/f45bb57e-15b6-4409-867d-1d9cb07c2965"}},{"resource":{"resourceType":"Location","id":"d42c7704-9f6f-4a32-ab9e-ffda8f7f446e","meta":{"profile":["http://hl7.org/fhir/us/qicore/StructureDefinition/qicore-location"]},"identifier":[{"use":"usual","system":"http://exampleoflocation.com","value":"A1-S.F2"}],"name":"Medical Surgical West, first floor","type":[{"coding":[{"system":"https://www.cdc.gov/nhsn/cdaportal/terminology/codesystem/hsloc.html","version":"2020","code":"1025-6","display":"Trauma Critical Care","userSelected":true}]}]},"request":{"method":"PUT","url":"Location/d42c7704-9f6f-4a32-ab9e-ffda8f7f446e"}},{"resource":{"resourceType":"Organization","id":"4abcb19a-d92f-4563-b423-58056fec3171","meta":{"profile":["http://hl7.org/fhir/us/qicore/StructureDefinition/qicore-organization"]},"identifier":[{"use":"temp","system":"urn:oid:2.16.840.1.113883.4.4","value":"21-3259825"}],"active":true,"type":[{"coding":[{"system":"http://terminology.hl7.org/CodeSystem/organization-type","code":"pay","display":"Payer"}]}],"name":"Blue Cross Blue Shield of Texas","telecom":[{"system":"phone","value":"(+1) 972-766-6900"}],"address":[{"use":"billing","type":"postal","line":["P.O. Box 660044"],"city":"Dallas","state":"TX","postalCode":"75266-0044","country":"USA"}]},"request":{"method":"PUT","url":"Organization/4abcb19a-d92f-4563-b423-58056fec3171"}},{"resource":{"resourceType":"Coverage","id":"390263c6-9497-4653-a469-8fe5767e78a8","status":"active","beneficiary":{"reference":"Patient/b1affe12-1051-4c43-8b32-23db10550f20"},"period":{"start":"1975-03-03T08:00:00.000+00:00"},"payor":[{"reference":"Organization/4abcb19a-d92f-4563-b423-58056fec3171"}]},"request":{"method":"PUT","url":"Coverage/390263c6-9497-4653-a469-8fe5767e78a8"}},{"resource":{"resourceType":"Encounter","id":"d27fa2d7-a174-4d68-b26e-94ff61fa353e","meta":{"profile":["http://hl7.org/fhir/us/qicore/StructureDefinition/qicore-encounter"]},"status":"finished","class":{"system":"http://terminology.hl7.org/CodeSystem/v3-ActCode","code":"IMP","display":"inpatient encounter"},"type":[{"coding":[{"system":"http://snomed.info/sct","code":"8715000","display":"Hospital admission, elective (procedure)"}]}],"subject":{"reference":"Patient/b1affe12-1051-4c43-8b32-23db10550f20"},"period":{"start":"2026-12-04T08:00:00.000+00:00","end":"2026-12-30T08:15:00.000+00:00"},"length":{"value":26.0,"unit":"days"},"location":[{"location":{"reference":"Location/f9e5cbec-cfbe-46f2-a0dd-8971962b76ea"},"period":{"start":"2026-12-06T08:00:00.000+00:00","end":"2026-12-07T18:15:00.000+00:00"}},{"location":{"reference":"Location/d42c7704-9f6f-4a32-ab9e-ffda8f7f446e"},"period":{"start":"2026-12-23T08:00:00.000+00:00","end":"2026-12-23T18:15:00.000+00:00"}}]},"request":{"method":"PUT","url":"Encounter/d27fa2d7-a174-4d68-b26e-94ff61fa353e"}},{"resource":{"resourceType":"MeasureReport","id":"51001011-59ae-4532-a6f1-853d9129b21f","meta":{"profile":["http://hl7.org/fhir/us/cqfmeasures/StructureDefinition/test-case-cqfm"]},"contained":[{"resourceType":"Parameters","id":"ff726a2d-ee42-4a60-9c7b-43fdf8fba49d-parameters","parameter":[{"name":"subject","valueString":"b1affe12-1051-4c43-8b32-23db10550f20"}]}],"extension":[{"url":"http://hl7.org/fhir/StructureDefinition/cqf-inputParameters","valueReference":{"reference":"#ff726a2d-ee42-4a60-9c7b-43fdf8fba49d-parameters"}},{"url":"http://hl7.org/fhir/us/cqfmeasures/StructureDefinition/cqfm-testCaseDescription","valueMarkdown":"LOSEQ1DayICU_2ndICULOSLT1\n"}],"modifierExtension":[{"url":"http://hl7.org/fhir/us/cqfmeasures/StructureDefinition/cqfm-isTestCase","valueBoolean":true}],"status":"complete","type":"individual","measure":"https://madie.cms.gov/Measure/CMS190VTEProphylaxisICUFHIR","period":{"start":"2026-01-01","end":"2026-12-31"},"group":[{"id":"Group_1","population":[{"id":"InitialPopulation_1","code":{"coding":[{"system":"http://terminology.hl7.org/CodeSystem/measure-population","code":"initial-population","display":"Initial Population"}]},"count":1},{"id":"Denominator_1","code":{"coding":[{"system":"http://terminology.hl7.org/CodeSystem/measure-population","code":"denominator","display":"Denominator"}]},"count":1},{"id":"DenominatorExclusion_1","code":{"coding":[{"system":"http://terminology.hl7.org/CodeSystem/measure-population","code":"denominator-exclusion","display":"Denominator Exclusion"}]},"count":0},{"id":"Numerator_1","code":{"coding":[{"system":"http://terminology.hl7.org/CodeSystem/measure-population","code":"numerator","display":"Numerator"}]},"count":0},{"id":"DenominatorException_1","code":{"coding":[{"system":"http://terminology.hl7.org/CodeSystem/measure-population","code":"denominator-exception","display":"Denominator Exception"}]},"count":0}],"measureScore":{"value":0.0}}],"evaluatedResource":[{"reference":"Patient/b1affe12-1051-4c43-8b32-23db10550f20"},{"reference":"Encounter/d27fa2d7-a174-4d68-b26e-94ff61fa353e"},{"reference":"MedicationAdministration/f45bb57e-15b6-4409-867d-1d9cb07c2965"},{"reference":"Coverage/390263c6-9497-4653-a469-8fe5767e78a8"},{"reference":"Location/f9e5cbec-cfbe-46f2-a0dd-8971962b76ea"},{"reference":"Location/d42c7704-9f6f-4a32-ab9e-ffda8f7f446e"},{"reference":"Organization/4abcb19a-d92f-4563-b423-58056fec3171"}]},"request":{"method":"PUT","url":"MeasureReport/51001011-59ae-4532-a6f1-853d9129b21f"}},{"resource":{"resourceType":"Bundle","id":"612e6ead02c62a011f2ef3a8","type":"transaction","entry":[{"fullUrl":"https://madie.cms.gov/Patient/b1affe12-1051-4c43-8b32-23db10550f20","resource":{"resourceType":"Patient","id":"b1affe12-1051-4c43-8b32-23db10550f20","meta":{"profile":["http://hl7.org/fhir/us/qicore/StructureDefinition/qicore-patient"]},"text":{"status":"generated","div":"<div xmlns=\"http://www.w3.org/1999/xhtml\"><div class=\"hapiHeaderText\">1LOSLT1DayICU2ndICULOSGT1Day <b>DENOMPASS </b></div><table class=\"hapiPropertyTable\"><tbody><tr><td>Identifier</td><td>6d76be9baa47bc8df50fa14784b8bb58</td></tr><tr><td>Date of birth</td><td><span>03 March 1974</span></td></tr></tbody></table></div>"},"extension":[{"url":"http://hl7.org/fhir/us/core/StructureDefinition/us-core-race","extension":[{"url":"ombCategory","valueCoding":{"system":"urn:oid:2.16.840.1.113883.6.238","code":"1002-5","display":"American Indian or Alaska Native","userSelected":true}},{"url":"text","valueString":"American Indian or Alaska Native"}]},{"url":"http://hl7.org/fhir/us/core/StructureDefinition/us-core-ethnicity","extension":[{"url":"ombCategory","valueCoding":{"system":"urn:oid:2.16.840.1.113883.6.238","code":"2135-2","display":"Hispanic or Latino","userSelected":true}},{"url":"text","valueString":"Hispanic or Latino"}]}],"identifier":[{"type":{"coding":[{"system":"http://terminology.hl7.org/CodeSystem/v2-0203","code":"MR"}]},"system":"https://bonnie-fhir.healthit.gov/","value":"612e6ead02c62a011f2ef3a8"}],"active":true,"name":[{"use":"usual","family":"DENOMPass","given":["1LOSLT1DayICU2ndICULOSGT1Day"]}],"gender":"female","birthDate":"1975-03-03"},"request":{"method":"PUT","url":"Patient/b1affe12-1051-4c43-8b32-23db10550f20"}},{"fullUrl":"https://madie.cms.gov/Encounter/d27fa2d7-a174-4d68-b26e-94ff61fa353e","resource":{"resourceType":"Encounter","id":"d27fa2d7-a174-4d68-b26e-94ff61fa353e","meta":{"profile":["http://hl7.org/fhir/us/qicore/StructureDefinition/qicore-encounter"]},"status":"finished","class":{"system":"http://terminology.hl7.org/CodeSystem/v3-ActCode","code":"IMP","display":"inpatient encounter"},"type":[{"coding":[{"system":"http://snomed.info/sct","code":"8715000","display":"Hospital admission, elective (procedure)"}]}],"subject":{"reference":"Patient/b1affe12-1051-4c43-8b32-23db10550f20"},"period":{"start":"2026-12-04T08:00:00.000+00:00","end":"2026-12-30T08:15:00.000+00:00"},"length":{"value":26.0,"unit":"days"},"location":[{"location":{"reference":"Location/f9e5cbec-cfbe-46f2-a0dd-8971962b76ea"},"period":{"start":"2026-12-06T08:00:00.000+00:00","end":"2026-12-07T18:15:00.000+00:00"}},{"location":{"reference":"Location/d42c7704-9f6f-4a32-ab9e-ffda8f7f446e"},"period":{"start":"2026-12-23T08:00:00.000+00:00","end":"2026-12-23T18:15:00.000+00:00"}}]},"request":{"method":"PUT","url":"Encounter/d27fa2d7-a174-4d68-b26e-94ff61fa353e"}},{"fullUrl":"https://madie.cms.gov/MedicationAdministration/f45bb57e-15b6-4409-867d-1d9cb07c2965","resource":{"resourceType":"MedicationAdministration","id":"f45bb57e-15b6-4409-867d-1d9cb07c2965","meta":{"profile":["http://hl7.org/fhir/us/qicore/StructureDefinition/qicore-medicationadministration"]},"status":"completed","medicationCodeableConcept":{"coding":[{"system":"http://www.nlm.nih.gov/research/umls/rxnorm","code":"861356"}]},"subject":{"reference":"Patient/b1affe12-1051-4c43-8b32-23db10550f20"},"effectiveDateTime":"2026-12-31T08:05:00.000+00:00"},"request":{"method":"PUT","url":"MedicationAdministration/f45bb57e-15b6-4409-867d-1d9cb07c2965"}},{"fullUrl":"https://madie.cms.gov/Coverage/390263c6-9497-4653-a469-8fe5767e78a8","resource":{"resourceType":"Coverage","id":"390263c6-9497-4653-a469-8fe5767e78a8","status":"active","beneficiary":{"reference":"Patient/b1affe12-1051-4c43-8b32-23db10550f20"},"period":{"start":"1975-03-03T08:00:00.000+00:00"},"payor":[{"reference":"Organization/4abcb19a-d92f-4563-b423-58056fec3171"}]},"request":{"method":"PUT","url":"Coverage/390263c6-9497-4653-a469-8fe5767e78a8"}},{"fullUrl":"https://madie.cms.gov/Location/f9e5cbec-cfbe-46f2-a0dd-8971962b76ea","resource":{"resourceType":"Location","id":"f9e5cbec-cfbe-46f2-a0dd-8971962b76ea","meta":{"profile":["http://hl7.org/fhir/us/qicore/StructureDefinition/qicore-location"]},"identifier":[{"use":"usual","system":"http://exampleoflocation.com","value":"B1-S.F2"}],"name":"Medical Surgical East, first floor","type":[{"coding":[{"system":"https://www.cdc.gov/nhsn/cdaportal/terminology/codesystem/hsloc.html","version":"2020","code":"1025-6","display":"Trauma Critical Care","userSelected":true}]}]},"request":{"method":"PUT","url":"Location/f9e5cbec-cfbe-46f2-a0dd-8971962b76ea"}},{"fullUrl":"https://madie.cms.gov/Location/d42c7704-9f6f-4a32-ab9e-ffda8f7f446e","resource":{"resourceType":"Location","id":"d42c7704-9f6f-4a32-ab9e-ffda8f7f446e","meta":{"profile":["http://hl7.org/fhir/us/qicore/StructureDefinition/qicore-location"]},"identifier":[{"use":"usual","system":"http://exampleoflocation.com","value":"A1-S.F2"}],"name":"Medical Surgical West, first floor","type":[{"coding":[{"system":"https://www.cdc.gov/nhsn/cdaportal/terminology/codesystem/hsloc.html","version":"2020","code":"1025-6","display":"Trauma Critical Care","userSelected":true}]}]},"request":{"method":"PUT","url":"Location/d42c7704-9f6f-4a32-ab9e-ffda8f7f446e"}},{"fullUrl":"https://madie.cms.gov/Organization/4abcb19a-d92f-4563-b423-58056fec3171","resource":{"resourceType":"Organization","id":"4abcb19a-d92f-4563-b423-58056fec3171","meta":{"profile":["http://hl7.org/fhir/us/qicore/StructureDefinition/qicore-organization"]},"identifier":[{"use":"temp","system":"urn:oid:2.16.840.1.113883.4.4","value":"21-3259825"}],"active":true,"type":[{"coding":[{"system":"http://terminology.hl7.org/CodeSystem/organization-type","code":"pay","display":"Payer"}]}],"name":"Blue Cross Blue Shield of Texas","telecom":[{"system":"phone","value":"(+1) 972-766-6900"}],"address":[{"use":"billing","type":"postal","line":["P.O. Box 660044"],"city":"Dallas","state":"TX","postalCode":"75266-0044","country":"USA"}]},"request":{"method":"PUT","url":"Organization/4abcb19a-d92f-4563-b423-58056fec3171"}},{"fullUrl":"https://madie.cms.gov/MeasureReport/51001011-59ae-4532-a6f1-853d9129b21f","resource":{"resourceType":"MeasureReport","id":"51001011-59ae-4532-a6f1-853d9129b21f","meta":{"profile":["http://hl7.org/fhir/us/cqfmeasures/StructureDefinition/test-case-cqfm"]},"contained":[{"resourceType":"Parameters","id":"ff726a2d-ee42-4a60-9c7b-43fdf8fba49d-parameters","parameter":[{"name":"subject","valueString":"b1affe12-1051-4c43-8b32-23db10550f20"}]}],"extension":[{"url":"http://hl7.org/fhir/StructureDefinition/cqf-inputParameters","valueReference":{"reference":"#ff726a2d-ee42-4a60-9c7b-43fdf8fba49d-parameters"}},{"url":"http://hl7.org/fhir/us/cqfmeasures/StructureDefinition/cqfm-testCaseDescription","valueMarkdown":"LOSEQ1DayICU_2ndICULOSLT1\n"}],"modifierExtension":[{"url":"http://hl7.org/fhir/us/cqfmeasures/StructureDefinition/cqfm-isTestCase","valueBoolean":true}],"status":"complete","type":"individual","measure":"https://madie.cms.gov/Measure/CMS190VTEProphylaxisICUFHIR","period":{"start":"2026-01-01","end":"2026-12-31"},"group":[{"id":"Group_1","population":[{"id":"InitialPopulation_1","code":{"coding":[{"system":"http://terminology.hl7.org/CodeSystem/measure-population","code":"initial-population","display":"Initial Population"}]},"count":1},{"id":"Denominator_1","code":{"coding":[{"system":"http://terminology.hl7.org/CodeSystem/measure-population","code":"denominator","display":"Denominator"}]},"count":1},{"id":"DenominatorExclusion_1","code":{"coding":[{"system":"http://terminology.hl7.org/CodeSystem/measure-population","code":"denominator-exclusion","display":"Denominator Exclusion"}]},"count":0},{"id":"Numerator_1","code":{"coding":[{"system":"http://terminology.hl7.org/CodeSystem/measure-population","code":"numerator","display":"Numerator"}]},"count":0},{"id":"DenominatorException_1","code":{"coding":[{"system":"http://terminology.hl7.org/CodeSystem/measure-population","code":"denominator-exception","display":"Denominator Exception"}]},"count":0}],"measureScore":{"value":0.0}}],"evaluatedResource":[{"reference":"Patient/b1affe12-1051-4c43-8b32-23db10550f20"},{"reference":"Encounter/d27fa2d7-a174-4d68-b26e-94ff61fa353e"},{"reference":"MedicationAdministration/f45bb57e-15b6-4409-867d-1d9cb07c2965"},{"reference":"Coverage/390263c6-9497-4653-a469-8fe5767e78a8"},{"reference":"Location/f9e5cbec-cfbe-46f2-a0dd-8971962b76ea"},{"reference":"Location/d42c7704-9f6f-4a32-ab9e-ffda8f7f446e"},{"reference":"Organization/4abcb19a-d92f-4563-b423-58056fec3171"}]},"request":{"method":"PUT","url":"MeasureReport/51001011-59ae-4532-a6f1-853d9129b21f"}}]},"request":{"method":"PUT","url":"Bundle/612e6ead02c62a011f2ef3a8"}},{"resource":{"resourceType":"Location","id":"f9e5cbec-cfbe-46f2-a0dd-8971962b76ea","meta":{"profile":["http://hl7.org/fhir/us/qicore/StructureDefinition/qicore-location"]},"identifier":[{"use":"usual","system":"http://exampleoflocation.com","value":"B1-S.F2"}],"name":"Medical Surgical East, first floor","type":[{"coding":[{"system":"https://www.cdc.gov/nhsn/cdaportal/terminology/codesystem/hsloc.html","version":"2020","code":"1025-6","display":"Trauma Critical Care","userSelected":true}]}]},"request":{"method":"PUT","url":"Location/f9e5cbec-cfbe-46f2-a0dd-8971962b76ea"}}]}