{"resourceType":"Bundle","id":"tests-b9c40fdd-af88-483a-b987-a00753c70eb9-bundle","type":"transaction","entry":[{"fullUrl":"Observation/47ec14fa-9294-4c0a-8bb1-d72eed87d5e7","resource":{"resourceType":"Observation","id":"47ec14fa-9294-4c0a-8bb1-d72eed87d5e7","meta":{"profile":["http://hl7.org/fhir/us/qicore/StructureDefinition/qicore-simple-observation"]},"status":"final","category":[{"coding":[{"system":"http://terminology.hl7.org/CodeSystem/observation-category","code":"exam","display":"exam"}]}],"code":{"coding":[{"system":"http://loinc.org","code":"72136-5"}]},"subject":{"reference":"Patient/b9c40fdd-af88-483a-b987-a00753c70eb9"},"effectiveDateTime":"2026-12-06T06:30:00.000+00:00","valueCodeableConcept":{"coding":[{"system":"http://snomed.info/sct","code":"260362008","display":"Low Risk"}]}},"request":{"method":"PUT","url":"Observation/47ec14fa-9294-4c0a-8bb1-d72eed87d5e7"}},{"fullUrl":"Practitioner/72f991c4-d8ce-438f-910b-18a5c3630d04","resource":{"resourceType":"Practitioner","id":"72f991c4-d8ce-438f-910b-18a5c3630d04","identifier":[{"system":"http://hl7.org/fhir/sid/us-npi","value":"123456"}],"name":[{"family":"Evil","prefix":["Dr"]}]},"request":{"method":"PUT","url":"Practitioner/72f991c4-d8ce-438f-910b-18a5c3630d04"}},{"fullUrl":"Patient/b9c40fdd-af88-483a-b987-a00753c70eb9","resource":{"resourceType":"Patient","id":"b9c40fdd-af88-483a-b987-a00753c70eb9","meta":{"profile":["http://hl7.org/fhir/us/qicore/StructureDefinition/qicore-patient"]},"text":{"status":"generated","div":"<div xmlns=\"http://www.w3.org/1999/xhtml\"><div class=\"hapiHeaderText\">RiskAssessDuringED <b>NUMERPASS </b></div><table class=\"hapiPropertyTable\"><tbody><tr><td>Identifier</td><td>a3219b39ecf0f23fe4e7afd2937b490a</td></tr><tr><td>Date of birth</td><td><span>03 March 1974</span></td></tr></tbody></table></div>"},"extension":[{"url":"http://hl7.org/fhir/us/core/StructureDefinition/us-core-race","extension":[{"url":"ombCategory","valueCoding":{"system":"urn:oid:2.16.840.1.113883.6.238","code":"1002-5","display":"American Indian or Alaska Native","userSelected":true}},{"url":"text","valueString":"American Indian or Alaska Native"}]},{"url":"http://hl7.org/fhir/us/core/StructureDefinition/us-core-ethnicity","extension":[{"url":"ombCategory","valueCoding":{"system":"urn:oid:2.16.840.1.113883.6.238","code":"2135-2","display":"Hispanic or Latino","userSelected":true}},{"url":"text","valueString":"Hispanic or Latino"}]}],"identifier":[{"type":{"coding":[{"system":"http://terminology.hl7.org/CodeSystem/v2-0203","code":"MR"}]},"system":"https://bonnie-fhir.healthit.gov/","value":"612e6ef002c62a011f2f018b"}],"active":true,"name":[{"use":"usual","family":"NUMERPass","given":["RiskAssessDuringED"]}],"gender":"female","birthDate":"1975-03-03"},"request":{"method":"PUT","url":"Patient/b9c40fdd-af88-483a-b987-a00753c70eb9"}},{"fullUrl":"Coverage/86e13ccb-6027-436b-bf1c-d5dac959f3ab","resource":{"resourceType":"Coverage","id":"86e13ccb-6027-436b-bf1c-d5dac959f3ab","status":"active","beneficiary":{"reference":"Patient/b9c40fdd-af88-483a-b987-a00753c70eb9"},"period":{"start":"1975-03-03T08:00:00.000+00:00"},"payor":[{"reference":"Organization/f40d42d5-846c-4b53-9021-be4f06b2d7fa"}]},"request":{"method":"PUT","url":"Coverage/86e13ccb-6027-436b-bf1c-d5dac959f3ab"}},{"fullUrl":"Encounter/114783b0-4102-4a8d-a92e-682c90cf139e","resource":{"resourceType":"Encounter","id":"114783b0-4102-4a8d-a92e-682c90cf139e","meta":{"profile":["http://hl7.org/fhir/us/qicore/StructureDefinition/qicore-encounter"]},"status":"finished","class":{"system":"http://terminology.hl7.org/CodeSystem/v3-ActCode","code":"EMER","display":"emergency"},"type":[{"coding":[{"system":"http://snomed.info/sct","code":"4525004"}]}],"subject":{"reference":"Patient/b9c40fdd-af88-483a-b987-a00753c70eb9"},"period":{"start":"2026-12-06T02:00:00.000+00:00","end":"2026-12-06T08:15:00.000+00:00"},"length":{"value":0,"unit":"days"}},"request":{"method":"PUT","url":"Encounter/114783b0-4102-4a8d-a92e-682c90cf139e"}},{"fullUrl":"MeasureReport/5bf7bb76-3ba1-4706-b62a-4f1ea6bd5256","resource":{"resourceType":"MeasureReport","id":"5bf7bb76-3ba1-4706-b62a-4f1ea6bd5256","meta":{"profile":["http://hl7.org/fhir/us/cqfmeasures/StructureDefinition/test-case-cqfm"]},"contained":[{"resourceType":"Parameters","id":"fecf5d73-c0d5-43eb-ab0d-13e2f709b9dc-parameters","parameter":[{"name":"subject","valueString":"b9c40fdd-af88-483a-b987-a00753c70eb9"}]}],"extension":[{"url":"http://hl7.org/fhir/StructureDefinition/cqf-inputParameters","valueReference":{"reference":"#fecf5d73-c0d5-43eb-ab0d-13e2f709b9dc-parameters"}},{"url":"http://hl7.org/fhir/us/cqfmeasures/StructureDefinition/cqfm-testCaseDescription","valueMarkdown":"meets IPP, meets Denominator, RCA VTErisk during ED, ED endTime less than 1 hour before Start of ICU\n"}],"modifierExtension":[{"url":"http://hl7.org/fhir/us/cqfmeasures/StructureDefinition/cqfm-isTestCase","valueBoolean":true}],"status":"complete","type":"individual","measure":"https://madie.cms.gov/Measure/CMS190VTEProphylaxisICUFHIR","period":{"start":"2026-01-01","end":"2026-12-31"},"group":[{"id":"Group_1","population":[{"id":"InitialPopulation_1","code":{"coding":[{"system":"http://terminology.hl7.org/CodeSystem/measure-population","code":"initial-population","display":"Initial Population"}]},"count":1},{"id":"Denominator_1","code":{"coding":[{"system":"http://terminology.hl7.org/CodeSystem/measure-population","code":"denominator","display":"Denominator"}]},"count":1},{"id":"DenominatorExclusion_1","code":{"coding":[{"system":"http://terminology.hl7.org/CodeSystem/measure-population","code":"denominator-exclusion","display":"Denominator Exclusion"}]},"count":0},{"id":"Numerator_1","code":{"coding":[{"system":"http://terminology.hl7.org/CodeSystem/measure-population","code":"numerator","display":"Numerator"}]},"count":1},{"id":"DenominatorException_1","code":{"coding":[{"system":"http://terminology.hl7.org/CodeSystem/measure-population","code":"denominator-exception","display":"Denominator Exception"}]},"count":0}],"measureScore":{"value":0.0}}],"evaluatedResource":[{"reference":"Patient/b9c40fdd-af88-483a-b987-a00753c70eb9"},{"reference":"Encounter/114783b0-4102-4a8d-a92e-682c90cf139e"},{"reference":"Encounter/373a5406-a658-4f0a-a0ad-c568e9dd67d0"},{"reference":"Observation/47ec14fa-9294-4c0a-8bb1-d72eed87d5e7"},{"reference":"Coverage/86e13ccb-6027-436b-bf1c-d5dac959f3ab"},{"reference":"Location/51798fd9-2120-4f2a-a5bd-929c666ded65"},{"reference":"Organization/f40d42d5-846c-4b53-9021-be4f06b2d7fa"},{"reference":"Practitioner/72f991c4-d8ce-438f-910b-18a5c3630d04"}]},"request":{"method":"PUT","url":"MeasureReport/5bf7bb76-3ba1-4706-b62a-4f1ea6bd5256"}},{"fullUrl":"Encounter/373a5406-a658-4f0a-a0ad-c568e9dd67d0","resource":{"resourceType":"Encounter","id":"373a5406-a658-4f0a-a0ad-c568e9dd67d0","meta":{"profile":["http://hl7.org/fhir/us/qicore/StructureDefinition/qicore-encounter"]},"status":"finished","class":{"system":"http://terminology.hl7.org/CodeSystem/v3-ActCode","code":"IMP","display":"inpatient encounter"},"type":[{"coding":[{"system":"http://snomed.info/sct","code":"8715000"}]}],"subject":{"reference":"Patient/b9c40fdd-af88-483a-b987-a00753c70eb9"},"period":{"start":"2026-12-06T08:45:00.000+00:00","end":"2026-12-30T08:15:00.000+00:00"},"length":{"value":24,"unit":"days"},"location":[{"location":{"reference":"Location/51798fd9-2120-4f2a-a5bd-929c666ded65"},"period":{"start":"2026-12-06T09:00:00.000+00:00","end":"2026-12-12T08:15:00.000+00:00"}}]},"request":{"method":"PUT","url":"Encounter/373a5406-a658-4f0a-a0ad-c568e9dd67d0"}},{"fullUrl":"Location/51798fd9-2120-4f2a-a5bd-929c666ded65","resource":{"resourceType":"Location","id":"51798fd9-2120-4f2a-a5bd-929c666ded65","meta":{"profile":["http://hl7.org/fhir/us/qicore/StructureDefinition/qicore-location"]},"identifier":[{"use":"usual","system":"http://exampleoflocation.com","value":"B1-S.F2"}],"name":"Medical Surgical East, first floor","type":[{"coding":[{"system":"https://www.cdc.gov/nhsn/cdaportal/terminology/codesystem/hsloc.html","code":"1025-6","display":"Trauma Critical Care","userSelected":true}]}]},"request":{"method":"PUT","url":"Location/51798fd9-2120-4f2a-a5bd-929c666ded65"}},{"fullUrl":"Bundle/612e6ef002c62a011f2f018b","resource":{"resourceType":"Bundle","id":"612e6ef002c62a011f2f018b","type":"transaction","entry":[{"fullUrl":"https://madie.cms.gov/Patient/b9c40fdd-af88-483a-b987-a00753c70eb9","resource":{"resourceType":"Patient","id":"b9c40fdd-af88-483a-b987-a00753c70eb9","meta":{"profile":["http://hl7.org/fhir/us/qicore/StructureDefinition/qicore-patient"]},"text":{"status":"generated","div":"<div xmlns=\"http://www.w3.org/1999/xhtml\"><div class=\"hapiHeaderText\">RiskAssessDuringED <b>NUMERPASS </b></div><table class=\"hapiPropertyTable\"><tbody><tr><td>Identifier</td><td>a3219b39ecf0f23fe4e7afd2937b490a</td></tr><tr><td>Date of birth</td><td><span>03 March 1974</span></td></tr></tbody></table></div>"},"extension":[{"url":"http://hl7.org/fhir/us/core/StructureDefinition/us-core-race","extension":[{"url":"ombCategory","valueCoding":{"system":"urn:oid:2.16.840.1.113883.6.238","code":"1002-5","display":"American Indian or Alaska Native","userSelected":true}},{"url":"text","valueString":"American Indian or Alaska Native"}]},{"url":"http://hl7.org/fhir/us/core/StructureDefinition/us-core-ethnicity","extension":[{"url":"ombCategory","valueCoding":{"system":"urn:oid:2.16.840.1.113883.6.238","code":"2135-2","display":"Hispanic or Latino","userSelected":true}},{"url":"text","valueString":"Hispanic or Latino"}]}],"identifier":[{"type":{"coding":[{"system":"http://terminology.hl7.org/CodeSystem/v2-0203","code":"MR"}]},"system":"https://bonnie-fhir.healthit.gov/","value":"612e6ef002c62a011f2f018b"}],"active":true,"name":[{"use":"usual","family":"NUMERPass","given":["RiskAssessDuringED"]}],"gender":"female","birthDate":"1975-03-03"},"request":{"method":"PUT","url":"Patient/b9c40fdd-af88-483a-b987-a00753c70eb9"}},{"fullUrl":"https://madie.cms.gov/Encounter/114783b0-4102-4a8d-a92e-682c90cf139e","resource":{"resourceType":"Encounter","id":"114783b0-4102-4a8d-a92e-682c90cf139e","meta":{"profile":["http://hl7.org/fhir/us/qicore/StructureDefinition/qicore-encounter"]},"status":"finished","class":{"system":"http://terminology.hl7.org/CodeSystem/v3-ActCode","code":"EMER","display":"emergency"},"type":[{"coding":[{"system":"http://snomed.info/sct","code":"4525004"}]}],"subject":{"reference":"Patient/b9c40fdd-af88-483a-b987-a00753c70eb9"},"period":{"start":"2026-12-06T02:00:00.000+00:00","end":"2026-12-06T08:15:00.000+00:00"},"length":{"value":0,"unit":"days"}},"request":{"method":"PUT","url":"Encounter/114783b0-4102-4a8d-a92e-682c90cf139e"}},{"fullUrl":"https://madie.cms.gov/Encounter/373a5406-a658-4f0a-a0ad-c568e9dd67d0","resource":{"resourceType":"Encounter","id":"373a5406-a658-4f0a-a0ad-c568e9dd67d0","meta":{"profile":["http://hl7.org/fhir/us/qicore/StructureDefinition/qicore-encounter"]},"status":"finished","class":{"system":"http://terminology.hl7.org/CodeSystem/v3-ActCode","code":"IMP","display":"inpatient encounter"},"type":[{"coding":[{"system":"http://snomed.info/sct","code":"8715000"}]}],"subject":{"reference":"Patient/b9c40fdd-af88-483a-b987-a00753c70eb9"},"period":{"start":"2026-12-06T08:45:00.000+00:00","end":"2026-12-30T08:15:00.000+00:00"},"length":{"value":24,"unit":"days"},"location":[{"location":{"reference":"Location/51798fd9-2120-4f2a-a5bd-929c666ded65"},"period":{"start":"2026-12-06T09:00:00.000+00:00","end":"2026-12-12T08:15:00.000+00:00"}}]},"request":{"method":"PUT","url":"Encounter/373a5406-a658-4f0a-a0ad-c568e9dd67d0"}},{"fullUrl":"https://madie.cms.gov/Observation/47ec14fa-9294-4c0a-8bb1-d72eed87d5e7","resource":{"resourceType":"Observation","id":"47ec14fa-9294-4c0a-8bb1-d72eed87d5e7","meta":{"profile":["http://hl7.org/fhir/us/qicore/StructureDefinition/qicore-simple-observation"]},"status":"final","category":[{"coding":[{"system":"http://terminology.hl7.org/CodeSystem/observation-category","code":"exam","display":"exam"}]}],"code":{"coding":[{"system":"http://loinc.org","code":"72136-5"}]},"subject":{"reference":"Patient/b9c40fdd-af88-483a-b987-a00753c70eb9"},"effectiveDateTime":"2026-12-06T06:30:00.000+00:00","valueCodeableConcept":{"coding":[{"system":"http://snomed.info/sct","code":"260362008","display":"Low Risk"}]}},"request":{"method":"PUT","url":"Observation/47ec14fa-9294-4c0a-8bb1-d72eed87d5e7"}},{"fullUrl":"https://madie.cms.gov/Coverage/86e13ccb-6027-436b-bf1c-d5dac959f3ab","resource":{"resourceType":"Coverage","id":"86e13ccb-6027-436b-bf1c-d5dac959f3ab","status":"active","beneficiary":{"reference":"Patient/b9c40fdd-af88-483a-b987-a00753c70eb9"},"period":{"start":"1975-03-03T08:00:00.000+00:00"},"payor":[{"reference":"Organization/f40d42d5-846c-4b53-9021-be4f06b2d7fa"}]},"request":{"method":"PUT","url":"Coverage/86e13ccb-6027-436b-bf1c-d5dac959f3ab"}},{"fullUrl":"https://madie.cms.gov/Location/51798fd9-2120-4f2a-a5bd-929c666ded65","resource":{"resourceType":"Location","id":"51798fd9-2120-4f2a-a5bd-929c666ded65","meta":{"profile":["http://hl7.org/fhir/us/qicore/StructureDefinition/qicore-location"]},"identifier":[{"use":"usual","system":"http://exampleoflocation.com","value":"B1-S.F2"}],"name":"Medical Surgical East, first floor","type":[{"coding":[{"system":"https://www.cdc.gov/nhsn/cdaportal/terminology/codesystem/hsloc.html","code":"1025-6","display":"Trauma Critical Care","userSelected":true}]}]},"request":{"method":"PUT","url":"Location/51798fd9-2120-4f2a-a5bd-929c666ded65"}},{"fullUrl":"https://madie.cms.gov/Organization/f40d42d5-846c-4b53-9021-be4f06b2d7fa","resource":{"resourceType":"Organization","id":"f40d42d5-846c-4b53-9021-be4f06b2d7fa","meta":{"profile":["http://hl7.org/fhir/us/qicore/StructureDefinition/qicore-organization"]},"identifier":[{"use":"temp","system":"urn:oid:2.16.840.1.113883.4.4","value":"21-3259825"}],"active":true,"type":[{"coding":[{"system":"http://terminology.hl7.org/CodeSystem/organization-type","code":"pay","display":"Payer"}]}],"name":"Blue Cross Blue Shield of Texas","telecom":[{"system":"phone","value":"(+1) 972-766-6900"}],"address":[{"use":"billing","type":"postal","line":["P.O. Box 660044"],"city":"Dallas","state":"TX","postalCode":"75266-0044","country":"USA"}]},"request":{"method":"PUT","url":"Organization/f40d42d5-846c-4b53-9021-be4f06b2d7fa"}},{"fullUrl":"https://madie.cms.gov/Practitioner/72f991c4-d8ce-438f-910b-18a5c3630d04","resource":{"resourceType":"Practitioner","id":"72f991c4-d8ce-438f-910b-18a5c3630d04","identifier":[{"system":"http://hl7.org/fhir/sid/us-npi","value":"123456"}],"name":[{"family":"Evil","prefix":["Dr"]}]},"request":{"method":"PUT","url":"Practitioner/72f991c4-d8ce-438f-910b-18a5c3630d04"}},{"fullUrl":"https://madie.cms.gov/MeasureReport/5bf7bb76-3ba1-4706-b62a-4f1ea6bd5256","resource":{"resourceType":"MeasureReport","id":"5bf7bb76-3ba1-4706-b62a-4f1ea6bd5256","meta":{"profile":["http://hl7.org/fhir/us/cqfmeasures/StructureDefinition/test-case-cqfm"]},"contained":[{"resourceType":"Parameters","id":"fecf5d73-c0d5-43eb-ab0d-13e2f709b9dc-parameters","parameter":[{"name":"subject","valueString":"b9c40fdd-af88-483a-b987-a00753c70eb9"}]}],"extension":[{"url":"http://hl7.org/fhir/StructureDefinition/cqf-inputParameters","valueReference":{"reference":"#fecf5d73-c0d5-43eb-ab0d-13e2f709b9dc-parameters"}},{"url":"http://hl7.org/fhir/us/cqfmeasures/StructureDefinition/cqfm-testCaseDescription","valueMarkdown":"meets IPP, meets Denominator, RCA VTErisk during ED, ED endTime less than 1 hour before Start of ICU\n"}],"modifierExtension":[{"url":"http://hl7.org/fhir/us/cqfmeasures/StructureDefinition/cqfm-isTestCase","valueBoolean":true}],"status":"complete","type":"individual","measure":"https://madie.cms.gov/Measure/CMS190VTEProphylaxisICUFHIR","period":{"start":"2026-01-01","end":"2026-12-31"},"group":[{"id":"Group_1","population":[{"id":"InitialPopulation_1","code":{"coding":[{"system":"http://terminology.hl7.org/CodeSystem/measure-population","code":"initial-population","display":"Initial Population"}]},"count":1},{"id":"Denominator_1","code":{"coding":[{"system":"http://terminology.hl7.org/CodeSystem/measure-population","code":"denominator","display":"Denominator"}]},"count":1},{"id":"DenominatorExclusion_1","code":{"coding":[{"system":"http://terminology.hl7.org/CodeSystem/measure-population","code":"denominator-exclusion","display":"Denominator Exclusion"}]},"count":0},{"id":"Numerator_1","code":{"coding":[{"system":"http://terminology.hl7.org/CodeSystem/measure-population","code":"numerator","display":"Numerator"}]},"count":1},{"id":"DenominatorException_1","code":{"coding":[{"system":"http://terminology.hl7.org/CodeSystem/measure-population","code":"denominator-exception","display":"Denominator Exception"}]},"count":0}],"measureScore":{"value":0.0}}],"evaluatedResource":[{"reference":"Patient/b9c40fdd-af88-483a-b987-a00753c70eb9"},{"reference":"Encounter/114783b0-4102-4a8d-a92e-682c90cf139e"},{"reference":"Encounter/373a5406-a658-4f0a-a0ad-c568e9dd67d0"},{"reference":"Observation/47ec14fa-9294-4c0a-8bb1-d72eed87d5e7"},{"reference":"Coverage/86e13ccb-6027-436b-bf1c-d5dac959f3ab"},{"reference":"Location/51798fd9-2120-4f2a-a5bd-929c666ded65"},{"reference":"Organization/f40d42d5-846c-4b53-9021-be4f06b2d7fa"},{"reference":"Practitioner/72f991c4-d8ce-438f-910b-18a5c3630d04"}]},"request":{"method":"PUT","url":"MeasureReport/5bf7bb76-3ba1-4706-b62a-4f1ea6bd5256"}}]},"request":{"method":"PUT","url":"Bundle/612e6ef002c62a011f2f018b"}},{"fullUrl":"Organization/f40d42d5-846c-4b53-9021-be4f06b2d7fa","resource":{"resourceType":"Organization","id":"f40d42d5-846c-4b53-9021-be4f06b2d7fa","meta":{"profile":["http://hl7.org/fhir/us/qicore/StructureDefinition/qicore-organization"]},"identifier":[{"use":"temp","system":"urn:oid:2.16.840.1.113883.4.4","value":"21-3259825"}],"active":true,"type":[{"coding":[{"system":"http://terminology.hl7.org/CodeSystem/organization-type","code":"pay","display":"Payer"}]}],"name":"Blue Cross Blue Shield of Texas","telecom":[{"system":"phone","value":"(+1) 972-766-6900"}],"address":[{"use":"billing","type":"postal","line":["P.O. Box 660044"],"city":"Dallas","state":"TX","postalCode":"75266-0044","country":"USA"}]},"request":{"method":"PUT","url":"Organization/f40d42d5-846c-4b53-9021-be4f06b2d7fa"}}]}