{"resourceType":"Bundle","id":"tests-f859dd94-f201-4517-a368-32b98dd486c9-bundle","type":"transaction","entry":[{"fullUrl":"Encounter/a89ef33f-53f8-4f79-a380-0e6d66e7e063","resource":{"resourceType":"Encounter","id":"a89ef33f-53f8-4f79-a380-0e6d66e7e063","meta":{"profile":["http://hl7.org/fhir/us/qicore/StructureDefinition/qicore-encounter"]},"status":"finished","class":{"system":"http://terminology.hl7.org/CodeSystem/v3-ActCode","code":"IMP","display":"inpatient encounter"},"type":[{"coding":[{"system":"http://snomed.info/sct","code":"8715000"}]}],"subject":{"reference":"Patient/f859dd94-f201-4517-a368-32b98dd486c9"},"period":{"start":"2026-11-01T10:00:00.000+00:00","end":"2026-11-04T05:00:00.000+00:00"},"length":{"value":25,"unit":"days"},"location":[{"location":{"reference":"Location/fa64ccaf-0f51-49fa-bf3f-83b046348dff"},"period":{"start":"2026-11-01T10:30:00.000+00:00","end":"2026-11-02T08:15:00.000+00:00"}}]},"request":{"method":"PUT","url":"Encounter/a89ef33f-53f8-4f79-a380-0e6d66e7e063"}},{"fullUrl":"Location/fa64ccaf-0f51-49fa-bf3f-83b046348dff","resource":{"resourceType":"Location","id":"fa64ccaf-0f51-49fa-bf3f-83b046348dff","meta":{"profile":["http://hl7.org/fhir/us/qicore/StructureDefinition/qicore-location"]},"identifier":[{"use":"usual","system":"http://exampleoflocation.com","value":"B1-S.F2"}],"name":"Medical Surgical East, first floor","type":[{"coding":[{"system":"https://www.cdc.gov/nhsn/cdaportal/terminology/codesystem/hsloc.html","code":"1025-6","display":"Trauma Critical Care","userSelected":true}]}]},"request":{"method":"PUT","url":"Location/fa64ccaf-0f51-49fa-bf3f-83b046348dff"}},{"fullUrl":"Procedure/c3a13734-bd00-4cf2-8b5e-8fad69dabeed","resource":{"resourceType":"Procedure","id":"c3a13734-bd00-4cf2-8b5e-8fad69dabeed","meta":{"profile":["http://hl7.org/fhir/us/qicore/StructureDefinition/qicore-procedurenotdone"]},"extension":[{"url":"http://hl7.org/fhir/us/qicore/StructureDefinition/qicore-recorded","valueDateTime":"2026-11-01T10:35:00.000+00:00"}],"status":"not-done","statusReason":{"coding":[{"system":"http://snomed.info/sct","code":"183932001","display":"Procedure contraindicated (situation)","userSelected":true}]},"code":{"coding":[{"system":"http://snomed.info/sct","code":"443448006","display":"Application of intermittent pneumatic compression device (procedure)","userSelected":true}]},"subject":{"reference":"Patient/f859dd94-f201-4517-a368-32b98dd486c9"},"_performedDateTime":{"extension":[{"url":"http://hl7.org/fhir/StructureDefinition/data-absent-reason","valueCode":"not-performed"}]}},"request":{"method":"PUT","url":"Procedure/c3a13734-bd00-4cf2-8b5e-8fad69dabeed"}},{"fullUrl":"MeasureReport/1240dc4b-ed76-4223-9229-d20297fb160b","resource":{"resourceType":"MeasureReport","id":"1240dc4b-ed76-4223-9229-d20297fb160b","meta":{"profile":["http://hl7.org/fhir/us/cqfmeasures/StructureDefinition/test-case-cqfm"]},"contained":[{"resourceType":"Parameters","id":"68d887a6-0b11-4313-a7ca-c1698a9f9c55-parameters","parameter":[{"name":"subject","valueString":"f859dd94-f201-4517-a368-32b98dd486c9"}]}],"extension":[{"url":"http://hl7.org/fhir/StructureDefinition/cqf-inputParameters","valueReference":{"reference":"#68d887a6-0b11-4313-a7ca-c1698a9f9c55-parameters"}},{"url":"http://hl7.org/fhir/us/cqfmeasures/StructureDefinition/cqfm-testCaseDescription","valueMarkdown":"meets IPP, meets Denominator, IPC applied not done MedRsn and Warfarin admin not done PatRfsl - during ED but ED > 1 hr before adm time, but it is on the same day as Adm date\n\"\n"}],"modifierExtension":[{"url":"http://hl7.org/fhir/us/cqfmeasures/StructureDefinition/cqfm-isTestCase","valueBoolean":true}],"status":"complete","type":"individual","measure":"https://madie.cms.gov/Measure/CMS190VTEProphylaxisICUFHIR","period":{"start":"2026-01-01","end":"2026-12-31"},"group":[{"id":"Group_1","population":[{"id":"InitialPopulation_1","code":{"coding":[{"system":"http://terminology.hl7.org/CodeSystem/measure-population","code":"initial-population","display":"Initial Population"}]},"count":1},{"id":"Denominator_1","code":{"coding":[{"system":"http://terminology.hl7.org/CodeSystem/measure-population","code":"denominator","display":"Denominator"}]},"count":1},{"id":"DenominatorExclusion_1","code":{"coding":[{"system":"http://terminology.hl7.org/CodeSystem/measure-population","code":"denominator-exclusion","display":"Denominator Exclusion"}]},"count":0},{"id":"Numerator_1","code":{"coding":[{"system":"http://terminology.hl7.org/CodeSystem/measure-population","code":"numerator","display":"Numerator"}]},"count":1},{"id":"DenominatorException_1","code":{"coding":[{"system":"http://terminology.hl7.org/CodeSystem/measure-population","code":"denominator-exception","display":"Denominator Exception"}]},"count":0}],"measureScore":{"value":0.0}}],"evaluatedResource":[{"reference":"Patient/f859dd94-f201-4517-a368-32b98dd486c9"},{"reference":"Encounter/f37818c5-e7ab-43e3-aed5-9f032b3a4388"},{"reference":"Encounter/a89ef33f-53f8-4f79-a380-0e6d66e7e063"},{"reference":"Coverage/68bfde7f-f67e-4811-9e05-9448e940bb88"},{"reference":"Location/fa64ccaf-0f51-49fa-bf3f-83b046348dff"},{"reference":"Procedure/c3a13734-bd00-4cf2-8b5e-8fad69dabeed"},{"reference":"MedicationAdministration/b6f233e3-a330-4f52-9c54-127d69fcd488"},{"reference":"Organization/853f3eab-f726-40bf-bf86-f5926008e1ba"},{"reference":"Practitioner/03e9778e-f002-41da-9f1b-c6bf2a67e215"}]},"request":{"method":"PUT","url":"MeasureReport/1240dc4b-ed76-4223-9229-d20297fb160b"}},{"fullUrl":"Organization/853f3eab-f726-40bf-bf86-f5926008e1ba","resource":{"resourceType":"Organization","id":"853f3eab-f726-40bf-bf86-f5926008e1ba","meta":{"profile":["http://hl7.org/fhir/us/qicore/StructureDefinition/qicore-organization"]},"identifier":[{"use":"temp","system":"urn:oid:2.16.840.1.113883.4.4","value":"21-3259825"}],"active":true,"type":[{"coding":[{"system":"http://terminology.hl7.org/CodeSystem/organization-type","code":"pay","display":"Payer"}]}],"name":"Blue Cross Blue Shield of Texas","telecom":[{"system":"phone","value":"(+1) 972-766-6900"}],"address":[{"use":"billing","type":"postal","line":["P.O. Box 660044"],"city":"Dallas","state":"TX","postalCode":"75266-0044","country":"USA"}]},"request":{"method":"PUT","url":"Organization/853f3eab-f726-40bf-bf86-f5926008e1ba"}},{"fullUrl":"Bundle/612e6b8402c62a011f2ee1d9","resource":{"resourceType":"Bundle","id":"612e6b8402c62a011f2ee1d9","type":"transaction","entry":[{"fullUrl":"https://madie.cms.gov/Patient/f859dd94-f201-4517-a368-32b98dd486c9","resource":{"resourceType":"Patient","id":"f859dd94-f201-4517-a368-32b98dd486c9","meta":{"profile":["http://hl7.org/fhir/us/qicore/StructureDefinition/qicore-patient"]},"text":{"status":"generated","div":"<div xmlns=\"http://www.w3.org/1999/xhtml\"><div class=\"hapiHeaderText\">MedRsnMAWarfDAIPCDrgEDGT1hrSameDayAdm <b>NUMERPASS </b></div><table class=\"hapiPropertyTable\"><tbody><tr><td>Identifier</td><td>d5661b6a7ac7a6b9f13847d23af8475a</td></tr><tr><td>Date of birth</td><td><span>02 January 1974</span></td></tr></tbody></table></div>"},"extension":[{"url":"http://hl7.org/fhir/us/core/StructureDefinition/us-core-race","extension":[{"url":"ombCategory","valueCoding":{"system":"urn:oid:2.16.840.1.113883.6.238","code":"1002-5","display":"American Indian or Alaska Native","userSelected":true}},{"url":"text","valueString":"American Indian or Alaska Native"}]},{"url":"http://hl7.org/fhir/us/core/StructureDefinition/us-core-ethnicity","extension":[{"url":"ombCategory","valueCoding":{"system":"urn:oid:2.16.840.1.113883.6.238","code":"2135-2","display":"Hispanic or Latino","userSelected":true}},{"url":"text","valueString":"Hispanic or Latino"}]}],"identifier":[{"type":{"coding":[{"system":"http://terminology.hl7.org/CodeSystem/v2-0203","code":"MR"}]},"system":"https://bonnie-fhir.healthit.gov/","value":"612e6b8402c62a011f2ee1d9"}],"active":true,"name":[{"use":"usual","family":"NUMERPass","given":["MedRsnMAWarfDAIPCDrgEDGT1hrSameDayAdm"]}],"gender":"male","birthDate":"1975-01-02"},"request":{"method":"PUT","url":"Patient/f859dd94-f201-4517-a368-32b98dd486c9"}},{"fullUrl":"https://madie.cms.gov/Encounter/f37818c5-e7ab-43e3-aed5-9f032b3a4388","resource":{"resourceType":"Encounter","id":"f37818c5-e7ab-43e3-aed5-9f032b3a4388","meta":{"profile":["http://hl7.org/fhir/us/qicore/StructureDefinition/qicore-encounter"]},"status":"finished","class":{"system":"http://terminology.hl7.org/CodeSystem/v3-ActCode","code":"EMER","display":"emergency"},"type":[{"coding":[{"system":"http://snomed.info/sct","code":"4525004"}]}],"subject":{"reference":"Patient/f859dd94-f201-4517-a368-32b98dd486c9"},"period":{"start":"2026-10-31T04:00:00.000+00:00","end":"2026-11-01T07:15:00.000+00:00"},"length":{"value":1,"unit":"days"}},"request":{"method":"PUT","url":"Encounter/f37818c5-e7ab-43e3-aed5-9f032b3a4388"}},{"fullUrl":"https://madie.cms.gov/Encounter/a89ef33f-53f8-4f79-a380-0e6d66e7e063","resource":{"resourceType":"Encounter","id":"a89ef33f-53f8-4f79-a380-0e6d66e7e063","meta":{"profile":["http://hl7.org/fhir/us/qicore/StructureDefinition/qicore-encounter"]},"status":"finished","class":{"system":"http://terminology.hl7.org/CodeSystem/v3-ActCode","code":"IMP","display":"inpatient encounter"},"type":[{"coding":[{"system":"http://snomed.info/sct","code":"8715000"}]}],"subject":{"reference":"Patient/f859dd94-f201-4517-a368-32b98dd486c9"},"period":{"start":"2026-11-01T10:00:00.000+00:00","end":"2026-11-04T05:00:00.000+00:00"},"length":{"value":25,"unit":"days"},"location":[{"location":{"reference":"Location/fa64ccaf-0f51-49fa-bf3f-83b046348dff"},"period":{"start":"2026-11-01T10:30:00.000+00:00","end":"2026-11-02T08:15:00.000+00:00"}}]},"request":{"method":"PUT","url":"Encounter/a89ef33f-53f8-4f79-a380-0e6d66e7e063"}},{"fullUrl":"https://madie.cms.gov/Coverage/68bfde7f-f67e-4811-9e05-9448e940bb88","resource":{"resourceType":"Coverage","id":"68bfde7f-f67e-4811-9e05-9448e940bb88","status":"active","beneficiary":{"reference":"Patient/f859dd94-f201-4517-a368-32b98dd486c9"},"period":{"start":"1975-01-02T08:00:00.000+00:00"},"payor":[{"reference":"Organization/853f3eab-f726-40bf-bf86-f5926008e1ba"}]},"request":{"method":"PUT","url":"Coverage/68bfde7f-f67e-4811-9e05-9448e940bb88"}},{"fullUrl":"https://madie.cms.gov/Location/fa64ccaf-0f51-49fa-bf3f-83b046348dff","resource":{"resourceType":"Location","id":"fa64ccaf-0f51-49fa-bf3f-83b046348dff","meta":{"profile":["http://hl7.org/fhir/us/qicore/StructureDefinition/qicore-location"]},"identifier":[{"use":"usual","system":"http://exampleoflocation.com","value":"B1-S.F2"}],"name":"Medical Surgical East, first floor","type":[{"coding":[{"system":"https://www.cdc.gov/nhsn/cdaportal/terminology/codesystem/hsloc.html","code":"1025-6","display":"Trauma Critical Care","userSelected":true}]}]},"request":{"method":"PUT","url":"Location/fa64ccaf-0f51-49fa-bf3f-83b046348dff"}},{"fullUrl":"https://madie.cms.gov/Procedure/c3a13734-bd00-4cf2-8b5e-8fad69dabeed","resource":{"resourceType":"Procedure","id":"c3a13734-bd00-4cf2-8b5e-8fad69dabeed","meta":{"profile":["http://hl7.org/fhir/us/qicore/StructureDefinition/qicore-procedurenotdone"]},"extension":[{"url":"http://hl7.org/fhir/us/qicore/StructureDefinition/qicore-recorded","valueDateTime":"2026-11-01T10:35:00.000+00:00"}],"status":"not-done","statusReason":{"coding":[{"system":"http://snomed.info/sct","code":"183932001","display":"Procedure contraindicated (situation)","userSelected":true}]},"code":{"coding":[{"system":"http://snomed.info/sct","code":"443448006","display":"Application of intermittent pneumatic compression device (procedure)","userSelected":true}]},"subject":{"reference":"Patient/f859dd94-f201-4517-a368-32b98dd486c9"},"_performedDateTime":{"extension":[{"url":"http://hl7.org/fhir/StructureDefinition/data-absent-reason","valueCode":"not-performed"}]}},"request":{"method":"PUT","url":"Procedure/c3a13734-bd00-4cf2-8b5e-8fad69dabeed"}},{"fullUrl":"https://madie.cms.gov/MedicationAdministration/b6f233e3-a330-4f52-9c54-127d69fcd488","resource":{"resourceType":"MedicationAdministration","id":"b6f233e3-a330-4f52-9c54-127d69fcd488","meta":{"profile":["http://hl7.org/fhir/us/qicore/StructureDefinition/qicore-medicationadministrationnotdone"]},"extension":[{"url":"http://hl7.org/fhir/us/qicore/StructureDefinition/qicore-recorded","valueDateTime":"2026-11-01T06:00:00.000+00:00"}],"status":"not-done","statusReason":[{"coding":[{"system":"http://snomed.info/sct","code":"183932001","display":"Procedure contraindicated (situation)","userSelected":true}]}],"medicationCodeableConcept":{"coding":[{"system":"http://www.nlm.nih.gov/research/umls/rxnorm","code":"855288"}]},"subject":{"reference":"Patient/f859dd94-f201-4517-a368-32b98dd486c9"},"effectivePeriod":{"start":"2026-11-01T07:00:00.000+00:00"}},"request":{"method":"PUT","url":"MedicationAdministration/b6f233e3-a330-4f52-9c54-127d69fcd488"}},{"fullUrl":"https://madie.cms.gov/Organization/853f3eab-f726-40bf-bf86-f5926008e1ba","resource":{"resourceType":"Organization","id":"853f3eab-f726-40bf-bf86-f5926008e1ba","meta":{"profile":["http://hl7.org/fhir/us/qicore/StructureDefinition/qicore-organization"]},"identifier":[{"use":"temp","system":"urn:oid:2.16.840.1.113883.4.4","value":"21-3259825"}],"active":true,"type":[{"coding":[{"system":"http://terminology.hl7.org/CodeSystem/organization-type","code":"pay","display":"Payer"}]}],"name":"Blue Cross Blue Shield of Texas","telecom":[{"system":"phone","value":"(+1) 972-766-6900"}],"address":[{"use":"billing","type":"postal","line":["P.O. Box 660044"],"city":"Dallas","state":"TX","postalCode":"75266-0044","country":"USA"}]},"request":{"method":"PUT","url":"Organization/853f3eab-f726-40bf-bf86-f5926008e1ba"}},{"fullUrl":"https://madie.cms.gov/Practitioner/03e9778e-f002-41da-9f1b-c6bf2a67e215","resource":{"resourceType":"Practitioner","id":"03e9778e-f002-41da-9f1b-c6bf2a67e215","identifier":[{"system":"http://hl7.org/fhir/sid/us-npi","value":"123456"}],"name":[{"family":"Evil","prefix":["Dr"]}]},"request":{"method":"PUT","url":"Practitioner/03e9778e-f002-41da-9f1b-c6bf2a67e215"}},{"fullUrl":"https://madie.cms.gov/MeasureReport/1240dc4b-ed76-4223-9229-d20297fb160b","resource":{"resourceType":"MeasureReport","id":"1240dc4b-ed76-4223-9229-d20297fb160b","meta":{"profile":["http://hl7.org/fhir/us/cqfmeasures/StructureDefinition/test-case-cqfm"]},"contained":[{"resourceType":"Parameters","id":"68d887a6-0b11-4313-a7ca-c1698a9f9c55-parameters","parameter":[{"name":"subject","valueString":"f859dd94-f201-4517-a368-32b98dd486c9"}]}],"extension":[{"url":"http://hl7.org/fhir/StructureDefinition/cqf-inputParameters","valueReference":{"reference":"#68d887a6-0b11-4313-a7ca-c1698a9f9c55-parameters"}},{"url":"http://hl7.org/fhir/us/cqfmeasures/StructureDefinition/cqfm-testCaseDescription","valueMarkdown":"meets IPP, meets Denominator, IPC applied not done MedRsn and Warfarin admin not done PatRfsl - during ED but ED > 1 hr before adm time, but it is on the same day as Adm date\n\"\n"}],"modifierExtension":[{"url":"http://hl7.org/fhir/us/cqfmeasures/StructureDefinition/cqfm-isTestCase","valueBoolean":true}],"status":"complete","type":"individual","measure":"https://madie.cms.gov/Measure/CMS190VTEProphylaxisICUFHIR","period":{"start":"2026-01-01","end":"2026-12-31"},"group":[{"id":"Group_1","population":[{"id":"InitialPopulation_1","code":{"coding":[{"system":"http://terminology.hl7.org/CodeSystem/measure-population","code":"initial-population","display":"Initial Population"}]},"count":1},{"id":"Denominator_1","code":{"coding":[{"system":"http://terminology.hl7.org/CodeSystem/measure-population","code":"denominator","display":"Denominator"}]},"count":1},{"id":"DenominatorExclusion_1","code":{"coding":[{"system":"http://terminology.hl7.org/CodeSystem/measure-population","code":"denominator-exclusion","display":"Denominator Exclusion"}]},"count":0},{"id":"Numerator_1","code":{"coding":[{"system":"http://terminology.hl7.org/CodeSystem/measure-population","code":"numerator","display":"Numerator"}]},"count":1},{"id":"DenominatorException_1","code":{"coding":[{"system":"http://terminology.hl7.org/CodeSystem/measure-population","code":"denominator-exception","display":"Denominator Exception"}]},"count":0}],"measureScore":{"value":0.0}}],"evaluatedResource":[{"reference":"Patient/f859dd94-f201-4517-a368-32b98dd486c9"},{"reference":"Encounter/f37818c5-e7ab-43e3-aed5-9f032b3a4388"},{"reference":"Encounter/a89ef33f-53f8-4f79-a380-0e6d66e7e063"},{"reference":"Coverage/68bfde7f-f67e-4811-9e05-9448e940bb88"},{"reference":"Location/fa64ccaf-0f51-49fa-bf3f-83b046348dff"},{"reference":"Procedure/c3a13734-bd00-4cf2-8b5e-8fad69dabeed"},{"reference":"MedicationAdministration/b6f233e3-a330-4f52-9c54-127d69fcd488"},{"reference":"Organization/853f3eab-f726-40bf-bf86-f5926008e1ba"},{"reference":"Practitioner/03e9778e-f002-41da-9f1b-c6bf2a67e215"}]},"request":{"method":"PUT","url":"MeasureReport/1240dc4b-ed76-4223-9229-d20297fb160b"}}]},"request":{"method":"PUT","url":"Bundle/612e6b8402c62a011f2ee1d9"}},{"fullUrl":"Coverage/68bfde7f-f67e-4811-9e05-9448e940bb88","resource":{"resourceType":"Coverage","id":"68bfde7f-f67e-4811-9e05-9448e940bb88","status":"active","beneficiary":{"reference":"Patient/f859dd94-f201-4517-a368-32b98dd486c9"},"period":{"start":"1975-01-02T08:00:00.000+00:00"},"payor":[{"reference":"Organization/853f3eab-f726-40bf-bf86-f5926008e1ba"}]},"request":{"method":"PUT","url":"Coverage/68bfde7f-f67e-4811-9e05-9448e940bb88"}},{"fullUrl":"MedicationAdministration/b6f233e3-a330-4f52-9c54-127d69fcd488","resource":{"resourceType":"MedicationAdministration","id":"b6f233e3-a330-4f52-9c54-127d69fcd488","meta":{"profile":["http://hl7.org/fhir/us/qicore/StructureDefinition/qicore-medicationadministrationnotdone"]},"extension":[{"url":"http://hl7.org/fhir/us/qicore/StructureDefinition/qicore-recorded","valueDateTime":"2026-11-01T06:00:00.000+00:00"}],"status":"not-done","statusReason":[{"coding":[{"system":"http://snomed.info/sct","code":"183932001","display":"Procedure contraindicated (situation)","userSelected":true}]}],"medicationCodeableConcept":{"coding":[{"system":"http://www.nlm.nih.gov/research/umls/rxnorm","code":"855288"}]},"subject":{"reference":"Patient/f859dd94-f201-4517-a368-32b98dd486c9"},"effectivePeriod":{"start":"2026-11-01T07:00:00.000+00:00"}},"request":{"method":"PUT","url":"MedicationAdministration/b6f233e3-a330-4f52-9c54-127d69fcd488"}},{"fullUrl":"Encounter/f37818c5-e7ab-43e3-aed5-9f032b3a4388","resource":{"resourceType":"Encounter","id":"f37818c5-e7ab-43e3-aed5-9f032b3a4388","meta":{"profile":["http://hl7.org/fhir/us/qicore/StructureDefinition/qicore-encounter"]},"status":"finished","class":{"system":"http://terminology.hl7.org/CodeSystem/v3-ActCode","code":"EMER","display":"emergency"},"type":[{"coding":[{"system":"http://snomed.info/sct","code":"4525004"}]}],"subject":{"reference":"Patient/f859dd94-f201-4517-a368-32b98dd486c9"},"period":{"start":"2026-10-31T04:00:00.000+00:00","end":"2026-11-01T07:15:00.000+00:00"},"length":{"value":1,"unit":"days"}},"request":{"method":"PUT","url":"Encounter/f37818c5-e7ab-43e3-aed5-9f032b3a4388"}},{"fullUrl":"Patient/f859dd94-f201-4517-a368-32b98dd486c9","resource":{"resourceType":"Patient","id":"f859dd94-f201-4517-a368-32b98dd486c9","meta":{"profile":["http://hl7.org/fhir/us/qicore/StructureDefinition/qicore-patient"]},"text":{"status":"generated","div":"<div xmlns=\"http://www.w3.org/1999/xhtml\"><div class=\"hapiHeaderText\">MedRsnMAWarfDAIPCDrgEDGT1hrSameDayAdm <b>NUMERPASS </b></div><table class=\"hapiPropertyTable\"><tbody><tr><td>Identifier</td><td>d5661b6a7ac7a6b9f13847d23af8475a</td></tr><tr><td>Date of birth</td><td><span>02 January 1974</span></td></tr></tbody></table></div>"},"extension":[{"url":"http://hl7.org/fhir/us/core/StructureDefinition/us-core-race","extension":[{"url":"ombCategory","valueCoding":{"system":"urn:oid:2.16.840.1.113883.6.238","code":"1002-5","display":"American Indian or Alaska Native","userSelected":true}},{"url":"text","valueString":"American Indian or Alaska Native"}]},{"url":"http://hl7.org/fhir/us/core/StructureDefinition/us-core-ethnicity","extension":[{"url":"ombCategory","valueCoding":{"system":"urn:oid:2.16.840.1.113883.6.238","code":"2135-2","display":"Hispanic or Latino","userSelected":true}},{"url":"text","valueString":"Hispanic or Latino"}]}],"identifier":[{"type":{"coding":[{"system":"http://terminology.hl7.org/CodeSystem/v2-0203","code":"MR"}]},"system":"https://bonnie-fhir.healthit.gov/","value":"612e6b8402c62a011f2ee1d9"}],"active":true,"name":[{"use":"usual","family":"NUMERPass","given":["MedRsnMAWarfDAIPCDrgEDGT1hrSameDayAdm"]}],"gender":"male","birthDate":"1975-01-02"},"request":{"method":"PUT","url":"Patient/f859dd94-f201-4517-a368-32b98dd486c9"}},{"fullUrl":"Practitioner/03e9778e-f002-41da-9f1b-c6bf2a67e215","resource":{"resourceType":"Practitioner","id":"03e9778e-f002-41da-9f1b-c6bf2a67e215","identifier":[{"system":"http://hl7.org/fhir/sid/us-npi","value":"123456"}],"name":[{"family":"Evil","prefix":["Dr"]}]},"request":{"method":"PUT","url":"Practitioner/03e9778e-f002-41da-9f1b-c6bf2a67e215"}}]}