{"resourceType":"Bundle","id":"tests-298f3f92-5047-46fc-ad92-9f27887ffc55-bundle","type":"transaction","entry":[{"fullUrl":"Coverage/d79a9d13-6bad-4484-b66a-19060994606a","resource":{"resourceType":"Coverage","id":"d79a9d13-6bad-4484-b66a-19060994606a","status":"active","beneficiary":{"reference":"Patient/298f3f92-5047-46fc-ad92-9f27887ffc55"},"period":{"start":"1975-03-03T08:00:00.000+00:00"},"payor":[{"reference":"Organization/e89e85ac-dc12-4e58-b061-1537c40f8b54"}]},"request":{"method":"PUT","url":"Coverage/d79a9d13-6bad-4484-b66a-19060994606a"}},{"fullUrl":"Organization/e89e85ac-dc12-4e58-b061-1537c40f8b54","resource":{"resourceType":"Organization","id":"e89e85ac-dc12-4e58-b061-1537c40f8b54","meta":{"profile":["http://hl7.org/fhir/us/qicore/StructureDefinition/qicore-organization"]},"identifier":[{"use":"temp","system":"urn:oid:2.16.840.1.113883.4.4","value":"21-3259825"}],"active":true,"type":[{"coding":[{"system":"http://terminology.hl7.org/CodeSystem/organization-type","code":"pay","display":"Payer"}]}],"name":"Blue Cross Blue Shield of Texas","telecom":[{"system":"phone","value":"(+1) 972-766-6900"}],"address":[{"use":"billing","type":"postal","line":["P.O. Box 660044"],"city":"Dallas","state":"TX","postalCode":"75266-0044","country":"USA"}]},"request":{"method":"PUT","url":"Organization/e89e85ac-dc12-4e58-b061-1537c40f8b54"}},{"fullUrl":"Bundle/612e6eb702c62a011f2ef567","resource":{"resourceType":"Bundle","id":"612e6eb702c62a011f2ef567","type":"transaction","entry":[{"fullUrl":"https://madie.cms.gov/Patient/298f3f92-5047-46fc-ad92-9f27887ffc55","resource":{"resourceType":"Patient","id":"298f3f92-5047-46fc-ad92-9f27887ffc55","meta":{"profile":["http://hl7.org/fhir/us/qicore/StructureDefinition/qicore-patient"]},"text":{"status":"generated","div":"<div xmlns=\"http://www.w3.org/1999/xhtml\"><div class=\"hapiHeaderText\">MALDUH1DayAfterICU <b>NUMERPASS </b></div><table class=\"hapiPropertyTable\"><tbody><tr><td>Identifier</td><td>4a57e8e4a87323501c4bde2e71e8e471</td></tr><tr><td>Date of birth</td><td><span>03 March 1974</span></td></tr></tbody></table></div>"},"extension":[{"url":"http://hl7.org/fhir/us/core/StructureDefinition/us-core-race","extension":[{"url":"ombCategory","valueCoding":{"system":"urn:oid:2.16.840.1.113883.6.238","code":"1002-5","display":"American Indian or Alaska Native","userSelected":true}},{"url":"text","valueString":"American Indian or Alaska Native"}]},{"url":"http://hl7.org/fhir/us/core/StructureDefinition/us-core-ethnicity","extension":[{"url":"ombCategory","valueCoding":{"system":"urn:oid:2.16.840.1.113883.6.238","code":"2135-2","display":"Hispanic or Latino","userSelected":true}},{"url":"text","valueString":"Hispanic or Latino"}]}],"identifier":[{"type":{"coding":[{"system":"http://terminology.hl7.org/CodeSystem/v2-0203","code":"MR"}]},"system":"https://bonnie-fhir.healthit.gov/","value":"612e6eb702c62a011f2ef567"}],"active":true,"name":[{"use":"usual","family":"NUMERPass","given":["MALDUH1DayAfterICU"]}],"gender":"female","birthDate":"1975-03-03"},"request":{"method":"PUT","url":"Patient/298f3f92-5047-46fc-ad92-9f27887ffc55"}},{"fullUrl":"https://madie.cms.gov/Encounter/15d45a58-c6af-489d-934b-f5d11360cce9","resource":{"resourceType":"Encounter","id":"15d45a58-c6af-489d-934b-f5d11360cce9","meta":{"profile":["http://hl7.org/fhir/us/qicore/StructureDefinition/qicore-encounter"]},"status":"finished","class":{"system":"http://terminology.hl7.org/CodeSystem/v3-ActCode","code":"IMP","display":"inpatient encounter"},"type":[{"coding":[{"system":"http://snomed.info/sct","code":"8715000"}]}],"subject":{"reference":"Patient/298f3f92-5047-46fc-ad92-9f27887ffc55"},"period":{"start":"2026-12-01T00:00:00.000+00:00","end":"2026-12-31T23:59:00.000+00:00"},"length":{"value":30,"unit":"days"},"location":[{"location":{"reference":"Location/6fc00931-3719-44eb-b143-206bbfffe3c1"},"period":{"start":"2026-12-01T09:00:00.000+00:00","end":"2026-12-10T08:15:00.000+00:00"}}]},"request":{"method":"PUT","url":"Encounter/15d45a58-c6af-489d-934b-f5d11360cce9"}},{"fullUrl":"https://madie.cms.gov/Coverage/d79a9d13-6bad-4484-b66a-19060994606a","resource":{"resourceType":"Coverage","id":"d79a9d13-6bad-4484-b66a-19060994606a","status":"active","beneficiary":{"reference":"Patient/298f3f92-5047-46fc-ad92-9f27887ffc55"},"period":{"start":"1975-03-03T08:00:00.000+00:00"},"payor":[{"reference":"Organization/e89e85ac-dc12-4e58-b061-1537c40f8b54"}]},"request":{"method":"PUT","url":"Coverage/d79a9d13-6bad-4484-b66a-19060994606a"}},{"fullUrl":"https://madie.cms.gov/MedicationAdministration/d06b528f-4dab-42c1-8bce-53e104fecb16","resource":{"resourceType":"MedicationAdministration","id":"d06b528f-4dab-42c1-8bce-53e104fecb16","meta":{"profile":["http://hl7.org/fhir/us/qicore/StructureDefinition/qicore-medicationadministration"]},"status":"completed","medicationCodeableConcept":{"coding":[{"system":"http://www.nlm.nih.gov/research/umls/rxnorm","code":"1361574"}]},"subject":{"reference":"Patient/298f3f92-5047-46fc-ad92-9f27887ffc55"},"effectivePeriod":{"start":"2026-12-02T23:59:00.000+00:00"},"dosage":{"route":{"coding":[{"system":"http://snomed.info/sct","code":"34206005","display":"Subcutaneous route"}]},"dose":{"value":20000,"unit":"UNT/ML","system":"http://unitsofmeasure.org","code":"ML"}}},"request":{"method":"PUT","url":"MedicationAdministration/d06b528f-4dab-42c1-8bce-53e104fecb16"}},{"fullUrl":"https://madie.cms.gov/Location/6fc00931-3719-44eb-b143-206bbfffe3c1","resource":{"resourceType":"Location","id":"6fc00931-3719-44eb-b143-206bbfffe3c1","meta":{"profile":["http://hl7.org/fhir/us/qicore/StructureDefinition/qicore-location"]},"identifier":[{"use":"usual","system":"http://exampleoflocation.com","value":"B1-S.F2"}],"name":"Medical Surgical East, first floor","type":[{"coding":[{"system":"https://www.cdc.gov/nhsn/cdaportal/terminology/codesystem/hsloc.html","version":"2020","code":"1025-6","display":"Trauma Critical Care","userSelected":true}]}]},"request":{"method":"PUT","url":"Location/6fc00931-3719-44eb-b143-206bbfffe3c1"}},{"fullUrl":"https://madie.cms.gov/Organization/e89e85ac-dc12-4e58-b061-1537c40f8b54","resource":{"resourceType":"Organization","id":"e89e85ac-dc12-4e58-b061-1537c40f8b54","meta":{"profile":["http://hl7.org/fhir/us/qicore/StructureDefinition/qicore-organization"]},"identifier":[{"use":"temp","system":"urn:oid:2.16.840.1.113883.4.4","value":"21-3259825"}],"active":true,"type":[{"coding":[{"system":"http://terminology.hl7.org/CodeSystem/organization-type","code":"pay","display":"Payer"}]}],"name":"Blue Cross Blue Shield of Texas","telecom":[{"system":"phone","value":"(+1) 972-766-6900"}],"address":[{"use":"billing","type":"postal","line":["P.O. Box 660044"],"city":"Dallas","state":"TX","postalCode":"75266-0044","country":"USA"}]},"request":{"method":"PUT","url":"Organization/e89e85ac-dc12-4e58-b061-1537c40f8b54"}},{"fullUrl":"https://madie.cms.gov/Practitioner/7858810c-d15e-4475-8c30-1695e9e47c77","resource":{"resourceType":"Practitioner","id":"7858810c-d15e-4475-8c30-1695e9e47c77","identifier":[{"system":"http://hl7.org/fhir/sid/us-npi","value":"123456"}],"name":[{"family":"Evil","prefix":["Dr"]}]},"request":{"method":"PUT","url":"Practitioner/7858810c-d15e-4475-8c30-1695e9e47c77"}},{"fullUrl":"https://madie.cms.gov/MeasureReport/c3bff604-d877-4d96-9712-d87a63676091","resource":{"resourceType":"MeasureReport","id":"c3bff604-d877-4d96-9712-d87a63676091","meta":{"profile":["http://hl7.org/fhir/us/cqfmeasures/StructureDefinition/test-case-cqfm"]},"contained":[{"resourceType":"Parameters","id":"6659375c-9e86-49df-b539-6e577d559f01-parameters","parameter":[{"name":"subject","valueString":"298f3f92-5047-46fc-ad92-9f27887ffc55"}]}],"extension":[{"url":"http://hl7.org/fhir/StructureDefinition/cqf-inputParameters","valueReference":{"reference":"#6659375c-9e86-49df-b539-6e577d559f01-parameters"}},{"url":"http://hl7.org/fhir/us/cqfmeasures/StructureDefinition/cqfm-testCaseDescription","valueMarkdown":"LDUH 1 day after ICU admission, no anesthesia. \n"}],"modifierExtension":[{"url":"http://hl7.org/fhir/us/cqfmeasures/StructureDefinition/cqfm-isTestCase","valueBoolean":true}],"status":"complete","type":"individual","measure":"https://madie.cms.gov/Measure/CMS190VTEProphylaxisICUFHIR","period":{"start":"2026-01-01","end":"2026-12-31"},"group":[{"id":"Group_1","population":[{"id":"InitialPopulation_1","code":{"coding":[{"system":"http://terminology.hl7.org/CodeSystem/measure-population","code":"initial-population","display":"Initial Population"}]},"count":1},{"id":"Denominator_1","code":{"coding":[{"system":"http://terminology.hl7.org/CodeSystem/measure-population","code":"denominator","display":"Denominator"}]},"count":1},{"id":"DenominatorExclusion_1","code":{"coding":[{"system":"http://terminology.hl7.org/CodeSystem/measure-population","code":"denominator-exclusion","display":"Denominator Exclusion"}]},"count":0},{"id":"Numerator_1","code":{"coding":[{"system":"http://terminology.hl7.org/CodeSystem/measure-population","code":"numerator","display":"Numerator"}]},"count":1},{"id":"DenominatorException_1","code":{"coding":[{"system":"http://terminology.hl7.org/CodeSystem/measure-population","code":"denominator-exception","display":"Denominator Exception"}]},"count":0}],"measureScore":{"value":0.0}}],"evaluatedResource":[{"reference":"Patient/298f3f92-5047-46fc-ad92-9f27887ffc55"},{"reference":"Encounter/15d45a58-c6af-489d-934b-f5d11360cce9"},{"reference":"Coverage/d79a9d13-6bad-4484-b66a-19060994606a"},{"reference":"MedicationAdministration/d06b528f-4dab-42c1-8bce-53e104fecb16"},{"reference":"Location/6fc00931-3719-44eb-b143-206bbfffe3c1"},{"reference":"Organization/e89e85ac-dc12-4e58-b061-1537c40f8b54"},{"reference":"Practitioner/7858810c-d15e-4475-8c30-1695e9e47c77"}]},"request":{"method":"PUT","url":"MeasureReport/c3bff604-d877-4d96-9712-d87a63676091"}}]},"request":{"method":"PUT","url":"Bundle/612e6eb702c62a011f2ef567"}},{"fullUrl":"Encounter/15d45a58-c6af-489d-934b-f5d11360cce9","resource":{"resourceType":"Encounter","id":"15d45a58-c6af-489d-934b-f5d11360cce9","meta":{"profile":["http://hl7.org/fhir/us/qicore/StructureDefinition/qicore-encounter"]},"status":"finished","class":{"system":"http://terminology.hl7.org/CodeSystem/v3-ActCode","code":"IMP","display":"inpatient encounter"},"type":[{"coding":[{"system":"http://snomed.info/sct","code":"8715000"}]}],"subject":{"reference":"Patient/298f3f92-5047-46fc-ad92-9f27887ffc55"},"period":{"start":"2026-12-01T00:00:00.000+00:00","end":"2026-12-31T23:59:00.000+00:00"},"length":{"value":30,"unit":"days"},"location":[{"location":{"reference":"Location/6fc00931-3719-44eb-b143-206bbfffe3c1"},"period":{"start":"2026-12-01T09:00:00.000+00:00","end":"2026-12-10T08:15:00.000+00:00"}}]},"request":{"method":"PUT","url":"Encounter/15d45a58-c6af-489d-934b-f5d11360cce9"}},{"fullUrl":"Practitioner/7858810c-d15e-4475-8c30-1695e9e47c77","resource":{"resourceType":"Practitioner","id":"7858810c-d15e-4475-8c30-1695e9e47c77","identifier":[{"system":"http://hl7.org/fhir/sid/us-npi","value":"123456"}],"name":[{"family":"Evil","prefix":["Dr"]}]},"request":{"method":"PUT","url":"Practitioner/7858810c-d15e-4475-8c30-1695e9e47c77"}},{"fullUrl":"Location/6fc00931-3719-44eb-b143-206bbfffe3c1","resource":{"resourceType":"Location","id":"6fc00931-3719-44eb-b143-206bbfffe3c1","meta":{"profile":["http://hl7.org/fhir/us/qicore/StructureDefinition/qicore-location"]},"identifier":[{"use":"usual","system":"http://exampleoflocation.com","value":"B1-S.F2"}],"name":"Medical Surgical East, first floor","type":[{"coding":[{"system":"https://www.cdc.gov/nhsn/cdaportal/terminology/codesystem/hsloc.html","version":"2020","code":"1025-6","display":"Trauma Critical Care","userSelected":true}]}]},"request":{"method":"PUT","url":"Location/6fc00931-3719-44eb-b143-206bbfffe3c1"}},{"fullUrl":"MedicationAdministration/d06b528f-4dab-42c1-8bce-53e104fecb16","resource":{"resourceType":"MedicationAdministration","id":"d06b528f-4dab-42c1-8bce-53e104fecb16","meta":{"profile":["http://hl7.org/fhir/us/qicore/StructureDefinition/qicore-medicationadministration"]},"status":"completed","medicationCodeableConcept":{"coding":[{"system":"http://www.nlm.nih.gov/research/umls/rxnorm","code":"1361574"}]},"subject":{"reference":"Patient/298f3f92-5047-46fc-ad92-9f27887ffc55"},"effectivePeriod":{"start":"2026-12-02T23:59:00.000+00:00"},"dosage":{"route":{"coding":[{"system":"http://snomed.info/sct","code":"34206005","display":"Subcutaneous route"}]},"dose":{"value":20000,"unit":"UNT/ML","system":"http://unitsofmeasure.org","code":"ML"}}},"request":{"method":"PUT","url":"MedicationAdministration/d06b528f-4dab-42c1-8bce-53e104fecb16"}},{"fullUrl":"MeasureReport/c3bff604-d877-4d96-9712-d87a63676091","resource":{"resourceType":"MeasureReport","id":"c3bff604-d877-4d96-9712-d87a63676091","meta":{"profile":["http://hl7.org/fhir/us/cqfmeasures/StructureDefinition/test-case-cqfm"]},"contained":[{"resourceType":"Parameters","id":"6659375c-9e86-49df-b539-6e577d559f01-parameters","parameter":[{"name":"subject","valueString":"298f3f92-5047-46fc-ad92-9f27887ffc55"}]}],"extension":[{"url":"http://hl7.org/fhir/StructureDefinition/cqf-inputParameters","valueReference":{"reference":"#6659375c-9e86-49df-b539-6e577d559f01-parameters"}},{"url":"http://hl7.org/fhir/us/cqfmeasures/StructureDefinition/cqfm-testCaseDescription","valueMarkdown":"LDUH 1 day after ICU admission, no anesthesia. \n"}],"modifierExtension":[{"url":"http://hl7.org/fhir/us/cqfmeasures/StructureDefinition/cqfm-isTestCase","valueBoolean":true}],"status":"complete","type":"individual","measure":"https://madie.cms.gov/Measure/CMS190VTEProphylaxisICUFHIR","period":{"start":"2026-01-01","end":"2026-12-31"},"group":[{"id":"Group_1","population":[{"id":"InitialPopulation_1","code":{"coding":[{"system":"http://terminology.hl7.org/CodeSystem/measure-population","code":"initial-population","display":"Initial Population"}]},"count":1},{"id":"Denominator_1","code":{"coding":[{"system":"http://terminology.hl7.org/CodeSystem/measure-population","code":"denominator","display":"Denominator"}]},"count":1},{"id":"DenominatorExclusion_1","code":{"coding":[{"system":"http://terminology.hl7.org/CodeSystem/measure-population","code":"denominator-exclusion","display":"Denominator Exclusion"}]},"count":0},{"id":"Numerator_1","code":{"coding":[{"system":"http://terminology.hl7.org/CodeSystem/measure-population","code":"numerator","display":"Numerator"}]},"count":1},{"id":"DenominatorException_1","code":{"coding":[{"system":"http://terminology.hl7.org/CodeSystem/measure-population","code":"denominator-exception","display":"Denominator Exception"}]},"count":0}],"measureScore":{"value":0.0}}],"evaluatedResource":[{"reference":"Patient/298f3f92-5047-46fc-ad92-9f27887ffc55"},{"reference":"Encounter/15d45a58-c6af-489d-934b-f5d11360cce9"},{"reference":"Coverage/d79a9d13-6bad-4484-b66a-19060994606a"},{"reference":"MedicationAdministration/d06b528f-4dab-42c1-8bce-53e104fecb16"},{"reference":"Location/6fc00931-3719-44eb-b143-206bbfffe3c1"},{"reference":"Organization/e89e85ac-dc12-4e58-b061-1537c40f8b54"},{"reference":"Practitioner/7858810c-d15e-4475-8c30-1695e9e47c77"}]},"request":{"method":"PUT","url":"MeasureReport/c3bff604-d877-4d96-9712-d87a63676091"}},{"fullUrl":"Patient/298f3f92-5047-46fc-ad92-9f27887ffc55","resource":{"resourceType":"Patient","id":"298f3f92-5047-46fc-ad92-9f27887ffc55","meta":{"profile":["http://hl7.org/fhir/us/qicore/StructureDefinition/qicore-patient"]},"text":{"status":"generated","div":"<div xmlns=\"http://www.w3.org/1999/xhtml\"><div class=\"hapiHeaderText\">MALDUH1DayAfterICU <b>NUMERPASS </b></div><table class=\"hapiPropertyTable\"><tbody><tr><td>Identifier</td><td>4a57e8e4a87323501c4bde2e71e8e471</td></tr><tr><td>Date of birth</td><td><span>03 March 1974</span></td></tr></tbody></table></div>"},"extension":[{"url":"http://hl7.org/fhir/us/core/StructureDefinition/us-core-race","extension":[{"url":"ombCategory","valueCoding":{"system":"urn:oid:2.16.840.1.113883.6.238","code":"1002-5","display":"American Indian or Alaska Native","userSelected":true}},{"url":"text","valueString":"American Indian or Alaska Native"}]},{"url":"http://hl7.org/fhir/us/core/StructureDefinition/us-core-ethnicity","extension":[{"url":"ombCategory","valueCoding":{"system":"urn:oid:2.16.840.1.113883.6.238","code":"2135-2","display":"Hispanic or Latino","userSelected":true}},{"url":"text","valueString":"Hispanic or Latino"}]}],"identifier":[{"type":{"coding":[{"system":"http://terminology.hl7.org/CodeSystem/v2-0203","code":"MR"}]},"system":"https://bonnie-fhir.healthit.gov/","value":"612e6eb702c62a011f2ef567"}],"active":true,"name":[{"use":"usual","family":"NUMERPass","given":["MALDUH1DayAfterICU"]}],"gender":"female","birthDate":"1975-03-03"},"request":{"method":"PUT","url":"Patient/298f3f92-5047-46fc-ad92-9f27887ffc55"}}]}