{"resourceType":"Bundle","id":"tests-25265601-4e27-4fe0-8d35-68ebac8f9894-bundle","type":"transaction","entry":[{"resource":{"resourceType":"Coverage","id":"c3bf9bc9-fa8e-498a-b5d1-04d458f342b8","status":"active","beneficiary":{"reference":"Patient/25265601-4e27-4fe0-8d35-68ebac8f9894"},"period":{"start":"1975-03-03T08:00:00.000+00:00"},"payor":[{"reference":"Organization/bd09c863-ab65-463c-ac27-ed94a939c72a"}]},"request":{"method":"PUT","url":"Coverage/c3bf9bc9-fa8e-498a-b5d1-04d458f342b8"}},{"resource":{"resourceType":"Organization","id":"bd09c863-ab65-463c-ac27-ed94a939c72a","meta":{"profile":["http://hl7.org/fhir/us/qicore/StructureDefinition/qicore-organization"]},"identifier":[{"use":"temp","system":"urn:oid:2.16.840.1.113883.4.4","value":"21-3259825"}],"active":true,"type":[{"coding":[{"system":"http://terminology.hl7.org/CodeSystem/organization-type","code":"pay","display":"Payer"}]}],"name":"Blue Cross Blue Shield of Texas","telecom":[{"system":"phone","value":"(+1) 972-766-6900"}],"address":[{"use":"billing","type":"postal","line":["P.O. Box 660044"],"city":"Dallas","state":"TX","postalCode":"75266-0044","country":"USA"}]},"request":{"method":"PUT","url":"Organization/bd09c863-ab65-463c-ac27-ed94a939c72a"}},{"resource":{"resourceType":"MedicationAdministration","id":"d7b0fca1-0c5c-4eb8-a42b-752df2026b0e","meta":{"profile":["http://hl7.org/fhir/us/qicore/StructureDefinition/qicore-medicationadministration"]},"status":"completed","medicationCodeableConcept":{"coding":[{"system":"http://www.nlm.nih.gov/research/umls/rxnorm","code":"200349"}]},"subject":{"reference":"Patient/25265601-4e27-4fe0-8d35-68ebac8f9894"},"effectivePeriod":{"start":"2026-12-08T11:30:00.000+00:00"}},"request":{"method":"PUT","url":"MedicationAdministration/d7b0fca1-0c5c-4eb8-a42b-752df2026b0e"}},{"resource":{"resourceType":"MeasureReport","id":"868d6d6a-bc73-4265-a981-78bf793f291c","meta":{"profile":["http://hl7.org/fhir/us/cqfmeasures/StructureDefinition/test-case-cqfm"]},"contained":[{"resourceType":"Parameters","id":"ca7f7f49-d784-4e29-a574-da59de3f99dd-parameters","parameter":[{"name":"subject","valueString":"25265601-4e27-4fe0-8d35-68ebac8f9894"}]}],"extension":[{"url":"http://hl7.org/fhir/StructureDefinition/cqf-inputParameters","valueReference":{"reference":"#ca7f7f49-d784-4e29-a574-da59de3f99dd-parameters"}},{"url":"http://hl7.org/fhir/us/cqfmeasures/StructureDefinition/cqfm-testCaseDescription","valueMarkdown":"Glycoprotein IIb/IIIa Inhibitors administered day after neuraxial anesthesia\n"}],"modifierExtension":[{"url":"http://hl7.org/fhir/us/cqfmeasures/StructureDefinition/cqfm-isTestCase","valueBoolean":true}],"status":"complete","type":"individual","measure":"https://madie.cms.gov/Measure/CMS190VTEProphylaxisICUFHIR","period":{"start":"2026-01-01","end":"2026-12-31"},"group":[{"id":"Group_1","population":[{"id":"InitialPopulation_1","code":{"coding":[{"system":"http://terminology.hl7.org/CodeSystem/measure-population","code":"initial-population","display":"Initial Population"}]},"count":1},{"id":"Denominator_1","code":{"coding":[{"system":"http://terminology.hl7.org/CodeSystem/measure-population","code":"denominator","display":"Denominator"}]},"count":1},{"id":"DenominatorExclusion_1","code":{"coding":[{"system":"http://terminology.hl7.org/CodeSystem/measure-population","code":"denominator-exclusion","display":"Denominator Exclusion"}]},"count":0},{"id":"Numerator_1","code":{"coding":[{"system":"http://terminology.hl7.org/CodeSystem/measure-population","code":"numerator","display":"Numerator"}]},"count":1},{"id":"DenominatorException_1","code":{"coding":[{"system":"http://terminology.hl7.org/CodeSystem/measure-population","code":"denominator-exception","display":"Denominator Exception"}]},"count":0}],"measureScore":{"value":0.0}}],"evaluatedResource":[{"reference":"Patient/25265601-4e27-4fe0-8d35-68ebac8f9894"},{"reference":"Encounter/5fc85c33-dc6d-4e88-ad69-5f8d707f71e8"},{"reference":"Coverage/c3bf9bc9-fa8e-498a-b5d1-04d458f342b8"},{"reference":"MedicationAdministration/d7b0fca1-0c5c-4eb8-a42b-752df2026b0e"},{"reference":"Procedure/fe88958b-2bce-4b78-bb4f-41461839582c"},{"reference":"Location/7c94d683-e9be-4553-9b9f-88d1198ed3a2"},{"reference":"Organization/bd09c863-ab65-463c-ac27-ed94a939c72a"},{"reference":"Practitioner/cb16b3c8-50fb-419e-93db-2d452274116a"}]},"request":{"method":"PUT","url":"MeasureReport/868d6d6a-bc73-4265-a981-78bf793f291c"}},{"resource":{"resourceType":"Procedure","id":"fe88958b-2bce-4b78-bb4f-41461839582c","meta":{"profile":["http://hl7.org/fhir/us/qicore/StructureDefinition/qicore-procedure"]},"extension":[{"url":"http://hl7.org/fhir/us/qicore/StructureDefinition/qicore-recorded","valueDateTime":"2013-12-07T13:35:00.000+00:00"}],"status":"completed","code":{"coding":[{"system":"http://snomed.info/sct","code":"18946005"}]},"subject":{"reference":"Patient/25265601-4e27-4fe0-8d35-68ebac8f9894"},"performedPeriod":{"start":"2026-12-07T11:00:00.000+00:00","end":"2026-12-07T11:15:00.000+00:00"}},"request":{"method":"PUT","url":"Procedure/fe88958b-2bce-4b78-bb4f-41461839582c"}},{"resource":{"resourceType":"Practitioner","id":"cb16b3c8-50fb-419e-93db-2d452274116a","identifier":[{"system":"http://hl7.org/fhir/sid/us-npi","value":"123456"}],"name":[{"family":"Evil","prefix":["Dr"]}]},"request":{"method":"PUT","url":"Practitioner/cb16b3c8-50fb-419e-93db-2d452274116a"}},{"resource":{"resourceType":"Patient","id":"25265601-4e27-4fe0-8d35-68ebac8f9894","meta":{"profile":["http://hl7.org/fhir/us/qicore/StructureDefinition/qicore-patient"]},"text":{"status":"generated","div":"<div xmlns=\"http://www.w3.org/1999/xhtml\"><div class=\"hapiHeaderText\">GlycoDayAfterAnesNullMedEndtime <b>NUMERPASS </b></div><table class=\"hapiPropertyTable\"><tbody><tr><td>Identifier</td><td>4a42020f0b8dee0fc88266e960041057</td></tr><tr><td>Date of birth</td><td><span>03 March 1974</span></td></tr></tbody></table></div>"},"extension":[{"url":"http://hl7.org/fhir/us/core/StructureDefinition/us-core-race","extension":[{"url":"ombCategory","valueCoding":{"system":"urn:oid:2.16.840.1.113883.6.238","code":"1002-5","display":"American Indian or Alaska Native","userSelected":true}},{"url":"text","valueString":"American Indian or Alaska Native"}]},{"url":"http://hl7.org/fhir/us/core/StructureDefinition/us-core-ethnicity","extension":[{"url":"ombCategory","valueCoding":{"system":"urn:oid:2.16.840.1.113883.6.238","code":"2135-2","display":"Hispanic or Latino","userSelected":true}},{"url":"text","valueString":"Hispanic or Latino"}]}],"identifier":[{"type":{"coding":[{"system":"http://terminology.hl7.org/CodeSystem/v2-0203","code":"MR"}]},"system":"https://bonnie-fhir.healthit.gov/","value":"612e6ebc02c62a011f2ef6a5"}],"active":true,"name":[{"use":"usual","family":"NUMERPass","given":["GlycoDayAfterAnesNullMedEndtime"]}],"gender":"female","birthDate":"1975-03-03"},"request":{"method":"PUT","url":"Patient/25265601-4e27-4fe0-8d35-68ebac8f9894"}},{"resource":{"resourceType":"Bundle","id":"612e6ebc02c62a011f2ef6a5","type":"transaction","entry":[{"fullUrl":"https://madie.cms.gov/Patient/25265601-4e27-4fe0-8d35-68ebac8f9894","resource":{"resourceType":"Patient","id":"25265601-4e27-4fe0-8d35-68ebac8f9894","meta":{"profile":["http://hl7.org/fhir/us/qicore/StructureDefinition/qicore-patient"]},"text":{"status":"generated","div":"<div xmlns=\"http://www.w3.org/1999/xhtml\"><div class=\"hapiHeaderText\">GlycoDayAfterAnesNullMedEndtime <b>NUMERPASS </b></div><table class=\"hapiPropertyTable\"><tbody><tr><td>Identifier</td><td>4a42020f0b8dee0fc88266e960041057</td></tr><tr><td>Date of birth</td><td><span>03 March 1974</span></td></tr></tbody></table></div>"},"extension":[{"url":"http://hl7.org/fhir/us/core/StructureDefinition/us-core-race","extension":[{"url":"ombCategory","valueCoding":{"system":"urn:oid:2.16.840.1.113883.6.238","code":"1002-5","display":"American Indian or Alaska Native","userSelected":true}},{"url":"text","valueString":"American Indian or Alaska Native"}]},{"url":"http://hl7.org/fhir/us/core/StructureDefinition/us-core-ethnicity","extension":[{"url":"ombCategory","valueCoding":{"system":"urn:oid:2.16.840.1.113883.6.238","code":"2135-2","display":"Hispanic or Latino","userSelected":true}},{"url":"text","valueString":"Hispanic or Latino"}]}],"identifier":[{"type":{"coding":[{"system":"http://terminology.hl7.org/CodeSystem/v2-0203","code":"MR"}]},"system":"https://bonnie-fhir.healthit.gov/","value":"612e6ebc02c62a011f2ef6a5"}],"active":true,"name":[{"use":"usual","family":"NUMERPass","given":["GlycoDayAfterAnesNullMedEndtime"]}],"gender":"female","birthDate":"1975-03-03"},"request":{"method":"PUT","url":"Patient/25265601-4e27-4fe0-8d35-68ebac8f9894"}},{"fullUrl":"https://madie.cms.gov/Encounter/5fc85c33-dc6d-4e88-ad69-5f8d707f71e8","resource":{"resourceType":"Encounter","id":"5fc85c33-dc6d-4e88-ad69-5f8d707f71e8","meta":{"profile":["http://hl7.org/fhir/us/qicore/StructureDefinition/qicore-encounter"]},"status":"finished","class":{"system":"http://terminology.hl7.org/CodeSystem/v3-ActCode","code":"IMP","display":"inpatient encounter"},"type":[{"coding":[{"system":"http://snomed.info/sct","code":"8715000"}]}],"subject":{"reference":"Patient/25265601-4e27-4fe0-8d35-68ebac8f9894"},"period":{"start":"2026-12-04T08:00:00.000+00:00","end":"2026-12-30T08:15:00.000+00:00"},"length":{"value":26.0,"unit":"days"},"location":[{"location":{"reference":"Location/7c94d683-e9be-4553-9b9f-88d1198ed3a2"},"period":{"start":"2026-12-06T08:00:00.000+00:00","end":"2026-12-12T08:15:00.000+00:00"}}]},"request":{"method":"PUT","url":"Encounter/5fc85c33-dc6d-4e88-ad69-5f8d707f71e8"}},{"fullUrl":"https://madie.cms.gov/Coverage/c3bf9bc9-fa8e-498a-b5d1-04d458f342b8","resource":{"resourceType":"Coverage","id":"c3bf9bc9-fa8e-498a-b5d1-04d458f342b8","status":"active","beneficiary":{"reference":"Patient/25265601-4e27-4fe0-8d35-68ebac8f9894"},"period":{"start":"1975-03-03T08:00:00.000+00:00"},"payor":[{"reference":"Organization/bd09c863-ab65-463c-ac27-ed94a939c72a"}]},"request":{"method":"PUT","url":"Coverage/c3bf9bc9-fa8e-498a-b5d1-04d458f342b8"}},{"fullUrl":"https://madie.cms.gov/MedicationAdministration/d7b0fca1-0c5c-4eb8-a42b-752df2026b0e","resource":{"resourceType":"MedicationAdministration","id":"d7b0fca1-0c5c-4eb8-a42b-752df2026b0e","meta":{"profile":["http://hl7.org/fhir/us/qicore/StructureDefinition/qicore-medicationadministration"]},"status":"completed","medicationCodeableConcept":{"coding":[{"system":"http://www.nlm.nih.gov/research/umls/rxnorm","code":"200349"}]},"subject":{"reference":"Patient/25265601-4e27-4fe0-8d35-68ebac8f9894"},"effectivePeriod":{"start":"2026-12-08T11:30:00.000+00:00"}},"request":{"method":"PUT","url":"MedicationAdministration/d7b0fca1-0c5c-4eb8-a42b-752df2026b0e"}},{"fullUrl":"https://madie.cms.gov/Procedure/fe88958b-2bce-4b78-bb4f-41461839582c","resource":{"resourceType":"Procedure","id":"fe88958b-2bce-4b78-bb4f-41461839582c","meta":{"profile":["http://hl7.org/fhir/us/qicore/StructureDefinition/qicore-procedure"]},"extension":[{"url":"http://hl7.org/fhir/us/qicore/StructureDefinition/qicore-recorded","valueDateTime":"2013-12-07T13:35:00.000+00:00"}],"status":"completed","code":{"coding":[{"system":"http://snomed.info/sct","code":"18946005"}]},"subject":{"reference":"Patient/25265601-4e27-4fe0-8d35-68ebac8f9894"},"performedPeriod":{"start":"2026-12-07T11:00:00.000+00:00","end":"2026-12-07T11:15:00.000+00:00"}},"request":{"method":"PUT","url":"Procedure/fe88958b-2bce-4b78-bb4f-41461839582c"}},{"fullUrl":"https://madie.cms.gov/Location/7c94d683-e9be-4553-9b9f-88d1198ed3a2","resource":{"resourceType":"Location","id":"7c94d683-e9be-4553-9b9f-88d1198ed3a2","meta":{"profile":["http://hl7.org/fhir/us/qicore/StructureDefinition/qicore-location"]},"identifier":[{"use":"usual","system":"http://exampleoflocation.com","value":"B1-S.F2"}],"name":"Medical Surgical East, first floor","type":[{"coding":[{"system":"https://www.cdc.gov/nhsn/cdaportal/terminology/codesystem/hsloc.html","code":"1025-6","display":"Trauma Critical Care","userSelected":true}]}]},"request":{"method":"PUT","url":"Location/7c94d683-e9be-4553-9b9f-88d1198ed3a2"}},{"fullUrl":"https://madie.cms.gov/Organization/bd09c863-ab65-463c-ac27-ed94a939c72a","resource":{"resourceType":"Organization","id":"bd09c863-ab65-463c-ac27-ed94a939c72a","meta":{"profile":["http://hl7.org/fhir/us/qicore/StructureDefinition/qicore-organization"]},"identifier":[{"use":"temp","system":"urn:oid:2.16.840.1.113883.4.4","value":"21-3259825"}],"active":true,"type":[{"coding":[{"system":"http://terminology.hl7.org/CodeSystem/organization-type","code":"pay","display":"Payer"}]}],"name":"Blue Cross Blue Shield of Texas","telecom":[{"system":"phone","value":"(+1) 972-766-6900"}],"address":[{"use":"billing","type":"postal","line":["P.O. Box 660044"],"city":"Dallas","state":"TX","postalCode":"75266-0044","country":"USA"}]},"request":{"method":"PUT","url":"Organization/bd09c863-ab65-463c-ac27-ed94a939c72a"}},{"fullUrl":"https://madie.cms.gov/Practitioner/cb16b3c8-50fb-419e-93db-2d452274116a","resource":{"resourceType":"Practitioner","id":"cb16b3c8-50fb-419e-93db-2d452274116a","identifier":[{"system":"http://hl7.org/fhir/sid/us-npi","value":"123456"}],"name":[{"family":"Evil","prefix":["Dr"]}]},"request":{"method":"PUT","url":"Practitioner/cb16b3c8-50fb-419e-93db-2d452274116a"}},{"fullUrl":"https://madie.cms.gov/MeasureReport/868d6d6a-bc73-4265-a981-78bf793f291c","resource":{"resourceType":"MeasureReport","id":"868d6d6a-bc73-4265-a981-78bf793f291c","meta":{"profile":["http://hl7.org/fhir/us/cqfmeasures/StructureDefinition/test-case-cqfm"]},"contained":[{"resourceType":"Parameters","id":"ca7f7f49-d784-4e29-a574-da59de3f99dd-parameters","parameter":[{"name":"subject","valueString":"25265601-4e27-4fe0-8d35-68ebac8f9894"}]}],"extension":[{"url":"http://hl7.org/fhir/StructureDefinition/cqf-inputParameters","valueReference":{"reference":"#ca7f7f49-d784-4e29-a574-da59de3f99dd-parameters"}},{"url":"http://hl7.org/fhir/us/cqfmeasures/StructureDefinition/cqfm-testCaseDescription","valueMarkdown":"Glycoprotein IIb/IIIa Inhibitors administered day after neuraxial anesthesia\n"}],"modifierExtension":[{"url":"http://hl7.org/fhir/us/cqfmeasures/StructureDefinition/cqfm-isTestCase","valueBoolean":true}],"status":"complete","type":"individual","measure":"https://madie.cms.gov/Measure/CMS190VTEProphylaxisICUFHIR","period":{"start":"2026-01-01","end":"2026-12-31"},"group":[{"id":"Group_1","population":[{"id":"InitialPopulation_1","code":{"coding":[{"system":"http://terminology.hl7.org/CodeSystem/measure-population","code":"initial-population","display":"Initial Population"}]},"count":1},{"id":"Denominator_1","code":{"coding":[{"system":"http://terminology.hl7.org/CodeSystem/measure-population","code":"denominator","display":"Denominator"}]},"count":1},{"id":"DenominatorExclusion_1","code":{"coding":[{"system":"http://terminology.hl7.org/CodeSystem/measure-population","code":"denominator-exclusion","display":"Denominator Exclusion"}]},"count":0},{"id":"Numerator_1","code":{"coding":[{"system":"http://terminology.hl7.org/CodeSystem/measure-population","code":"numerator","display":"Numerator"}]},"count":1},{"id":"DenominatorException_1","code":{"coding":[{"system":"http://terminology.hl7.org/CodeSystem/measure-population","code":"denominator-exception","display":"Denominator Exception"}]},"count":0}],"measureScore":{"value":0.0}}],"evaluatedResource":[{"reference":"Patient/25265601-4e27-4fe0-8d35-68ebac8f9894"},{"reference":"Encounter/5fc85c33-dc6d-4e88-ad69-5f8d707f71e8"},{"reference":"Coverage/c3bf9bc9-fa8e-498a-b5d1-04d458f342b8"},{"reference":"MedicationAdministration/d7b0fca1-0c5c-4eb8-a42b-752df2026b0e"},{"reference":"Procedure/fe88958b-2bce-4b78-bb4f-41461839582c"},{"reference":"Location/7c94d683-e9be-4553-9b9f-88d1198ed3a2"},{"reference":"Organization/bd09c863-ab65-463c-ac27-ed94a939c72a"},{"reference":"Practitioner/cb16b3c8-50fb-419e-93db-2d452274116a"}]},"request":{"method":"PUT","url":"MeasureReport/868d6d6a-bc73-4265-a981-78bf793f291c"}}]},"request":{"method":"PUT","url":"Bundle/612e6ebc02c62a011f2ef6a5"}},{"resource":{"resourceType":"Encounter","id":"5fc85c33-dc6d-4e88-ad69-5f8d707f71e8","meta":{"profile":["http://hl7.org/fhir/us/qicore/StructureDefinition/qicore-encounter"]},"status":"finished","class":{"system":"http://terminology.hl7.org/CodeSystem/v3-ActCode","code":"IMP","display":"inpatient encounter"},"type":[{"coding":[{"system":"http://snomed.info/sct","code":"8715000"}]}],"subject":{"reference":"Patient/25265601-4e27-4fe0-8d35-68ebac8f9894"},"period":{"start":"2026-12-04T08:00:00.000+00:00","end":"2026-12-30T08:15:00.000+00:00"},"length":{"value":26.0,"unit":"days"},"location":[{"location":{"reference":"Location/7c94d683-e9be-4553-9b9f-88d1198ed3a2"},"period":{"start":"2026-12-06T08:00:00.000+00:00","end":"2026-12-12T08:15:00.000+00:00"}}]},"request":{"method":"PUT","url":"Encounter/5fc85c33-dc6d-4e88-ad69-5f8d707f71e8"}},{"resource":{"resourceType":"Location","id":"7c94d683-e9be-4553-9b9f-88d1198ed3a2","meta":{"profile":["http://hl7.org/fhir/us/qicore/StructureDefinition/qicore-location"]},"identifier":[{"use":"usual","system":"http://exampleoflocation.com","value":"B1-S.F2"}],"name":"Medical Surgical East, first floor","type":[{"coding":[{"system":"https://www.cdc.gov/nhsn/cdaportal/terminology/codesystem/hsloc.html","code":"1025-6","display":"Trauma Critical Care","userSelected":true}]}]},"request":{"method":"PUT","url":"Location/7c94d683-e9be-4553-9b9f-88d1198ed3a2"}}]}