{"resourceType":"Bundle","id":"tests-9095a79b-8e0a-4348-93be-1fb2fe63ae44-bundle","type":"transaction","entry":[{"fullUrl":"Patient/9095a79b-8e0a-4348-93be-1fb2fe63ae44","resource":{"resourceType":"Patient","id":"9095a79b-8e0a-4348-93be-1fb2fe63ae44","meta":{"profile":["http://hl7.org/fhir/us/qicore/StructureDefinition/qicore-patient"]},"text":{"status":"generated","div":"<div xmlns=\"http://www.w3.org/1999/xhtml\"><div class=\"hapiHeaderText\">MAInjXaDayAfICU <b>NUMERPASS </b></div><table class=\"hapiPropertyTable\"><tbody><tr><td>Identifier</td><td>0f1ead663b0075a3e74fb3655fe4cfdf</td></tr><tr><td>Date of birth</td><td><span>03 March 1974</span></td></tr></tbody></table></div>"},"extension":[{"url":"http://hl7.org/fhir/us/core/StructureDefinition/us-core-race","extension":[{"url":"ombCategory","valueCoding":{"system":"urn:oid:2.16.840.1.113883.6.238","code":"1002-5","display":"American Indian or Alaska Native","userSelected":true}},{"url":"text","valueString":"American Indian or Alaska Native"}]},{"url":"http://hl7.org/fhir/us/core/StructureDefinition/us-core-ethnicity","extension":[{"url":"ombCategory","valueCoding":{"system":"urn:oid:2.16.840.1.113883.6.238","code":"2135-2","display":"Hispanic or Latino","userSelected":true}},{"url":"text","valueString":"Hispanic or Latino"}]}],"identifier":[{"type":{"coding":[{"system":"http://terminology.hl7.org/CodeSystem/v2-0203","code":"MR"}]},"system":"https://bonnie-fhir.healthit.gov/","value":"612e6f7d02c62a011f2f2008"}],"active":true,"name":[{"use":"usual","family":"NUMERPass","given":["MAInjXaDayAfICU"]}],"gender":"female","birthDate":"1975-03-03"},"request":{"method":"PUT","url":"Patient/9095a79b-8e0a-4348-93be-1fb2fe63ae44"}},{"fullUrl":"Bundle/612e6f7d02c62a011f2f2008","resource":{"resourceType":"Bundle","id":"612e6f7d02c62a011f2f2008","type":"transaction","entry":[{"fullUrl":"https://madie.cms.gov/Patient/9095a79b-8e0a-4348-93be-1fb2fe63ae44","resource":{"resourceType":"Patient","id":"9095a79b-8e0a-4348-93be-1fb2fe63ae44","meta":{"profile":["http://hl7.org/fhir/us/qicore/StructureDefinition/qicore-patient"]},"text":{"status":"generated","div":"<div xmlns=\"http://www.w3.org/1999/xhtml\"><div class=\"hapiHeaderText\">MAInjXaDayAfICU <b>NUMERPASS </b></div><table class=\"hapiPropertyTable\"><tbody><tr><td>Identifier</td><td>0f1ead663b0075a3e74fb3655fe4cfdf</td></tr><tr><td>Date of birth</td><td><span>03 March 1974</span></td></tr></tbody></table></div>"},"extension":[{"url":"http://hl7.org/fhir/us/core/StructureDefinition/us-core-race","extension":[{"url":"ombCategory","valueCoding":{"system":"urn:oid:2.16.840.1.113883.6.238","code":"1002-5","display":"American Indian or Alaska Native","userSelected":true}},{"url":"text","valueString":"American Indian or Alaska Native"}]},{"url":"http://hl7.org/fhir/us/core/StructureDefinition/us-core-ethnicity","extension":[{"url":"ombCategory","valueCoding":{"system":"urn:oid:2.16.840.1.113883.6.238","code":"2135-2","display":"Hispanic or Latino","userSelected":true}},{"url":"text","valueString":"Hispanic or Latino"}]}],"identifier":[{"type":{"coding":[{"system":"http://terminology.hl7.org/CodeSystem/v2-0203","code":"MR"}]},"system":"https://bonnie-fhir.healthit.gov/","value":"612e6f7d02c62a011f2f2008"}],"active":true,"name":[{"use":"usual","family":"NUMERPass","given":["MAInjXaDayAfICU"]}],"gender":"female","birthDate":"1975-03-03"},"request":{"method":"PUT","url":"Patient/9095a79b-8e0a-4348-93be-1fb2fe63ae44"}},{"fullUrl":"https://madie.cms.gov/Encounter/59fd4fac-c1a5-4963-bbf6-f332bd809bb5","resource":{"resourceType":"Encounter","id":"59fd4fac-c1a5-4963-bbf6-f332bd809bb5","meta":{"profile":["http://hl7.org/fhir/us/qicore/StructureDefinition/qicore-encounter"]},"status":"finished","class":{"system":"http://terminology.hl7.org/CodeSystem/v3-ActCode","code":"IMP","display":"inpatient encounter"},"type":[{"coding":[{"system":"http://snomed.info/sct","code":"8715000"}]}],"subject":{"reference":"Patient/9095a79b-8e0a-4348-93be-1fb2fe63ae44"},"period":{"start":"2026-12-04T08:00:00.000+00:00","end":"2026-12-30T08:15:00.000+00:00"},"length":{"value":26.0,"unit":"days"},"location":[{"location":{"reference":"Location/15bcf114-7fe6-4484-bd36-0b7cba30502e"},"period":{"start":"2026-12-06T09:00:00.000+00:00","end":"2026-12-12T08:15:00.000+00:00"}}]},"request":{"method":"PUT","url":"Encounter/59fd4fac-c1a5-4963-bbf6-f332bd809bb5"}},{"fullUrl":"https://madie.cms.gov/Coverage/de1f9c86-b32a-40fe-998b-afd359885315","resource":{"resourceType":"Coverage","id":"de1f9c86-b32a-40fe-998b-afd359885315","status":"active","beneficiary":{"reference":"Patient/9095a79b-8e0a-4348-93be-1fb2fe63ae44"},"period":{"start":"1975-03-03T08:00:00.000+00:00"},"payor":[{"reference":"Organization/54e7497a-f611-4824-933d-58732e8368a2"}]},"request":{"method":"PUT","url":"Coverage/de1f9c86-b32a-40fe-998b-afd359885315"}},{"fullUrl":"https://madie.cms.gov/Location/15bcf114-7fe6-4484-bd36-0b7cba30502e","resource":{"resourceType":"Location","id":"15bcf114-7fe6-4484-bd36-0b7cba30502e","meta":{"profile":["http://hl7.org/fhir/us/qicore/StructureDefinition/qicore-location"]},"identifier":[{"use":"usual","system":"http://exampleoflocation.com","value":"B1-S.F2"}],"name":"Medical Surgical East, first floor","type":[{"coding":[{"system":"https://www.cdc.gov/nhsn/cdaportal/terminology/codesystem/hsloc.html","version":"2020","code":"1025-6","display":"Trauma Critical Care","userSelected":true}]}]},"request":{"method":"PUT","url":"Location/15bcf114-7fe6-4484-bd36-0b7cba30502e"}},{"fullUrl":"https://madie.cms.gov/MedicationAdministration/e12bf8b2-7a35-4941-873c-c50f11b4e60d","resource":{"resourceType":"MedicationAdministration","id":"e12bf8b2-7a35-4941-873c-c50f11b4e60d","meta":{"profile":["http://hl7.org/fhir/us/qicore/StructureDefinition/qicore-medicationadministration"]},"status":"completed","medicationCodeableConcept":{"coding":[{"system":"http://www.nlm.nih.gov/research/umls/rxnorm","code":"861356"}]},"subject":{"reference":"Patient/9095a79b-8e0a-4348-93be-1fb2fe63ae44"},"effectivePeriod":{"start":"2026-12-07T11:00:00.000+00:00","end":"2026-12-07T11:05:00.000+00:00"}},"request":{"method":"PUT","url":"MedicationAdministration/e12bf8b2-7a35-4941-873c-c50f11b4e60d"}},{"fullUrl":"https://madie.cms.gov/Organization/54e7497a-f611-4824-933d-58732e8368a2","resource":{"resourceType":"Organization","id":"54e7497a-f611-4824-933d-58732e8368a2","meta":{"profile":["http://hl7.org/fhir/us/qicore/StructureDefinition/qicore-organization"]},"identifier":[{"use":"temp","system":"urn:oid:2.16.840.1.113883.4.4","value":"21-3259825"}],"active":true,"type":[{"coding":[{"system":"http://terminology.hl7.org/CodeSystem/organization-type","code":"pay","display":"Payer"}]}],"name":"Blue Cross Blue Shield of Texas","telecom":[{"system":"phone","value":"(+1) 972-766-6900"}],"address":[{"use":"billing","type":"postal","line":["P.O. Box 660044"],"city":"Dallas","state":"TX","postalCode":"75266-0044","country":"USA"}]},"request":{"method":"PUT","url":"Organization/54e7497a-f611-4824-933d-58732e8368a2"}},{"fullUrl":"https://madie.cms.gov/MeasureReport/4586a702-fc7d-47e3-927a-ac5f49611fab","resource":{"resourceType":"MeasureReport","id":"4586a702-fc7d-47e3-927a-ac5f49611fab","meta":{"profile":["http://hl7.org/fhir/us/cqfmeasures/StructureDefinition/test-case-cqfm"]},"contained":[{"resourceType":"Parameters","id":"a038d4d1-47c0-4f81-acd4-6b7246f19403-parameters","parameter":[{"name":"subject","valueString":"9095a79b-8e0a-4348-93be-1fb2fe63ae44"}]}],"extension":[{"url":"http://hl7.org/fhir/StructureDefinition/cqf-inputParameters","valueReference":{"reference":"#a038d4d1-47c0-4f81-acd4-6b7246f19403-parameters"}},{"url":"http://hl7.org/fhir/us/cqfmeasures/StructureDefinition/cqfm-testCaseDescription","valueMarkdown":"Injectable Oral Factor Xa administered on day after ICU start date\n"}],"modifierExtension":[{"url":"http://hl7.org/fhir/us/cqfmeasures/StructureDefinition/cqfm-isTestCase","valueBoolean":true}],"status":"complete","type":"individual","measure":"https://madie.cms.gov/Measure/CMS190VTEProphylaxisICUFHIR","period":{"start":"2026-01-01","end":"2026-12-31"},"group":[{"id":"Group_1","population":[{"id":"InitialPopulation_1","code":{"coding":[{"system":"http://terminology.hl7.org/CodeSystem/measure-population","code":"initial-population","display":"Initial Population"}]},"count":1},{"id":"Denominator_1","code":{"coding":[{"system":"http://terminology.hl7.org/CodeSystem/measure-population","code":"denominator","display":"Denominator"}]},"count":1},{"id":"DenominatorExclusion_1","code":{"coding":[{"system":"http://terminology.hl7.org/CodeSystem/measure-population","code":"denominator-exclusion","display":"Denominator Exclusion"}]},"count":0},{"id":"Numerator_1","code":{"coding":[{"system":"http://terminology.hl7.org/CodeSystem/measure-population","code":"numerator","display":"Numerator"}]},"count":1},{"id":"DenominatorException_1","code":{"coding":[{"system":"http://terminology.hl7.org/CodeSystem/measure-population","code":"denominator-exception","display":"Denominator Exception"}]},"count":0}],"measureScore":{"value":0.0}}],"evaluatedResource":[{"reference":"Patient/9095a79b-8e0a-4348-93be-1fb2fe63ae44"},{"reference":"Encounter/59fd4fac-c1a5-4963-bbf6-f332bd809bb5"},{"reference":"Coverage/de1f9c86-b32a-40fe-998b-afd359885315"},{"reference":"Location/15bcf114-7fe6-4484-bd36-0b7cba30502e"},{"reference":"MedicationAdministration/e12bf8b2-7a35-4941-873c-c50f11b4e60d"},{"reference":"Organization/54e7497a-f611-4824-933d-58732e8368a2"}]},"request":{"method":"PUT","url":"MeasureReport/4586a702-fc7d-47e3-927a-ac5f49611fab"}}]},"request":{"method":"PUT","url":"Bundle/612e6f7d02c62a011f2f2008"}},{"fullUrl":"Organization/54e7497a-f611-4824-933d-58732e8368a2","resource":{"resourceType":"Organization","id":"54e7497a-f611-4824-933d-58732e8368a2","meta":{"profile":["http://hl7.org/fhir/us/qicore/StructureDefinition/qicore-organization"]},"identifier":[{"use":"temp","system":"urn:oid:2.16.840.1.113883.4.4","value":"21-3259825"}],"active":true,"type":[{"coding":[{"system":"http://terminology.hl7.org/CodeSystem/organization-type","code":"pay","display":"Payer"}]}],"name":"Blue Cross Blue Shield of Texas","telecom":[{"system":"phone","value":"(+1) 972-766-6900"}],"address":[{"use":"billing","type":"postal","line":["P.O. Box 660044"],"city":"Dallas","state":"TX","postalCode":"75266-0044","country":"USA"}]},"request":{"method":"PUT","url":"Organization/54e7497a-f611-4824-933d-58732e8368a2"}},{"fullUrl":"Encounter/59fd4fac-c1a5-4963-bbf6-f332bd809bb5","resource":{"resourceType":"Encounter","id":"59fd4fac-c1a5-4963-bbf6-f332bd809bb5","meta":{"profile":["http://hl7.org/fhir/us/qicore/StructureDefinition/qicore-encounter"]},"status":"finished","class":{"system":"http://terminology.hl7.org/CodeSystem/v3-ActCode","code":"IMP","display":"inpatient encounter"},"type":[{"coding":[{"system":"http://snomed.info/sct","code":"8715000"}]}],"subject":{"reference":"Patient/9095a79b-8e0a-4348-93be-1fb2fe63ae44"},"period":{"start":"2026-12-04T08:00:00.000+00:00","end":"2026-12-30T08:15:00.000+00:00"},"length":{"value":26.0,"unit":"days"},"location":[{"location":{"reference":"Location/15bcf114-7fe6-4484-bd36-0b7cba30502e"},"period":{"start":"2026-12-06T09:00:00.000+00:00","end":"2026-12-12T08:15:00.000+00:00"}}]},"request":{"method":"PUT","url":"Encounter/59fd4fac-c1a5-4963-bbf6-f332bd809bb5"}},{"fullUrl":"Location/15bcf114-7fe6-4484-bd36-0b7cba30502e","resource":{"resourceType":"Location","id":"15bcf114-7fe6-4484-bd36-0b7cba30502e","meta":{"profile":["http://hl7.org/fhir/us/qicore/StructureDefinition/qicore-location"]},"identifier":[{"use":"usual","system":"http://exampleoflocation.com","value":"B1-S.F2"}],"name":"Medical Surgical East, first floor","type":[{"coding":[{"system":"https://www.cdc.gov/nhsn/cdaportal/terminology/codesystem/hsloc.html","version":"2020","code":"1025-6","display":"Trauma Critical Care","userSelected":true}]}]},"request":{"method":"PUT","url":"Location/15bcf114-7fe6-4484-bd36-0b7cba30502e"}},{"fullUrl":"MeasureReport/4586a702-fc7d-47e3-927a-ac5f49611fab","resource":{"resourceType":"MeasureReport","id":"4586a702-fc7d-47e3-927a-ac5f49611fab","meta":{"profile":["http://hl7.org/fhir/us/cqfmeasures/StructureDefinition/test-case-cqfm"]},"contained":[{"resourceType":"Parameters","id":"a038d4d1-47c0-4f81-acd4-6b7246f19403-parameters","parameter":[{"name":"subject","valueString":"9095a79b-8e0a-4348-93be-1fb2fe63ae44"}]}],"extension":[{"url":"http://hl7.org/fhir/StructureDefinition/cqf-inputParameters","valueReference":{"reference":"#a038d4d1-47c0-4f81-acd4-6b7246f19403-parameters"}},{"url":"http://hl7.org/fhir/us/cqfmeasures/StructureDefinition/cqfm-testCaseDescription","valueMarkdown":"Injectable Oral Factor Xa administered on day after ICU start date\n"}],"modifierExtension":[{"url":"http://hl7.org/fhir/us/cqfmeasures/StructureDefinition/cqfm-isTestCase","valueBoolean":true}],"status":"complete","type":"individual","measure":"https://madie.cms.gov/Measure/CMS190VTEProphylaxisICUFHIR","period":{"start":"2026-01-01","end":"2026-12-31"},"group":[{"id":"Group_1","population":[{"id":"InitialPopulation_1","code":{"coding":[{"system":"http://terminology.hl7.org/CodeSystem/measure-population","code":"initial-population","display":"Initial Population"}]},"count":1},{"id":"Denominator_1","code":{"coding":[{"system":"http://terminology.hl7.org/CodeSystem/measure-population","code":"denominator","display":"Denominator"}]},"count":1},{"id":"DenominatorExclusion_1","code":{"coding":[{"system":"http://terminology.hl7.org/CodeSystem/measure-population","code":"denominator-exclusion","display":"Denominator Exclusion"}]},"count":0},{"id":"Numerator_1","code":{"coding":[{"system":"http://terminology.hl7.org/CodeSystem/measure-population","code":"numerator","display":"Numerator"}]},"count":1},{"id":"DenominatorException_1","code":{"coding":[{"system":"http://terminology.hl7.org/CodeSystem/measure-population","code":"denominator-exception","display":"Denominator Exception"}]},"count":0}],"measureScore":{"value":0.0}}],"evaluatedResource":[{"reference":"Patient/9095a79b-8e0a-4348-93be-1fb2fe63ae44"},{"reference":"Encounter/59fd4fac-c1a5-4963-bbf6-f332bd809bb5"},{"reference":"Coverage/de1f9c86-b32a-40fe-998b-afd359885315"},{"reference":"Location/15bcf114-7fe6-4484-bd36-0b7cba30502e"},{"reference":"MedicationAdministration/e12bf8b2-7a35-4941-873c-c50f11b4e60d"},{"reference":"Organization/54e7497a-f611-4824-933d-58732e8368a2"}]},"request":{"method":"PUT","url":"MeasureReport/4586a702-fc7d-47e3-927a-ac5f49611fab"}},{"fullUrl":"Coverage/de1f9c86-b32a-40fe-998b-afd359885315","resource":{"resourceType":"Coverage","id":"de1f9c86-b32a-40fe-998b-afd359885315","status":"active","beneficiary":{"reference":"Patient/9095a79b-8e0a-4348-93be-1fb2fe63ae44"},"period":{"start":"1975-03-03T08:00:00.000+00:00"},"payor":[{"reference":"Organization/54e7497a-f611-4824-933d-58732e8368a2"}]},"request":{"method":"PUT","url":"Coverage/de1f9c86-b32a-40fe-998b-afd359885315"}},{"fullUrl":"MedicationAdministration/e12bf8b2-7a35-4941-873c-c50f11b4e60d","resource":{"resourceType":"MedicationAdministration","id":"e12bf8b2-7a35-4941-873c-c50f11b4e60d","meta":{"profile":["http://hl7.org/fhir/us/qicore/StructureDefinition/qicore-medicationadministration"]},"status":"completed","medicationCodeableConcept":{"coding":[{"system":"http://www.nlm.nih.gov/research/umls/rxnorm","code":"861356"}]},"subject":{"reference":"Patient/9095a79b-8e0a-4348-93be-1fb2fe63ae44"},"effectivePeriod":{"start":"2026-12-07T11:00:00.000+00:00","end":"2026-12-07T11:05:00.000+00:00"}},"request":{"method":"PUT","url":"MedicationAdministration/e12bf8b2-7a35-4941-873c-c50f11b4e60d"}}]}