{"resourceType":"Bundle","id":"tests-95a54d01-197e-48ef-bb48-d3d398aecbe8-bundle","type":"transaction","entry":[{"fullUrl":"MeasureReport/2f270022-0bbb-4aa3-8b3a-05d75024f69c","resource":{"resourceType":"MeasureReport","id":"2f270022-0bbb-4aa3-8b3a-05d75024f69c","meta":{"profile":["http://hl7.org/fhir/us/cqfmeasures/StructureDefinition/test-case-cqfm"]},"contained":[{"resourceType":"Parameters","id":"8837d914-ef31-4dd5-bf6a-ae63288963eb-parameters","parameter":[{"name":"subject","valueString":"95a54d01-197e-48ef-bb48-d3d398aecbe8"}]}],"extension":[{"url":"http://hl7.org/fhir/StructureDefinition/cqf-inputParameters","valueReference":{"reference":"#8837d914-ef31-4dd5-bf6a-ae63288963eb-parameters"}},{"url":"http://hl7.org/fhir/us/cqfmeasures/StructureDefinition/cqfm-testCaseDescription","valueMarkdown":"meets IPP, meets Denominator,  Injectable Factor Xa Inhibitor adm not done PatRfsl on the day of anesthesia\n"}],"modifierExtension":[{"url":"http://hl7.org/fhir/us/cqfmeasures/StructureDefinition/cqfm-isTestCase","valueBoolean":true}],"status":"complete","type":"individual","measure":"https://madie.cms.gov/Measure/CMS190VTEProphylaxisICUFHIR","period":{"start":"2026-01-01","end":"2026-12-31"},"group":[{"id":"Group_1","population":[{"id":"InitialPopulation_1","code":{"coding":[{"system":"http://terminology.hl7.org/CodeSystem/measure-population","code":"initial-population","display":"Initial Population"}]},"count":1},{"id":"Denominator_1","code":{"coding":[{"system":"http://terminology.hl7.org/CodeSystem/measure-population","code":"denominator","display":"Denominator"}]},"count":1},{"id":"DenominatorExclusion_1","code":{"coding":[{"system":"http://terminology.hl7.org/CodeSystem/measure-population","code":"denominator-exclusion","display":"Denominator Exclusion"}]},"count":0},{"id":"Numerator_1","code":{"coding":[{"system":"http://terminology.hl7.org/CodeSystem/measure-population","code":"numerator","display":"Numerator"}]},"count":1},{"id":"DenominatorException_1","code":{"coding":[{"system":"http://terminology.hl7.org/CodeSystem/measure-population","code":"denominator-exception","display":"Denominator Exception"}]},"count":0}],"measureScore":{"value":0.0}}],"evaluatedResource":[{"reference":"Patient/95a54d01-197e-48ef-bb48-d3d398aecbe8"},{"reference":"Encounter/97c73804-d9cd-4091-8299-7a9f7ea7c90f"},{"reference":"Coverage/2e68a660-005b-42d4-bacf-708886fbef92"},{"reference":"MedicationAdministration/f3debe97-02e4-4d02-ac36-3b9bc78f11c8"},{"reference":"Procedure/d82744aa-e4de-4a7e-bcb0-175c262227d6"},{"reference":"Location/323104aa-22f6-452d-b9b7-07af766d06fc"},{"reference":"Organization/46edfcdb-c805-48e8-aa14-ae8c929d08fe"},{"reference":"Practitioner/c4a8e001-c060-40b6-a570-ce67b2cb4abc"}]},"request":{"method":"PUT","url":"MeasureReport/2f270022-0bbb-4aa3-8b3a-05d75024f69c"}},{"fullUrl":"Coverage/2e68a660-005b-42d4-bacf-708886fbef92","resource":{"resourceType":"Coverage","id":"2e68a660-005b-42d4-bacf-708886fbef92","status":"active","beneficiary":{"reference":"Patient/95a54d01-197e-48ef-bb48-d3d398aecbe8"},"period":{"start":"1975-01-02T08:00:00.000+00:00"},"payor":[{"reference":"Organization/46edfcdb-c805-48e8-aa14-ae8c929d08fe"}]},"request":{"method":"PUT","url":"Coverage/2e68a660-005b-42d4-bacf-708886fbef92"}},{"fullUrl":"Procedure/d82744aa-e4de-4a7e-bcb0-175c262227d6","resource":{"resourceType":"Procedure","id":"d82744aa-e4de-4a7e-bcb0-175c262227d6","meta":{"profile":["http://hl7.org/fhir/us/qicore/StructureDefinition/qicore-procedure"]},"extension":[{"url":"http://hl7.org/fhir/us/qicore/StructureDefinition/qicore-recorded","valueDateTime":"2013-11-19T13:35:00.000+00:00"}],"status":"completed","code":{"coding":[{"system":"http://snomed.info/sct","code":"18946005"}]},"subject":{"reference":"Patient/95a54d01-197e-48ef-bb48-d3d398aecbe8"},"performedPeriod":{"start":"2026-11-02T09:00:00.000+00:00","end":"2026-11-02T09:15:00.000+00:00"}},"request":{"method":"PUT","url":"Procedure/d82744aa-e4de-4a7e-bcb0-175c262227d6"}},{"fullUrl":"MedicationAdministration/f3debe97-02e4-4d02-ac36-3b9bc78f11c8","resource":{"resourceType":"MedicationAdministration","id":"f3debe97-02e4-4d02-ac36-3b9bc78f11c8","meta":{"profile":["http://hl7.org/fhir/us/qicore/StructureDefinition/qicore-medicationadministrationnotdone"]},"extension":[{"url":"http://hl7.org/fhir/us/qicore/StructureDefinition/qicore-recorded","valueDateTime":"2026-11-02T11:00:00.000+00:00"}],"status":"not-done","statusReason":[{"coding":[{"system":"http://snomed.info/sct","code":"443390004","display":"Refusal of treatment by patient (situation)"}]}],"medicationCodeableConcept":{"coding":[{"system":"http://www.nlm.nih.gov/research/umls/rxnorm","code":"861356"}]},"subject":{"reference":"Patient/95a54d01-197e-48ef-bb48-d3d398aecbe8"},"effectivePeriod":{"start":"2026-11-02T11:00:00.000+00:00"}},"request":{"method":"PUT","url":"MedicationAdministration/f3debe97-02e4-4d02-ac36-3b9bc78f11c8"}},{"fullUrl":"Organization/46edfcdb-c805-48e8-aa14-ae8c929d08fe","resource":{"resourceType":"Organization","id":"46edfcdb-c805-48e8-aa14-ae8c929d08fe","meta":{"profile":["http://hl7.org/fhir/us/qicore/StructureDefinition/qicore-organization"]},"identifier":[{"use":"temp","system":"urn:oid:2.16.840.1.113883.4.4","value":"21-3259825"}],"active":true,"type":[{"coding":[{"system":"http://terminology.hl7.org/CodeSystem/organization-type","code":"pay","display":"Payer"}]}],"name":"Blue Cross Blue Shield of Texas","telecom":[{"system":"phone","value":"(+1) 972-766-6900"}],"address":[{"use":"billing","type":"postal","line":["P.O. Box 660044"],"city":"Dallas","state":"TX","postalCode":"75266-0044","country":"USA"}]},"request":{"method":"PUT","url":"Organization/46edfcdb-c805-48e8-aa14-ae8c929d08fe"}},{"fullUrl":"Location/323104aa-22f6-452d-b9b7-07af766d06fc","resource":{"resourceType":"Location","id":"323104aa-22f6-452d-b9b7-07af766d06fc","meta":{"profile":["http://hl7.org/fhir/us/qicore/StructureDefinition/qicore-location"]},"identifier":[{"use":"usual","system":"http://exampleoflocation.com","value":"B1-S.F2"}],"name":"Medical Surgical East, first floor","type":[{"coding":[{"system":"https://www.cdc.gov/nhsn/cdaportal/terminology/codesystem/hsloc.html","code":"1025-6","display":"Trauma Critical Care","userSelected":true}]}]},"request":{"method":"PUT","url":"Location/323104aa-22f6-452d-b9b7-07af766d06fc"}},{"fullUrl":"Encounter/97c73804-d9cd-4091-8299-7a9f7ea7c90f","resource":{"resourceType":"Encounter","id":"97c73804-d9cd-4091-8299-7a9f7ea7c90f","meta":{"profile":["http://hl7.org/fhir/us/qicore/StructureDefinition/qicore-encounter"]},"status":"finished","class":{"system":"http://terminology.hl7.org/CodeSystem/v3-ActCode","code":"IMP","display":"inpatient encounter"},"type":[{"coding":[{"system":"http://snomed.info/sct","code":"8715000"}]}],"subject":{"reference":"Patient/95a54d01-197e-48ef-bb48-d3d398aecbe8"},"period":{"start":"2026-11-01T08:00:00.000+00:00","end":"2026-11-26T08:15:00.000+00:00"},"length":{"value":25,"unit":"days"},"location":[{"location":{"reference":"Location/323104aa-22f6-452d-b9b7-07af766d06fc"},"period":{"start":"2026-11-04T09:00:00.000+00:00","end":"2026-11-06T08:15:00.000+00:00"}}]},"request":{"method":"PUT","url":"Encounter/97c73804-d9cd-4091-8299-7a9f7ea7c90f"}},{"fullUrl":"Bundle/612e6a6002c62a011f2e9dfd","resource":{"resourceType":"Bundle","id":"612e6a6002c62a011f2e9dfd","type":"transaction","entry":[{"fullUrl":"https://madie.cms.gov/Patient/95a54d01-197e-48ef-bb48-d3d398aecbe8","resource":{"resourceType":"Patient","id":"95a54d01-197e-48ef-bb48-d3d398aecbe8","meta":{"profile":["http://hl7.org/fhir/us/qicore/StructureDefinition/qicore-patient"]},"text":{"status":"generated","div":"<div xmlns=\"http://www.w3.org/1999/xhtml\"><div class=\"hapiHeaderText\">PtRefMAInjXaDayOfAnes <b>NUMERPASS </b></div><table class=\"hapiPropertyTable\"><tbody><tr><td>Identifier</td><td>bec2580a47ed4bf7691b191e0654b2de</td></tr><tr><td>Date of birth</td><td><span>02 January 1974</span></td></tr></tbody></table></div>"},"extension":[{"url":"http://hl7.org/fhir/us/core/StructureDefinition/us-core-race","extension":[{"url":"ombCategory","valueCoding":{"system":"urn:oid:2.16.840.1.113883.6.238","code":"1002-5","display":"American Indian or Alaska Native","userSelected":true}},{"url":"text","valueString":"American Indian or Alaska Native"}]},{"url":"http://hl7.org/fhir/us/core/StructureDefinition/us-core-ethnicity","extension":[{"url":"ombCategory","valueCoding":{"system":"urn:oid:2.16.840.1.113883.6.238","code":"2135-2","display":"Hispanic or Latino","userSelected":true}},{"url":"text","valueString":"Hispanic or Latino"}]}],"identifier":[{"type":{"coding":[{"system":"http://terminology.hl7.org/CodeSystem/v2-0203","code":"MR"}]},"system":"https://bonnie-fhir.healthit.gov/","value":"612e6a6002c62a011f2e9dfd"}],"active":true,"name":[{"use":"usual","family":"NUMERPass","given":["PtRefMAInjXaDayOfAnes"]}],"gender":"male","birthDate":"1975-01-02"},"request":{"method":"PUT","url":"Patient/95a54d01-197e-48ef-bb48-d3d398aecbe8"}},{"fullUrl":"https://madie.cms.gov/Encounter/97c73804-d9cd-4091-8299-7a9f7ea7c90f","resource":{"resourceType":"Encounter","id":"97c73804-d9cd-4091-8299-7a9f7ea7c90f","meta":{"profile":["http://hl7.org/fhir/us/qicore/StructureDefinition/qicore-encounter"]},"status":"finished","class":{"system":"http://terminology.hl7.org/CodeSystem/v3-ActCode","code":"IMP","display":"inpatient encounter"},"type":[{"coding":[{"system":"http://snomed.info/sct","code":"8715000"}]}],"subject":{"reference":"Patient/95a54d01-197e-48ef-bb48-d3d398aecbe8"},"period":{"start":"2026-11-01T08:00:00.000+00:00","end":"2026-11-26T08:15:00.000+00:00"},"length":{"value":25,"unit":"days"},"location":[{"location":{"reference":"Location/323104aa-22f6-452d-b9b7-07af766d06fc"},"period":{"start":"2026-11-04T09:00:00.000+00:00","end":"2026-11-06T08:15:00.000+00:00"}}]},"request":{"method":"PUT","url":"Encounter/97c73804-d9cd-4091-8299-7a9f7ea7c90f"}},{"fullUrl":"https://madie.cms.gov/Coverage/2e68a660-005b-42d4-bacf-708886fbef92","resource":{"resourceType":"Coverage","id":"2e68a660-005b-42d4-bacf-708886fbef92","status":"active","beneficiary":{"reference":"Patient/95a54d01-197e-48ef-bb48-d3d398aecbe8"},"period":{"start":"1975-01-02T08:00:00.000+00:00"},"payor":[{"reference":"Organization/46edfcdb-c805-48e8-aa14-ae8c929d08fe"}]},"request":{"method":"PUT","url":"Coverage/2e68a660-005b-42d4-bacf-708886fbef92"}},{"fullUrl":"https://madie.cms.gov/MedicationAdministration/f3debe97-02e4-4d02-ac36-3b9bc78f11c8","resource":{"resourceType":"MedicationAdministration","id":"f3debe97-02e4-4d02-ac36-3b9bc78f11c8","meta":{"profile":["http://hl7.org/fhir/us/qicore/StructureDefinition/qicore-medicationadministrationnotdone"]},"extension":[{"url":"http://hl7.org/fhir/us/qicore/StructureDefinition/qicore-recorded","valueDateTime":"2026-11-02T11:00:00.000+00:00"}],"status":"not-done","statusReason":[{"coding":[{"system":"http://snomed.info/sct","code":"443390004","display":"Refusal of treatment by patient (situation)"}]}],"medicationCodeableConcept":{"coding":[{"system":"http://www.nlm.nih.gov/research/umls/rxnorm","code":"861356"}]},"subject":{"reference":"Patient/95a54d01-197e-48ef-bb48-d3d398aecbe8"},"effectivePeriod":{"start":"2026-11-02T11:00:00.000+00:00"}},"request":{"method":"PUT","url":"MedicationAdministration/f3debe97-02e4-4d02-ac36-3b9bc78f11c8"}},{"fullUrl":"https://madie.cms.gov/Procedure/d82744aa-e4de-4a7e-bcb0-175c262227d6","resource":{"resourceType":"Procedure","id":"d82744aa-e4de-4a7e-bcb0-175c262227d6","meta":{"profile":["http://hl7.org/fhir/us/qicore/StructureDefinition/qicore-procedure"]},"extension":[{"url":"http://hl7.org/fhir/us/qicore/StructureDefinition/qicore-recorded","valueDateTime":"2013-11-19T13:35:00.000+00:00"}],"status":"completed","code":{"coding":[{"system":"http://snomed.info/sct","code":"18946005"}]},"subject":{"reference":"Patient/95a54d01-197e-48ef-bb48-d3d398aecbe8"},"performedPeriod":{"start":"2026-11-02T09:00:00.000+00:00","end":"2026-11-02T09:15:00.000+00:00"}},"request":{"method":"PUT","url":"Procedure/d82744aa-e4de-4a7e-bcb0-175c262227d6"}},{"fullUrl":"https://madie.cms.gov/Location/323104aa-22f6-452d-b9b7-07af766d06fc","resource":{"resourceType":"Location","id":"323104aa-22f6-452d-b9b7-07af766d06fc","meta":{"profile":["http://hl7.org/fhir/us/qicore/StructureDefinition/qicore-location"]},"identifier":[{"use":"usual","system":"http://exampleoflocation.com","value":"B1-S.F2"}],"name":"Medical Surgical East, first floor","type":[{"coding":[{"system":"https://www.cdc.gov/nhsn/cdaportal/terminology/codesystem/hsloc.html","code":"1025-6","display":"Trauma Critical Care","userSelected":true}]}]},"request":{"method":"PUT","url":"Location/323104aa-22f6-452d-b9b7-07af766d06fc"}},{"fullUrl":"https://madie.cms.gov/Organization/46edfcdb-c805-48e8-aa14-ae8c929d08fe","resource":{"resourceType":"Organization","id":"46edfcdb-c805-48e8-aa14-ae8c929d08fe","meta":{"profile":["http://hl7.org/fhir/us/qicore/StructureDefinition/qicore-organization"]},"identifier":[{"use":"temp","system":"urn:oid:2.16.840.1.113883.4.4","value":"21-3259825"}],"active":true,"type":[{"coding":[{"system":"http://terminology.hl7.org/CodeSystem/organization-type","code":"pay","display":"Payer"}]}],"name":"Blue Cross Blue Shield of Texas","telecom":[{"system":"phone","value":"(+1) 972-766-6900"}],"address":[{"use":"billing","type":"postal","line":["P.O. Box 660044"],"city":"Dallas","state":"TX","postalCode":"75266-0044","country":"USA"}]},"request":{"method":"PUT","url":"Organization/46edfcdb-c805-48e8-aa14-ae8c929d08fe"}},{"fullUrl":"https://madie.cms.gov/Practitioner/c4a8e001-c060-40b6-a570-ce67b2cb4abc","resource":{"resourceType":"Practitioner","id":"c4a8e001-c060-40b6-a570-ce67b2cb4abc","identifier":[{"system":"http://hl7.org/fhir/sid/us-npi","value":"123456"}],"name":[{"family":"Evil","prefix":["Dr"]}]},"request":{"method":"PUT","url":"Practitioner/c4a8e001-c060-40b6-a570-ce67b2cb4abc"}},{"fullUrl":"https://madie.cms.gov/MeasureReport/2f270022-0bbb-4aa3-8b3a-05d75024f69c","resource":{"resourceType":"MeasureReport","id":"2f270022-0bbb-4aa3-8b3a-05d75024f69c","meta":{"profile":["http://hl7.org/fhir/us/cqfmeasures/StructureDefinition/test-case-cqfm"]},"contained":[{"resourceType":"Parameters","id":"8837d914-ef31-4dd5-bf6a-ae63288963eb-parameters","parameter":[{"name":"subject","valueString":"95a54d01-197e-48ef-bb48-d3d398aecbe8"}]}],"extension":[{"url":"http://hl7.org/fhir/StructureDefinition/cqf-inputParameters","valueReference":{"reference":"#8837d914-ef31-4dd5-bf6a-ae63288963eb-parameters"}},{"url":"http://hl7.org/fhir/us/cqfmeasures/StructureDefinition/cqfm-testCaseDescription","valueMarkdown":"meets IPP, meets Denominator,  Injectable Factor Xa Inhibitor adm not done PatRfsl on the day of anesthesia\n"}],"modifierExtension":[{"url":"http://hl7.org/fhir/us/cqfmeasures/StructureDefinition/cqfm-isTestCase","valueBoolean":true}],"status":"complete","type":"individual","measure":"https://madie.cms.gov/Measure/CMS190VTEProphylaxisICUFHIR","period":{"start":"2026-01-01","end":"2026-12-31"},"group":[{"id":"Group_1","population":[{"id":"InitialPopulation_1","code":{"coding":[{"system":"http://terminology.hl7.org/CodeSystem/measure-population","code":"initial-population","display":"Initial Population"}]},"count":1},{"id":"Denominator_1","code":{"coding":[{"system":"http://terminology.hl7.org/CodeSystem/measure-population","code":"denominator","display":"Denominator"}]},"count":1},{"id":"DenominatorExclusion_1","code":{"coding":[{"system":"http://terminology.hl7.org/CodeSystem/measure-population","code":"denominator-exclusion","display":"Denominator Exclusion"}]},"count":0},{"id":"Numerator_1","code":{"coding":[{"system":"http://terminology.hl7.org/CodeSystem/measure-population","code":"numerator","display":"Numerator"}]},"count":1},{"id":"DenominatorException_1","code":{"coding":[{"system":"http://terminology.hl7.org/CodeSystem/measure-population","code":"denominator-exception","display":"Denominator Exception"}]},"count":0}],"measureScore":{"value":0.0}}],"evaluatedResource":[{"reference":"Patient/95a54d01-197e-48ef-bb48-d3d398aecbe8"},{"reference":"Encounter/97c73804-d9cd-4091-8299-7a9f7ea7c90f"},{"reference":"Coverage/2e68a660-005b-42d4-bacf-708886fbef92"},{"reference":"MedicationAdministration/f3debe97-02e4-4d02-ac36-3b9bc78f11c8"},{"reference":"Procedure/d82744aa-e4de-4a7e-bcb0-175c262227d6"},{"reference":"Location/323104aa-22f6-452d-b9b7-07af766d06fc"},{"reference":"Organization/46edfcdb-c805-48e8-aa14-ae8c929d08fe"},{"reference":"Practitioner/c4a8e001-c060-40b6-a570-ce67b2cb4abc"}]},"request":{"method":"PUT","url":"MeasureReport/2f270022-0bbb-4aa3-8b3a-05d75024f69c"}}]},"request":{"method":"PUT","url":"Bundle/612e6a6002c62a011f2e9dfd"}},{"fullUrl":"Patient/95a54d01-197e-48ef-bb48-d3d398aecbe8","resource":{"resourceType":"Patient","id":"95a54d01-197e-48ef-bb48-d3d398aecbe8","meta":{"profile":["http://hl7.org/fhir/us/qicore/StructureDefinition/qicore-patient"]},"text":{"status":"generated","div":"<div xmlns=\"http://www.w3.org/1999/xhtml\"><div class=\"hapiHeaderText\">PtRefMAInjXaDayOfAnes <b>NUMERPASS </b></div><table class=\"hapiPropertyTable\"><tbody><tr><td>Identifier</td><td>bec2580a47ed4bf7691b191e0654b2de</td></tr><tr><td>Date of birth</td><td><span>02 January 1974</span></td></tr></tbody></table></div>"},"extension":[{"url":"http://hl7.org/fhir/us/core/StructureDefinition/us-core-race","extension":[{"url":"ombCategory","valueCoding":{"system":"urn:oid:2.16.840.1.113883.6.238","code":"1002-5","display":"American Indian or Alaska Native","userSelected":true}},{"url":"text","valueString":"American Indian or Alaska Native"}]},{"url":"http://hl7.org/fhir/us/core/StructureDefinition/us-core-ethnicity","extension":[{"url":"ombCategory","valueCoding":{"system":"urn:oid:2.16.840.1.113883.6.238","code":"2135-2","display":"Hispanic or Latino","userSelected":true}},{"url":"text","valueString":"Hispanic or Latino"}]}],"identifier":[{"type":{"coding":[{"system":"http://terminology.hl7.org/CodeSystem/v2-0203","code":"MR"}]},"system":"https://bonnie-fhir.healthit.gov/","value":"612e6a6002c62a011f2e9dfd"}],"active":true,"name":[{"use":"usual","family":"NUMERPass","given":["PtRefMAInjXaDayOfAnes"]}],"gender":"male","birthDate":"1975-01-02"},"request":{"method":"PUT","url":"Patient/95a54d01-197e-48ef-bb48-d3d398aecbe8"}},{"fullUrl":"Practitioner/c4a8e001-c060-40b6-a570-ce67b2cb4abc","resource":{"resourceType":"Practitioner","id":"c4a8e001-c060-40b6-a570-ce67b2cb4abc","identifier":[{"system":"http://hl7.org/fhir/sid/us-npi","value":"123456"}],"name":[{"family":"Evil","prefix":["Dr"]}]},"request":{"method":"PUT","url":"Practitioner/c4a8e001-c060-40b6-a570-ce67b2cb4abc"}}]}