{"resourceType":"Bundle","id":"tests-208cb0f9-a6e9-4207-b6a4-3325fb463099-bundle","type":"transaction","entry":[{"resource":{"resourceType":"MedicationAdministration","id":"bf662dd2-1beb-46b0-805d-970c31d6085e","meta":{"profile":["http://hl7.org/fhir/us/qicore/StructureDefinition/qicore-medicationadministrationnotdone"]},"extension":[{"url":"http://hl7.org/fhir/us/qicore/StructureDefinition/qicore-recorded","valueDateTime":"2026-11-02T11:00:00.000+00:00"}],"status":"not-done","statusReason":[{"coding":[{"system":"http://snomed.info/sct","code":"183932001"}]}],"medicationCodeableConcept":{"coding":[{"system":"http://www.nlm.nih.gov/research/umls/rxnorm","code":"855288"}]},"subject":{"reference":"Patient/208cb0f9-a6e9-4207-b6a4-3325fb463099"},"effectivePeriod":{"start":"2026-11-02T11:00:00.000+00:00"}},"request":{"method":"PUT","url":"MedicationAdministration/bf662dd2-1beb-46b0-805d-970c31d6085e"}},{"resource":{"resourceType":"Procedure","id":"862e6e7a-7310-448b-8c83-35ade6a55d6b","meta":{"profile":["http://hl7.org/fhir/us/qicore/StructureDefinition/qicore-procedure"]},"extension":[{"url":"http://hl7.org/fhir/us/qicore/StructureDefinition/qicore-recorded","valueDateTime":"2013-11-02T13:35:00.000+00:00"}],"status":"completed","code":{"coding":[{"system":"http://snomed.info/sct","code":"18946005"}]},"subject":{"reference":"Patient/208cb0f9-a6e9-4207-b6a4-3325fb463099"},"performedPeriod":{"start":"2026-11-02T09:00:00.000+00:00","end":"2026-11-02T09:15:00.000+00:00"}},"request":{"method":"PUT","url":"Procedure/862e6e7a-7310-448b-8c83-35ade6a55d6b"}},{"resource":{"resourceType":"MeasureReport","id":"74cac74b-85e0-4eef-bd1b-a4d72e5e9638","meta":{"profile":["http://hl7.org/fhir/us/cqfmeasures/StructureDefinition/test-case-cqfm"]},"contained":[{"resourceType":"Parameters","id":"d126f240-7c87-4f9b-b163-a3ed2832edff-parameters","parameter":[{"name":"subject","valueString":"208cb0f9-a6e9-4207-b6a4-3325fb463099"}]}],"extension":[{"url":"http://hl7.org/fhir/StructureDefinition/cqf-inputParameters","valueReference":{"reference":"#d126f240-7c87-4f9b-b163-a3ed2832edff-parameters"}},{"url":"http://hl7.org/fhir/us/cqfmeasures/StructureDefinition/cqfm-testCaseDescription","valueMarkdown":"meets IPP, meets Denominator, IPC ordered not done  and Warfarin adm not done medical reason on the day of Anes\n"}],"modifierExtension":[{"url":"http://hl7.org/fhir/us/cqfmeasures/StructureDefinition/cqfm-isTestCase","valueBoolean":true}],"status":"complete","type":"individual","measure":"https://madie.cms.gov/Measure/CMS190VTEProphylaxisICUFHIR","period":{"start":"2026-01-01","end":"2026-12-31"},"group":[{"id":"Group_1","population":[{"id":"InitialPopulation_1","code":{"coding":[{"system":"http://terminology.hl7.org/CodeSystem/measure-population","code":"initial-population","display":"Initial Population"}]},"count":1},{"id":"Denominator_1","code":{"coding":[{"system":"http://terminology.hl7.org/CodeSystem/measure-population","code":"denominator","display":"Denominator"}]},"count":1},{"id":"DenominatorExclusion_1","code":{"coding":[{"system":"http://terminology.hl7.org/CodeSystem/measure-population","code":"denominator-exclusion","display":"Denominator Exclusion"}]},"count":0},{"id":"Numerator_1","code":{"coding":[{"system":"http://terminology.hl7.org/CodeSystem/measure-population","code":"numerator","display":"Numerator"}]},"count":1},{"id":"DenominatorException_1","code":{"coding":[{"system":"http://terminology.hl7.org/CodeSystem/measure-population","code":"denominator-exception","display":"Denominator Exception"}]},"count":0}],"measureScore":{"value":0.0}}],"evaluatedResource":[{"reference":"Patient/208cb0f9-a6e9-4207-b6a4-3325fb463099"},{"reference":"Encounter/ab146189-09ed-408a-bf67-ede2d73aba38"},{"reference":"Coverage/d1834a00-cd17-4287-ba5f-0466609cd8a9"},{"reference":"MedicationAdministration/bf662dd2-1beb-46b0-805d-970c31d6085e"},{"reference":"Procedure/862e6e7a-7310-448b-8c83-35ade6a55d6b"},{"reference":"ServiceRequest/5da39303-4f84-451d-9bba-a04b9575634e"},{"reference":"Location/c5f133d1-dced-4545-90b9-0e8899ce654f"},{"reference":"Organization/c6741c7a-5d53-4c1f-909d-4ed9ced12020"},{"reference":"Practitioner/59dd8a46-7261-436f-9f6a-973b28af4151"}]},"request":{"method":"PUT","url":"MeasureReport/74cac74b-85e0-4eef-bd1b-a4d72e5e9638"}},{"resource":{"resourceType":"Encounter","id":"ab146189-09ed-408a-bf67-ede2d73aba38","meta":{"profile":["http://hl7.org/fhir/us/qicore/StructureDefinition/qicore-encounter"]},"status":"finished","class":{"system":"http://terminology.hl7.org/CodeSystem/v3-ActCode","code":"IMP","display":"inpatient encounter"},"type":[{"coding":[{"system":"http://snomed.info/sct","code":"8715000"}]}],"subject":{"reference":"Patient/208cb0f9-a6e9-4207-b6a4-3325fb463099"},"period":{"start":"2026-11-01T08:00:00.000+00:00","end":"2026-11-26T08:15:00.000+00:00"},"length":{"value":25,"unit":"days"},"location":[{"location":{"reference":"Location/c5f133d1-dced-4545-90b9-0e8899ce654f"},"period":{"start":"2026-11-01T09:00:00.000+00:00","end":"2026-11-02T08:15:00.000+00:00"}}]},"request":{"method":"PUT","url":"Encounter/ab146189-09ed-408a-bf67-ede2d73aba38"}},{"resource":{"resourceType":"Bundle","id":"612e6a9402c62a011f2ea747","type":"transaction","entry":[{"fullUrl":"https://madie.cms.gov/Patient/208cb0f9-a6e9-4207-b6a4-3325fb463099","resource":{"resourceType":"Patient","id":"208cb0f9-a6e9-4207-b6a4-3325fb463099","meta":{"profile":["http://hl7.org/fhir/us/qicore/StructureDefinition/qicore-patient"]},"text":{"status":"generated","div":"<div xmlns=\"http://www.w3.org/1999/xhtml\"><div class=\"hapiHeaderText\">MedReasonMAWarfDOIPCDayOfAnes <b>NUMERPASS </b></div><table class=\"hapiPropertyTable\"><tbody><tr><td>Identifier</td><td>7b1692125190d12df658f3578aa84ca8</td></tr><tr><td>Date of birth</td><td><span>02 January 1974</span></td></tr></tbody></table></div>"},"extension":[{"url":"http://hl7.org/fhir/us/core/StructureDefinition/us-core-race","extension":[{"url":"ombCategory","valueCoding":{"system":"urn:oid:2.16.840.1.113883.6.238","code":"1002-5","display":"American Indian or Alaska Native","userSelected":true}},{"url":"text","valueString":"American Indian or Alaska Native"}]},{"url":"http://hl7.org/fhir/us/core/StructureDefinition/us-core-ethnicity","extension":[{"url":"ombCategory","valueCoding":{"system":"urn:oid:2.16.840.1.113883.6.238","code":"2135-2","display":"Hispanic or Latino","userSelected":true}},{"url":"text","valueString":"Hispanic or Latino"}]}],"identifier":[{"type":{"coding":[{"system":"http://terminology.hl7.org/CodeSystem/v2-0203","code":"MR"}]},"system":"https://bonnie-fhir.healthit.gov/","value":"612e6a9402c62a011f2ea747"}],"active":true,"name":[{"use":"usual","family":"NUMERPass","given":["MedReasonMAWarfDOIPCDayOfAnes"]}],"gender":"male","birthDate":"1975-01-02"},"request":{"method":"PUT","url":"Patient/208cb0f9-a6e9-4207-b6a4-3325fb463099"}},{"fullUrl":"https://madie.cms.gov/Encounter/ab146189-09ed-408a-bf67-ede2d73aba38","resource":{"resourceType":"Encounter","id":"ab146189-09ed-408a-bf67-ede2d73aba38","meta":{"profile":["http://hl7.org/fhir/us/qicore/StructureDefinition/qicore-encounter"]},"status":"finished","class":{"system":"http://terminology.hl7.org/CodeSystem/v3-ActCode","code":"IMP","display":"inpatient encounter"},"type":[{"coding":[{"system":"http://snomed.info/sct","code":"8715000"}]}],"subject":{"reference":"Patient/208cb0f9-a6e9-4207-b6a4-3325fb463099"},"period":{"start":"2026-11-01T08:00:00.000+00:00","end":"2026-11-26T08:15:00.000+00:00"},"length":{"value":25,"unit":"days"},"location":[{"location":{"reference":"Location/c5f133d1-dced-4545-90b9-0e8899ce654f"},"period":{"start":"2026-11-01T09:00:00.000+00:00","end":"2026-11-02T08:15:00.000+00:00"}}]},"request":{"method":"PUT","url":"Encounter/ab146189-09ed-408a-bf67-ede2d73aba38"}},{"fullUrl":"https://madie.cms.gov/Coverage/d1834a00-cd17-4287-ba5f-0466609cd8a9","resource":{"resourceType":"Coverage","id":"d1834a00-cd17-4287-ba5f-0466609cd8a9","status":"active","beneficiary":{"reference":"Patient/208cb0f9-a6e9-4207-b6a4-3325fb463099"},"period":{"start":"1975-01-02T08:00:00.000+00:00"},"payor":[{"reference":"Organization/c6741c7a-5d53-4c1f-909d-4ed9ced12020"}]},"request":{"method":"PUT","url":"Coverage/d1834a00-cd17-4287-ba5f-0466609cd8a9"}},{"fullUrl":"https://madie.cms.gov/MedicationAdministration/bf662dd2-1beb-46b0-805d-970c31d6085e","resource":{"resourceType":"MedicationAdministration","id":"bf662dd2-1beb-46b0-805d-970c31d6085e","meta":{"profile":["http://hl7.org/fhir/us/qicore/StructureDefinition/qicore-medicationadministrationnotdone"]},"extension":[{"url":"http://hl7.org/fhir/us/qicore/StructureDefinition/qicore-recorded","valueDateTime":"2026-11-02T11:00:00.000+00:00"}],"status":"not-done","statusReason":[{"coding":[{"system":"http://snomed.info/sct","code":"183932001"}]}],"medicationCodeableConcept":{"coding":[{"system":"http://www.nlm.nih.gov/research/umls/rxnorm","code":"855288"}]},"subject":{"reference":"Patient/208cb0f9-a6e9-4207-b6a4-3325fb463099"},"effectivePeriod":{"start":"2026-11-02T11:00:00.000+00:00"}},"request":{"method":"PUT","url":"MedicationAdministration/bf662dd2-1beb-46b0-805d-970c31d6085e"}},{"fullUrl":"https://madie.cms.gov/Procedure/862e6e7a-7310-448b-8c83-35ade6a55d6b","resource":{"resourceType":"Procedure","id":"862e6e7a-7310-448b-8c83-35ade6a55d6b","meta":{"profile":["http://hl7.org/fhir/us/qicore/StructureDefinition/qicore-procedure"]},"extension":[{"url":"http://hl7.org/fhir/us/qicore/StructureDefinition/qicore-recorded","valueDateTime":"2013-11-02T13:35:00.000+00:00"}],"status":"completed","code":{"coding":[{"system":"http://snomed.info/sct","code":"18946005"}]},"subject":{"reference":"Patient/208cb0f9-a6e9-4207-b6a4-3325fb463099"},"performedPeriod":{"start":"2026-11-02T09:00:00.000+00:00","end":"2026-11-02T09:15:00.000+00:00"}},"request":{"method":"PUT","url":"Procedure/862e6e7a-7310-448b-8c83-35ade6a55d6b"}},{"fullUrl":"https://madie.cms.gov/ServiceRequest/5da39303-4f84-451d-9bba-a04b9575634e","resource":{"resourceType":"ServiceRequest","id":"5da39303-4f84-451d-9bba-a04b9575634e","meta":{"profile":["http://hl7.org/fhir/us/qicore/StructureDefinition/qicore-servicenotrequested"]},"extension":[{"url":"http://hl7.org/fhir/us/qicore/StructureDefinition/qicore-doNotPerformReason","valueCodeableConcept":{"coding":[{"system":"http://snomed.info/sct","code":"183932001","display":"Procedure contraindicated (situation)"}]}}],"status":"completed","intent":"order","doNotPerform":true,"code":{"coding":[{"system":"http://snomed.info/sct","version":"2025-03","code":"428411000124104","display":"Intermittent pneumatic compression boot (physical object)","userSelected":true}]},"subject":{"reference":"Patient/208cb0f9-a6e9-4207-b6a4-3325fb463099"},"authoredOn":"2026-11-02T10:00:00.000+00:00"},"request":{"method":"PUT","url":"ServiceRequest/5da39303-4f84-451d-9bba-a04b9575634e"}},{"fullUrl":"https://madie.cms.gov/Location/c5f133d1-dced-4545-90b9-0e8899ce654f","resource":{"resourceType":"Location","id":"c5f133d1-dced-4545-90b9-0e8899ce654f","meta":{"profile":["http://hl7.org/fhir/us/qicore/StructureDefinition/qicore-location"]},"identifier":[{"use":"usual","system":"http://exampleoflocation.com","value":"B1-S.F2"}],"name":"Medical Surgical East, first floor","type":[{"coding":[{"system":"https://www.cdc.gov/nhsn/cdaportal/terminology/codesystem/hsloc.html","code":"1025-6","display":"Trauma Critical Care","userSelected":true}]}]},"request":{"method":"PUT","url":"Location/c5f133d1-dced-4545-90b9-0e8899ce654f"}},{"fullUrl":"https://madie.cms.gov/Organization/c6741c7a-5d53-4c1f-909d-4ed9ced12020","resource":{"resourceType":"Organization","id":"c6741c7a-5d53-4c1f-909d-4ed9ced12020","meta":{"profile":["http://hl7.org/fhir/us/qicore/StructureDefinition/qicore-organization"]},"identifier":[{"use":"temp","system":"urn:oid:2.16.840.1.113883.4.4","value":"21-3259825"}],"active":true,"type":[{"coding":[{"system":"http://terminology.hl7.org/CodeSystem/organization-type","code":"pay","display":"Payer"}]}],"name":"Blue Cross Blue Shield of Texas","telecom":[{"system":"phone","value":"(+1) 972-766-6900"}],"address":[{"use":"billing","type":"postal","line":["P.O. Box 660044"],"city":"Dallas","state":"TX","postalCode":"75266-0044","country":"USA"}]},"request":{"method":"PUT","url":"Organization/c6741c7a-5d53-4c1f-909d-4ed9ced12020"}},{"fullUrl":"https://madie.cms.gov/Practitioner/59dd8a46-7261-436f-9f6a-973b28af4151","resource":{"resourceType":"Practitioner","id":"59dd8a46-7261-436f-9f6a-973b28af4151","identifier":[{"system":"http://hl7.org/fhir/sid/us-npi","value":"123456"}],"name":[{"family":"Evil","prefix":["Dr"]}]},"request":{"method":"PUT","url":"Practitioner/59dd8a46-7261-436f-9f6a-973b28af4151"}},{"fullUrl":"https://madie.cms.gov/MeasureReport/74cac74b-85e0-4eef-bd1b-a4d72e5e9638","resource":{"resourceType":"MeasureReport","id":"74cac74b-85e0-4eef-bd1b-a4d72e5e9638","meta":{"profile":["http://hl7.org/fhir/us/cqfmeasures/StructureDefinition/test-case-cqfm"]},"contained":[{"resourceType":"Parameters","id":"d126f240-7c87-4f9b-b163-a3ed2832edff-parameters","parameter":[{"name":"subject","valueString":"208cb0f9-a6e9-4207-b6a4-3325fb463099"}]}],"extension":[{"url":"http://hl7.org/fhir/StructureDefinition/cqf-inputParameters","valueReference":{"reference":"#d126f240-7c87-4f9b-b163-a3ed2832edff-parameters"}},{"url":"http://hl7.org/fhir/us/cqfmeasures/StructureDefinition/cqfm-testCaseDescription","valueMarkdown":"meets IPP, meets Denominator, IPC ordered not done  and Warfarin adm not done medical reason on the day of Anes\n"}],"modifierExtension":[{"url":"http://hl7.org/fhir/us/cqfmeasures/StructureDefinition/cqfm-isTestCase","valueBoolean":true}],"status":"complete","type":"individual","measure":"https://madie.cms.gov/Measure/CMS190VTEProphylaxisICUFHIR","period":{"start":"2026-01-01","end":"2026-12-31"},"group":[{"id":"Group_1","population":[{"id":"InitialPopulation_1","code":{"coding":[{"system":"http://terminology.hl7.org/CodeSystem/measure-population","code":"initial-population","display":"Initial Population"}]},"count":1},{"id":"Denominator_1","code":{"coding":[{"system":"http://terminology.hl7.org/CodeSystem/measure-population","code":"denominator","display":"Denominator"}]},"count":1},{"id":"DenominatorExclusion_1","code":{"coding":[{"system":"http://terminology.hl7.org/CodeSystem/measure-population","code":"denominator-exclusion","display":"Denominator Exclusion"}]},"count":0},{"id":"Numerator_1","code":{"coding":[{"system":"http://terminology.hl7.org/CodeSystem/measure-population","code":"numerator","display":"Numerator"}]},"count":1},{"id":"DenominatorException_1","code":{"coding":[{"system":"http://terminology.hl7.org/CodeSystem/measure-population","code":"denominator-exception","display":"Denominator Exception"}]},"count":0}],"measureScore":{"value":0.0}}],"evaluatedResource":[{"reference":"Patient/208cb0f9-a6e9-4207-b6a4-3325fb463099"},{"reference":"Encounter/ab146189-09ed-408a-bf67-ede2d73aba38"},{"reference":"Coverage/d1834a00-cd17-4287-ba5f-0466609cd8a9"},{"reference":"MedicationAdministration/bf662dd2-1beb-46b0-805d-970c31d6085e"},{"reference":"Procedure/862e6e7a-7310-448b-8c83-35ade6a55d6b"},{"reference":"ServiceRequest/5da39303-4f84-451d-9bba-a04b9575634e"},{"reference":"Location/c5f133d1-dced-4545-90b9-0e8899ce654f"},{"reference":"Organization/c6741c7a-5d53-4c1f-909d-4ed9ced12020"},{"reference":"Practitioner/59dd8a46-7261-436f-9f6a-973b28af4151"}]},"request":{"method":"PUT","url":"MeasureReport/74cac74b-85e0-4eef-bd1b-a4d72e5e9638"}}]},"request":{"method":"PUT","url":"Bundle/612e6a9402c62a011f2ea747"}},{"resource":{"resourceType":"Organization","id":"c6741c7a-5d53-4c1f-909d-4ed9ced12020","meta":{"profile":["http://hl7.org/fhir/us/qicore/StructureDefinition/qicore-organization"]},"identifier":[{"use":"temp","system":"urn:oid:2.16.840.1.113883.4.4","value":"21-3259825"}],"active":true,"type":[{"coding":[{"system":"http://terminology.hl7.org/CodeSystem/organization-type","code":"pay","display":"Payer"}]}],"name":"Blue Cross Blue Shield of Texas","telecom":[{"system":"phone","value":"(+1) 972-766-6900"}],"address":[{"use":"billing","type":"postal","line":["P.O. Box 660044"],"city":"Dallas","state":"TX","postalCode":"75266-0044","country":"USA"}]},"request":{"method":"PUT","url":"Organization/c6741c7a-5d53-4c1f-909d-4ed9ced12020"}},{"resource":{"resourceType":"Practitioner","id":"59dd8a46-7261-436f-9f6a-973b28af4151","identifier":[{"system":"http://hl7.org/fhir/sid/us-npi","value":"123456"}],"name":[{"family":"Evil","prefix":["Dr"]}]},"request":{"method":"PUT","url":"Practitioner/59dd8a46-7261-436f-9f6a-973b28af4151"}},{"resource":{"resourceType":"ServiceRequest","id":"5da39303-4f84-451d-9bba-a04b9575634e","meta":{"profile":["http://hl7.org/fhir/us/qicore/StructureDefinition/qicore-servicenotrequested"]},"extension":[{"url":"http://hl7.org/fhir/us/qicore/StructureDefinition/qicore-doNotPerformReason","valueCodeableConcept":{"coding":[{"system":"http://snomed.info/sct","code":"183932001","display":"Procedure contraindicated (situation)"}]}}],"status":"completed","intent":"order","doNotPerform":true,"code":{"coding":[{"system":"http://snomed.info/sct","version":"2025-03","code":"428411000124104","display":"Intermittent pneumatic compression boot (physical object)","userSelected":true}]},"subject":{"reference":"Patient/208cb0f9-a6e9-4207-b6a4-3325fb463099"},"authoredOn":"2026-11-02T10:00:00.000+00:00"},"request":{"method":"PUT","url":"ServiceRequest/5da39303-4f84-451d-9bba-a04b9575634e"}},{"resource":{"resourceType":"Coverage","id":"d1834a00-cd17-4287-ba5f-0466609cd8a9","status":"active","beneficiary":{"reference":"Patient/208cb0f9-a6e9-4207-b6a4-3325fb463099"},"period":{"start":"1975-01-02T08:00:00.000+00:00"},"payor":[{"reference":"Organization/c6741c7a-5d53-4c1f-909d-4ed9ced12020"}]},"request":{"method":"PUT","url":"Coverage/d1834a00-cd17-4287-ba5f-0466609cd8a9"}},{"resource":{"resourceType":"Location","id":"c5f133d1-dced-4545-90b9-0e8899ce654f","meta":{"profile":["http://hl7.org/fhir/us/qicore/StructureDefinition/qicore-location"]},"identifier":[{"use":"usual","system":"http://exampleoflocation.com","value":"B1-S.F2"}],"name":"Medical Surgical East, first floor","type":[{"coding":[{"system":"https://www.cdc.gov/nhsn/cdaportal/terminology/codesystem/hsloc.html","code":"1025-6","display":"Trauma Critical Care","userSelected":true}]}]},"request":{"method":"PUT","url":"Location/c5f133d1-dced-4545-90b9-0e8899ce654f"}},{"resource":{"resourceType":"Patient","id":"208cb0f9-a6e9-4207-b6a4-3325fb463099","meta":{"profile":["http://hl7.org/fhir/us/qicore/StructureDefinition/qicore-patient"]},"text":{"status":"generated","div":"<div xmlns=\"http://www.w3.org/1999/xhtml\"><div class=\"hapiHeaderText\">MedReasonMAWarfDOIPCDayOfAnes <b>NUMERPASS </b></div><table class=\"hapiPropertyTable\"><tbody><tr><td>Identifier</td><td>7b1692125190d12df658f3578aa84ca8</td></tr><tr><td>Date of birth</td><td><span>02 January 1974</span></td></tr></tbody></table></div>"},"extension":[{"url":"http://hl7.org/fhir/us/core/StructureDefinition/us-core-race","extension":[{"url":"ombCategory","valueCoding":{"system":"urn:oid:2.16.840.1.113883.6.238","code":"1002-5","display":"American Indian or Alaska Native","userSelected":true}},{"url":"text","valueString":"American Indian or Alaska Native"}]},{"url":"http://hl7.org/fhir/us/core/StructureDefinition/us-core-ethnicity","extension":[{"url":"ombCategory","valueCoding":{"system":"urn:oid:2.16.840.1.113883.6.238","code":"2135-2","display":"Hispanic or Latino","userSelected":true}},{"url":"text","valueString":"Hispanic or Latino"}]}],"identifier":[{"type":{"coding":[{"system":"http://terminology.hl7.org/CodeSystem/v2-0203","code":"MR"}]},"system":"https://bonnie-fhir.healthit.gov/","value":"612e6a9402c62a011f2ea747"}],"active":true,"name":[{"use":"usual","family":"NUMERPass","given":["MedReasonMAWarfDOIPCDayOfAnes"]}],"gender":"male","birthDate":"1975-01-02"},"request":{"method":"PUT","url":"Patient/208cb0f9-a6e9-4207-b6a4-3325fb463099"}}]}