{"resourceType":"Bundle","id":"tests-ec88b695-15b1-4ba3-b032-b04e191b97a4-bundle","type":"transaction","entry":[{"fullUrl":"MedicationAdministration/479afca3-0b1f-4a4f-9dd3-b4ef89c41f4d","resource":{"resourceType":"MedicationAdministration","id":"479afca3-0b1f-4a4f-9dd3-b4ef89c41f4d","meta":{"profile":["http://hl7.org/fhir/us/qicore/StructureDefinition/qicore-medicationadministrationnotdone"]},"extension":[{"url":"http://hl7.org/fhir/us/qicore/StructureDefinition/qicore-recorded","valueDateTime":"2026-12-08T07:00:00.000+00:00"}],"status":"not-done","statusReason":[{"coding":[{"system":"http://snomed.info/sct","code":"183932001"}]}],"medicationCodeableConcept":{"coding":[{"system":"http://www.nlm.nih.gov/research/umls/rxnorm","code":"2588062","display":"rivaroxaban 1 MG/ML Oral Suspension"}]},"subject":{"reference":"Patient/ec88b695-15b1-4ba3-b032-b04e191b97a4"},"effectivePeriod":{"start":"2026-12-08T11:30:00.000+00:00"}},"request":{"method":"PUT","url":"MedicationAdministration/479afca3-0b1f-4a4f-9dd3-b4ef89c41f4d"}},{"fullUrl":"Location/476d48e2-c5e9-4b06-9f50-989371e0c3ee","resource":{"resourceType":"Location","id":"476d48e2-c5e9-4b06-9f50-989371e0c3ee","meta":{"profile":["http://hl7.org/fhir/us/qicore/StructureDefinition/qicore-location"]},"identifier":[{"use":"usual","system":"http://exampleoflocation.com","value":"B1-S.F2"}],"name":"Medical Surgical East, first floor","type":[{"coding":[{"system":"https://www.cdc.gov/nhsn/cdaportal/terminology/codesystem/hsloc.html","code":"1025-6","display":"Trauma Critical Care","userSelected":true}]}]},"request":{"method":"PUT","url":"Location/476d48e2-c5e9-4b06-9f50-989371e0c3ee"}},{"fullUrl":"MeasureReport/cb293d28-0ee9-4adb-afcd-33aa91cb2df0","resource":{"resourceType":"MeasureReport","id":"cb293d28-0ee9-4adb-afcd-33aa91cb2df0","meta":{"profile":["http://hl7.org/fhir/us/cqfmeasures/StructureDefinition/test-case-cqfm"]},"contained":[{"resourceType":"Parameters","id":"8b3fa155-4bc5-40f3-b888-71842d86f399-parameters","parameter":[{"name":"subject","valueString":"ec88b695-15b1-4ba3-b032-b04e191b97a4"}]}],"extension":[{"url":"http://hl7.org/fhir/StructureDefinition/cqf-inputParameters","valueReference":{"reference":"#8b3fa155-4bc5-40f3-b888-71842d86f399-parameters"}},{"url":"http://hl7.org/fhir/us/cqfmeasures/StructureDefinition/cqfm-testCaseDescription","valueMarkdown":"NoIPCNoRixBexPtRefusal both administered 2 Day After Anes\n"}],"modifierExtension":[{"url":"http://hl7.org/fhir/us/cqfmeasures/StructureDefinition/cqfm-isTestCase","valueBoolean":true}],"status":"complete","type":"individual","measure":"https://madie.cms.gov/Measure/CMS190VTEProphylaxisICUFHIR","period":{"start":"2026-01-01","end":"2026-12-31"},"group":[{"id":"Group_1","population":[{"id":"InitialPopulation_1","code":{"coding":[{"system":"http://terminology.hl7.org/CodeSystem/measure-population","code":"initial-population","display":"Initial Population"}]},"count":1},{"id":"Denominator_1","code":{"coding":[{"system":"http://terminology.hl7.org/CodeSystem/measure-population","code":"denominator","display":"Denominator"}]},"count":1},{"id":"DenominatorExclusion_1","code":{"coding":[{"system":"http://terminology.hl7.org/CodeSystem/measure-population","code":"denominator-exclusion","display":"Denominator Exclusion"}]},"count":0},{"id":"Numerator_1","code":{"coding":[{"system":"http://terminology.hl7.org/CodeSystem/measure-population","code":"numerator","display":"Numerator"}]},"count":0},{"id":"DenominatorException_1","code":{"coding":[{"system":"http://terminology.hl7.org/CodeSystem/measure-population","code":"denominator-exception","display":"Denominator Exception"}]},"count":0}],"measureScore":{"value":0.0}}],"evaluatedResource":[{"reference":"Patient/ec88b695-15b1-4ba3-b032-b04e191b97a4"},{"reference":"Encounter/59079127-c39d-4918-9a95-9073c10447a6"},{"reference":"Coverage/a87789d5-c614-41b2-adc6-f98440cf4db1"},{"reference":"Procedure/3b99d37a-15e6-4562-9878-9147af42a16a"},{"reference":"MedicationAdministration/479afca3-0b1f-4a4f-9dd3-b4ef89c41f4d"},{"reference":"Procedure/6f436415-2c09-4bd0-b189-3625befe490d"},{"reference":"Location/476d48e2-c5e9-4b06-9f50-989371e0c3ee"},{"reference":"Organization/59ee677b-2e3a-4eac-94d6-25d5965bfd50"},{"reference":"Practitioner/fbfcfe79-e7cd-4a5b-9e50-1867ae5562d7"}]},"request":{"method":"PUT","url":"MeasureReport/cb293d28-0ee9-4adb-afcd-33aa91cb2df0"}},{"fullUrl":"Encounter/59079127-c39d-4918-9a95-9073c10447a6","resource":{"resourceType":"Encounter","id":"59079127-c39d-4918-9a95-9073c10447a6","meta":{"profile":["http://hl7.org/fhir/us/qicore/StructureDefinition/qicore-encounter"]},"status":"finished","class":{"system":"http://terminology.hl7.org/CodeSystem/v3-ActCode","code":"IMP","display":"inpatient encounter"},"type":[{"coding":[{"system":"http://snomed.info/sct","code":"8715000"}]}],"subject":{"reference":"Patient/ec88b695-15b1-4ba3-b032-b04e191b97a4"},"period":{"start":"2026-12-04T08:00:00.000+00:00","end":"2026-12-30T08:15:00.000+00:00"},"length":{"value":26,"unit":"days"},"location":[{"location":{"reference":"Location/476d48e2-c5e9-4b06-9f50-989371e0c3ee"},"period":{"start":"2026-12-06T08:00:00.000+00:00","end":"2026-12-12T08:15:00.000+00:00"}}]},"request":{"method":"PUT","url":"Encounter/59079127-c39d-4918-9a95-9073c10447a6"}},{"fullUrl":"Coverage/a87789d5-c614-41b2-adc6-f98440cf4db1","resource":{"resourceType":"Coverage","id":"a87789d5-c614-41b2-adc6-f98440cf4db1","status":"active","beneficiary":{"reference":"Patient/ec88b695-15b1-4ba3-b032-b04e191b97a4"},"period":{"start":"1975-03-03T08:00:00.000+00:00"},"payor":[{"reference":"Organization/59ee677b-2e3a-4eac-94d6-25d5965bfd50"}]},"request":{"method":"PUT","url":"Coverage/a87789d5-c614-41b2-adc6-f98440cf4db1"}},{"fullUrl":"Organization/59ee677b-2e3a-4eac-94d6-25d5965bfd50","resource":{"resourceType":"Organization","id":"59ee677b-2e3a-4eac-94d6-25d5965bfd50","meta":{"profile":["http://hl7.org/fhir/us/qicore/StructureDefinition/qicore-organization"]},"identifier":[{"use":"temp","system":"urn:oid:2.16.840.1.113883.4.4","value":"21-3259825"}],"active":true,"type":[{"coding":[{"system":"http://terminology.hl7.org/CodeSystem/organization-type","code":"pay","display":"Payer"}]}],"name":"Blue Cross Blue Shield of Texas","telecom":[{"system":"phone","value":"(+1) 972-766-6900"}],"address":[{"use":"billing","type":"postal","line":["P.O. Box 660044"],"city":"Dallas","state":"TX","postalCode":"75266-0044","country":"USA"}]},"request":{"method":"PUT","url":"Organization/59ee677b-2e3a-4eac-94d6-25d5965bfd50"}},{"fullUrl":"Patient/ec88b695-15b1-4ba3-b032-b04e191b97a4","resource":{"resourceType":"Patient","id":"ec88b695-15b1-4ba3-b032-b04e191b97a4","meta":{"profile":["http://hl7.org/fhir/us/qicore/StructureDefinition/qicore-patient"]},"text":{"status":"generated","div":"<div xmlns=\"http://www.w3.org/1999/xhtml\"><div class=\"hapiHeaderText\">PtRefMARixDAIPC2DayAfterAnes <b>NUMERFAIL </b></div><table class=\"hapiPropertyTable\"><tbody><tr><td>Identifier</td><td>39c81b9bc72445874f3c2841a7094a3f</td></tr><tr><td>Date of birth</td><td><span>03 March 1974</span></td></tr></tbody></table></div>"},"extension":[{"url":"http://hl7.org/fhir/us/core/StructureDefinition/us-core-race","extension":[{"url":"ombCategory","valueCoding":{"system":"urn:oid:2.16.840.1.113883.6.238","code":"1002-5","display":"American Indian or Alaska Native","userSelected":true}},{"url":"text","valueString":"American Indian or Alaska Native"}]},{"url":"http://hl7.org/fhir/us/core/StructureDefinition/us-core-ethnicity","extension":[{"url":"ombCategory","valueCoding":{"system":"urn:oid:2.16.840.1.113883.6.238","code":"2135-2","display":"Hispanic or Latino","userSelected":true}},{"url":"text","valueString":"Hispanic or Latino"}]}],"identifier":[{"type":{"coding":[{"system":"http://terminology.hl7.org/CodeSystem/v2-0203","code":"MR"}]},"system":"https://bonnie-fhir.healthit.gov/","value":"612e6ee202c62a011f2eff14"}],"active":true,"name":[{"use":"usual","family":"NUMERFail","given":["PtRefMARixDAIPC2DayAfterAnes"]}],"gender":"female","birthDate":"1975-03-03"},"request":{"method":"PUT","url":"Patient/ec88b695-15b1-4ba3-b032-b04e191b97a4"}},{"fullUrl":"Procedure/3b99d37a-15e6-4562-9878-9147af42a16a","resource":{"resourceType":"Procedure","id":"3b99d37a-15e6-4562-9878-9147af42a16a","meta":{"profile":["http://hl7.org/fhir/us/qicore/StructureDefinition/qicore-procedurenotdone"]},"extension":[{"url":"http://hl7.org/fhir/us/qicore/StructureDefinition/qicore-recorded","valueDateTime":"2026-11-01T07:00:00.000+00:00"}],"status":"not-done","statusReason":{"coding":[{"system":"http://snomed.info/sct","code":"443390004","display":"Procedure contraindicated (situation)","userSelected":true}]},"code":{"coding":[{"system":"http://snomed.info/sct","code":"443448006","display":"Application of intermittent pneumatic compression device (procedure)","userSelected":true}]},"subject":{"reference":"Patient/ec88b695-15b1-4ba3-b032-b04e191b97a4"},"_performedDateTime":{"extension":[{"url":"http://hl7.org/fhir/StructureDefinition/data-absent-reason","valueCode":"not-performed"}]}},"request":{"method":"PUT","url":"Procedure/3b99d37a-15e6-4562-9878-9147af42a16a"}},{"fullUrl":"Practitioner/fbfcfe79-e7cd-4a5b-9e50-1867ae5562d7","resource":{"resourceType":"Practitioner","id":"fbfcfe79-e7cd-4a5b-9e50-1867ae5562d7","identifier":[{"system":"http://hl7.org/fhir/sid/us-npi","value":"123456"}],"name":[{"family":"Evil","prefix":["Dr"]}]},"request":{"method":"PUT","url":"Practitioner/fbfcfe79-e7cd-4a5b-9e50-1867ae5562d7"}},{"fullUrl":"Bundle/612e6ee202c62a011f2eff14","resource":{"resourceType":"Bundle","id":"612e6ee202c62a011f2eff14","type":"transaction","entry":[{"fullUrl":"https://madie.cms.gov/Patient/ec88b695-15b1-4ba3-b032-b04e191b97a4","resource":{"resourceType":"Patient","id":"ec88b695-15b1-4ba3-b032-b04e191b97a4","meta":{"profile":["http://hl7.org/fhir/us/qicore/StructureDefinition/qicore-patient"]},"text":{"status":"generated","div":"<div xmlns=\"http://www.w3.org/1999/xhtml\"><div class=\"hapiHeaderText\">PtRefMARixDAIPC2DayAfterAnes <b>NUMERFAIL </b></div><table class=\"hapiPropertyTable\"><tbody><tr><td>Identifier</td><td>39c81b9bc72445874f3c2841a7094a3f</td></tr><tr><td>Date of birth</td><td><span>03 March 1974</span></td></tr></tbody></table></div>"},"extension":[{"url":"http://hl7.org/fhir/us/core/StructureDefinition/us-core-race","extension":[{"url":"ombCategory","valueCoding":{"system":"urn:oid:2.16.840.1.113883.6.238","code":"1002-5","display":"American Indian or Alaska Native","userSelected":true}},{"url":"text","valueString":"American Indian or Alaska Native"}]},{"url":"http://hl7.org/fhir/us/core/StructureDefinition/us-core-ethnicity","extension":[{"url":"ombCategory","valueCoding":{"system":"urn:oid:2.16.840.1.113883.6.238","code":"2135-2","display":"Hispanic or Latino","userSelected":true}},{"url":"text","valueString":"Hispanic or Latino"}]}],"identifier":[{"type":{"coding":[{"system":"http://terminology.hl7.org/CodeSystem/v2-0203","code":"MR"}]},"system":"https://bonnie-fhir.healthit.gov/","value":"612e6ee202c62a011f2eff14"}],"active":true,"name":[{"use":"usual","family":"NUMERFail","given":["PtRefMARixDAIPC2DayAfterAnes"]}],"gender":"female","birthDate":"1975-03-03"},"request":{"method":"PUT","url":"Patient/ec88b695-15b1-4ba3-b032-b04e191b97a4"}},{"fullUrl":"https://madie.cms.gov/Encounter/59079127-c39d-4918-9a95-9073c10447a6","resource":{"resourceType":"Encounter","id":"59079127-c39d-4918-9a95-9073c10447a6","meta":{"profile":["http://hl7.org/fhir/us/qicore/StructureDefinition/qicore-encounter"]},"status":"finished","class":{"system":"http://terminology.hl7.org/CodeSystem/v3-ActCode","code":"IMP","display":"inpatient encounter"},"type":[{"coding":[{"system":"http://snomed.info/sct","code":"8715000"}]}],"subject":{"reference":"Patient/ec88b695-15b1-4ba3-b032-b04e191b97a4"},"period":{"start":"2026-12-04T08:00:00.000+00:00","end":"2026-12-30T08:15:00.000+00:00"},"length":{"value":26,"unit":"days"},"location":[{"location":{"reference":"Location/476d48e2-c5e9-4b06-9f50-989371e0c3ee"},"period":{"start":"2026-12-06T08:00:00.000+00:00","end":"2026-12-12T08:15:00.000+00:00"}}]},"request":{"method":"PUT","url":"Encounter/59079127-c39d-4918-9a95-9073c10447a6"}},{"fullUrl":"https://madie.cms.gov/Coverage/a87789d5-c614-41b2-adc6-f98440cf4db1","resource":{"resourceType":"Coverage","id":"a87789d5-c614-41b2-adc6-f98440cf4db1","status":"active","beneficiary":{"reference":"Patient/ec88b695-15b1-4ba3-b032-b04e191b97a4"},"period":{"start":"1975-03-03T08:00:00.000+00:00"},"payor":[{"reference":"Organization/59ee677b-2e3a-4eac-94d6-25d5965bfd50"}]},"request":{"method":"PUT","url":"Coverage/a87789d5-c614-41b2-adc6-f98440cf4db1"}},{"fullUrl":"https://madie.cms.gov/Procedure/3b99d37a-15e6-4562-9878-9147af42a16a","resource":{"resourceType":"Procedure","id":"3b99d37a-15e6-4562-9878-9147af42a16a","meta":{"profile":["http://hl7.org/fhir/us/qicore/StructureDefinition/qicore-procedurenotdone"]},"extension":[{"url":"http://hl7.org/fhir/us/qicore/StructureDefinition/qicore-recorded","valueDateTime":"2026-11-01T07:00:00.000+00:00"}],"status":"not-done","statusReason":{"coding":[{"system":"http://snomed.info/sct","code":"443390004","display":"Procedure contraindicated (situation)","userSelected":true}]},"code":{"coding":[{"system":"http://snomed.info/sct","code":"443448006","display":"Application of intermittent pneumatic compression device (procedure)","userSelected":true}]},"subject":{"reference":"Patient/ec88b695-15b1-4ba3-b032-b04e191b97a4"},"_performedDateTime":{"extension":[{"url":"http://hl7.org/fhir/StructureDefinition/data-absent-reason","valueCode":"not-performed"}]}},"request":{"method":"PUT","url":"Procedure/3b99d37a-15e6-4562-9878-9147af42a16a"}},{"fullUrl":"https://madie.cms.gov/MedicationAdministration/479afca3-0b1f-4a4f-9dd3-b4ef89c41f4d","resource":{"resourceType":"MedicationAdministration","id":"479afca3-0b1f-4a4f-9dd3-b4ef89c41f4d","meta":{"profile":["http://hl7.org/fhir/us/qicore/StructureDefinition/qicore-medicationadministrationnotdone"]},"extension":[{"url":"http://hl7.org/fhir/us/qicore/StructureDefinition/qicore-recorded","valueDateTime":"2026-12-08T07:00:00.000+00:00"}],"status":"not-done","statusReason":[{"coding":[{"system":"http://snomed.info/sct","code":"183932001"}]}],"medicationCodeableConcept":{"coding":[{"system":"http://www.nlm.nih.gov/research/umls/rxnorm","code":"2588062","display":"rivaroxaban 1 MG/ML Oral Suspension"}]},"subject":{"reference":"Patient/ec88b695-15b1-4ba3-b032-b04e191b97a4"},"effectivePeriod":{"start":"2026-12-08T11:30:00.000+00:00"}},"request":{"method":"PUT","url":"MedicationAdministration/479afca3-0b1f-4a4f-9dd3-b4ef89c41f4d"}},{"fullUrl":"https://madie.cms.gov/Procedure/6f436415-2c09-4bd0-b189-3625befe490d","resource":{"resourceType":"Procedure","id":"6f436415-2c09-4bd0-b189-3625befe490d","status":"completed","code":{"coding":[{"system":"http://www.icd10data.com/icd10pcs","code":"3E030FZ"},{"system":"http://snomed.info/sct","code":"18946005"}]},"subject":{"reference":"Patient/ec88b695-15b1-4ba3-b032-b04e191b97a4"},"performedPeriod":{"start":"2026-12-04T11:00:00.000+00:00","end":"2026-12-06T11:15:00.000+00:00"}},"request":{"method":"PUT","url":"Procedure/6f436415-2c09-4bd0-b189-3625befe490d"}},{"fullUrl":"https://madie.cms.gov/Location/476d48e2-c5e9-4b06-9f50-989371e0c3ee","resource":{"resourceType":"Location","id":"476d48e2-c5e9-4b06-9f50-989371e0c3ee","meta":{"profile":["http://hl7.org/fhir/us/qicore/StructureDefinition/qicore-location"]},"identifier":[{"use":"usual","system":"http://exampleoflocation.com","value":"B1-S.F2"}],"name":"Medical Surgical East, first floor","type":[{"coding":[{"system":"https://www.cdc.gov/nhsn/cdaportal/terminology/codesystem/hsloc.html","code":"1025-6","display":"Trauma Critical Care","userSelected":true}]}]},"request":{"method":"PUT","url":"Location/476d48e2-c5e9-4b06-9f50-989371e0c3ee"}},{"fullUrl":"https://madie.cms.gov/Organization/59ee677b-2e3a-4eac-94d6-25d5965bfd50","resource":{"resourceType":"Organization","id":"59ee677b-2e3a-4eac-94d6-25d5965bfd50","meta":{"profile":["http://hl7.org/fhir/us/qicore/StructureDefinition/qicore-organization"]},"identifier":[{"use":"temp","system":"urn:oid:2.16.840.1.113883.4.4","value":"21-3259825"}],"active":true,"type":[{"coding":[{"system":"http://terminology.hl7.org/CodeSystem/organization-type","code":"pay","display":"Payer"}]}],"name":"Blue Cross Blue Shield of Texas","telecom":[{"system":"phone","value":"(+1) 972-766-6900"}],"address":[{"use":"billing","type":"postal","line":["P.O. Box 660044"],"city":"Dallas","state":"TX","postalCode":"75266-0044","country":"USA"}]},"request":{"method":"PUT","url":"Organization/59ee677b-2e3a-4eac-94d6-25d5965bfd50"}},{"fullUrl":"https://madie.cms.gov/Practitioner/fbfcfe79-e7cd-4a5b-9e50-1867ae5562d7","resource":{"resourceType":"Practitioner","id":"fbfcfe79-e7cd-4a5b-9e50-1867ae5562d7","identifier":[{"system":"http://hl7.org/fhir/sid/us-npi","value":"123456"}],"name":[{"family":"Evil","prefix":["Dr"]}]},"request":{"method":"PUT","url":"Practitioner/fbfcfe79-e7cd-4a5b-9e50-1867ae5562d7"}},{"fullUrl":"https://madie.cms.gov/MeasureReport/cb293d28-0ee9-4adb-afcd-33aa91cb2df0","resource":{"resourceType":"MeasureReport","id":"cb293d28-0ee9-4adb-afcd-33aa91cb2df0","meta":{"profile":["http://hl7.org/fhir/us/cqfmeasures/StructureDefinition/test-case-cqfm"]},"contained":[{"resourceType":"Parameters","id":"8b3fa155-4bc5-40f3-b888-71842d86f399-parameters","parameter":[{"name":"subject","valueString":"ec88b695-15b1-4ba3-b032-b04e191b97a4"}]}],"extension":[{"url":"http://hl7.org/fhir/StructureDefinition/cqf-inputParameters","valueReference":{"reference":"#8b3fa155-4bc5-40f3-b888-71842d86f399-parameters"}},{"url":"http://hl7.org/fhir/us/cqfmeasures/StructureDefinition/cqfm-testCaseDescription","valueMarkdown":"NoIPCNoRixBexPtRefusal both administered 2 Day After Anes\n"}],"modifierExtension":[{"url":"http://hl7.org/fhir/us/cqfmeasures/StructureDefinition/cqfm-isTestCase","valueBoolean":true}],"status":"complete","type":"individual","measure":"https://madie.cms.gov/Measure/CMS190VTEProphylaxisICUFHIR","period":{"start":"2026-01-01","end":"2026-12-31"},"group":[{"id":"Group_1","population":[{"id":"InitialPopulation_1","code":{"coding":[{"system":"http://terminology.hl7.org/CodeSystem/measure-population","code":"initial-population","display":"Initial Population"}]},"count":1},{"id":"Denominator_1","code":{"coding":[{"system":"http://terminology.hl7.org/CodeSystem/measure-population","code":"denominator","display":"Denominator"}]},"count":1},{"id":"DenominatorExclusion_1","code":{"coding":[{"system":"http://terminology.hl7.org/CodeSystem/measure-population","code":"denominator-exclusion","display":"Denominator Exclusion"}]},"count":0},{"id":"Numerator_1","code":{"coding":[{"system":"http://terminology.hl7.org/CodeSystem/measure-population","code":"numerator","display":"Numerator"}]},"count":0},{"id":"DenominatorException_1","code":{"coding":[{"system":"http://terminology.hl7.org/CodeSystem/measure-population","code":"denominator-exception","display":"Denominator Exception"}]},"count":0}],"measureScore":{"value":0.0}}],"evaluatedResource":[{"reference":"Patient/ec88b695-15b1-4ba3-b032-b04e191b97a4"},{"reference":"Encounter/59079127-c39d-4918-9a95-9073c10447a6"},{"reference":"Coverage/a87789d5-c614-41b2-adc6-f98440cf4db1"},{"reference":"Procedure/3b99d37a-15e6-4562-9878-9147af42a16a"},{"reference":"MedicationAdministration/479afca3-0b1f-4a4f-9dd3-b4ef89c41f4d"},{"reference":"Procedure/6f436415-2c09-4bd0-b189-3625befe490d"},{"reference":"Location/476d48e2-c5e9-4b06-9f50-989371e0c3ee"},{"reference":"Organization/59ee677b-2e3a-4eac-94d6-25d5965bfd50"},{"reference":"Practitioner/fbfcfe79-e7cd-4a5b-9e50-1867ae5562d7"}]},"request":{"method":"PUT","url":"MeasureReport/cb293d28-0ee9-4adb-afcd-33aa91cb2df0"}}]},"request":{"method":"PUT","url":"Bundle/612e6ee202c62a011f2eff14"}},{"fullUrl":"Procedure/6f436415-2c09-4bd0-b189-3625befe490d","resource":{"resourceType":"Procedure","id":"6f436415-2c09-4bd0-b189-3625befe490d","status":"completed","code":{"coding":[{"system":"http://www.icd10data.com/icd10pcs","code":"3E030FZ"},{"system":"http://snomed.info/sct","code":"18946005"}]},"subject":{"reference":"Patient/ec88b695-15b1-4ba3-b032-b04e191b97a4"},"performedPeriod":{"start":"2026-12-04T11:00:00.000+00:00","end":"2026-12-06T11:15:00.000+00:00"}},"request":{"method":"PUT","url":"Procedure/6f436415-2c09-4bd0-b189-3625befe490d"}}]}