{"resourceType":"Bundle","id":"tests-9cd5f0f5-5d45-4ba2-921c-37bd6e7822dd-bundle","type":"transaction","entry":[{"resource":{"resourceType":"Procedure","id":"2aae0aca-5807-41a1-bc4f-4bce120c2c27","meta":{"profile":["http://hl7.org/fhir/us/qicore/StructureDefinition/qicore-procedure"]},"extension":[{"url":"http://hl7.org/fhir/us/qicore/StructureDefinition/qicore-recorded","valueDateTime":"2013-12-04T13:35:00.000+00:00"}],"status":"completed","code":{"coding":[{"system":"http://snomed.info/sct","code":"18946005"}]},"subject":{"reference":"Patient/9cd5f0f5-5d45-4ba2-921c-37bd6e7822dd"},"performedDateTime":"2026-12-07T19:00:00.000+00:00"},"request":{"method":"PUT","url":"Procedure/2aae0aca-5807-41a1-bc4f-4bce120c2c27"}},{"resource":{"resourceType":"Organization","id":"82e09494-2fb2-4597-b557-5e8de967413c","meta":{"profile":["http://hl7.org/fhir/us/qicore/StructureDefinition/qicore-organization"]},"identifier":[{"use":"temp","system":"urn:oid:2.16.840.1.113883.4.4","value":"21-3259825"}],"active":true,"type":[{"coding":[{"system":"http://terminology.hl7.org/CodeSystem/organization-type","code":"pay","display":"Payer"}]}],"name":"Blue Cross Blue Shield of Texas","telecom":[{"system":"phone","value":"(+1) 972-766-6900"}],"address":[{"use":"billing","type":"postal","line":["P.O. Box 660044"],"city":"Dallas","state":"TX","postalCode":"75266-0044","country":"USA"}]},"request":{"method":"PUT","url":"Organization/82e09494-2fb2-4597-b557-5e8de967413c"}},{"resource":{"resourceType":"MedicationRequest","id":"f8a7f4d0-1e0e-4ee8-998b-3f985ae6de71","meta":{"profile":["http://hl7.org/fhir/us/qicore/StructureDefinition/qicore-medicationnotrequested"]},"status":"completed","intent":"order","category":[{"coding":[{"system":"http://terminology.hl7.org/CodeSystem/medicationrequest-category","code":"community"}]}],"doNotPerform":true,"medicationCodeableConcept":{"coding":[{"system":"http://www.nlm.nih.gov/research/umls/rxnorm","code":"855288"}]},"subject":{"reference":"Patient/9cd5f0f5-5d45-4ba2-921c-37bd6e7822dd"},"authoredOn":"2026-12-07T19:00:00.000+00:00","requester":{"reference":"Practitioner/123456"},"reasonCode":[{"coding":[{"system":"http://snomed.info/sct","code":"443390004","display":"Refusal of treatment by patient (situation)","userSelected":true}]}]},"request":{"method":"PUT","url":"MedicationRequest/f8a7f4d0-1e0e-4ee8-998b-3f985ae6de71"}},{"resource":{"resourceType":"Bundle","id":"612e6ea602c62a011f2ef2b4","type":"transaction","entry":[{"fullUrl":"https://madie.cms.gov/Patient/9cd5f0f5-5d45-4ba2-921c-37bd6e7822dd","resource":{"resourceType":"Patient","id":"9cd5f0f5-5d45-4ba2-921c-37bd6e7822dd","meta":{"profile":["http://hl7.org/fhir/us/qicore/StructureDefinition/qicore-patient"]},"text":{"status":"generated","div":"<div xmlns=\"http://www.w3.org/1999/xhtml\"><div class=\"hapiHeaderText\">PtRefMOWarfarinOnAnesRlvntDT <b>NUMERPASS </b></div><table class=\"hapiPropertyTable\"><tbody><tr><td>Identifier</td><td>0605317a287832394eb791622c2564f2</td></tr><tr><td>Date of birth</td><td><span>03 March 1974</span></td></tr></tbody></table></div>"},"extension":[{"url":"http://hl7.org/fhir/us/core/StructureDefinition/us-core-race","extension":[{"url":"ombCategory","valueCoding":{"system":"urn:oid:2.16.840.1.113883.6.238","code":"1002-5","display":"American Indian or Alaska Native","userSelected":true}},{"url":"text","valueString":"American Indian or Alaska Native"}]},{"url":"http://hl7.org/fhir/us/core/StructureDefinition/us-core-ethnicity","extension":[{"url":"ombCategory","valueCoding":{"system":"urn:oid:2.16.840.1.113883.6.238","code":"2135-2","display":"Hispanic or Latino","userSelected":true}},{"url":"text","valueString":"Hispanic or Latino"}]}],"identifier":[{"type":{"coding":[{"system":"http://terminology.hl7.org/CodeSystem/v2-0203","code":"MR"}]},"system":"https://bonnie-fhir.healthit.gov/","value":"612e6ea602c62a011f2ef2b4"}],"active":true,"name":[{"use":"usual","family":"NUMERPass","given":["PtRefMOWarfarinOnAnesRlvntDT"]}],"gender":"female","birthDate":"1975-03-03"},"request":{"method":"PUT","url":"Patient/9cd5f0f5-5d45-4ba2-921c-37bd6e7822dd"}},{"fullUrl":"https://madie.cms.gov/Encounter/22ad044e-5752-46ba-aa7c-1c92e011c9d0","resource":{"resourceType":"Encounter","id":"22ad044e-5752-46ba-aa7c-1c92e011c9d0","meta":{"profile":["http://hl7.org/fhir/us/qicore/StructureDefinition/qicore-encounter"]},"status":"finished","class":{"system":"http://terminology.hl7.org/CodeSystem/v3-ActCode","code":"IMP","display":"inpatient encounter"},"type":[{"coding":[{"system":"http://snomed.info/sct","code":"8715000"}]}],"subject":{"reference":"Patient/9cd5f0f5-5d45-4ba2-921c-37bd6e7822dd"},"period":{"start":"2026-12-04T08:00:00.000+00:00","end":"2026-12-30T08:15:00.000+00:00"},"length":{"value":26,"unit":"days"},"location":[{"location":{"reference":"Location/dfb5bbed-fffe-4542-8129-ce1278969565"},"period":{"start":"2026-12-06T08:00:00.000+00:00","end":"2026-12-08T08:15:00.000+00:00"}}]},"request":{"method":"PUT","url":"Encounter/22ad044e-5752-46ba-aa7c-1c92e011c9d0"}},{"fullUrl":"https://madie.cms.gov/Coverage/024546dd-a2bd-43f2-afdf-67587461aa19","resource":{"resourceType":"Coverage","id":"024546dd-a2bd-43f2-afdf-67587461aa19","status":"active","beneficiary":{"reference":"Patient/9cd5f0f5-5d45-4ba2-921c-37bd6e7822dd"},"period":{"start":"1975-03-03T08:00:00.000+00:00"},"payor":[{"reference":"Organization/82e09494-2fb2-4597-b557-5e8de967413c"}]},"request":{"method":"PUT","url":"Coverage/024546dd-a2bd-43f2-afdf-67587461aa19"}},{"fullUrl":"https://madie.cms.gov/MedicationRequest/f8a7f4d0-1e0e-4ee8-998b-3f985ae6de71","resource":{"resourceType":"MedicationRequest","id":"f8a7f4d0-1e0e-4ee8-998b-3f985ae6de71","meta":{"profile":["http://hl7.org/fhir/us/qicore/StructureDefinition/qicore-medicationnotrequested"]},"status":"completed","intent":"order","category":[{"coding":[{"system":"http://terminology.hl7.org/CodeSystem/medicationrequest-category","code":"community"}]}],"doNotPerform":true,"medicationCodeableConcept":{"coding":[{"system":"http://www.nlm.nih.gov/research/umls/rxnorm","code":"855288"}]},"subject":{"reference":"Patient/9cd5f0f5-5d45-4ba2-921c-37bd6e7822dd"},"authoredOn":"2026-12-07T19:00:00.000+00:00","requester":{"reference":"Practitioner/123456"},"reasonCode":[{"coding":[{"system":"http://snomed.info/sct","code":"443390004","display":"Refusal of treatment by patient (situation)","userSelected":true}]}]},"request":{"method":"PUT","url":"MedicationRequest/f8a7f4d0-1e0e-4ee8-998b-3f985ae6de71"}},{"fullUrl":"https://madie.cms.gov/Procedure/2aae0aca-5807-41a1-bc4f-4bce120c2c27","resource":{"resourceType":"Procedure","id":"2aae0aca-5807-41a1-bc4f-4bce120c2c27","meta":{"profile":["http://hl7.org/fhir/us/qicore/StructureDefinition/qicore-procedure"]},"extension":[{"url":"http://hl7.org/fhir/us/qicore/StructureDefinition/qicore-recorded","valueDateTime":"2013-12-04T13:35:00.000+00:00"}],"status":"completed","code":{"coding":[{"system":"http://snomed.info/sct","code":"18946005"}]},"subject":{"reference":"Patient/9cd5f0f5-5d45-4ba2-921c-37bd6e7822dd"},"performedDateTime":"2026-12-07T19:00:00.000+00:00"},"request":{"method":"PUT","url":"Procedure/2aae0aca-5807-41a1-bc4f-4bce120c2c27"}},{"fullUrl":"https://madie.cms.gov/Location/dfb5bbed-fffe-4542-8129-ce1278969565","resource":{"resourceType":"Location","id":"dfb5bbed-fffe-4542-8129-ce1278969565","meta":{"profile":["http://hl7.org/fhir/us/qicore/StructureDefinition/qicore-location"]},"identifier":[{"use":"usual","system":"http://exampleoflocation.com","value":"B1-S.F2"}],"name":"Medical Surgical East, first floor","type":[{"coding":[{"system":"https://www.cdc.gov/nhsn/cdaportal/terminology/codesystem/hsloc.html","code":"1025-6","display":"Trauma Critical Care","userSelected":true}]}]},"request":{"method":"PUT","url":"Location/dfb5bbed-fffe-4542-8129-ce1278969565"}},{"fullUrl":"https://madie.cms.gov/Organization/82e09494-2fb2-4597-b557-5e8de967413c","resource":{"resourceType":"Organization","id":"82e09494-2fb2-4597-b557-5e8de967413c","meta":{"profile":["http://hl7.org/fhir/us/qicore/StructureDefinition/qicore-organization"]},"identifier":[{"use":"temp","system":"urn:oid:2.16.840.1.113883.4.4","value":"21-3259825"}],"active":true,"type":[{"coding":[{"system":"http://terminology.hl7.org/CodeSystem/organization-type","code":"pay","display":"Payer"}]}],"name":"Blue Cross Blue Shield of Texas","telecom":[{"system":"phone","value":"(+1) 972-766-6900"}],"address":[{"use":"billing","type":"postal","line":["P.O. Box 660044"],"city":"Dallas","state":"TX","postalCode":"75266-0044","country":"USA"}]},"request":{"method":"PUT","url":"Organization/82e09494-2fb2-4597-b557-5e8de967413c"}},{"fullUrl":"https://madie.cms.gov/Practitioner/7c302c35-8b31-4093-a967-aad3501717a8","resource":{"resourceType":"Practitioner","id":"7c302c35-8b31-4093-a967-aad3501717a8","identifier":[{"system":"http://hl7.org/fhir/sid/us-npi","value":"123456"}],"name":[{"family":"Evil","prefix":["Dr"]}]},"request":{"method":"PUT","url":"Practitioner/7c302c35-8b31-4093-a967-aad3501717a8"}},{"fullUrl":"https://madie.cms.gov/MeasureReport/45cf4a98-41a1-453c-9d81-c0d7be66f471","resource":{"resourceType":"MeasureReport","id":"45cf4a98-41a1-453c-9d81-c0d7be66f471","meta":{"profile":["http://hl7.org/fhir/us/cqfmeasures/StructureDefinition/test-case-cqfm"]},"contained":[{"resourceType":"Parameters","id":"08dfc15f-4c4d-40c2-8a13-7d502bec7b68-parameters","parameter":[{"name":"subject","valueString":"9cd5f0f5-5d45-4ba2-921c-37bd6e7822dd"}]}],"extension":[{"url":"http://hl7.org/fhir/StructureDefinition/cqf-inputParameters","valueReference":{"reference":"#08dfc15f-4c4d-40c2-8a13-7d502bec7b68-parameters"}},{"url":"http://hl7.org/fhir/us/cqfmeasures/StructureDefinition/cqfm-testCaseDescription","valueMarkdown":"warfarin not requested due to patient refusal concurrent with neuraxial anesthesia relevant DT\n"}],"modifierExtension":[{"url":"http://hl7.org/fhir/us/cqfmeasures/StructureDefinition/cqfm-isTestCase","valueBoolean":true}],"status":"complete","type":"individual","measure":"https://madie.cms.gov/Measure/CMS190VTEProphylaxisICUFHIR","period":{"start":"2026-01-01","end":"2026-12-31"},"group":[{"id":"Group_1","population":[{"id":"InitialPopulation_1","code":{"coding":[{"system":"http://terminology.hl7.org/CodeSystem/measure-population","code":"initial-population","display":"Initial Population"}]},"count":1},{"id":"Denominator_1","code":{"coding":[{"system":"http://terminology.hl7.org/CodeSystem/measure-population","code":"denominator","display":"Denominator"}]},"count":1},{"id":"DenominatorExclusion_1","code":{"coding":[{"system":"http://terminology.hl7.org/CodeSystem/measure-population","code":"denominator-exclusion","display":"Denominator Exclusion"}]},"count":0},{"id":"Numerator_1","code":{"coding":[{"system":"http://terminology.hl7.org/CodeSystem/measure-population","code":"numerator","display":"Numerator"}]},"count":1},{"id":"DenominatorException_1","code":{"coding":[{"system":"http://terminology.hl7.org/CodeSystem/measure-population","code":"denominator-exception","display":"Denominator Exception"}]},"count":0}],"measureScore":{"value":0.0}}],"evaluatedResource":[{"reference":"Patient/9cd5f0f5-5d45-4ba2-921c-37bd6e7822dd"},{"reference":"Encounter/22ad044e-5752-46ba-aa7c-1c92e011c9d0"},{"reference":"Coverage/024546dd-a2bd-43f2-afdf-67587461aa19"},{"reference":"MedicationRequest/f8a7f4d0-1e0e-4ee8-998b-3f985ae6de71"},{"reference":"Procedure/2aae0aca-5807-41a1-bc4f-4bce120c2c27"},{"reference":"Location/dfb5bbed-fffe-4542-8129-ce1278969565"},{"reference":"Organization/82e09494-2fb2-4597-b557-5e8de967413c"},{"reference":"Practitioner/7c302c35-8b31-4093-a967-aad3501717a8"}]},"request":{"method":"PUT","url":"MeasureReport/45cf4a98-41a1-453c-9d81-c0d7be66f471"}}]},"request":{"method":"PUT","url":"Bundle/612e6ea602c62a011f2ef2b4"}},{"resource":{"resourceType":"Practitioner","id":"7c302c35-8b31-4093-a967-aad3501717a8","identifier":[{"system":"http://hl7.org/fhir/sid/us-npi","value":"123456"}],"name":[{"family":"Evil","prefix":["Dr"]}]},"request":{"method":"PUT","url":"Practitioner/7c302c35-8b31-4093-a967-aad3501717a8"}},{"resource":{"resourceType":"Location","id":"dfb5bbed-fffe-4542-8129-ce1278969565","meta":{"profile":["http://hl7.org/fhir/us/qicore/StructureDefinition/qicore-location"]},"identifier":[{"use":"usual","system":"http://exampleoflocation.com","value":"B1-S.F2"}],"name":"Medical Surgical East, first floor","type":[{"coding":[{"system":"https://www.cdc.gov/nhsn/cdaportal/terminology/codesystem/hsloc.html","code":"1025-6","display":"Trauma Critical Care","userSelected":true}]}]},"request":{"method":"PUT","url":"Location/dfb5bbed-fffe-4542-8129-ce1278969565"}},{"resource":{"resourceType":"Encounter","id":"22ad044e-5752-46ba-aa7c-1c92e011c9d0","meta":{"profile":["http://hl7.org/fhir/us/qicore/StructureDefinition/qicore-encounter"]},"status":"finished","class":{"system":"http://terminology.hl7.org/CodeSystem/v3-ActCode","code":"IMP","display":"inpatient encounter"},"type":[{"coding":[{"system":"http://snomed.info/sct","code":"8715000"}]}],"subject":{"reference":"Patient/9cd5f0f5-5d45-4ba2-921c-37bd6e7822dd"},"period":{"start":"2026-12-04T08:00:00.000+00:00","end":"2026-12-30T08:15:00.000+00:00"},"length":{"value":26,"unit":"days"},"location":[{"location":{"reference":"Location/dfb5bbed-fffe-4542-8129-ce1278969565"},"period":{"start":"2026-12-06T08:00:00.000+00:00","end":"2026-12-08T08:15:00.000+00:00"}}]},"request":{"method":"PUT","url":"Encounter/22ad044e-5752-46ba-aa7c-1c92e011c9d0"}},{"resource":{"resourceType":"Coverage","id":"024546dd-a2bd-43f2-afdf-67587461aa19","status":"active","beneficiary":{"reference":"Patient/9cd5f0f5-5d45-4ba2-921c-37bd6e7822dd"},"period":{"start":"1975-03-03T08:00:00.000+00:00"},"payor":[{"reference":"Organization/82e09494-2fb2-4597-b557-5e8de967413c"}]},"request":{"method":"PUT","url":"Coverage/024546dd-a2bd-43f2-afdf-67587461aa19"}},{"resource":{"resourceType":"MeasureReport","id":"45cf4a98-41a1-453c-9d81-c0d7be66f471","meta":{"profile":["http://hl7.org/fhir/us/cqfmeasures/StructureDefinition/test-case-cqfm"]},"contained":[{"resourceType":"Parameters","id":"08dfc15f-4c4d-40c2-8a13-7d502bec7b68-parameters","parameter":[{"name":"subject","valueString":"9cd5f0f5-5d45-4ba2-921c-37bd6e7822dd"}]}],"extension":[{"url":"http://hl7.org/fhir/StructureDefinition/cqf-inputParameters","valueReference":{"reference":"#08dfc15f-4c4d-40c2-8a13-7d502bec7b68-parameters"}},{"url":"http://hl7.org/fhir/us/cqfmeasures/StructureDefinition/cqfm-testCaseDescription","valueMarkdown":"warfarin not requested due to patient refusal concurrent with neuraxial anesthesia relevant DT\n"}],"modifierExtension":[{"url":"http://hl7.org/fhir/us/cqfmeasures/StructureDefinition/cqfm-isTestCase","valueBoolean":true}],"status":"complete","type":"individual","measure":"https://madie.cms.gov/Measure/CMS190VTEProphylaxisICUFHIR","period":{"start":"2026-01-01","end":"2026-12-31"},"group":[{"id":"Group_1","population":[{"id":"InitialPopulation_1","code":{"coding":[{"system":"http://terminology.hl7.org/CodeSystem/measure-population","code":"initial-population","display":"Initial Population"}]},"count":1},{"id":"Denominator_1","code":{"coding":[{"system":"http://terminology.hl7.org/CodeSystem/measure-population","code":"denominator","display":"Denominator"}]},"count":1},{"id":"DenominatorExclusion_1","code":{"coding":[{"system":"http://terminology.hl7.org/CodeSystem/measure-population","code":"denominator-exclusion","display":"Denominator Exclusion"}]},"count":0},{"id":"Numerator_1","code":{"coding":[{"system":"http://terminology.hl7.org/CodeSystem/measure-population","code":"numerator","display":"Numerator"}]},"count":1},{"id":"DenominatorException_1","code":{"coding":[{"system":"http://terminology.hl7.org/CodeSystem/measure-population","code":"denominator-exception","display":"Denominator Exception"}]},"count":0}],"measureScore":{"value":0.0}}],"evaluatedResource":[{"reference":"Patient/9cd5f0f5-5d45-4ba2-921c-37bd6e7822dd"},{"reference":"Encounter/22ad044e-5752-46ba-aa7c-1c92e011c9d0"},{"reference":"Coverage/024546dd-a2bd-43f2-afdf-67587461aa19"},{"reference":"MedicationRequest/f8a7f4d0-1e0e-4ee8-998b-3f985ae6de71"},{"reference":"Procedure/2aae0aca-5807-41a1-bc4f-4bce120c2c27"},{"reference":"Location/dfb5bbed-fffe-4542-8129-ce1278969565"},{"reference":"Organization/82e09494-2fb2-4597-b557-5e8de967413c"},{"reference":"Practitioner/7c302c35-8b31-4093-a967-aad3501717a8"}]},"request":{"method":"PUT","url":"MeasureReport/45cf4a98-41a1-453c-9d81-c0d7be66f471"}},{"resource":{"resourceType":"Patient","id":"9cd5f0f5-5d45-4ba2-921c-37bd6e7822dd","meta":{"profile":["http://hl7.org/fhir/us/qicore/StructureDefinition/qicore-patient"]},"text":{"status":"generated","div":"<div xmlns=\"http://www.w3.org/1999/xhtml\"><div class=\"hapiHeaderText\">PtRefMOWarfarinOnAnesRlvntDT <b>NUMERPASS </b></div><table class=\"hapiPropertyTable\"><tbody><tr><td>Identifier</td><td>0605317a287832394eb791622c2564f2</td></tr><tr><td>Date of birth</td><td><span>03 March 1974</span></td></tr></tbody></table></div>"},"extension":[{"url":"http://hl7.org/fhir/us/core/StructureDefinition/us-core-race","extension":[{"url":"ombCategory","valueCoding":{"system":"urn:oid:2.16.840.1.113883.6.238","code":"1002-5","display":"American Indian or Alaska Native","userSelected":true}},{"url":"text","valueString":"American Indian or Alaska Native"}]},{"url":"http://hl7.org/fhir/us/core/StructureDefinition/us-core-ethnicity","extension":[{"url":"ombCategory","valueCoding":{"system":"urn:oid:2.16.840.1.113883.6.238","code":"2135-2","display":"Hispanic or Latino","userSelected":true}},{"url":"text","valueString":"Hispanic or Latino"}]}],"identifier":[{"type":{"coding":[{"system":"http://terminology.hl7.org/CodeSystem/v2-0203","code":"MR"}]},"system":"https://bonnie-fhir.healthit.gov/","value":"612e6ea602c62a011f2ef2b4"}],"active":true,"name":[{"use":"usual","family":"NUMERPass","given":["PtRefMOWarfarinOnAnesRlvntDT"]}],"gender":"female","birthDate":"1975-03-03"},"request":{"method":"PUT","url":"Patient/9cd5f0f5-5d45-4ba2-921c-37bd6e7822dd"}}]}