{"resourceType":"Bundle","id":"tests-a82cd0c1-900e-4ab3-a498-840ac1608486-bundle","type":"transaction","entry":[{"resource":{"resourceType":"ServiceRequest","id":"0707af6b-9f2b-4424-ae7d-0a80c1d4f0aa","meta":{"profile":["http://hl7.org/fhir/us/qicore/StructureDefinition/qicore-servicenotrequested"]},"extension":[{"url":"http://hl7.org/fhir/us/qicore/StructureDefinition/qicore-doNotPerformReason","valueCodeableConcept":{"coding":[{"system":"http://snomed.info/sct","code":"416406003","display":"Procedure discontinued (situation)"}]}}],"status":"completed","intent":"order","doNotPerform":false,"code":{"coding":[{"system":"http://snomed.info/sct","code":"133918004"}]},"subject":{"reference":"Patient/a82cd0c1-900e-4ab3-a498-840ac1608486"},"authoredOn":"2026-12-04T06:30:00+00:00"},"request":{"method":"PUT","url":"ServiceRequest/0707af6b-9f2b-4424-ae7d-0a80c1d4f0aa"}},{"resource":{"resourceType":"Patient","id":"a82cd0c1-900e-4ab3-a498-840ac1608486","meta":{"profile":["http://hl7.org/fhir/us/qicore/StructureDefinition/qicore-patient"]},"text":{"status":"generated","div":"<div xmlns=\"http://www.w3.org/1999/xhtml\"><div class=\"hapiHeaderText\">CMODuringEDDoNotPerformTrue <b>DENEXFail </b></div><table class=\"hapiPropertyTable\"><tbody><tr><td>Identifier</td><td>45452ea1dc23640e1878befc89e45fab</td></tr><tr><td>Date of birth</td><td><span>03 March 1974</span></td></tr></tbody></table></div>"},"extension":[{"url":"http://hl7.org/fhir/us/core/StructureDefinition/us-core-race","extension":[{"url":"ombCategory","valueCoding":{"system":"urn:oid:2.16.840.1.113883.6.238","code":"1002-5","display":"American Indian or Alaska Native","userSelected":true}},{"url":"text","valueString":"American Indian or Alaska Native"}]},{"url":"http://hl7.org/fhir/us/core/StructureDefinition/us-core-ethnicity","extension":[{"url":"ombCategory","valueCoding":{"system":"urn:oid:2.16.840.1.113883.6.238","code":"2135-2","display":"Hispanic or Latino","userSelected":true}},{"url":"text","valueString":"Hispanic or Latino"}]}],"identifier":[{"type":{"coding":[{"system":"http://terminology.hl7.org/CodeSystem/v2-0203","code":"MR"}]},"system":"https://bonnie-fhir.healthit.gov/","value":"612e6e7d02c62a011f2ee908"}],"active":true,"name":[{"use":"usual","family":"DENEXFail","given":["CMODuringEDDoNotPerformFalse"]}],"gender":"female","birthDate":"1975-03-03"},"request":{"method":"PUT","url":"Patient/a82cd0c1-900e-4ab3-a498-840ac1608486"}},{"resource":{"resourceType":"Organization","id":"282e3fdf-d2ce-44b6-9129-94f730a4eec2","meta":{"profile":["http://hl7.org/fhir/us/qicore/StructureDefinition/qicore-organization"]},"identifier":[{"use":"temp","system":"urn:oid:2.16.840.1.113883.4.4","value":"21-3259825"}],"active":true,"type":[{"coding":[{"system":"http://terminology.hl7.org/CodeSystem/organization-type","code":"pay","display":"Payer"}]}],"name":"Blue Cross Blue Shield of Texas","telecom":[{"system":"phone","value":"(+1) 972-766-6900"}],"address":[{"use":"billing","type":"postal","line":["P.O. Box 660044"],"city":"Dallas","state":"TX","postalCode":"75266-0044","country":"USA"}]},"request":{"method":"PUT","url":"Organization/282e3fdf-d2ce-44b6-9129-94f730a4eec2"}},{"resource":{"resourceType":"Location","id":"47486499-4635-48ee-a0ae-f739ebea0766","type":[{"coding":[{"system":"http://cts.nlm.nih.gov/fhir/cs/hsloc","version":"2020","code":"1025-6","display":"Trauma Critical Care","userSelected":true}]}]},"request":{"method":"PUT","url":"Location/47486499-4635-48ee-a0ae-f739ebea0766"}},{"resource":{"resourceType":"Practitioner","id":"8ce83732-b9f6-4dbf-9326-1b648b54463a","identifier":[{"system":"http://hl7.org/fhir/sid/us-npi","value":"123456"}],"name":[{"family":"Evil","prefix":["Dr"]}]},"request":{"method":"PUT","url":"Practitioner/8ce83732-b9f6-4dbf-9326-1b648b54463a"}},{"resource":{"resourceType":"Location","id":"388dfaac-8856-46d0-8282-a43c257b8f79","meta":{"profile":["http://hl7.org/fhir/us/qicore/StructureDefinition/qicore-location"]},"identifier":[{"use":"usual","system":"http://exampleoflocation.com","value":"B1-S.F2"}],"name":"Medical Surgical East, first floor","type":[{"coding":[{"system":"https://www.cdc.gov/nhsn/cdaportal/terminology/codesystem/hsloc.html","code":"1025-6","display":"Trauma Critical Care","userSelected":true}]}]},"request":{"method":"PUT","url":"Location/388dfaac-8856-46d0-8282-a43c257b8f79"}},{"resource":{"resourceType":"MeasureReport","id":"94b6e9dc-67f4-4802-bf8f-d8a7d963b1c7","meta":{"profile":["http://hl7.org/fhir/us/cqfmeasures/StructureDefinition/test-case-cqfm"]},"contained":[{"resourceType":"Parameters","id":"31b9c6eb-475e-486f-bbb0-35a12ac6cbba-parameters","parameter":[{"name":"subject","valueString":"a82cd0c1-900e-4ab3-a498-840ac1608486"}]}],"extension":[{"url":"http://hl7.org/fhir/StructureDefinition/cqf-inputParameters","valueReference":{"reference":"#31b9c6eb-475e-486f-bbb0-35a12ac6cbba-parameters"}},{"url":"http://hl7.org/fhir/us/cqfmeasures/StructureDefinition/cqfm-testCaseDescription","valueMarkdown":"To test and cover CMO doNotPerform is true"}],"modifierExtension":[{"url":"http://hl7.org/fhir/us/cqfmeasures/StructureDefinition/cqfm-isTestCase","valueBoolean":true}],"status":"complete","type":"individual","measure":"https://madie.cms.gov/Measure/CMS190VTEProphylaxisICUFHIR","period":{"start":"2026-01-01","end":"2026-12-31"},"group":[{"id":"Group_1","population":[{"id":"InitialPopulation_1","code":{"coding":[{"system":"http://terminology.hl7.org/CodeSystem/measure-population","code":"initial-population","display":"Initial Population"}]},"count":1},{"id":"Denominator_1","code":{"coding":[{"system":"http://terminology.hl7.org/CodeSystem/measure-population","code":"denominator","display":"Denominator"}]},"count":1},{"id":"DenominatorExclusion_1","code":{"coding":[{"system":"http://terminology.hl7.org/CodeSystem/measure-population","code":"denominator-exclusion","display":"Denominator Exclusion"}]},"count":0},{"id":"Numerator_1","code":{"coding":[{"system":"http://terminology.hl7.org/CodeSystem/measure-population","code":"numerator","display":"Numerator"}]},"count":0},{"id":"DenominatorException_1","code":{"coding":[{"system":"http://terminology.hl7.org/CodeSystem/measure-population","code":"denominator-exception","display":"Denominator Exception"}]},"count":0}],"measureScore":{"value":0.0}}],"evaluatedResource":[{"reference":"Patient/a82cd0c1-900e-4ab3-a498-840ac1608486"},{"reference":"Encounter/ca2a4ff2-c5f6-4262-b59d-d36349f44647"},{"reference":"Encounter/9dfffc71-2c6b-45e4-875f-c3b1f561f151"},{"reference":"ServiceRequest/0707af6b-9f2b-4424-ae7d-0a80c1d4f0aa"},{"reference":"Coverage/91f62d53-f066-4fee-8aa8-840bd023afe0"},{"reference":"Location/47486499-4635-48ee-a0ae-f739ebea0766"},{"reference":"Location/388dfaac-8856-46d0-8282-a43c257b8f79"},{"reference":"Organization/282e3fdf-d2ce-44b6-9129-94f730a4eec2"},{"reference":"Practitioner/8ce83732-b9f6-4dbf-9326-1b648b54463a"}]},"request":{"method":"PUT","url":"MeasureReport/94b6e9dc-67f4-4802-bf8f-d8a7d963b1c7"}},{"resource":{"resourceType":"Bundle","id":"612e6e7d02c62a011f2ee908","type":"transaction","entry":[{"fullUrl":"https://madie.cms.gov/Patient/a82cd0c1-900e-4ab3-a498-840ac1608486","resource":{"resourceType":"Patient","id":"a82cd0c1-900e-4ab3-a498-840ac1608486","meta":{"profile":["http://hl7.org/fhir/us/qicore/StructureDefinition/qicore-patient"]},"text":{"status":"generated","div":"<div xmlns=\"http://www.w3.org/1999/xhtml\"><div class=\"hapiHeaderText\">CMODuringEDDoNotPerformTrue <b>DENEXFail </b></div><table class=\"hapiPropertyTable\"><tbody><tr><td>Identifier</td><td>45452ea1dc23640e1878befc89e45fab</td></tr><tr><td>Date of birth</td><td><span>03 March 1974</span></td></tr></tbody></table></div>"},"extension":[{"url":"http://hl7.org/fhir/us/core/StructureDefinition/us-core-race","extension":[{"url":"ombCategory","valueCoding":{"system":"urn:oid:2.16.840.1.113883.6.238","code":"1002-5","display":"American Indian or Alaska Native","userSelected":true}},{"url":"text","valueString":"American Indian or Alaska Native"}]},{"url":"http://hl7.org/fhir/us/core/StructureDefinition/us-core-ethnicity","extension":[{"url":"ombCategory","valueCoding":{"system":"urn:oid:2.16.840.1.113883.6.238","code":"2135-2","display":"Hispanic or Latino","userSelected":true}},{"url":"text","valueString":"Hispanic or Latino"}]}],"identifier":[{"type":{"coding":[{"system":"http://terminology.hl7.org/CodeSystem/v2-0203","code":"MR"}]},"system":"https://bonnie-fhir.healthit.gov/","value":"612e6e7d02c62a011f2ee908"}],"active":true,"name":[{"use":"usual","family":"DENEXFail","given":["CMODuringEDDoNotPerformFalse"]}],"gender":"female","birthDate":"1975-03-03"},"request":{"method":"PUT","url":"Patient/a82cd0c1-900e-4ab3-a498-840ac1608486"}},{"fullUrl":"https://madie.cms.gov/Encounter/ca2a4ff2-c5f6-4262-b59d-d36349f44647","resource":{"resourceType":"Encounter","id":"ca2a4ff2-c5f6-4262-b59d-d36349f44647","meta":{"profile":["http://hl7.org/fhir/us/qicore/StructureDefinition/qicore-encounter"]},"status":"finished","class":{"system":"http://terminology.hl7.org/CodeSystem/v3-ActCode","code":"EMER","display":"emergency"},"type":[{"coding":[{"system":"http://snomed.info/sct","code":"4525004"}]}],"subject":{"reference":"Patient/a82cd0c1-900e-4ab3-a498-840ac1608486"},"period":{"start":"2026-12-04T06:00:00+00:00","end":"2026-12-04T07:15:00.000+00:00"},"length":{"value":0,"unit":"days"}},"request":{"method":"PUT","url":"Encounter/ca2a4ff2-c5f6-4262-b59d-d36349f44647"}},{"fullUrl":"https://madie.cms.gov/Encounter/9dfffc71-2c6b-45e4-875f-c3b1f561f151","resource":{"resourceType":"Encounter","id":"9dfffc71-2c6b-45e4-875f-c3b1f561f151","meta":{"profile":["http://hl7.org/fhir/us/qicore/StructureDefinition/qicore-encounter"]},"status":"finished","class":{"system":"http://terminology.hl7.org/CodeSystem/v3-ActCode","code":"IMP","display":"inpatient encounter"},"type":[{"coding":[{"system":"http://snomed.info/sct","code":"8715000"}]}],"subject":{"reference":"Patient/a82cd0c1-900e-4ab3-a498-840ac1608486"},"period":{"start":"2026-12-04T08:00:00+00:00","end":"2026-12-30T08:15:00.000+00:00"},"length":{"value":26,"unit":"days"},"location":[{"location":{"reference":"Location/388dfaac-8856-46d0-8282-a43c257b8f79"},"period":{"start":"2026-12-26T08:00:00+00:00","end":"2026-12-28T08:15:00.000+00:00"}}]},"request":{"method":"PUT","url":"Encounter/9dfffc71-2c6b-45e4-875f-c3b1f561f151"}},{"fullUrl":"https://madie.cms.gov/ServiceRequest/0707af6b-9f2b-4424-ae7d-0a80c1d4f0aa","resource":{"resourceType":"ServiceRequest","id":"0707af6b-9f2b-4424-ae7d-0a80c1d4f0aa","meta":{"profile":["http://hl7.org/fhir/us/qicore/StructureDefinition/qicore-servicenotrequested"]},"extension":[{"url":"http://hl7.org/fhir/us/qicore/StructureDefinition/qicore-doNotPerformReason","valueCodeableConcept":{"coding":[{"system":"http://snomed.info/sct","code":"416406003","display":"Procedure discontinued (situation)"}]}}],"status":"completed","intent":"order","doNotPerform":false,"code":{"coding":[{"system":"http://snomed.info/sct","code":"133918004"}]},"subject":{"reference":"Patient/a82cd0c1-900e-4ab3-a498-840ac1608486"},"authoredOn":"2026-12-04T06:30:00+00:00"},"request":{"method":"PUT","url":"ServiceRequest/0707af6b-9f2b-4424-ae7d-0a80c1d4f0aa"}},{"fullUrl":"https://madie.cms.gov/Coverage/91f62d53-f066-4fee-8aa8-840bd023afe0","resource":{"resourceType":"Coverage","id":"91f62d53-f066-4fee-8aa8-840bd023afe0","status":"active","beneficiary":{"reference":"Patient/a82cd0c1-900e-4ab3-a498-840ac1608486"},"period":{"start":"1975-03-03T08:00:00+00:00"},"payor":[{"reference":"Organization/282e3fdf-d2ce-44b6-9129-94f730a4eec2"}]},"request":{"method":"PUT","url":"Coverage/91f62d53-f066-4fee-8aa8-840bd023afe0"}},{"fullUrl":"https://madie.cms.gov/Location/47486499-4635-48ee-a0ae-f739ebea0766","resource":{"resourceType":"Location","id":"47486499-4635-48ee-a0ae-f739ebea0766","type":[{"coding":[{"system":"http://cts.nlm.nih.gov/fhir/cs/hsloc","version":"2020","code":"1025-6","display":"Trauma Critical Care","userSelected":true}]}]},"request":{"method":"PUT","url":"Location/47486499-4635-48ee-a0ae-f739ebea0766"}},{"fullUrl":"https://madie.cms.gov/Location/388dfaac-8856-46d0-8282-a43c257b8f79","resource":{"resourceType":"Location","id":"388dfaac-8856-46d0-8282-a43c257b8f79","meta":{"profile":["http://hl7.org/fhir/us/qicore/StructureDefinition/qicore-location"]},"identifier":[{"use":"usual","system":"http://exampleoflocation.com","value":"B1-S.F2"}],"name":"Medical Surgical East, first floor","type":[{"coding":[{"system":"https://www.cdc.gov/nhsn/cdaportal/terminology/codesystem/hsloc.html","code":"1025-6","display":"Trauma Critical Care","userSelected":true}]}]},"request":{"method":"PUT","url":"Location/388dfaac-8856-46d0-8282-a43c257b8f79"}},{"fullUrl":"https://madie.cms.gov/Organization/282e3fdf-d2ce-44b6-9129-94f730a4eec2","resource":{"resourceType":"Organization","id":"282e3fdf-d2ce-44b6-9129-94f730a4eec2","meta":{"profile":["http://hl7.org/fhir/us/qicore/StructureDefinition/qicore-organization"]},"identifier":[{"use":"temp","system":"urn:oid:2.16.840.1.113883.4.4","value":"21-3259825"}],"active":true,"type":[{"coding":[{"system":"http://terminology.hl7.org/CodeSystem/organization-type","code":"pay","display":"Payer"}]}],"name":"Blue Cross Blue Shield of Texas","telecom":[{"system":"phone","value":"(+1) 972-766-6900"}],"address":[{"use":"billing","type":"postal","line":["P.O. Box 660044"],"city":"Dallas","state":"TX","postalCode":"75266-0044","country":"USA"}]},"request":{"method":"PUT","url":"Organization/282e3fdf-d2ce-44b6-9129-94f730a4eec2"}},{"fullUrl":"https://madie.cms.gov/Practitioner/8ce83732-b9f6-4dbf-9326-1b648b54463a","resource":{"resourceType":"Practitioner","id":"8ce83732-b9f6-4dbf-9326-1b648b54463a","identifier":[{"system":"http://hl7.org/fhir/sid/us-npi","value":"123456"}],"name":[{"family":"Evil","prefix":["Dr"]}]},"request":{"method":"PUT","url":"Practitioner/8ce83732-b9f6-4dbf-9326-1b648b54463a"}},{"fullUrl":"https://madie.cms.gov/MeasureReport/94b6e9dc-67f4-4802-bf8f-d8a7d963b1c7","resource":{"resourceType":"MeasureReport","id":"94b6e9dc-67f4-4802-bf8f-d8a7d963b1c7","meta":{"profile":["http://hl7.org/fhir/us/cqfmeasures/StructureDefinition/test-case-cqfm"]},"contained":[{"resourceType":"Parameters","id":"31b9c6eb-475e-486f-bbb0-35a12ac6cbba-parameters","parameter":[{"name":"subject","valueString":"a82cd0c1-900e-4ab3-a498-840ac1608486"}]}],"extension":[{"url":"http://hl7.org/fhir/StructureDefinition/cqf-inputParameters","valueReference":{"reference":"#31b9c6eb-475e-486f-bbb0-35a12ac6cbba-parameters"}},{"url":"http://hl7.org/fhir/us/cqfmeasures/StructureDefinition/cqfm-testCaseDescription","valueMarkdown":"To test and cover CMO doNotPerform is true"}],"modifierExtension":[{"url":"http://hl7.org/fhir/us/cqfmeasures/StructureDefinition/cqfm-isTestCase","valueBoolean":true}],"status":"complete","type":"individual","measure":"https://madie.cms.gov/Measure/CMS190VTEProphylaxisICUFHIR","period":{"start":"2026-01-01","end":"2026-12-31"},"group":[{"id":"Group_1","population":[{"id":"InitialPopulation_1","code":{"coding":[{"system":"http://terminology.hl7.org/CodeSystem/measure-population","code":"initial-population","display":"Initial Population"}]},"count":1},{"id":"Denominator_1","code":{"coding":[{"system":"http://terminology.hl7.org/CodeSystem/measure-population","code":"denominator","display":"Denominator"}]},"count":1},{"id":"DenominatorExclusion_1","code":{"coding":[{"system":"http://terminology.hl7.org/CodeSystem/measure-population","code":"denominator-exclusion","display":"Denominator Exclusion"}]},"count":0},{"id":"Numerator_1","code":{"coding":[{"system":"http://terminology.hl7.org/CodeSystem/measure-population","code":"numerator","display":"Numerator"}]},"count":0},{"id":"DenominatorException_1","code":{"coding":[{"system":"http://terminology.hl7.org/CodeSystem/measure-population","code":"denominator-exception","display":"Denominator Exception"}]},"count":0}],"measureScore":{"value":0.0}}],"evaluatedResource":[{"reference":"Patient/a82cd0c1-900e-4ab3-a498-840ac1608486"},{"reference":"Encounter/ca2a4ff2-c5f6-4262-b59d-d36349f44647"},{"reference":"Encounter/9dfffc71-2c6b-45e4-875f-c3b1f561f151"},{"reference":"ServiceRequest/0707af6b-9f2b-4424-ae7d-0a80c1d4f0aa"},{"reference":"Coverage/91f62d53-f066-4fee-8aa8-840bd023afe0"},{"reference":"Location/47486499-4635-48ee-a0ae-f739ebea0766"},{"reference":"Location/388dfaac-8856-46d0-8282-a43c257b8f79"},{"reference":"Organization/282e3fdf-d2ce-44b6-9129-94f730a4eec2"},{"reference":"Practitioner/8ce83732-b9f6-4dbf-9326-1b648b54463a"}]},"request":{"method":"PUT","url":"MeasureReport/94b6e9dc-67f4-4802-bf8f-d8a7d963b1c7"}}]},"request":{"method":"PUT","url":"Bundle/612e6e7d02c62a011f2ee908"}},{"resource":{"resourceType":"Encounter","id":"9dfffc71-2c6b-45e4-875f-c3b1f561f151","meta":{"profile":["http://hl7.org/fhir/us/qicore/StructureDefinition/qicore-encounter"]},"status":"finished","class":{"system":"http://terminology.hl7.org/CodeSystem/v3-ActCode","code":"IMP","display":"inpatient encounter"},"type":[{"coding":[{"system":"http://snomed.info/sct","code":"8715000"}]}],"subject":{"reference":"Patient/a82cd0c1-900e-4ab3-a498-840ac1608486"},"period":{"start":"2026-12-04T08:00:00+00:00","end":"2026-12-30T08:15:00.000+00:00"},"length":{"value":26,"unit":"days"},"location":[{"location":{"reference":"Location/388dfaac-8856-46d0-8282-a43c257b8f79"},"period":{"start":"2026-12-26T08:00:00+00:00","end":"2026-12-28T08:15:00.000+00:00"}}]},"request":{"method":"PUT","url":"Encounter/9dfffc71-2c6b-45e4-875f-c3b1f561f151"}},{"resource":{"resourceType":"Encounter","id":"ca2a4ff2-c5f6-4262-b59d-d36349f44647","meta":{"profile":["http://hl7.org/fhir/us/qicore/StructureDefinition/qicore-encounter"]},"status":"finished","class":{"system":"http://terminology.hl7.org/CodeSystem/v3-ActCode","code":"EMER","display":"emergency"},"type":[{"coding":[{"system":"http://snomed.info/sct","code":"4525004"}]}],"subject":{"reference":"Patient/a82cd0c1-900e-4ab3-a498-840ac1608486"},"period":{"start":"2026-12-04T06:00:00+00:00","end":"2026-12-04T07:15:00.000+00:00"},"length":{"value":0,"unit":"days"}},"request":{"method":"PUT","url":"Encounter/ca2a4ff2-c5f6-4262-b59d-d36349f44647"}},{"resource":{"resourceType":"Coverage","id":"91f62d53-f066-4fee-8aa8-840bd023afe0","status":"active","beneficiary":{"reference":"Patient/a82cd0c1-900e-4ab3-a498-840ac1608486"},"period":{"start":"1975-03-03T08:00:00+00:00"},"payor":[{"reference":"Organization/282e3fdf-d2ce-44b6-9129-94f730a4eec2"}]},"request":{"method":"PUT","url":"Coverage/91f62d53-f066-4fee-8aa8-840bd023afe0"}}]}