{"resourceType":"Bundle","id":"tests-6f2d7289-6559-4e18-95be-7d52e61e161b-bundle","type":"transaction","entry":[{"fullUrl":"Bundle/612e6f3b02c62a011f2f11ba","resource":{"resourceType":"Bundle","id":"612e6f3b02c62a011f2f11ba","type":"transaction","entry":[{"fullUrl":"https://madie.cms.gov/Patient/6f2d7289-6559-4e18-95be-7d52e61e161b","resource":{"resourceType":"Patient","id":"6f2d7289-6559-4e18-95be-7d52e61e161b","meta":{"profile":["http://hl7.org/fhir/us/qicore/StructureDefinition/qicore-patient"]},"text":{"status":"generated","div":"<div xmlns=\"http://www.w3.org/1999/xhtml\"><div class=\"hapiHeaderText\">EncEndsAfterMP <b>IPFAIL </b></div><table class=\"hapiPropertyTable\"><tbody><tr><td>Identifier</td><td>b1d28eead06b6f01d6aa6061622efda1</td></tr><tr><td>Date of birth</td><td><span>03 March 1974</span></td></tr></tbody></table></div>"},"extension":[{"url":"http://hl7.org/fhir/us/core/StructureDefinition/us-core-race","extension":[{"url":"ombCategory","valueCoding":{"system":"urn:oid:2.16.840.1.113883.6.238","code":"1002-5","display":"American Indian or Alaska Native","userSelected":true}},{"url":"text","valueString":"American Indian or Alaska Native"}]},{"url":"http://hl7.org/fhir/us/core/StructureDefinition/us-core-ethnicity","extension":[{"url":"ombCategory","valueCoding":{"system":"urn:oid:2.16.840.1.113883.6.238","code":"2135-2","display":"Hispanic or Latino","userSelected":true}},{"url":"text","valueString":"Hispanic or Latino"}]}],"identifier":[{"type":{"coding":[{"system":"http://terminology.hl7.org/CodeSystem/v2-0203","code":"MR"}]},"system":"https://bonnie-fhir.healthit.gov/","value":"612e6f3b02c62a011f2f11ba"}],"active":true,"name":[{"use":"usual","family":"IPFail","given":["EncEndsAfterMP"]}],"gender":"female","birthDate":"1975-03-03"},"request":{"method":"PUT","url":"Patient/6f2d7289-6559-4e18-95be-7d52e61e161b"}},{"fullUrl":"https://madie.cms.gov/Encounter/1f2e556d-694c-4965-bf3b-47b228f524c2","resource":{"resourceType":"Encounter","id":"1f2e556d-694c-4965-bf3b-47b228f524c2","meta":{"profile":["http://hl7.org/fhir/us/qicore/StructureDefinition/qicore-encounter"]},"status":"finished","class":{"system":"http://terminology.hl7.org/CodeSystem/v3-ActCode","code":"IMP","display":"inpatient encounter"},"type":[{"coding":[{"system":"http://snomed.info/sct","code":"8715000"}]}],"subject":{"reference":"Patient/6f2d7289-6559-4e18-95be-7d52e61e161b"},"period":{"start":"2026-12-25T08:00:00.000+00:00","end":"2027-01-01T08:15:00.000+00:00"},"length":{"value":7.0,"unit":"days"},"location":[{"location":{"reference":"Location/045df11e-30e0-4098-8c02-dcff03398f8c"},"period":{"start":"2026-12-26T08:00:00.000+00:00","end":"2026-12-28T08:15:00.000+00:00"}}]},"request":{"method":"PUT","url":"Encounter/1f2e556d-694c-4965-bf3b-47b228f524c2"}},{"fullUrl":"https://madie.cms.gov/Coverage/910ecfa6-b132-4a2a-b850-0303fa8c8e5f","resource":{"resourceType":"Coverage","id":"910ecfa6-b132-4a2a-b850-0303fa8c8e5f","status":"active","beneficiary":{"reference":"Patient/6f2d7289-6559-4e18-95be-7d52e61e161b"},"period":{"start":"1975-03-03T08:00:00.000+00:00"},"payor":[{"reference":"Organization/1f771159-13f4-4258-9fae-3f38173a67c1"}]},"request":{"method":"PUT","url":"Coverage/910ecfa6-b132-4a2a-b850-0303fa8c8e5f"}},{"fullUrl":"https://madie.cms.gov/Condition/80221b29-0445-4eff-8fa1-b9ffa6da1fe8","resource":{"resourceType":"Condition","id":"80221b29-0445-4eff-8fa1-b9ffa6da1fe8","meta":{"profile":["http://hl7.org/fhir/us/qicore/StructureDefinition/qicore-condition"]},"category":[{"coding":[{"system":"http://terminology.hl7.org/CodeSystem/condition-category","code":"problem-list-item","display":"Problem List Item"}]}],"code":{"coding":[{"system":"http://hl7.org/fhir/sid/icd-10-cm","code":"I26.09"},{"system":"http://hl7.org/fhir/sid/icd-9-cm","code":"415.11"},{"system":"http://snomed.info/sct","code":"132251000119101"}]},"subject":{"reference":"Patient/6f2d7289-6559-4e18-95be-7d52e61e161b"},"onsetPeriod":{"start":"2026-10-04T08:00:00.000+00:00","end":"2026-10-05T08:15:00.000+00:00"}},"request":{"method":"PUT","url":"Condition/80221b29-0445-4eff-8fa1-b9ffa6da1fe8"}},{"fullUrl":"https://madie.cms.gov/Location/045df11e-30e0-4098-8c02-dcff03398f8c","resource":{"resourceType":"Location","id":"045df11e-30e0-4098-8c02-dcff03398f8c","meta":{"profile":["http://hl7.org/fhir/us/qicore/StructureDefinition/qicore-location"]},"identifier":[{"use":"usual","system":"http://exampleoflocation.com","value":"B1-S.F2"}],"name":"Medical Surgical East, first floor","type":[{"coding":[{"system":"https://www.cdc.gov/nhsn/cdaportal/terminology/codesystem/hsloc.html","code":"1025-6","display":"Trauma Critical Care","userSelected":true}]}]},"request":{"method":"PUT","url":"Location/045df11e-30e0-4098-8c02-dcff03398f8c"}},{"fullUrl":"https://madie.cms.gov/Organization/1f771159-13f4-4258-9fae-3f38173a67c1","resource":{"resourceType":"Organization","id":"1f771159-13f4-4258-9fae-3f38173a67c1","meta":{"profile":["http://hl7.org/fhir/us/qicore/StructureDefinition/qicore-organization"]},"identifier":[{"use":"temp","system":"urn:oid:2.16.840.1.113883.4.4","value":"21-3259825"}],"active":true,"type":[{"coding":[{"system":"http://terminology.hl7.org/CodeSystem/organization-type","code":"pay","display":"Payer"}]}],"name":"Blue Cross Blue Shield of Texas","telecom":[{"system":"phone","value":"(+1) 972-766-6900"}],"address":[{"use":"billing","type":"postal","line":["P.O. Box 660044"],"city":"Dallas","state":"TX","postalCode":"75266-0044","country":"USA"}]},"request":{"method":"PUT","url":"Organization/1f771159-13f4-4258-9fae-3f38173a67c1"}},{"fullUrl":"https://madie.cms.gov/Practitioner/39ef356c-ab0e-40ea-8f55-a769dfc1b28c","resource":{"resourceType":"Practitioner","id":"39ef356c-ab0e-40ea-8f55-a769dfc1b28c","identifier":[{"system":"http://hl7.org/fhir/sid/us-npi","value":"123456"}],"name":[{"family":"Evil","prefix":["Dr"]}]},"request":{"method":"PUT","url":"Practitioner/39ef356c-ab0e-40ea-8f55-a769dfc1b28c"}},{"fullUrl":"https://madie.cms.gov/MeasureReport/b18a5057-47dd-46b4-92b1-3a89ba9372e3","resource":{"resourceType":"MeasureReport","id":"b18a5057-47dd-46b4-92b1-3a89ba9372e3","meta":{"profile":["http://hl7.org/fhir/us/cqfmeasures/StructureDefinition/test-case-cqfm"]},"contained":[{"resourceType":"Parameters","id":"f01f49dd-31a8-4ca1-a8d7-996723031333-parameters","parameter":[{"name":"subject","valueString":"6f2d7289-6559-4e18-95be-7d52e61e161b"}]}],"extension":[{"url":"http://hl7.org/fhir/StructureDefinition/cqf-inputParameters","valueReference":{"reference":"#f01f49dd-31a8-4ca1-a8d7-996723031333-parameters"}},{"url":"http://hl7.org/fhir/us/cqfmeasures/StructureDefinition/cqfm-testCaseDescription","valueMarkdown":"EncEndsAfterMP\n"}],"modifierExtension":[{"url":"http://hl7.org/fhir/us/cqfmeasures/StructureDefinition/cqfm-isTestCase","valueBoolean":true}],"status":"complete","type":"individual","measure":"https://madie.cms.gov/Measure/CMS190VTEProphylaxisICUFHIR","period":{"start":"2026-01-01","end":"2026-12-31"},"group":[{"id":"Group_1","population":[{"id":"InitialPopulation_1","code":{"coding":[{"system":"http://terminology.hl7.org/CodeSystem/measure-population","code":"initial-population","display":"Initial Population"}]},"count":0},{"id":"Denominator_1","code":{"coding":[{"system":"http://terminology.hl7.org/CodeSystem/measure-population","code":"denominator","display":"Denominator"}]},"count":0},{"id":"DenominatorExclusion_1","code":{"coding":[{"system":"http://terminology.hl7.org/CodeSystem/measure-population","code":"denominator-exclusion","display":"Denominator Exclusion"}]},"count":0},{"id":"Numerator_1","code":{"coding":[{"system":"http://terminology.hl7.org/CodeSystem/measure-population","code":"numerator","display":"Numerator"}]},"count":0},{"id":"DenominatorException_1","code":{"coding":[{"system":"http://terminology.hl7.org/CodeSystem/measure-population","code":"denominator-exception","display":"Denominator Exception"}]},"count":0}],"measureScore":{"value":0.0}}],"evaluatedResource":[{"reference":"Patient/6f2d7289-6559-4e18-95be-7d52e61e161b"},{"reference":"Encounter/1f2e556d-694c-4965-bf3b-47b228f524c2"},{"reference":"Coverage/910ecfa6-b132-4a2a-b850-0303fa8c8e5f"},{"reference":"Condition/80221b29-0445-4eff-8fa1-b9ffa6da1fe8"},{"reference":"Location/045df11e-30e0-4098-8c02-dcff03398f8c"},{"reference":"Organization/1f771159-13f4-4258-9fae-3f38173a67c1"},{"reference":"Practitioner/39ef356c-ab0e-40ea-8f55-a769dfc1b28c"}]},"request":{"method":"PUT","url":"MeasureReport/b18a5057-47dd-46b4-92b1-3a89ba9372e3"}}]},"request":{"method":"PUT","url":"Bundle/612e6f3b02c62a011f2f11ba"}},{"fullUrl":"Organization/1f771159-13f4-4258-9fae-3f38173a67c1","resource":{"resourceType":"Organization","id":"1f771159-13f4-4258-9fae-3f38173a67c1","meta":{"profile":["http://hl7.org/fhir/us/qicore/StructureDefinition/qicore-organization"]},"identifier":[{"use":"temp","system":"urn:oid:2.16.840.1.113883.4.4","value":"21-3259825"}],"active":true,"type":[{"coding":[{"system":"http://terminology.hl7.org/CodeSystem/organization-type","code":"pay","display":"Payer"}]}],"name":"Blue Cross Blue Shield of Texas","telecom":[{"system":"phone","value":"(+1) 972-766-6900"}],"address":[{"use":"billing","type":"postal","line":["P.O. Box 660044"],"city":"Dallas","state":"TX","postalCode":"75266-0044","country":"USA"}]},"request":{"method":"PUT","url":"Organization/1f771159-13f4-4258-9fae-3f38173a67c1"}},{"fullUrl":"Practitioner/39ef356c-ab0e-40ea-8f55-a769dfc1b28c","resource":{"resourceType":"Practitioner","id":"39ef356c-ab0e-40ea-8f55-a769dfc1b28c","identifier":[{"system":"http://hl7.org/fhir/sid/us-npi","value":"123456"}],"name":[{"family":"Evil","prefix":["Dr"]}]},"request":{"method":"PUT","url":"Practitioner/39ef356c-ab0e-40ea-8f55-a769dfc1b28c"}},{"fullUrl":"Condition/80221b29-0445-4eff-8fa1-b9ffa6da1fe8","resource":{"resourceType":"Condition","id":"80221b29-0445-4eff-8fa1-b9ffa6da1fe8","meta":{"profile":["http://hl7.org/fhir/us/qicore/StructureDefinition/qicore-condition"]},"category":[{"coding":[{"system":"http://terminology.hl7.org/CodeSystem/condition-category","code":"problem-list-item","display":"Problem List Item"}]}],"code":{"coding":[{"system":"http://hl7.org/fhir/sid/icd-10-cm","code":"I26.09"},{"system":"http://hl7.org/fhir/sid/icd-9-cm","code":"415.11"},{"system":"http://snomed.info/sct","code":"132251000119101"}]},"subject":{"reference":"Patient/6f2d7289-6559-4e18-95be-7d52e61e161b"},"onsetPeriod":{"start":"2026-10-04T08:00:00.000+00:00","end":"2026-10-05T08:15:00.000+00:00"}},"request":{"method":"PUT","url":"Condition/80221b29-0445-4eff-8fa1-b9ffa6da1fe8"}},{"fullUrl":"Location/045df11e-30e0-4098-8c02-dcff03398f8c","resource":{"resourceType":"Location","id":"045df11e-30e0-4098-8c02-dcff03398f8c","meta":{"profile":["http://hl7.org/fhir/us/qicore/StructureDefinition/qicore-location"]},"identifier":[{"use":"usual","system":"http://exampleoflocation.com","value":"B1-S.F2"}],"name":"Medical Surgical East, first floor","type":[{"coding":[{"system":"https://www.cdc.gov/nhsn/cdaportal/terminology/codesystem/hsloc.html","code":"1025-6","display":"Trauma Critical Care","userSelected":true}]}]},"request":{"method":"PUT","url":"Location/045df11e-30e0-4098-8c02-dcff03398f8c"}},{"fullUrl":"MeasureReport/b18a5057-47dd-46b4-92b1-3a89ba9372e3","resource":{"resourceType":"MeasureReport","id":"b18a5057-47dd-46b4-92b1-3a89ba9372e3","meta":{"profile":["http://hl7.org/fhir/us/cqfmeasures/StructureDefinition/test-case-cqfm"]},"contained":[{"resourceType":"Parameters","id":"f01f49dd-31a8-4ca1-a8d7-996723031333-parameters","parameter":[{"name":"subject","valueString":"6f2d7289-6559-4e18-95be-7d52e61e161b"}]}],"extension":[{"url":"http://hl7.org/fhir/StructureDefinition/cqf-inputParameters","valueReference":{"reference":"#f01f49dd-31a8-4ca1-a8d7-996723031333-parameters"}},{"url":"http://hl7.org/fhir/us/cqfmeasures/StructureDefinition/cqfm-testCaseDescription","valueMarkdown":"EncEndsAfterMP\n"}],"modifierExtension":[{"url":"http://hl7.org/fhir/us/cqfmeasures/StructureDefinition/cqfm-isTestCase","valueBoolean":true}],"status":"complete","type":"individual","measure":"https://madie.cms.gov/Measure/CMS190VTEProphylaxisICUFHIR","period":{"start":"2026-01-01","end":"2026-12-31"},"group":[{"id":"Group_1","population":[{"id":"InitialPopulation_1","code":{"coding":[{"system":"http://terminology.hl7.org/CodeSystem/measure-population","code":"initial-population","display":"Initial Population"}]},"count":0},{"id":"Denominator_1","code":{"coding":[{"system":"http://terminology.hl7.org/CodeSystem/measure-population","code":"denominator","display":"Denominator"}]},"count":0},{"id":"DenominatorExclusion_1","code":{"coding":[{"system":"http://terminology.hl7.org/CodeSystem/measure-population","code":"denominator-exclusion","display":"Denominator Exclusion"}]},"count":0},{"id":"Numerator_1","code":{"coding":[{"system":"http://terminology.hl7.org/CodeSystem/measure-population","code":"numerator","display":"Numerator"}]},"count":0},{"id":"DenominatorException_1","code":{"coding":[{"system":"http://terminology.hl7.org/CodeSystem/measure-population","code":"denominator-exception","display":"Denominator Exception"}]},"count":0}],"measureScore":{"value":0.0}}],"evaluatedResource":[{"reference":"Patient/6f2d7289-6559-4e18-95be-7d52e61e161b"},{"reference":"Encounter/1f2e556d-694c-4965-bf3b-47b228f524c2"},{"reference":"Coverage/910ecfa6-b132-4a2a-b850-0303fa8c8e5f"},{"reference":"Condition/80221b29-0445-4eff-8fa1-b9ffa6da1fe8"},{"reference":"Location/045df11e-30e0-4098-8c02-dcff03398f8c"},{"reference":"Organization/1f771159-13f4-4258-9fae-3f38173a67c1"},{"reference":"Practitioner/39ef356c-ab0e-40ea-8f55-a769dfc1b28c"}]},"request":{"method":"PUT","url":"MeasureReport/b18a5057-47dd-46b4-92b1-3a89ba9372e3"}},{"fullUrl":"Encounter/1f2e556d-694c-4965-bf3b-47b228f524c2","resource":{"resourceType":"Encounter","id":"1f2e556d-694c-4965-bf3b-47b228f524c2","meta":{"profile":["http://hl7.org/fhir/us/qicore/StructureDefinition/qicore-encounter"]},"status":"finished","class":{"system":"http://terminology.hl7.org/CodeSystem/v3-ActCode","code":"IMP","display":"inpatient encounter"},"type":[{"coding":[{"system":"http://snomed.info/sct","code":"8715000"}]}],"subject":{"reference":"Patient/6f2d7289-6559-4e18-95be-7d52e61e161b"},"period":{"start":"2026-12-25T08:00:00.000+00:00","end":"2027-01-01T08:15:00.000+00:00"},"length":{"value":7.0,"unit":"days"},"location":[{"location":{"reference":"Location/045df11e-30e0-4098-8c02-dcff03398f8c"},"period":{"start":"2026-12-26T08:00:00.000+00:00","end":"2026-12-28T08:15:00.000+00:00"}}]},"request":{"method":"PUT","url":"Encounter/1f2e556d-694c-4965-bf3b-47b228f524c2"}},{"fullUrl":"Patient/6f2d7289-6559-4e18-95be-7d52e61e161b","resource":{"resourceType":"Patient","id":"6f2d7289-6559-4e18-95be-7d52e61e161b","meta":{"profile":["http://hl7.org/fhir/us/qicore/StructureDefinition/qicore-patient"]},"text":{"status":"generated","div":"<div xmlns=\"http://www.w3.org/1999/xhtml\"><div class=\"hapiHeaderText\">EncEndsAfterMP <b>IPFAIL </b></div><table class=\"hapiPropertyTable\"><tbody><tr><td>Identifier</td><td>b1d28eead06b6f01d6aa6061622efda1</td></tr><tr><td>Date of birth</td><td><span>03 March 1974</span></td></tr></tbody></table></div>"},"extension":[{"url":"http://hl7.org/fhir/us/core/StructureDefinition/us-core-race","extension":[{"url":"ombCategory","valueCoding":{"system":"urn:oid:2.16.840.1.113883.6.238","code":"1002-5","display":"American Indian or Alaska Native","userSelected":true}},{"url":"text","valueString":"American Indian or Alaska Native"}]},{"url":"http://hl7.org/fhir/us/core/StructureDefinition/us-core-ethnicity","extension":[{"url":"ombCategory","valueCoding":{"system":"urn:oid:2.16.840.1.113883.6.238","code":"2135-2","display":"Hispanic or Latino","userSelected":true}},{"url":"text","valueString":"Hispanic or Latino"}]}],"identifier":[{"type":{"coding":[{"system":"http://terminology.hl7.org/CodeSystem/v2-0203","code":"MR"}]},"system":"https://bonnie-fhir.healthit.gov/","value":"612e6f3b02c62a011f2f11ba"}],"active":true,"name":[{"use":"usual","family":"IPFail","given":["EncEndsAfterMP"]}],"gender":"female","birthDate":"1975-03-03"},"request":{"method":"PUT","url":"Patient/6f2d7289-6559-4e18-95be-7d52e61e161b"}},{"fullUrl":"Coverage/910ecfa6-b132-4a2a-b850-0303fa8c8e5f","resource":{"resourceType":"Coverage","id":"910ecfa6-b132-4a2a-b850-0303fa8c8e5f","status":"active","beneficiary":{"reference":"Patient/6f2d7289-6559-4e18-95be-7d52e61e161b"},"period":{"start":"1975-03-03T08:00:00.000+00:00"},"payor":[{"reference":"Organization/1f771159-13f4-4258-9fae-3f38173a67c1"}]},"request":{"method":"PUT","url":"Coverage/910ecfa6-b132-4a2a-b850-0303fa8c8e5f"}}]}