{"resourceType":"Bundle","id":"tests-0b727e44-0d5a-413b-8114-ab9bb7cce80e-bundle","type":"transaction","entry":[{"resource":{"resourceType":"Patient","id":"0b727e44-0d5a-413b-8114-ab9bb7cce80e","meta":{"profile":["http://hl7.org/fhir/us/qicore/StructureDefinition/qicore-patient"]},"text":{"status":"generated","div":"<div xmlns=\"http://www.w3.org/1999/xhtml\"><div class=\"hapiHeaderText\">AVFPDuringICU<b>NUMERPASS </b></div><table class=\"hapiPropertyTable\"><tbody><tr><td>Identifier</td><td>f9dd0d7a6a9f775928ab2c47f31bfdd50dfc6c91e6f0b0e678b3985354333a28</td></tr><tr><td>Date of birth</td><td><span>03 March 1974</span></td></tr></tbody></table></div>"},"extension":[{"url":"http://hl7.org/fhir/us/core/StructureDefinition/us-core-race","extension":[{"url":"ombCategory","valueCoding":{"system":"urn:oid:2.16.840.1.113883.6.238","code":"1002-5","display":"American Indian or Alaska Native","userSelected":true}},{"url":"text","valueString":"American Indian or Alaska Native"}]},{"url":"http://hl7.org/fhir/us/core/StructureDefinition/us-core-ethnicity","extension":[{"url":"ombCategory","valueCoding":{"system":"urn:oid:2.16.840.1.113883.6.238","code":"2135-2","display":"Hispanic or Latino","userSelected":true}},{"url":"text","valueString":"Hispanic or Latino"}]}],"identifier":[{"type":{"coding":[{"system":"http://terminology.hl7.org/CodeSystem/v2-0203","code":"MR"}]},"system":"https://bonnie-fhir.healthit.gov/","value":"612e6f6e02c62a011f2f1d45"}],"active":true,"name":[{"use":"usual","family":"NUMERPass","given":["DAVFPDuringICU"]}],"gender":"female","birthDate":"1975-03-03"},"request":{"method":"PUT","url":"Patient/0b727e44-0d5a-413b-8114-ab9bb7cce80e"}},{"resource":{"resourceType":"Coverage","id":"2323dc5c-1d98-44c8-853f-cdfe926cb684","status":"active","beneficiary":{"reference":"Patient/0b727e44-0d5a-413b-8114-ab9bb7cce80e"},"period":{"start":"1975-03-03T08:00:00.000+00:00"},"payor":[{"reference":"Organization/1c87c9a4-e97a-490b-9fd4-16c422797a74"}]},"request":{"method":"PUT","url":"Coverage/2323dc5c-1d98-44c8-853f-cdfe926cb684"}},{"resource":{"resourceType":"Procedure","id":"fc3142f4-5fbf-4da6-bb6c-8b39fc83a2ac","meta":{"profile":["http://hl7.org/fhir/us/qicore/StructureDefinition/qicore-procedure"]},"extension":[{"url":"http://hl7.org/fhir/us/qicore/StructureDefinition/qicore-recorded","valueDateTime":"2026-03-26T13:35:00.000+00:00"}],"status":"completed","code":{"coding":[{"system":"http://snomed.info/sct","code":"424831005","display":"Application of foot pump (procedure)"}]},"subject":{"reference":"Patient/0b727e44-0d5a-413b-8114-ab9bb7cce80e"},"performedPeriod":{"start":"2026-03-22T08:20:00.000+00:00","end":"2026-03-22T08:25:00.000+00:00"}},"request":{"method":"PUT","url":"Procedure/fc3142f4-5fbf-4da6-bb6c-8b39fc83a2ac"}},{"resource":{"resourceType":"Location","id":"786e0860-51cb-4bc4-9c95-03eac3db2a2f","meta":{"profile":["http://hl7.org/fhir/us/qicore/StructureDefinition/qicore-location"]},"identifier":[{"use":"usual","system":"http://exampleoflocation.com","value":"B1-S.F2"}],"name":"Medical Surgical East, first floor","type":[{"coding":[{"system":"https://www.cdc.gov/nhsn/cdaportal/terminology/codesystem/hsloc.html","code":"1025-6","display":"Trauma Critical Care","userSelected":true}]}]},"request":{"method":"PUT","url":"Location/786e0860-51cb-4bc4-9c95-03eac3db2a2f"}},{"resource":{"resourceType":"MeasureReport","id":"cbbe13e4-3395-4550-b552-ef8ca2d586e6","meta":{"profile":["http://hl7.org/fhir/us/cqfmeasures/StructureDefinition/test-case-cqfm"]},"contained":[{"resourceType":"Parameters","id":"4f6c6c52-b16c-4be1-a899-2840d6d7003d-parameters","parameter":[{"name":"subject","valueString":"0b727e44-0d5a-413b-8114-ab9bb7cce80e"}]}],"extension":[{"url":"http://hl7.org/fhir/StructureDefinition/cqf-inputParameters","valueReference":{"reference":"#4f6c6c52-b16c-4be1-a899-2840d6d7003d-parameters"}},{"url":"http://hl7.org/fhir/us/cqfmeasures/StructureDefinition/cqfm-testCaseDescription","valueMarkdown":"Patient with VTE prophylaxis done by VFP applied "}],"modifierExtension":[{"url":"http://hl7.org/fhir/us/cqfmeasures/StructureDefinition/cqfm-isTestCase","valueBoolean":true}],"status":"complete","type":"individual","measure":"https://madie.cms.gov/Measure/CMS190VTEProphylaxisICUFHIR","period":{"start":"2026-01-01","end":"2026-12-31"},"group":[{"id":"Group_1","population":[{"id":"InitialPopulation_1","code":{"coding":[{"system":"http://terminology.hl7.org/CodeSystem/measure-population","code":"initial-population","display":"Initial Population"}]},"count":1},{"id":"Denominator_1","code":{"coding":[{"system":"http://terminology.hl7.org/CodeSystem/measure-population","code":"denominator","display":"Denominator"}]},"count":1},{"id":"DenominatorExclusion_1","code":{"coding":[{"system":"http://terminology.hl7.org/CodeSystem/measure-population","code":"denominator-exclusion","display":"Denominator Exclusion"}]},"count":0},{"id":"Numerator_1","code":{"coding":[{"system":"http://terminology.hl7.org/CodeSystem/measure-population","code":"numerator","display":"Numerator"}]},"count":1},{"id":"DenominatorException_1","code":{"coding":[{"system":"http://terminology.hl7.org/CodeSystem/measure-population","code":"denominator-exception","display":"Denominator Exception"}]},"count":0}],"measureScore":{"value":0.0}}],"evaluatedResource":[{"reference":"Patient/0b727e44-0d5a-413b-8114-ab9bb7cce80e"},{"reference":"Encounter/32545ce5-a7b1-40af-a5f9-93ba683914d7"},{"reference":"Coverage/2323dc5c-1d98-44c8-853f-cdfe926cb684"},{"reference":"Location/23898523-9111-48d9-bb1a-54b441f174dd"},{"reference":"Location/786e0860-51cb-4bc4-9c95-03eac3db2a2f"},{"reference":"Procedure/fc3142f4-5fbf-4da6-bb6c-8b39fc83a2ac"},{"reference":"Organization/1c87c9a4-e97a-490b-9fd4-16c422797a74"},{"reference":"Practitioner/76014e2b-f860-4b7d-9080-80b581ea660e"}]},"request":{"method":"PUT","url":"MeasureReport/cbbe13e4-3395-4550-b552-ef8ca2d586e6"}},{"resource":{"resourceType":"Location","id":"23898523-9111-48d9-bb1a-54b441f174dd","meta":{"profile":["http://hl7.org/fhir/us/qicore/StructureDefinition/qicore-location"]},"identifier":[{"use":"usual","system":"http://exampleoflocation.com","value":"B1-S.F2"}],"name":"Medical Surgical East, first floor","type":[{"coding":[{"system":"https://www.cdc.gov/nhsn/cdaportal/terminology/codesystem/hsloc.html","code":"1025-6","display":"Trauma Critical Care","userSelected":true}]}]},"request":{"method":"PUT","url":"Location/23898523-9111-48d9-bb1a-54b441f174dd"}},{"resource":{"resourceType":"Practitioner","id":"76014e2b-f860-4b7d-9080-80b581ea660e","identifier":[{"system":"http://hl7.org/fhir/sid/us-npi","value":"123456"}],"name":[{"family":"Evil","prefix":["Dr"]}]},"request":{"method":"PUT","url":"Practitioner/76014e2b-f860-4b7d-9080-80b581ea660e"}},{"resource":{"resourceType":"Encounter","id":"32545ce5-a7b1-40af-a5f9-93ba683914d7","meta":{"profile":["http://hl7.org/fhir/us/qicore/StructureDefinition/qicore-encounter"]},"status":"finished","class":{"system":"http://terminology.hl7.org/CodeSystem/v3-ActCode","code":"IMP","display":"inpatient encounter"},"type":[{"coding":[{"system":"http://snomed.info/sct","code":"183452005"}]}],"subject":{"reference":"Patient/0b727e44-0d5a-413b-8114-ab9bb7cce80e"},"period":{"start":"2026-03-22T08:00:00.000+00:00","end":"2026-03-26T08:15:00.000+00:00"},"length":{"value":4,"unit":"days"},"location":[{"location":{"reference":"Location/23898523-9111-48d9-bb1a-54b441f174dd"},"period":{"start":"2026-03-22T08:15:00.000+00:00","end":"2026-03-24T08:00:00.000+00:00"}}]},"request":{"method":"PUT","url":"Encounter/32545ce5-a7b1-40af-a5f9-93ba683914d7"}},{"resource":{"resourceType":"Bundle","id":"612e6f6e02c62a011f2f1d45","type":"transaction","entry":[{"fullUrl":"https://madie.cms.gov/Patient/0b727e44-0d5a-413b-8114-ab9bb7cce80e","resource":{"resourceType":"Patient","id":"0b727e44-0d5a-413b-8114-ab9bb7cce80e","meta":{"profile":["http://hl7.org/fhir/us/qicore/StructureDefinition/qicore-patient"]},"text":{"status":"generated","div":"<div xmlns=\"http://www.w3.org/1999/xhtml\"><div class=\"hapiHeaderText\">AVFPDuringICU<b>NUMERPASS </b></div><table class=\"hapiPropertyTable\"><tbody><tr><td>Identifier</td><td>f9dd0d7a6a9f775928ab2c47f31bfdd50dfc6c91e6f0b0e678b3985354333a28</td></tr><tr><td>Date of birth</td><td><span>03 March 1974</span></td></tr></tbody></table></div>"},"extension":[{"url":"http://hl7.org/fhir/us/core/StructureDefinition/us-core-race","extension":[{"url":"ombCategory","valueCoding":{"system":"urn:oid:2.16.840.1.113883.6.238","code":"1002-5","display":"American Indian or Alaska Native","userSelected":true}},{"url":"text","valueString":"American Indian or Alaska Native"}]},{"url":"http://hl7.org/fhir/us/core/StructureDefinition/us-core-ethnicity","extension":[{"url":"ombCategory","valueCoding":{"system":"urn:oid:2.16.840.1.113883.6.238","code":"2135-2","display":"Hispanic or Latino","userSelected":true}},{"url":"text","valueString":"Hispanic or Latino"}]}],"identifier":[{"type":{"coding":[{"system":"http://terminology.hl7.org/CodeSystem/v2-0203","code":"MR"}]},"system":"https://bonnie-fhir.healthit.gov/","value":"612e6f6e02c62a011f2f1d45"}],"active":true,"name":[{"use":"usual","family":"NUMERPass","given":["DAVFPDuringICU"]}],"gender":"female","birthDate":"1975-03-03"},"request":{"method":"PUT","url":"Patient/0b727e44-0d5a-413b-8114-ab9bb7cce80e"}},{"fullUrl":"https://madie.cms.gov/Encounter/32545ce5-a7b1-40af-a5f9-93ba683914d7","resource":{"resourceType":"Encounter","id":"32545ce5-a7b1-40af-a5f9-93ba683914d7","meta":{"profile":["http://hl7.org/fhir/us/qicore/StructureDefinition/qicore-encounter"]},"status":"finished","class":{"system":"http://terminology.hl7.org/CodeSystem/v3-ActCode","code":"IMP","display":"inpatient encounter"},"type":[{"coding":[{"system":"http://snomed.info/sct","code":"183452005"}]}],"subject":{"reference":"Patient/0b727e44-0d5a-413b-8114-ab9bb7cce80e"},"period":{"start":"2026-03-22T08:00:00.000+00:00","end":"2026-03-26T08:15:00.000+00:00"},"length":{"value":4,"unit":"days"},"location":[{"location":{"reference":"Location/23898523-9111-48d9-bb1a-54b441f174dd"},"period":{"start":"2026-03-22T08:15:00.000+00:00","end":"2026-03-24T08:00:00.000+00:00"}}]},"request":{"method":"PUT","url":"Encounter/32545ce5-a7b1-40af-a5f9-93ba683914d7"}},{"fullUrl":"https://madie.cms.gov/Coverage/2323dc5c-1d98-44c8-853f-cdfe926cb684","resource":{"resourceType":"Coverage","id":"2323dc5c-1d98-44c8-853f-cdfe926cb684","status":"active","beneficiary":{"reference":"Patient/0b727e44-0d5a-413b-8114-ab9bb7cce80e"},"period":{"start":"1975-03-03T08:00:00.000+00:00"},"payor":[{"reference":"Organization/1c87c9a4-e97a-490b-9fd4-16c422797a74"}]},"request":{"method":"PUT","url":"Coverage/2323dc5c-1d98-44c8-853f-cdfe926cb684"}},{"fullUrl":"https://madie.cms.gov/Location/23898523-9111-48d9-bb1a-54b441f174dd","resource":{"resourceType":"Location","id":"23898523-9111-48d9-bb1a-54b441f174dd","meta":{"profile":["http://hl7.org/fhir/us/qicore/StructureDefinition/qicore-location"]},"identifier":[{"use":"usual","system":"http://exampleoflocation.com","value":"B1-S.F2"}],"name":"Medical Surgical East, first floor","type":[{"coding":[{"system":"https://www.cdc.gov/nhsn/cdaportal/terminology/codesystem/hsloc.html","code":"1025-6","display":"Trauma Critical Care","userSelected":true}]}]},"request":{"method":"PUT","url":"Location/23898523-9111-48d9-bb1a-54b441f174dd"}},{"fullUrl":"https://madie.cms.gov/Location/786e0860-51cb-4bc4-9c95-03eac3db2a2f","resource":{"resourceType":"Location","id":"786e0860-51cb-4bc4-9c95-03eac3db2a2f","meta":{"profile":["http://hl7.org/fhir/us/qicore/StructureDefinition/qicore-location"]},"identifier":[{"use":"usual","system":"http://exampleoflocation.com","value":"B1-S.F2"}],"name":"Medical Surgical East, first floor","type":[{"coding":[{"system":"https://www.cdc.gov/nhsn/cdaportal/terminology/codesystem/hsloc.html","code":"1025-6","display":"Trauma Critical Care","userSelected":true}]}]},"request":{"method":"PUT","url":"Location/786e0860-51cb-4bc4-9c95-03eac3db2a2f"}},{"fullUrl":"https://madie.cms.gov/Procedure/fc3142f4-5fbf-4da6-bb6c-8b39fc83a2ac","resource":{"resourceType":"Procedure","id":"fc3142f4-5fbf-4da6-bb6c-8b39fc83a2ac","meta":{"profile":["http://hl7.org/fhir/us/qicore/StructureDefinition/qicore-procedure"]},"extension":[{"url":"http://hl7.org/fhir/us/qicore/StructureDefinition/qicore-recorded","valueDateTime":"2026-03-26T13:35:00.000+00:00"}],"status":"completed","code":{"coding":[{"system":"http://snomed.info/sct","code":"424831005","display":"Application of foot pump (procedure)"}]},"subject":{"reference":"Patient/0b727e44-0d5a-413b-8114-ab9bb7cce80e"},"performedPeriod":{"start":"2026-03-22T08:20:00.000+00:00","end":"2026-03-22T08:25:00.000+00:00"}},"request":{"method":"PUT","url":"Procedure/fc3142f4-5fbf-4da6-bb6c-8b39fc83a2ac"}},{"fullUrl":"https://madie.cms.gov/Organization/1c87c9a4-e97a-490b-9fd4-16c422797a74","resource":{"resourceType":"Organization","id":"1c87c9a4-e97a-490b-9fd4-16c422797a74","meta":{"profile":["http://hl7.org/fhir/us/qicore/StructureDefinition/qicore-organization"]},"identifier":[{"use":"temp","system":"urn:oid:2.16.840.1.113883.4.4","value":"21-3259825"}],"active":true,"type":[{"coding":[{"system":"http://terminology.hl7.org/CodeSystem/organization-type","code":"pay","display":"Payer"}]}],"name":"Blue Cross Blue Shield of Texas","telecom":[{"system":"phone","value":"(+1) 972-766-6900"}],"address":[{"use":"billing","type":"postal","line":["P.O. Box 660044"],"city":"Dallas","state":"TX","postalCode":"75266-0044","country":"USA"}]},"request":{"method":"PUT","url":"Organization/1c87c9a4-e97a-490b-9fd4-16c422797a74"}},{"fullUrl":"https://madie.cms.gov/Practitioner/76014e2b-f860-4b7d-9080-80b581ea660e","resource":{"resourceType":"Practitioner","id":"76014e2b-f860-4b7d-9080-80b581ea660e","identifier":[{"system":"http://hl7.org/fhir/sid/us-npi","value":"123456"}],"name":[{"family":"Evil","prefix":["Dr"]}]},"request":{"method":"PUT","url":"Practitioner/76014e2b-f860-4b7d-9080-80b581ea660e"}},{"fullUrl":"https://madie.cms.gov/MeasureReport/cbbe13e4-3395-4550-b552-ef8ca2d586e6","resource":{"resourceType":"MeasureReport","id":"cbbe13e4-3395-4550-b552-ef8ca2d586e6","meta":{"profile":["http://hl7.org/fhir/us/cqfmeasures/StructureDefinition/test-case-cqfm"]},"contained":[{"resourceType":"Parameters","id":"4f6c6c52-b16c-4be1-a899-2840d6d7003d-parameters","parameter":[{"name":"subject","valueString":"0b727e44-0d5a-413b-8114-ab9bb7cce80e"}]}],"extension":[{"url":"http://hl7.org/fhir/StructureDefinition/cqf-inputParameters","valueReference":{"reference":"#4f6c6c52-b16c-4be1-a899-2840d6d7003d-parameters"}},{"url":"http://hl7.org/fhir/us/cqfmeasures/StructureDefinition/cqfm-testCaseDescription","valueMarkdown":"Patient with VTE prophylaxis done by VFP applied "}],"modifierExtension":[{"url":"http://hl7.org/fhir/us/cqfmeasures/StructureDefinition/cqfm-isTestCase","valueBoolean":true}],"status":"complete","type":"individual","measure":"https://madie.cms.gov/Measure/CMS190VTEProphylaxisICUFHIR","period":{"start":"2026-01-01","end":"2026-12-31"},"group":[{"id":"Group_1","population":[{"id":"InitialPopulation_1","code":{"coding":[{"system":"http://terminology.hl7.org/CodeSystem/measure-population","code":"initial-population","display":"Initial Population"}]},"count":1},{"id":"Denominator_1","code":{"coding":[{"system":"http://terminology.hl7.org/CodeSystem/measure-population","code":"denominator","display":"Denominator"}]},"count":1},{"id":"DenominatorExclusion_1","code":{"coding":[{"system":"http://terminology.hl7.org/CodeSystem/measure-population","code":"denominator-exclusion","display":"Denominator Exclusion"}]},"count":0},{"id":"Numerator_1","code":{"coding":[{"system":"http://terminology.hl7.org/CodeSystem/measure-population","code":"numerator","display":"Numerator"}]},"count":1},{"id":"DenominatorException_1","code":{"coding":[{"system":"http://terminology.hl7.org/CodeSystem/measure-population","code":"denominator-exception","display":"Denominator Exception"}]},"count":0}],"measureScore":{"value":0.0}}],"evaluatedResource":[{"reference":"Patient/0b727e44-0d5a-413b-8114-ab9bb7cce80e"},{"reference":"Encounter/32545ce5-a7b1-40af-a5f9-93ba683914d7"},{"reference":"Coverage/2323dc5c-1d98-44c8-853f-cdfe926cb684"},{"reference":"Location/23898523-9111-48d9-bb1a-54b441f174dd"},{"reference":"Location/786e0860-51cb-4bc4-9c95-03eac3db2a2f"},{"reference":"Procedure/fc3142f4-5fbf-4da6-bb6c-8b39fc83a2ac"},{"reference":"Organization/1c87c9a4-e97a-490b-9fd4-16c422797a74"},{"reference":"Practitioner/76014e2b-f860-4b7d-9080-80b581ea660e"}]},"request":{"method":"PUT","url":"MeasureReport/cbbe13e4-3395-4550-b552-ef8ca2d586e6"}}]},"request":{"method":"PUT","url":"Bundle/612e6f6e02c62a011f2f1d45"}},{"resource":{"resourceType":"Organization","id":"1c87c9a4-e97a-490b-9fd4-16c422797a74","meta":{"profile":["http://hl7.org/fhir/us/qicore/StructureDefinition/qicore-organization"]},"identifier":[{"use":"temp","system":"urn:oid:2.16.840.1.113883.4.4","value":"21-3259825"}],"active":true,"type":[{"coding":[{"system":"http://terminology.hl7.org/CodeSystem/organization-type","code":"pay","display":"Payer"}]}],"name":"Blue Cross Blue Shield of Texas","telecom":[{"system":"phone","value":"(+1) 972-766-6900"}],"address":[{"use":"billing","type":"postal","line":["P.O. Box 660044"],"city":"Dallas","state":"TX","postalCode":"75266-0044","country":"USA"}]},"request":{"method":"PUT","url":"Organization/1c87c9a4-e97a-490b-9fd4-16c422797a74"}}]}