{"resourceType":"Bundle","id":"tests-28424502-1b12-461c-937e-d16c3c4716b7-bundle","type":"transaction","entry":[{"resource":{"resourceType":"Location","id":"6ae0697c-d9e8-481e-b170-c4d83e88a31e","meta":{"profile":["http://hl7.org/fhir/us/qicore/StructureDefinition/qicore-location"]},"identifier":[{"use":"usual","system":"http://exampleoflocation.com","value":"B1-S.F2"}],"name":"Medical Surgical East, first floor","type":[{"coding":[{"system":"https://www.cdc.gov/nhsn/cdaportal/terminology/codesystem/hsloc.html","version":"2020","code":"1025-6","display":"Trauma Critical Care","userSelected":true}]}]},"request":{"method":"PUT","url":"Location/6ae0697c-d9e8-481e-b170-c4d83e88a31e"}},{"resource":{"resourceType":"MedicationAdministration","id":"f98c7148-647e-4b76-91d6-748f26650730","meta":{"profile":["http://hl7.org/fhir/us/qicore/StructureDefinition/qicore-medicationadministration"]},"status":"completed","medicationCodeableConcept":{"coding":[{"system":"http://www.nlm.nih.gov/research/umls/rxnorm","code":"1114198"}]},"subject":{"reference":"Patient/28424502-1b12-461c-937e-d16c3c4716b7"},"effectivePeriod":{"start":"2026-12-06T11:00:00.000+00:00","end":"2026-12-06T11:05:00.000+00:00"}},"request":{"method":"PUT","url":"MedicationAdministration/f98c7148-647e-4b76-91d6-748f26650730"}},{"resource":{"resourceType":"MeasureReport","id":"df4ed9e3-c12d-4c37-9ec5-c785093ad396","meta":{"profile":["http://hl7.org/fhir/us/cqfmeasures/StructureDefinition/test-case-cqfm"]},"contained":[{"resourceType":"Parameters","id":"3bd4b1c1-7f99-4368-9156-e0b4144e888c-parameters","parameter":[{"name":"subject","valueString":"28424502-1b12-461c-937e-d16c3c4716b7"}]}],"extension":[{"url":"http://hl7.org/fhir/StructureDefinition/cqf-inputParameters","valueReference":{"reference":"#3bd4b1c1-7f99-4368-9156-e0b4144e888c-parameters"}},{"url":"http://hl7.org/fhir/us/cqfmeasures/StructureDefinition/cqfm-testCaseDescription","valueMarkdown":"Rivaroxaban and Betrixaban for VTE Prophylaxis was administered  during ICU admission\n"}],"modifierExtension":[{"url":"http://hl7.org/fhir/us/cqfmeasures/StructureDefinition/cqfm-isTestCase","valueBoolean":true}],"status":"complete","type":"individual","measure":"https://madie.cms.gov/Measure/CMS190VTEProphylaxisICUFHIR","period":{"start":"2026-01-01","end":"2026-12-31"},"group":[{"id":"Group_1","population":[{"id":"InitialPopulation_1","code":{"coding":[{"system":"http://terminology.hl7.org/CodeSystem/measure-population","code":"initial-population","display":"Initial Population"}]},"count":1},{"id":"Denominator_1","code":{"coding":[{"system":"http://terminology.hl7.org/CodeSystem/measure-population","code":"denominator","display":"Denominator"}]},"count":1},{"id":"DenominatorExclusion_1","code":{"coding":[{"system":"http://terminology.hl7.org/CodeSystem/measure-population","code":"denominator-exclusion","display":"Denominator Exclusion"}]},"count":0},{"id":"Numerator_1","code":{"coding":[{"system":"http://terminology.hl7.org/CodeSystem/measure-population","code":"numerator","display":"Numerator"}]},"count":1},{"id":"DenominatorException_1","code":{"coding":[{"system":"http://terminology.hl7.org/CodeSystem/measure-population","code":"denominator-exception","display":"Denominator Exception"}]},"count":0}],"measureScore":{"value":0.0}}],"evaluatedResource":[{"reference":"Patient/28424502-1b12-461c-937e-d16c3c4716b7"},{"reference":"Encounter/b5a5b570-3e75-4543-816d-b00211858b9f"},{"reference":"Coverage/3f74002f-78e7-4c45-b229-8582d1cb5d3b"},{"reference":"Location/6ae0697c-d9e8-481e-b170-c4d83e88a31e"},{"reference":"MedicationAdministration/f98c7148-647e-4b76-91d6-748f26650730"},{"reference":"Organization/85ca340c-1781-43f0-8a71-5199f9b94b5b"}]},"request":{"method":"PUT","url":"MeasureReport/df4ed9e3-c12d-4c37-9ec5-c785093ad396"}},{"resource":{"resourceType":"Encounter","id":"b5a5b570-3e75-4543-816d-b00211858b9f","meta":{"profile":["http://hl7.org/fhir/us/qicore/StructureDefinition/qicore-encounter"]},"status":"finished","class":{"system":"http://terminology.hl7.org/CodeSystem/v3-ActCode","code":"IMP","display":"inpatient encounter"},"type":[{"coding":[{"system":"http://snomed.info/sct","code":"8715000"}]}],"subject":{"reference":"Patient/28424502-1b12-461c-937e-d16c3c4716b7"},"period":{"start":"2026-12-04T08:00:00.000+00:00","end":"2026-12-30T08:15:00.000+00:00"},"length":{"value":26.0,"unit":"days"},"location":[{"location":{"reference":"Location/6ae0697c-d9e8-481e-b170-c4d83e88a31e"},"period":{"start":"2026-12-06T09:00:00.000+00:00","end":"2026-12-12T08:15:00.000+00:00"}}]},"request":{"method":"PUT","url":"Encounter/b5a5b570-3e75-4543-816d-b00211858b9f"}},{"resource":{"resourceType":"Organization","id":"85ca340c-1781-43f0-8a71-5199f9b94b5b","meta":{"profile":["http://hl7.org/fhir/us/qicore/StructureDefinition/qicore-organization"]},"identifier":[{"use":"temp","system":"urn:oid:2.16.840.1.113883.4.4","value":"21-3259825"}],"active":true,"type":[{"coding":[{"system":"http://terminology.hl7.org/CodeSystem/organization-type","code":"pay","display":"Payer"}]}],"name":"Blue Cross Blue Shield of Texas","telecom":[{"system":"phone","value":"(+1) 972-766-6900"}],"address":[{"use":"billing","type":"postal","line":["P.O. Box 660044"],"city":"Dallas","state":"TX","postalCode":"75266-0044","country":"USA"}]},"request":{"method":"PUT","url":"Organization/85ca340c-1781-43f0-8a71-5199f9b94b5b"}},{"resource":{"resourceType":"Bundle","id":"612e6f7d02c62a011f2f2008","type":"transaction","entry":[{"fullUrl":"https://madie.cms.gov/Patient/28424502-1b12-461c-937e-d16c3c4716b7","resource":{"resourceType":"Patient","id":"28424502-1b12-461c-937e-d16c3c4716b7","meta":{"profile":["http://hl7.org/fhir/us/qicore/StructureDefinition/qicore-patient"]},"text":{"status":"generated","div":"<div xmlns=\"http://www.w3.org/1999/xhtml\"><div class=\"hapiHeaderText\">MARivDuringICU <b>NUMERPASS </b></div><table class=\"hapiPropertyTable\"><tbody><tr><td>Identifier</td><td>0f1ead663b0075a3e74fb3655fe4cfdf</td></tr><tr><td>Date of birth</td><td><span>03 March 1974</span></td></tr></tbody></table></div>"},"extension":[{"url":"http://hl7.org/fhir/us/core/StructureDefinition/us-core-race","extension":[{"url":"ombCategory","valueCoding":{"system":"urn:oid:2.16.840.1.113883.6.238","code":"1002-5","display":"American Indian or Alaska Native","userSelected":true}},{"url":"text","valueString":"American Indian or Alaska Native"}]},{"url":"http://hl7.org/fhir/us/core/StructureDefinition/us-core-ethnicity","extension":[{"url":"ombCategory","valueCoding":{"system":"urn:oid:2.16.840.1.113883.6.238","code":"2135-2","display":"Hispanic or Latino","userSelected":true}},{"url":"text","valueString":"Hispanic or Latino"}]}],"identifier":[{"type":{"coding":[{"system":"http://terminology.hl7.org/CodeSystem/v2-0203","code":"MR"}]},"system":"https://bonnie-fhir.healthit.gov/","value":"612e6f7d02c62a011f2f2008"}],"active":true,"name":[{"use":"usual","family":"NUMERPass","given":["MARivDuringICU"]}],"gender":"female","birthDate":"1975-03-03"},"request":{"method":"PUT","url":"Patient/28424502-1b12-461c-937e-d16c3c4716b7"}},{"fullUrl":"https://madie.cms.gov/Encounter/b5a5b570-3e75-4543-816d-b00211858b9f","resource":{"resourceType":"Encounter","id":"b5a5b570-3e75-4543-816d-b00211858b9f","meta":{"profile":["http://hl7.org/fhir/us/qicore/StructureDefinition/qicore-encounter"]},"status":"finished","class":{"system":"http://terminology.hl7.org/CodeSystem/v3-ActCode","code":"IMP","display":"inpatient encounter"},"type":[{"coding":[{"system":"http://snomed.info/sct","code":"8715000"}]}],"subject":{"reference":"Patient/28424502-1b12-461c-937e-d16c3c4716b7"},"period":{"start":"2026-12-04T08:00:00.000+00:00","end":"2026-12-30T08:15:00.000+00:00"},"length":{"value":26.0,"unit":"days"},"location":[{"location":{"reference":"Location/6ae0697c-d9e8-481e-b170-c4d83e88a31e"},"period":{"start":"2026-12-06T09:00:00.000+00:00","end":"2026-12-12T08:15:00.000+00:00"}}]},"request":{"method":"PUT","url":"Encounter/b5a5b570-3e75-4543-816d-b00211858b9f"}},{"fullUrl":"https://madie.cms.gov/Coverage/3f74002f-78e7-4c45-b229-8582d1cb5d3b","resource":{"resourceType":"Coverage","id":"3f74002f-78e7-4c45-b229-8582d1cb5d3b","status":"active","beneficiary":{"reference":"Patient/28424502-1b12-461c-937e-d16c3c4716b7"},"period":{"start":"1975-03-03T08:00:00.000+00:00"},"payor":[{"reference":"Organization/85ca340c-1781-43f0-8a71-5199f9b94b5b"}]},"request":{"method":"PUT","url":"Coverage/3f74002f-78e7-4c45-b229-8582d1cb5d3b"}},{"fullUrl":"https://madie.cms.gov/Location/6ae0697c-d9e8-481e-b170-c4d83e88a31e","resource":{"resourceType":"Location","id":"6ae0697c-d9e8-481e-b170-c4d83e88a31e","meta":{"profile":["http://hl7.org/fhir/us/qicore/StructureDefinition/qicore-location"]},"identifier":[{"use":"usual","system":"http://exampleoflocation.com","value":"B1-S.F2"}],"name":"Medical Surgical East, first floor","type":[{"coding":[{"system":"https://www.cdc.gov/nhsn/cdaportal/terminology/codesystem/hsloc.html","version":"2020","code":"1025-6","display":"Trauma Critical Care","userSelected":true}]}]},"request":{"method":"PUT","url":"Location/6ae0697c-d9e8-481e-b170-c4d83e88a31e"}},{"fullUrl":"https://madie.cms.gov/MedicationAdministration/f98c7148-647e-4b76-91d6-748f26650730","resource":{"resourceType":"MedicationAdministration","id":"f98c7148-647e-4b76-91d6-748f26650730","meta":{"profile":["http://hl7.org/fhir/us/qicore/StructureDefinition/qicore-medicationadministration"]},"status":"completed","medicationCodeableConcept":{"coding":[{"system":"http://www.nlm.nih.gov/research/umls/rxnorm","code":"1114198"}]},"subject":{"reference":"Patient/28424502-1b12-461c-937e-d16c3c4716b7"},"effectivePeriod":{"start":"2026-12-06T11:00:00.000+00:00","end":"2026-12-06T11:05:00.000+00:00"}},"request":{"method":"PUT","url":"MedicationAdministration/f98c7148-647e-4b76-91d6-748f26650730"}},{"fullUrl":"https://madie.cms.gov/Organization/85ca340c-1781-43f0-8a71-5199f9b94b5b","resource":{"resourceType":"Organization","id":"85ca340c-1781-43f0-8a71-5199f9b94b5b","meta":{"profile":["http://hl7.org/fhir/us/qicore/StructureDefinition/qicore-organization"]},"identifier":[{"use":"temp","system":"urn:oid:2.16.840.1.113883.4.4","value":"21-3259825"}],"active":true,"type":[{"coding":[{"system":"http://terminology.hl7.org/CodeSystem/organization-type","code":"pay","display":"Payer"}]}],"name":"Blue Cross Blue Shield of Texas","telecom":[{"system":"phone","value":"(+1) 972-766-6900"}],"address":[{"use":"billing","type":"postal","line":["P.O. Box 660044"],"city":"Dallas","state":"TX","postalCode":"75266-0044","country":"USA"}]},"request":{"method":"PUT","url":"Organization/85ca340c-1781-43f0-8a71-5199f9b94b5b"}},{"fullUrl":"https://madie.cms.gov/MeasureReport/df4ed9e3-c12d-4c37-9ec5-c785093ad396","resource":{"resourceType":"MeasureReport","id":"df4ed9e3-c12d-4c37-9ec5-c785093ad396","meta":{"profile":["http://hl7.org/fhir/us/cqfmeasures/StructureDefinition/test-case-cqfm"]},"contained":[{"resourceType":"Parameters","id":"3bd4b1c1-7f99-4368-9156-e0b4144e888c-parameters","parameter":[{"name":"subject","valueString":"28424502-1b12-461c-937e-d16c3c4716b7"}]}],"extension":[{"url":"http://hl7.org/fhir/StructureDefinition/cqf-inputParameters","valueReference":{"reference":"#3bd4b1c1-7f99-4368-9156-e0b4144e888c-parameters"}},{"url":"http://hl7.org/fhir/us/cqfmeasures/StructureDefinition/cqfm-testCaseDescription","valueMarkdown":"Rivaroxaban and Betrixaban for VTE Prophylaxis was administered  during ICU admission\n"}],"modifierExtension":[{"url":"http://hl7.org/fhir/us/cqfmeasures/StructureDefinition/cqfm-isTestCase","valueBoolean":true}],"status":"complete","type":"individual","measure":"https://madie.cms.gov/Measure/CMS190VTEProphylaxisICUFHIR","period":{"start":"2026-01-01","end":"2026-12-31"},"group":[{"id":"Group_1","population":[{"id":"InitialPopulation_1","code":{"coding":[{"system":"http://terminology.hl7.org/CodeSystem/measure-population","code":"initial-population","display":"Initial Population"}]},"count":1},{"id":"Denominator_1","code":{"coding":[{"system":"http://terminology.hl7.org/CodeSystem/measure-population","code":"denominator","display":"Denominator"}]},"count":1},{"id":"DenominatorExclusion_1","code":{"coding":[{"system":"http://terminology.hl7.org/CodeSystem/measure-population","code":"denominator-exclusion","display":"Denominator Exclusion"}]},"count":0},{"id":"Numerator_1","code":{"coding":[{"system":"http://terminology.hl7.org/CodeSystem/measure-population","code":"numerator","display":"Numerator"}]},"count":1},{"id":"DenominatorException_1","code":{"coding":[{"system":"http://terminology.hl7.org/CodeSystem/measure-population","code":"denominator-exception","display":"Denominator Exception"}]},"count":0}],"measureScore":{"value":0.0}}],"evaluatedResource":[{"reference":"Patient/28424502-1b12-461c-937e-d16c3c4716b7"},{"reference":"Encounter/b5a5b570-3e75-4543-816d-b00211858b9f"},{"reference":"Coverage/3f74002f-78e7-4c45-b229-8582d1cb5d3b"},{"reference":"Location/6ae0697c-d9e8-481e-b170-c4d83e88a31e"},{"reference":"MedicationAdministration/f98c7148-647e-4b76-91d6-748f26650730"},{"reference":"Organization/85ca340c-1781-43f0-8a71-5199f9b94b5b"}]},"request":{"method":"PUT","url":"MeasureReport/df4ed9e3-c12d-4c37-9ec5-c785093ad396"}}]},"request":{"method":"PUT","url":"Bundle/612e6f7d02c62a011f2f2008"}},{"resource":{"resourceType":"Coverage","id":"3f74002f-78e7-4c45-b229-8582d1cb5d3b","status":"active","beneficiary":{"reference":"Patient/28424502-1b12-461c-937e-d16c3c4716b7"},"period":{"start":"1975-03-03T08:00:00.000+00:00"},"payor":[{"reference":"Organization/85ca340c-1781-43f0-8a71-5199f9b94b5b"}]},"request":{"method":"PUT","url":"Coverage/3f74002f-78e7-4c45-b229-8582d1cb5d3b"}},{"resource":{"resourceType":"Patient","id":"28424502-1b12-461c-937e-d16c3c4716b7","meta":{"profile":["http://hl7.org/fhir/us/qicore/StructureDefinition/qicore-patient"]},"text":{"status":"generated","div":"<div xmlns=\"http://www.w3.org/1999/xhtml\"><div class=\"hapiHeaderText\">MARivDuringICU <b>NUMERPASS </b></div><table class=\"hapiPropertyTable\"><tbody><tr><td>Identifier</td><td>0f1ead663b0075a3e74fb3655fe4cfdf</td></tr><tr><td>Date of birth</td><td><span>03 March 1974</span></td></tr></tbody></table></div>"},"extension":[{"url":"http://hl7.org/fhir/us/core/StructureDefinition/us-core-race","extension":[{"url":"ombCategory","valueCoding":{"system":"urn:oid:2.16.840.1.113883.6.238","code":"1002-5","display":"American Indian or Alaska Native","userSelected":true}},{"url":"text","valueString":"American Indian or Alaska Native"}]},{"url":"http://hl7.org/fhir/us/core/StructureDefinition/us-core-ethnicity","extension":[{"url":"ombCategory","valueCoding":{"system":"urn:oid:2.16.840.1.113883.6.238","code":"2135-2","display":"Hispanic or Latino","userSelected":true}},{"url":"text","valueString":"Hispanic or Latino"}]}],"identifier":[{"type":{"coding":[{"system":"http://terminology.hl7.org/CodeSystem/v2-0203","code":"MR"}]},"system":"https://bonnie-fhir.healthit.gov/","value":"612e6f7d02c62a011f2f2008"}],"active":true,"name":[{"use":"usual","family":"NUMERPass","given":["MARivDuringICU"]}],"gender":"female","birthDate":"1975-03-03"},"request":{"method":"PUT","url":"Patient/28424502-1b12-461c-937e-d16c3c4716b7"}}]}