{"resourceType":"Bundle","id":"tests-e0aacb7e-5624-492a-b744-dd75659d8400-bundle","type":"transaction","entry":[{"fullUrl":"Practitioner/f8acfbe8-7de1-406d-a3d3-f0b0ef43106a","resource":{"resourceType":"Practitioner","id":"f8acfbe8-7de1-406d-a3d3-f0b0ef43106a","identifier":[{"system":"http://hl7.org/fhir/sid/us-npi","value":"123456"}],"name":[{"family":"Evil","prefix":["Dr"]}]},"request":{"method":"PUT","url":"Practitioner/f8acfbe8-7de1-406d-a3d3-f0b0ef43106a"}},{"fullUrl":"Location/0f3b9b1b-6eba-4c58-b800-9ca43a92d3a5","resource":{"resourceType":"Location","id":"0f3b9b1b-6eba-4c58-b800-9ca43a92d3a5","meta":{"profile":["http://hl7.org/fhir/us/qicore/StructureDefinition/qicore-location"]},"identifier":[{"use":"usual","system":"http://exampleoflocation.com","value":"B1-S.F2"}],"name":"Medical Surgical East, first floor","type":[{"coding":[{"system":"https://www.cdc.gov/nhsn/cdaportal/terminology/codesystem/hsloc.html","code":"1025-6","display":"Trauma Critical Care","userSelected":true}]}]},"request":{"method":"PUT","url":"Location/0f3b9b1b-6eba-4c58-b800-9ca43a92d3a5"}},{"fullUrl":"Patient/e0aacb7e-5624-492a-b744-dd75659d8400","resource":{"resourceType":"Patient","id":"e0aacb7e-5624-492a-b744-dd75659d8400","meta":{"profile":["http://hl7.org/fhir/us/qicore/StructureDefinition/qicore-patient"]},"text":{"status":"generated","div":"<div xmlns=\"http://www.w3.org/1999/xhtml\"><div class=\"hapiHeaderText\">EncDxObstetrics <b>IPFAIL </b></div><table class=\"hapiPropertyTable\"><tbody><tr><td>Identifier</td><td>73dfd43c47660281c0a5408728e85897</td></tr><tr><td>Date of birth</td><td><span>03 March 1974</span></td></tr></tbody></table></div>"},"extension":[{"url":"http://hl7.org/fhir/us/core/StructureDefinition/us-core-race","extension":[{"url":"ombCategory","valueCoding":{"system":"urn:oid:2.16.840.1.113883.6.238","code":"1002-5","display":"American Indian or Alaska Native","userSelected":true}},{"url":"text","valueString":"American Indian or Alaska Native"}]},{"url":"http://hl7.org/fhir/us/core/StructureDefinition/us-core-ethnicity","extension":[{"url":"ombCategory","valueCoding":{"system":"urn:oid:2.16.840.1.113883.6.238","code":"2186-5","display":"Not Hispanic or Latino","userSelected":true}},{"url":"text","valueString":"Not Hispanic or Latino"}]}],"identifier":[{"type":{"coding":[{"system":"http://terminology.hl7.org/CodeSystem/v2-0203","code":"MR"}]},"system":"https://bonnie-fhir.healthit.gov/","value":"612e6f1402c62a011f2f0ad8"}],"active":true,"name":[{"use":"usual","family":"IPFail","given":["EncDxObstetrics"]}],"gender":"female","birthDate":"1975-03-03"},"request":{"method":"PUT","url":"Patient/e0aacb7e-5624-492a-b744-dd75659d8400"}},{"fullUrl":"MeasureReport/9373047c-e784-4b6f-9772-999144168c84","resource":{"resourceType":"MeasureReport","id":"9373047c-e784-4b6f-9772-999144168c84","meta":{"profile":["http://hl7.org/fhir/us/cqfmeasures/StructureDefinition/test-case-cqfm"]},"contained":[{"resourceType":"Parameters","id":"eedc2969-d9bb-4e50-aa9d-3fc220305d6c-parameters","parameter":[{"name":"subject","valueString":"e0aacb7e-5624-492a-b744-dd75659d8400"}]}],"extension":[{"url":"http://hl7.org/fhir/StructureDefinition/cqf-inputParameters","valueReference":{"reference":"#eedc2969-d9bb-4e50-aa9d-3fc220305d6c-parameters"}},{"url":"http://hl7.org/fhir/us/cqfmeasures/StructureDefinition/cqfm-testCaseDescription","valueMarkdown":"Encounter  Inpt Dx of Obstetrics VTE\n"}],"modifierExtension":[{"url":"http://hl7.org/fhir/us/cqfmeasures/StructureDefinition/cqfm-isTestCase","valueBoolean":true}],"status":"complete","type":"individual","measure":"https://madie.cms.gov/Measure/CMS190VTEProphylaxisICUFHIR","period":{"start":"2026-01-01","end":"2026-12-31"},"group":[{"id":"Group_1","population":[{"id":"InitialPopulation_1","code":{"coding":[{"system":"http://terminology.hl7.org/CodeSystem/measure-population","code":"initial-population","display":"Initial Population"}]},"count":0},{"id":"Denominator_1","code":{"coding":[{"system":"http://terminology.hl7.org/CodeSystem/measure-population","code":"denominator","display":"Denominator"}]},"count":0},{"id":"DenominatorExclusion_1","code":{"coding":[{"system":"http://terminology.hl7.org/CodeSystem/measure-population","code":"denominator-exclusion","display":"Denominator Exclusion"}]},"count":0},{"id":"Numerator_1","code":{"coding":[{"system":"http://terminology.hl7.org/CodeSystem/measure-population","code":"numerator","display":"Numerator"}]},"count":0},{"id":"DenominatorException_1","code":{"coding":[{"system":"http://terminology.hl7.org/CodeSystem/measure-population","code":"denominator-exception","display":"Denominator Exception"}]},"count":0}],"measureScore":{"value":0.0}}],"evaluatedResource":[{"reference":"Patient/e0aacb7e-5624-492a-b744-dd75659d8400"},{"reference":"Encounter/ff41b099-75f1-4c1a-84f8-c1455d0706f9"},{"reference":"Coverage/d658572b-d40c-4c53-9bdc-1f38396d02b9"},{"reference":"Condition/fa37eccb-cbec-43fa-af0f-9d2f1ca63cdf"},{"reference":"Location/0f3b9b1b-6eba-4c58-b800-9ca43a92d3a5"},{"reference":"Organization/95273d87-9fcc-47c7-8e47-2ea910d3d36e"},{"reference":"Practitioner/f8acfbe8-7de1-406d-a3d3-f0b0ef43106a"}]},"request":{"method":"PUT","url":"MeasureReport/9373047c-e784-4b6f-9772-999144168c84"}},{"fullUrl":"Condition/fa37eccb-cbec-43fa-af0f-9d2f1ca63cdf","resource":{"resourceType":"Condition","id":"fa37eccb-cbec-43fa-af0f-9d2f1ca63cdf","meta":{"profile":["http://hl7.org/fhir/us/qicore/StructureDefinition/qicore-condition-encounter-diagnosis"]},"category":[{"coding":[{"system":"http://terminology.hl7.org/CodeSystem/condition-category","code":"encounter-diagnosis","display":"Encounter Diagnosis"}]}],"code":{"coding":[{"system":"http://snomed.info/sct","code":"13943000","display":"Failed attempted abortion complicated by embolism (disorder)","userSelected":true}]},"subject":{"reference":"Patient/e0aacb7e-5624-492a-b744-dd75659d8400"},"recordedDate":"2026-09-09T08:00:00.000+00:00"},"request":{"method":"PUT","url":"Condition/fa37eccb-cbec-43fa-af0f-9d2f1ca63cdf"}},{"fullUrl":"Encounter/ff41b099-75f1-4c1a-84f8-c1455d0706f9","resource":{"resourceType":"Encounter","id":"ff41b099-75f1-4c1a-84f8-c1455d0706f9","meta":{"profile":["http://hl7.org/fhir/us/qicore/StructureDefinition/qicore-encounter"]},"status":"finished","class":{"system":"http://terminology.hl7.org/CodeSystem/v3-ActCode","code":"IMP","display":"inpatient encounter"},"type":[{"coding":[{"system":"http://snomed.info/sct","code":"8715000"}]}],"subject":{"reference":"Patient/e0aacb7e-5624-492a-b744-dd75659d8400"},"period":{"start":"2026-12-04T08:00:00.000+00:00","end":"2026-12-30T08:15:00.000+00:00"},"length":{"value":26,"unit":"days"},"reasonReference":[{"reference":"Condition/fa37eccb-cbec-43fa-af0f-9d2f1ca63cdf"}],"location":[{"location":{"reference":"Location/0f3b9b1b-6eba-4c58-b800-9ca43a92d3a5"},"period":{"start":"2026-12-06T08:00:00.000+00:00","end":"2026-12-08T08:15:00.000+00:00"}}]},"request":{"method":"PUT","url":"Encounter/ff41b099-75f1-4c1a-84f8-c1455d0706f9"}},{"fullUrl":"Bundle/612e6f1402c62a011f2f0ad8","resource":{"resourceType":"Bundle","id":"612e6f1402c62a011f2f0ad8","type":"transaction","entry":[{"fullUrl":"https://madie.cms.gov/Patient/e0aacb7e-5624-492a-b744-dd75659d8400","resource":{"resourceType":"Patient","id":"e0aacb7e-5624-492a-b744-dd75659d8400","meta":{"profile":["http://hl7.org/fhir/us/qicore/StructureDefinition/qicore-patient"]},"text":{"status":"generated","div":"<div xmlns=\"http://www.w3.org/1999/xhtml\"><div class=\"hapiHeaderText\">EncDxObstetrics <b>IPFAIL </b></div><table class=\"hapiPropertyTable\"><tbody><tr><td>Identifier</td><td>73dfd43c47660281c0a5408728e85897</td></tr><tr><td>Date of birth</td><td><span>03 March 1974</span></td></tr></tbody></table></div>"},"extension":[{"url":"http://hl7.org/fhir/us/core/StructureDefinition/us-core-race","extension":[{"url":"ombCategory","valueCoding":{"system":"urn:oid:2.16.840.1.113883.6.238","code":"1002-5","display":"American Indian or Alaska Native","userSelected":true}},{"url":"text","valueString":"American Indian or Alaska Native"}]},{"url":"http://hl7.org/fhir/us/core/StructureDefinition/us-core-ethnicity","extension":[{"url":"ombCategory","valueCoding":{"system":"urn:oid:2.16.840.1.113883.6.238","code":"2186-5","display":"Not Hispanic or Latino","userSelected":true}},{"url":"text","valueString":"Not Hispanic or Latino"}]}],"identifier":[{"type":{"coding":[{"system":"http://terminology.hl7.org/CodeSystem/v2-0203","code":"MR"}]},"system":"https://bonnie-fhir.healthit.gov/","value":"612e6f1402c62a011f2f0ad8"}],"active":true,"name":[{"use":"usual","family":"IPFail","given":["EncDxObstetrics"]}],"gender":"female","birthDate":"1975-03-03"},"request":{"method":"PUT","url":"Patient/e0aacb7e-5624-492a-b744-dd75659d8400"}},{"fullUrl":"https://madie.cms.gov/Encounter/ff41b099-75f1-4c1a-84f8-c1455d0706f9","resource":{"resourceType":"Encounter","id":"ff41b099-75f1-4c1a-84f8-c1455d0706f9","meta":{"profile":["http://hl7.org/fhir/us/qicore/StructureDefinition/qicore-encounter"]},"status":"finished","class":{"system":"http://terminology.hl7.org/CodeSystem/v3-ActCode","code":"IMP","display":"inpatient encounter"},"type":[{"coding":[{"system":"http://snomed.info/sct","code":"8715000"}]}],"subject":{"reference":"Patient/e0aacb7e-5624-492a-b744-dd75659d8400"},"period":{"start":"2026-12-04T08:00:00.000+00:00","end":"2026-12-30T08:15:00.000+00:00"},"length":{"value":26,"unit":"days"},"reasonReference":[{"reference":"Condition/fa37eccb-cbec-43fa-af0f-9d2f1ca63cdf"}],"location":[{"location":{"reference":"Location/0f3b9b1b-6eba-4c58-b800-9ca43a92d3a5"},"period":{"start":"2026-12-06T08:00:00.000+00:00","end":"2026-12-08T08:15:00.000+00:00"}}]},"request":{"method":"PUT","url":"Encounter/ff41b099-75f1-4c1a-84f8-c1455d0706f9"}},{"fullUrl":"https://madie.cms.gov/Coverage/d658572b-d40c-4c53-9bdc-1f38396d02b9","resource":{"resourceType":"Coverage","id":"d658572b-d40c-4c53-9bdc-1f38396d02b9","status":"active","beneficiary":{"reference":"Patient/e0aacb7e-5624-492a-b744-dd75659d8400"},"period":{"start":"1975-03-03T08:00:00.000+00:00"},"payor":[{"reference":"Organization/95273d87-9fcc-47c7-8e47-2ea910d3d36e"}]},"request":{"method":"PUT","url":"Coverage/d658572b-d40c-4c53-9bdc-1f38396d02b9"}},{"fullUrl":"https://madie.cms.gov/Condition/fa37eccb-cbec-43fa-af0f-9d2f1ca63cdf","resource":{"resourceType":"Condition","id":"fa37eccb-cbec-43fa-af0f-9d2f1ca63cdf","meta":{"profile":["http://hl7.org/fhir/us/qicore/StructureDefinition/qicore-condition-encounter-diagnosis"]},"category":[{"coding":[{"system":"http://terminology.hl7.org/CodeSystem/condition-category","code":"encounter-diagnosis","display":"Encounter Diagnosis"}]}],"code":{"coding":[{"system":"http://snomed.info/sct","code":"13943000","display":"Failed attempted abortion complicated by embolism (disorder)","userSelected":true}]},"subject":{"reference":"Patient/e0aacb7e-5624-492a-b744-dd75659d8400"},"recordedDate":"2026-09-09T08:00:00.000+00:00"},"request":{"method":"PUT","url":"Condition/fa37eccb-cbec-43fa-af0f-9d2f1ca63cdf"}},{"fullUrl":"https://madie.cms.gov/Location/0f3b9b1b-6eba-4c58-b800-9ca43a92d3a5","resource":{"resourceType":"Location","id":"0f3b9b1b-6eba-4c58-b800-9ca43a92d3a5","meta":{"profile":["http://hl7.org/fhir/us/qicore/StructureDefinition/qicore-location"]},"identifier":[{"use":"usual","system":"http://exampleoflocation.com","value":"B1-S.F2"}],"name":"Medical Surgical East, first floor","type":[{"coding":[{"system":"https://www.cdc.gov/nhsn/cdaportal/terminology/codesystem/hsloc.html","code":"1025-6","display":"Trauma Critical Care","userSelected":true}]}]},"request":{"method":"PUT","url":"Location/0f3b9b1b-6eba-4c58-b800-9ca43a92d3a5"}},{"fullUrl":"https://madie.cms.gov/Organization/95273d87-9fcc-47c7-8e47-2ea910d3d36e","resource":{"resourceType":"Organization","id":"95273d87-9fcc-47c7-8e47-2ea910d3d36e","meta":{"profile":["http://hl7.org/fhir/us/qicore/StructureDefinition/qicore-organization"]},"identifier":[{"use":"temp","system":"urn:oid:2.16.840.1.113883.4.4","value":"21-3259825"}],"active":true,"type":[{"coding":[{"system":"http://terminology.hl7.org/CodeSystem/organization-type","code":"pay","display":"Payer"}]}],"name":"Blue Cross Blue Shield of Texas","telecom":[{"system":"phone","value":"(+1) 972-766-6900"}],"address":[{"use":"billing","type":"postal","line":["P.O. Box 660044"],"city":"Dallas","state":"TX","postalCode":"75266-0044","country":"USA"}]},"request":{"method":"PUT","url":"Organization/95273d87-9fcc-47c7-8e47-2ea910d3d36e"}},{"fullUrl":"https://madie.cms.gov/Practitioner/f8acfbe8-7de1-406d-a3d3-f0b0ef43106a","resource":{"resourceType":"Practitioner","id":"f8acfbe8-7de1-406d-a3d3-f0b0ef43106a","identifier":[{"system":"http://hl7.org/fhir/sid/us-npi","value":"123456"}],"name":[{"family":"Evil","prefix":["Dr"]}]},"request":{"method":"PUT","url":"Practitioner/f8acfbe8-7de1-406d-a3d3-f0b0ef43106a"}},{"fullUrl":"https://madie.cms.gov/MeasureReport/9373047c-e784-4b6f-9772-999144168c84","resource":{"resourceType":"MeasureReport","id":"9373047c-e784-4b6f-9772-999144168c84","meta":{"profile":["http://hl7.org/fhir/us/cqfmeasures/StructureDefinition/test-case-cqfm"]},"contained":[{"resourceType":"Parameters","id":"eedc2969-d9bb-4e50-aa9d-3fc220305d6c-parameters","parameter":[{"name":"subject","valueString":"e0aacb7e-5624-492a-b744-dd75659d8400"}]}],"extension":[{"url":"http://hl7.org/fhir/StructureDefinition/cqf-inputParameters","valueReference":{"reference":"#eedc2969-d9bb-4e50-aa9d-3fc220305d6c-parameters"}},{"url":"http://hl7.org/fhir/us/cqfmeasures/StructureDefinition/cqfm-testCaseDescription","valueMarkdown":"Encounter  Inpt Dx of Obstetrics VTE\n"}],"modifierExtension":[{"url":"http://hl7.org/fhir/us/cqfmeasures/StructureDefinition/cqfm-isTestCase","valueBoolean":true}],"status":"complete","type":"individual","measure":"https://madie.cms.gov/Measure/CMS190VTEProphylaxisICUFHIR","period":{"start":"2026-01-01","end":"2026-12-31"},"group":[{"id":"Group_1","population":[{"id":"InitialPopulation_1","code":{"coding":[{"system":"http://terminology.hl7.org/CodeSystem/measure-population","code":"initial-population","display":"Initial Population"}]},"count":0},{"id":"Denominator_1","code":{"coding":[{"system":"http://terminology.hl7.org/CodeSystem/measure-population","code":"denominator","display":"Denominator"}]},"count":0},{"id":"DenominatorExclusion_1","code":{"coding":[{"system":"http://terminology.hl7.org/CodeSystem/measure-population","code":"denominator-exclusion","display":"Denominator Exclusion"}]},"count":0},{"id":"Numerator_1","code":{"coding":[{"system":"http://terminology.hl7.org/CodeSystem/measure-population","code":"numerator","display":"Numerator"}]},"count":0},{"id":"DenominatorException_1","code":{"coding":[{"system":"http://terminology.hl7.org/CodeSystem/measure-population","code":"denominator-exception","display":"Denominator Exception"}]},"count":0}],"measureScore":{"value":0.0}}],"evaluatedResource":[{"reference":"Patient/e0aacb7e-5624-492a-b744-dd75659d8400"},{"reference":"Encounter/ff41b099-75f1-4c1a-84f8-c1455d0706f9"},{"reference":"Coverage/d658572b-d40c-4c53-9bdc-1f38396d02b9"},{"reference":"Condition/fa37eccb-cbec-43fa-af0f-9d2f1ca63cdf"},{"reference":"Location/0f3b9b1b-6eba-4c58-b800-9ca43a92d3a5"},{"reference":"Organization/95273d87-9fcc-47c7-8e47-2ea910d3d36e"},{"reference":"Practitioner/f8acfbe8-7de1-406d-a3d3-f0b0ef43106a"}]},"request":{"method":"PUT","url":"MeasureReport/9373047c-e784-4b6f-9772-999144168c84"}}]},"request":{"method":"PUT","url":"Bundle/612e6f1402c62a011f2f0ad8"}},{"fullUrl":"Organization/95273d87-9fcc-47c7-8e47-2ea910d3d36e","resource":{"resourceType":"Organization","id":"95273d87-9fcc-47c7-8e47-2ea910d3d36e","meta":{"profile":["http://hl7.org/fhir/us/qicore/StructureDefinition/qicore-organization"]},"identifier":[{"use":"temp","system":"urn:oid:2.16.840.1.113883.4.4","value":"21-3259825"}],"active":true,"type":[{"coding":[{"system":"http://terminology.hl7.org/CodeSystem/organization-type","code":"pay","display":"Payer"}]}],"name":"Blue Cross Blue Shield of Texas","telecom":[{"system":"phone","value":"(+1) 972-766-6900"}],"address":[{"use":"billing","type":"postal","line":["P.O. Box 660044"],"city":"Dallas","state":"TX","postalCode":"75266-0044","country":"USA"}]},"request":{"method":"PUT","url":"Organization/95273d87-9fcc-47c7-8e47-2ea910d3d36e"}},{"fullUrl":"Coverage/d658572b-d40c-4c53-9bdc-1f38396d02b9","resource":{"resourceType":"Coverage","id":"d658572b-d40c-4c53-9bdc-1f38396d02b9","status":"active","beneficiary":{"reference":"Patient/e0aacb7e-5624-492a-b744-dd75659d8400"},"period":{"start":"1975-03-03T08:00:00.000+00:00"},"payor":[{"reference":"Organization/95273d87-9fcc-47c7-8e47-2ea910d3d36e"}]},"request":{"method":"PUT","url":"Coverage/d658572b-d40c-4c53-9bdc-1f38396d02b9"}}]}