{"resourceType":"Bundle","id":"tests-42ff0799-cc97-4a96-bbb7-1600e1701485-bundle","type":"transaction","entry":[{"resource":{"resourceType":"Practitioner","id":"8bccce32-ba2e-470e-adeb-045918361418","identifier":[{"system":"http://hl7.org/fhir/sid/us-npi","value":"123456"}],"name":[{"family":"Evil","prefix":["Dr"]}]},"request":{"method":"PUT","url":"Practitioner/8bccce32-ba2e-470e-adeb-045918361418"}},{"resource":{"resourceType":"Coverage","id":"84a1e792-a48c-4efb-8614-f0605e0a0951","status":"active","beneficiary":{"reference":"Patient/42ff0799-cc97-4a96-bbb7-1600e1701485"},"period":{"start":"1975-01-02T08:00:00.000+00:00"},"payor":[{"reference":"Organization/0b2d7a56-61c2-498a-821b-e396379fa2eb"}]},"request":{"method":"PUT","url":"Coverage/84a1e792-a48c-4efb-8614-f0605e0a0951"}},{"resource":{"resourceType":"MedicationRequest","id":"ae346349-2c1f-49ac-a33f-16775ddb617f","meta":{"profile":["http://hl7.org/fhir/us/qicore/StructureDefinition/qicore-medicationnotrequested"]},"status":"completed","intent":"order","category":[{"coding":[{"system":"http://terminology.hl7.org/CodeSystem/medicationrequest-category","code":"community"}]}],"doNotPerform":true,"medicationCodeableConcept":{"coding":[{"system":"http://www.nlm.nih.gov/research/umls/rxnorm","code":"854255"}]},"subject":{"reference":"Patient/42ff0799-cc97-4a96-bbb7-1600e1701485"},"authoredOn":"2026-11-05T07:00:00.000+00:00","requester":{"reference":"Practitioner/123456"},"reasonCode":[{"coding":[{"system":"http://snomed.info/sct","code":"443390004","display":"Refusal of treatment by patient (situation)","userSelected":true}]}]},"request":{"method":"PUT","url":"MedicationRequest/ae346349-2c1f-49ac-a33f-16775ddb617f"}},{"resource":{"resourceType":"Patient","id":"42ff0799-cc97-4a96-bbb7-1600e1701485","meta":{"profile":["http://hl7.org/fhir/us/qicore/StructureDefinition/qicore-patient"]},"text":{"status":"generated","div":"<div xmlns=\"http://www.w3.org/1999/xhtml\"><div class=\"hapiHeaderText\">PtRefMOLMWHDayAfterICU<b>NUMERPASS </b></div><table class=\"hapiPropertyTable\"><tbody><tr><td>Identifier</td><td>bec2580a47ed4bf7691b191e0654b2de</td></tr><tr><td>Date of birth</td><td><span>02 January 1974</span></td></tr></tbody></table></div>"},"extension":[{"url":"http://hl7.org/fhir/us/core/StructureDefinition/us-core-race","extension":[{"url":"ombCategory","valueCoding":{"system":"urn:oid:2.16.840.1.113883.6.238","code":"1002-5","display":"American Indian or Alaska Native","userSelected":true}},{"url":"text","valueString":"American Indian or Alaska Native"}]},{"url":"http://hl7.org/fhir/us/core/StructureDefinition/us-core-ethnicity","extension":[{"url":"ombCategory","valueCoding":{"system":"urn:oid:2.16.840.1.113883.6.238","code":"2135-2","display":"Hispanic or Latino","userSelected":true}},{"url":"text","valueString":"Hispanic or Latino"}]}],"identifier":[{"type":{"coding":[{"system":"http://terminology.hl7.org/CodeSystem/v2-0203","code":"MR"}]},"system":"https://bonnie-fhir.healthit.gov/","value":"612e6b2e02c62a011f2ecc92"}],"active":true,"name":[{"use":"usual","family":"NUMERPass","given":["PtRefMOLMWHDayAfterICU"]}],"gender":"male","birthDate":"1975-01-02"},"request":{"method":"PUT","url":"Patient/42ff0799-cc97-4a96-bbb7-1600e1701485"}},{"resource":{"resourceType":"MeasureReport","id":"ecf42483-fdc4-4a72-9518-47ba47cd7c72","meta":{"profile":["http://hl7.org/fhir/us/cqfmeasures/StructureDefinition/test-case-cqfm"]},"contained":[{"resourceType":"Parameters","id":"0c27cfab-f4bb-4d81-9ee8-dbc9cfbe05db-parameters","parameter":[{"name":"subject","valueString":"42ff0799-cc97-4a96-bbb7-1600e1701485"}]}],"extension":[{"url":"http://hl7.org/fhir/StructureDefinition/cqf-inputParameters","valueReference":{"reference":"#0c27cfab-f4bb-4d81-9ee8-dbc9cfbe05db-parameters"}},{"url":"http://hl7.org/fhir/us/cqfmeasures/StructureDefinition/cqfm-testCaseDescription","valueMarkdown":"Patient refusal for LMWH documented on the day after ICU"}],"modifierExtension":[{"url":"http://hl7.org/fhir/us/cqfmeasures/StructureDefinition/cqfm-isTestCase","valueBoolean":true}],"status":"complete","type":"individual","measure":"https://madie.cms.gov/Measure/CMS190VTEProphylaxisICUFHIR","period":{"start":"2026-01-01","end":"2026-12-31"},"group":[{"id":"Group_1","population":[{"id":"InitialPopulation_1","code":{"coding":[{"system":"http://terminology.hl7.org/CodeSystem/measure-population","code":"initial-population","display":"Initial Population"}]},"count":1},{"id":"Denominator_1","code":{"coding":[{"system":"http://terminology.hl7.org/CodeSystem/measure-population","code":"denominator","display":"Denominator"}]},"count":1},{"id":"DenominatorExclusion_1","code":{"coding":[{"system":"http://terminology.hl7.org/CodeSystem/measure-population","code":"denominator-exclusion","display":"Denominator Exclusion"}]},"count":0},{"id":"Numerator_1","code":{"coding":[{"system":"http://terminology.hl7.org/CodeSystem/measure-population","code":"numerator","display":"Numerator"}]},"count":1},{"id":"DenominatorException_1","code":{"coding":[{"system":"http://terminology.hl7.org/CodeSystem/measure-population","code":"denominator-exception","display":"Denominator Exception"}]},"count":0}],"measureScore":{"value":0.0}}],"evaluatedResource":[{"reference":"Patient/42ff0799-cc97-4a96-bbb7-1600e1701485"},{"reference":"Encounter/bfc00440-530b-4595-aebc-1d621b416d8b"},{"reference":"Coverage/84a1e792-a48c-4efb-8614-f0605e0a0951"},{"reference":"MedicationRequest/ae346349-2c1f-49ac-a33f-16775ddb617f"},{"reference":"Location/2b32fbf0-057a-42f9-a606-1429ee6cbf45"},{"reference":"Organization/0b2d7a56-61c2-498a-821b-e396379fa2eb"},{"reference":"Practitioner/8bccce32-ba2e-470e-adeb-045918361418"}]},"request":{"method":"PUT","url":"MeasureReport/ecf42483-fdc4-4a72-9518-47ba47cd7c72"}},{"resource":{"resourceType":"Location","id":"2b32fbf0-057a-42f9-a606-1429ee6cbf45","meta":{"profile":["http://hl7.org/fhir/us/qicore/StructureDefinition/qicore-location"]},"identifier":[{"use":"usual","system":"http://exampleoflocation.com","value":"B1-S.F2"}],"name":"Medical Surgical East, first floor","type":[{"coding":[{"system":"https://www.cdc.gov/nhsn/cdaportal/terminology/codesystem/hsloc.html","code":"1025-6","display":"Trauma Critical Care","userSelected":true}]}]},"request":{"method":"PUT","url":"Location/2b32fbf0-057a-42f9-a606-1429ee6cbf45"}},{"resource":{"resourceType":"Organization","id":"0b2d7a56-61c2-498a-821b-e396379fa2eb","meta":{"profile":["http://hl7.org/fhir/us/qicore/StructureDefinition/qicore-organization"]},"identifier":[{"use":"temp","system":"urn:oid:2.16.840.1.113883.4.4","value":"21-3259825"}],"active":true,"type":[{"coding":[{"system":"http://terminology.hl7.org/CodeSystem/organization-type","code":"pay","display":"Payer"}]}],"name":"Blue Cross Blue Shield of Texas","telecom":[{"system":"phone","value":"(+1) 972-766-6900"}],"address":[{"use":"billing","type":"postal","line":["P.O. Box 660044"],"city":"Dallas","state":"TX","postalCode":"75266-0044","country":"USA"}]},"request":{"method":"PUT","url":"Organization/0b2d7a56-61c2-498a-821b-e396379fa2eb"}},{"resource":{"resourceType":"Encounter","id":"bfc00440-530b-4595-aebc-1d621b416d8b","meta":{"profile":["http://hl7.org/fhir/us/qicore/StructureDefinition/qicore-encounter"]},"status":"finished","class":{"system":"http://terminology.hl7.org/CodeSystem/v3-ActCode","code":"IMP","display":"inpatient encounter"},"type":[{"coding":[{"system":"http://snomed.info/sct","code":"8715000"}]}],"subject":{"reference":"Patient/42ff0799-cc97-4a96-bbb7-1600e1701485"},"period":{"start":"2026-11-01T08:00:00.000+00:00","end":"2026-11-26T08:15:00.000+00:00"},"length":{"value":25,"unit":"days"},"location":[{"location":{"reference":"Location/2b32fbf0-057a-42f9-a606-1429ee6cbf45"},"period":{"start":"2026-11-04T09:00:00.000+00:00","end":"2026-11-06T08:15:00.000+00:00"}}]},"request":{"method":"PUT","url":"Encounter/bfc00440-530b-4595-aebc-1d621b416d8b"}},{"resource":{"resourceType":"Bundle","id":"612e6b2e02c62a011f2ecc92","type":"transaction","entry":[{"fullUrl":"https://madie.cms.gov/Patient/42ff0799-cc97-4a96-bbb7-1600e1701485","resource":{"resourceType":"Patient","id":"42ff0799-cc97-4a96-bbb7-1600e1701485","meta":{"profile":["http://hl7.org/fhir/us/qicore/StructureDefinition/qicore-patient"]},"text":{"status":"generated","div":"<div xmlns=\"http://www.w3.org/1999/xhtml\"><div class=\"hapiHeaderText\">PtRefMOLMWHDayAfterICU<b>NUMERPASS </b></div><table class=\"hapiPropertyTable\"><tbody><tr><td>Identifier</td><td>bec2580a47ed4bf7691b191e0654b2de</td></tr><tr><td>Date of birth</td><td><span>02 January 1974</span></td></tr></tbody></table></div>"},"extension":[{"url":"http://hl7.org/fhir/us/core/StructureDefinition/us-core-race","extension":[{"url":"ombCategory","valueCoding":{"system":"urn:oid:2.16.840.1.113883.6.238","code":"1002-5","display":"American Indian or Alaska Native","userSelected":true}},{"url":"text","valueString":"American Indian or Alaska Native"}]},{"url":"http://hl7.org/fhir/us/core/StructureDefinition/us-core-ethnicity","extension":[{"url":"ombCategory","valueCoding":{"system":"urn:oid:2.16.840.1.113883.6.238","code":"2135-2","display":"Hispanic or Latino","userSelected":true}},{"url":"text","valueString":"Hispanic or Latino"}]}],"identifier":[{"type":{"coding":[{"system":"http://terminology.hl7.org/CodeSystem/v2-0203","code":"MR"}]},"system":"https://bonnie-fhir.healthit.gov/","value":"612e6b2e02c62a011f2ecc92"}],"active":true,"name":[{"use":"usual","family":"NUMERPass","given":["PtRefMOLMWHDayAfterICU"]}],"gender":"male","birthDate":"1975-01-02"},"request":{"method":"PUT","url":"Patient/42ff0799-cc97-4a96-bbb7-1600e1701485"}},{"fullUrl":"https://madie.cms.gov/Encounter/bfc00440-530b-4595-aebc-1d621b416d8b","resource":{"resourceType":"Encounter","id":"bfc00440-530b-4595-aebc-1d621b416d8b","meta":{"profile":["http://hl7.org/fhir/us/qicore/StructureDefinition/qicore-encounter"]},"status":"finished","class":{"system":"http://terminology.hl7.org/CodeSystem/v3-ActCode","code":"IMP","display":"inpatient encounter"},"type":[{"coding":[{"system":"http://snomed.info/sct","code":"8715000"}]}],"subject":{"reference":"Patient/42ff0799-cc97-4a96-bbb7-1600e1701485"},"period":{"start":"2026-11-01T08:00:00.000+00:00","end":"2026-11-26T08:15:00.000+00:00"},"length":{"value":25,"unit":"days"},"location":[{"location":{"reference":"Location/2b32fbf0-057a-42f9-a606-1429ee6cbf45"},"period":{"start":"2026-11-04T09:00:00.000+00:00","end":"2026-11-06T08:15:00.000+00:00"}}]},"request":{"method":"PUT","url":"Encounter/bfc00440-530b-4595-aebc-1d621b416d8b"}},{"fullUrl":"https://madie.cms.gov/Coverage/84a1e792-a48c-4efb-8614-f0605e0a0951","resource":{"resourceType":"Coverage","id":"84a1e792-a48c-4efb-8614-f0605e0a0951","status":"active","beneficiary":{"reference":"Patient/42ff0799-cc97-4a96-bbb7-1600e1701485"},"period":{"start":"1975-01-02T08:00:00.000+00:00"},"payor":[{"reference":"Organization/0b2d7a56-61c2-498a-821b-e396379fa2eb"}]},"request":{"method":"PUT","url":"Coverage/84a1e792-a48c-4efb-8614-f0605e0a0951"}},{"fullUrl":"https://madie.cms.gov/MedicationRequest/ae346349-2c1f-49ac-a33f-16775ddb617f","resource":{"resourceType":"MedicationRequest","id":"ae346349-2c1f-49ac-a33f-16775ddb617f","meta":{"profile":["http://hl7.org/fhir/us/qicore/StructureDefinition/qicore-medicationnotrequested"]},"status":"completed","intent":"order","category":[{"coding":[{"system":"http://terminology.hl7.org/CodeSystem/medicationrequest-category","code":"community"}]}],"doNotPerform":true,"medicationCodeableConcept":{"coding":[{"system":"http://www.nlm.nih.gov/research/umls/rxnorm","code":"854255"}]},"subject":{"reference":"Patient/42ff0799-cc97-4a96-bbb7-1600e1701485"},"authoredOn":"2026-11-05T07:00:00.000+00:00","requester":{"reference":"Practitioner/123456"},"reasonCode":[{"coding":[{"system":"http://snomed.info/sct","code":"443390004","display":"Refusal of treatment by patient (situation)","userSelected":true}]}]},"request":{"method":"PUT","url":"MedicationRequest/ae346349-2c1f-49ac-a33f-16775ddb617f"}},{"fullUrl":"https://madie.cms.gov/Location/2b32fbf0-057a-42f9-a606-1429ee6cbf45","resource":{"resourceType":"Location","id":"2b32fbf0-057a-42f9-a606-1429ee6cbf45","meta":{"profile":["http://hl7.org/fhir/us/qicore/StructureDefinition/qicore-location"]},"identifier":[{"use":"usual","system":"http://exampleoflocation.com","value":"B1-S.F2"}],"name":"Medical Surgical East, first floor","type":[{"coding":[{"system":"https://www.cdc.gov/nhsn/cdaportal/terminology/codesystem/hsloc.html","code":"1025-6","display":"Trauma Critical Care","userSelected":true}]}]},"request":{"method":"PUT","url":"Location/2b32fbf0-057a-42f9-a606-1429ee6cbf45"}},{"fullUrl":"https://madie.cms.gov/Organization/0b2d7a56-61c2-498a-821b-e396379fa2eb","resource":{"resourceType":"Organization","id":"0b2d7a56-61c2-498a-821b-e396379fa2eb","meta":{"profile":["http://hl7.org/fhir/us/qicore/StructureDefinition/qicore-organization"]},"identifier":[{"use":"temp","system":"urn:oid:2.16.840.1.113883.4.4","value":"21-3259825"}],"active":true,"type":[{"coding":[{"system":"http://terminology.hl7.org/CodeSystem/organization-type","code":"pay","display":"Payer"}]}],"name":"Blue Cross Blue Shield of Texas","telecom":[{"system":"phone","value":"(+1) 972-766-6900"}],"address":[{"use":"billing","type":"postal","line":["P.O. Box 660044"],"city":"Dallas","state":"TX","postalCode":"75266-0044","country":"USA"}]},"request":{"method":"PUT","url":"Organization/0b2d7a56-61c2-498a-821b-e396379fa2eb"}},{"fullUrl":"https://madie.cms.gov/Practitioner/8bccce32-ba2e-470e-adeb-045918361418","resource":{"resourceType":"Practitioner","id":"8bccce32-ba2e-470e-adeb-045918361418","identifier":[{"system":"http://hl7.org/fhir/sid/us-npi","value":"123456"}],"name":[{"family":"Evil","prefix":["Dr"]}]},"request":{"method":"PUT","url":"Practitioner/8bccce32-ba2e-470e-adeb-045918361418"}},{"fullUrl":"https://madie.cms.gov/MeasureReport/ecf42483-fdc4-4a72-9518-47ba47cd7c72","resource":{"resourceType":"MeasureReport","id":"ecf42483-fdc4-4a72-9518-47ba47cd7c72","meta":{"profile":["http://hl7.org/fhir/us/cqfmeasures/StructureDefinition/test-case-cqfm"]},"contained":[{"resourceType":"Parameters","id":"0c27cfab-f4bb-4d81-9ee8-dbc9cfbe05db-parameters","parameter":[{"name":"subject","valueString":"42ff0799-cc97-4a96-bbb7-1600e1701485"}]}],"extension":[{"url":"http://hl7.org/fhir/StructureDefinition/cqf-inputParameters","valueReference":{"reference":"#0c27cfab-f4bb-4d81-9ee8-dbc9cfbe05db-parameters"}},{"url":"http://hl7.org/fhir/us/cqfmeasures/StructureDefinition/cqfm-testCaseDescription","valueMarkdown":"Patient refusal for LMWH documented on the day after ICU"}],"modifierExtension":[{"url":"http://hl7.org/fhir/us/cqfmeasures/StructureDefinition/cqfm-isTestCase","valueBoolean":true}],"status":"complete","type":"individual","measure":"https://madie.cms.gov/Measure/CMS190VTEProphylaxisICUFHIR","period":{"start":"2026-01-01","end":"2026-12-31"},"group":[{"id":"Group_1","population":[{"id":"InitialPopulation_1","code":{"coding":[{"system":"http://terminology.hl7.org/CodeSystem/measure-population","code":"initial-population","display":"Initial Population"}]},"count":1},{"id":"Denominator_1","code":{"coding":[{"system":"http://terminology.hl7.org/CodeSystem/measure-population","code":"denominator","display":"Denominator"}]},"count":1},{"id":"DenominatorExclusion_1","code":{"coding":[{"system":"http://terminology.hl7.org/CodeSystem/measure-population","code":"denominator-exclusion","display":"Denominator Exclusion"}]},"count":0},{"id":"Numerator_1","code":{"coding":[{"system":"http://terminology.hl7.org/CodeSystem/measure-population","code":"numerator","display":"Numerator"}]},"count":1},{"id":"DenominatorException_1","code":{"coding":[{"system":"http://terminology.hl7.org/CodeSystem/measure-population","code":"denominator-exception","display":"Denominator Exception"}]},"count":0}],"measureScore":{"value":0.0}}],"evaluatedResource":[{"reference":"Patient/42ff0799-cc97-4a96-bbb7-1600e1701485"},{"reference":"Encounter/bfc00440-530b-4595-aebc-1d621b416d8b"},{"reference":"Coverage/84a1e792-a48c-4efb-8614-f0605e0a0951"},{"reference":"MedicationRequest/ae346349-2c1f-49ac-a33f-16775ddb617f"},{"reference":"Location/2b32fbf0-057a-42f9-a606-1429ee6cbf45"},{"reference":"Organization/0b2d7a56-61c2-498a-821b-e396379fa2eb"},{"reference":"Practitioner/8bccce32-ba2e-470e-adeb-045918361418"}]},"request":{"method":"PUT","url":"MeasureReport/ecf42483-fdc4-4a72-9518-47ba47cd7c72"}}]},"request":{"method":"PUT","url":"Bundle/612e6b2e02c62a011f2ecc92"}}]}