{"resourceType":"Bundle","id":"tests-39baa108-b124-4300-b71c-dc21cc509d64-bundle","type":"transaction","entry":[{"resource":{"resourceType":"Organization","id":"aa583aca-269e-42c7-bf20-a488309d90d9","meta":{"profile":["http://hl7.org/fhir/us/qicore/StructureDefinition/qicore-organization"]},"identifier":[{"use":"temp","system":"urn:oid:2.16.840.1.113883.4.4","value":"21-3259825"}],"active":true,"type":[{"coding":[{"system":"http://terminology.hl7.org/CodeSystem/organization-type","code":"pay","display":"Payer"}]}],"name":"Blue Cross Blue Shield of Texas","telecom":[{"system":"phone","value":"(+1) 972-766-6900"}],"address":[{"use":"billing","type":"postal","line":["P.O. Box 660044"],"city":"Dallas","state":"TX","postalCode":"75266-0044","country":"USA"}]},"request":{"method":"PUT","url":"Organization/aa583aca-269e-42c7-bf20-a488309d90d9"}},{"resource":{"resourceType":"Location","id":"5131d56e-abf8-4394-a1a8-8f0484fcbdf1","meta":{"profile":["http://hl7.org/fhir/us/qicore/StructureDefinition/qicore-location"]},"identifier":[{"use":"usual","system":"http://exampleoflocation.com","value":"B1-S.F2"}],"name":"Medical Surgical East, first floor","type":[{"coding":[{"system":"https://www.cdc.gov/nhsn/cdaportal/terminology/codesystem/hsloc.html","code":"1025-6","display":"Trauma Critical Care","userSelected":true}]}]},"request":{"method":"PUT","url":"Location/5131d56e-abf8-4394-a1a8-8f0484fcbdf1"}},{"resource":{"resourceType":"MeasureReport","id":"136c9b93-b74c-4d0c-84ca-13193b1ffb3b","meta":{"profile":["http://hl7.org/fhir/us/cqfmeasures/StructureDefinition/test-case-cqfm"]},"contained":[{"resourceType":"Parameters","id":"f9b07cd2-0ff7-412a-aedc-04fef925f802-parameters","parameter":[{"name":"subject","valueString":"39baa108-b124-4300-b71c-dc21cc509d64"}]}],"extension":[{"url":"http://hl7.org/fhir/StructureDefinition/cqf-inputParameters","valueReference":{"reference":"#f9b07cd2-0ff7-412a-aedc-04fef925f802-parameters"}},{"url":"http://hl7.org/fhir/us/cqfmeasures/StructureDefinition/cqfm-testCaseDescription","valueMarkdown":"Device GCS applied on 1 Day After Anesthesia sug "}],"modifierExtension":[{"url":"http://hl7.org/fhir/us/cqfmeasures/StructureDefinition/cqfm-isTestCase","valueBoolean":true}],"status":"complete","type":"individual","measure":"https://madie.cms.gov/Measure/CMS190VTEProphylaxisICUFHIR","period":{"start":"2026-01-01","end":"2026-12-31"},"group":[{"id":"Group_1","population":[{"id":"InitialPopulation_1","code":{"coding":[{"system":"http://terminology.hl7.org/CodeSystem/measure-population","code":"initial-population","display":"Initial Population"}]},"count":1},{"id":"Denominator_1","code":{"coding":[{"system":"http://terminology.hl7.org/CodeSystem/measure-population","code":"denominator","display":"Denominator"}]},"count":1},{"id":"DenominatorExclusion_1","code":{"coding":[{"system":"http://terminology.hl7.org/CodeSystem/measure-population","code":"denominator-exclusion","display":"Denominator Exclusion"}]},"count":0},{"id":"Numerator_1","code":{"coding":[{"system":"http://terminology.hl7.org/CodeSystem/measure-population","code":"numerator","display":"Numerator"}]},"count":1},{"id":"DenominatorException_1","code":{"coding":[{"system":"http://terminology.hl7.org/CodeSystem/measure-population","code":"denominator-exception","display":"Denominator Exception"}]},"count":0}],"measureScore":{"value":0.0}}],"evaluatedResource":[{"reference":"Patient/39baa108-b124-4300-b71c-dc21cc509d64"},{"reference":"Encounter/6ad82314-0912-4b83-adbf-bbc4289c3755"},{"reference":"Coverage/496578e2-e067-4746-9029-38780ec3bbd8"},{"reference":"Procedure/a8c5da10-c946-48e8-9842-efc0f20997a8"},{"reference":"Procedure/660d455b-61bb-48b5-b52c-aea7866c22d4"},{"reference":"Organization/aa583aca-269e-42c7-bf20-a488309d90d9"},{"reference":"Practitioner/1c1dd6e0-5aec-4d6f-a9dc-391858c34774"},{"reference":"Location/5131d56e-abf8-4394-a1a8-8f0484fcbdf1"}]},"request":{"method":"PUT","url":"MeasureReport/136c9b93-b74c-4d0c-84ca-13193b1ffb3b"}},{"resource":{"resourceType":"Practitioner","id":"1c1dd6e0-5aec-4d6f-a9dc-391858c34774","identifier":[{"system":"http://hl7.org/fhir/sid/us-npi","value":"123456"}],"name":[{"family":"Evil","prefix":["Dr"]}]},"request":{"method":"PUT","url":"Practitioner/1c1dd6e0-5aec-4d6f-a9dc-391858c34774"}},{"resource":{"resourceType":"Encounter","id":"6ad82314-0912-4b83-adbf-bbc4289c3755","meta":{"profile":["http://hl7.org/fhir/us/qicore/StructureDefinition/qicore-encounter"]},"status":"finished","class":{"system":"http://terminology.hl7.org/CodeSystem/v3-ActCode","code":"IMP","display":"inpatient encounter"},"type":[{"coding":[{"system":"http://snomed.info/sct","code":"8715000"}]}],"subject":{"reference":"Patient/39baa108-b124-4300-b71c-dc21cc509d64"},"period":{"start":"2026-11-01T08:00:00.000+00:00","end":"2026-11-26T08:15:00.000+00:00"},"length":{"value":25.0,"unit":"days"},"location":[{"location":{"reference":"Location/5131d56e-abf8-4394-a1a8-8f0484fcbdf1"},"period":{"start":"2026-11-03T08:15:00.000+00:00","end":"2026-11-06T08:00:00.000+00:00"}}]},"request":{"method":"PUT","url":"Encounter/6ad82314-0912-4b83-adbf-bbc4289c3755"}},{"resource":{"resourceType":"Procedure","id":"a8c5da10-c946-48e8-9842-efc0f20997a8","meta":{"profile":["http://hl7.org/fhir/us/qicore/StructureDefinition/qicore-procedure"]},"extension":[{"url":"http://hl7.org/fhir/us/qicore/StructureDefinition/qicore-recorded","valueDateTime":"2013-11-19T13:35:00.000+00:00"}],"status":"completed","code":{"coding":[{"system":"http://snomed.info/sct","code":"18946005"}]},"subject":{"reference":"Patient/39baa108-b124-4300-b71c-dc21cc509d64"},"performedPeriod":{"start":"2026-11-03T09:00:00.000+00:00","end":"2026-11-03T19:15:00.000+00:00"}},"request":{"method":"PUT","url":"Procedure/a8c5da10-c946-48e8-9842-efc0f20997a8"}},{"resource":{"resourceType":"Patient","id":"39baa108-b124-4300-b71c-dc21cc509d64","meta":{"profile":["http://hl7.org/fhir/us/qicore/StructureDefinition/qicore-patient"]},"text":{"status":"generated","div":"<div xmlns=\"http://www.w3.org/1999/xhtml\"><div class=\"hapiHeaderText\">DAGCSDayAfterAnes<b>NUMERPASS </b></div><table class=\"hapiPropertyTable\"><tbody><tr><td>Identifier</td><td>af7fb96c408ff8f32d85ce64a563f18b</td></tr><tr><td>Date of birth</td><td><span>02 January 1974</span></td></tr></tbody></table></div>"},"extension":[{"url":"http://hl7.org/fhir/us/core/StructureDefinition/us-core-race","extension":[{"url":"ombCategory","valueCoding":{"system":"urn:oid:2.16.840.1.113883.6.238","code":"1002-5","display":"American Indian or Alaska Native","userSelected":true}},{"url":"text","valueString":"American Indian or Alaska Native"}]},{"url":"http://hl7.org/fhir/us/core/StructureDefinition/us-core-ethnicity","extension":[{"url":"ombCategory","valueCoding":{"system":"urn:oid:2.16.840.1.113883.6.238","code":"2135-2","display":"Hispanic or Latino","userSelected":true}},{"url":"text","valueString":"Hispanic or Latino"}]}],"identifier":[{"type":{"coding":[{"system":"http://terminology.hl7.org/CodeSystem/v2-0203","code":"MR"}]},"system":"https://bonnie-fhir.healthit.gov/","value":"612e6a9002c62a011f2ea5f9"}],"active":true,"name":[{"use":"usual","family":"NUMERPass","given":["DAGCSDayAfterAnes"]}],"gender":"male","birthDate":"1975-01-02"},"request":{"method":"PUT","url":"Patient/39baa108-b124-4300-b71c-dc21cc509d64"}},{"resource":{"resourceType":"Procedure","id":"660d455b-61bb-48b5-b52c-aea7866c22d4","meta":{"profile":["http://hl7.org/fhir/us/qicore/StructureDefinition/qicore-procedure"]},"extension":[{"url":"http://hl7.org/fhir/us/qicore/StructureDefinition/qicore-recorded","valueDateTime":"2013-11-01T13:35:00.000+00:00"}],"status":"completed","code":{"coding":[{"system":"http://snomed.info/sct","code":"442410008","display":"Application of venous foot pump (procedure)"}]},"subject":{"reference":"Patient/39baa108-b124-4300-b71c-dc21cc509d64"},"performedDateTime":"2026-11-04T07:00:00.000+00:00","usedCode":[{"coding":[{"system":"http://snomed.info/sct","code":"229511001","display":"Application of graduated compression garment (procedure)","userSelected":true}]}]},"request":{"method":"PUT","url":"Procedure/660d455b-61bb-48b5-b52c-aea7866c22d4"}},{"resource":{"resourceType":"Coverage","id":"496578e2-e067-4746-9029-38780ec3bbd8","status":"active","beneficiary":{"reference":"Patient/39baa108-b124-4300-b71c-dc21cc509d64"},"period":{"start":"1975-01-02T08:00:00.000+00:00"},"payor":[{"reference":"Organization/aa583aca-269e-42c7-bf20-a488309d90d9"}]},"request":{"method":"PUT","url":"Coverage/496578e2-e067-4746-9029-38780ec3bbd8"}},{"resource":{"resourceType":"Bundle","id":"612e6a9002c62a011f2ea5f9","type":"transaction","entry":[{"fullUrl":"https://madie.cms.gov/Patient/39baa108-b124-4300-b71c-dc21cc509d64","resource":{"resourceType":"Patient","id":"39baa108-b124-4300-b71c-dc21cc509d64","meta":{"profile":["http://hl7.org/fhir/us/qicore/StructureDefinition/qicore-patient"]},"text":{"status":"generated","div":"<div xmlns=\"http://www.w3.org/1999/xhtml\"><div class=\"hapiHeaderText\">DAGCSDayAfterAnes<b>NUMERPASS </b></div><table class=\"hapiPropertyTable\"><tbody><tr><td>Identifier</td><td>af7fb96c408ff8f32d85ce64a563f18b</td></tr><tr><td>Date of birth</td><td><span>02 January 1974</span></td></tr></tbody></table></div>"},"extension":[{"url":"http://hl7.org/fhir/us/core/StructureDefinition/us-core-race","extension":[{"url":"ombCategory","valueCoding":{"system":"urn:oid:2.16.840.1.113883.6.238","code":"1002-5","display":"American Indian or Alaska Native","userSelected":true}},{"url":"text","valueString":"American Indian or Alaska Native"}]},{"url":"http://hl7.org/fhir/us/core/StructureDefinition/us-core-ethnicity","extension":[{"url":"ombCategory","valueCoding":{"system":"urn:oid:2.16.840.1.113883.6.238","code":"2135-2","display":"Hispanic or Latino","userSelected":true}},{"url":"text","valueString":"Hispanic or Latino"}]}],"identifier":[{"type":{"coding":[{"system":"http://terminology.hl7.org/CodeSystem/v2-0203","code":"MR"}]},"system":"https://bonnie-fhir.healthit.gov/","value":"612e6a9002c62a011f2ea5f9"}],"active":true,"name":[{"use":"usual","family":"NUMERPass","given":["DAGCSDayAfterAnes"]}],"gender":"male","birthDate":"1975-01-02"},"request":{"method":"PUT","url":"Patient/39baa108-b124-4300-b71c-dc21cc509d64"}},{"fullUrl":"https://madie.cms.gov/Encounter/6ad82314-0912-4b83-adbf-bbc4289c3755","resource":{"resourceType":"Encounter","id":"6ad82314-0912-4b83-adbf-bbc4289c3755","meta":{"profile":["http://hl7.org/fhir/us/qicore/StructureDefinition/qicore-encounter"]},"status":"finished","class":{"system":"http://terminology.hl7.org/CodeSystem/v3-ActCode","code":"IMP","display":"inpatient encounter"},"type":[{"coding":[{"system":"http://snomed.info/sct","code":"8715000"}]}],"subject":{"reference":"Patient/39baa108-b124-4300-b71c-dc21cc509d64"},"period":{"start":"2026-11-01T08:00:00.000+00:00","end":"2026-11-26T08:15:00.000+00:00"},"length":{"value":25.0,"unit":"days"},"location":[{"location":{"reference":"Location/5131d56e-abf8-4394-a1a8-8f0484fcbdf1"},"period":{"start":"2026-11-03T08:15:00.000+00:00","end":"2026-11-06T08:00:00.000+00:00"}}]},"request":{"method":"PUT","url":"Encounter/6ad82314-0912-4b83-adbf-bbc4289c3755"}},{"fullUrl":"https://madie.cms.gov/Coverage/496578e2-e067-4746-9029-38780ec3bbd8","resource":{"resourceType":"Coverage","id":"496578e2-e067-4746-9029-38780ec3bbd8","status":"active","beneficiary":{"reference":"Patient/39baa108-b124-4300-b71c-dc21cc509d64"},"period":{"start":"1975-01-02T08:00:00.000+00:00"},"payor":[{"reference":"Organization/aa583aca-269e-42c7-bf20-a488309d90d9"}]},"request":{"method":"PUT","url":"Coverage/496578e2-e067-4746-9029-38780ec3bbd8"}},{"fullUrl":"https://madie.cms.gov/Procedure/a8c5da10-c946-48e8-9842-efc0f20997a8","resource":{"resourceType":"Procedure","id":"a8c5da10-c946-48e8-9842-efc0f20997a8","meta":{"profile":["http://hl7.org/fhir/us/qicore/StructureDefinition/qicore-procedure"]},"extension":[{"url":"http://hl7.org/fhir/us/qicore/StructureDefinition/qicore-recorded","valueDateTime":"2013-11-19T13:35:00.000+00:00"}],"status":"completed","code":{"coding":[{"system":"http://snomed.info/sct","code":"18946005"}]},"subject":{"reference":"Patient/39baa108-b124-4300-b71c-dc21cc509d64"},"performedPeriod":{"start":"2026-11-03T09:00:00.000+00:00","end":"2026-11-03T19:15:00.000+00:00"}},"request":{"method":"PUT","url":"Procedure/a8c5da10-c946-48e8-9842-efc0f20997a8"}},{"fullUrl":"https://madie.cms.gov/Procedure/660d455b-61bb-48b5-b52c-aea7866c22d4","resource":{"resourceType":"Procedure","id":"660d455b-61bb-48b5-b52c-aea7866c22d4","meta":{"profile":["http://hl7.org/fhir/us/qicore/StructureDefinition/qicore-procedure"]},"extension":[{"url":"http://hl7.org/fhir/us/qicore/StructureDefinition/qicore-recorded","valueDateTime":"2013-11-01T13:35:00.000+00:00"}],"status":"completed","code":{"coding":[{"system":"http://snomed.info/sct","code":"442410008","display":"Application of venous foot pump (procedure)"}]},"subject":{"reference":"Patient/39baa108-b124-4300-b71c-dc21cc509d64"},"performedDateTime":"2026-11-04T07:00:00.000+00:00","usedCode":[{"coding":[{"system":"http://snomed.info/sct","code":"229511001","display":"Application of graduated compression garment (procedure)","userSelected":true}]}]},"request":{"method":"PUT","url":"Procedure/660d455b-61bb-48b5-b52c-aea7866c22d4"}},{"fullUrl":"https://madie.cms.gov/Organization/aa583aca-269e-42c7-bf20-a488309d90d9","resource":{"resourceType":"Organization","id":"aa583aca-269e-42c7-bf20-a488309d90d9","meta":{"profile":["http://hl7.org/fhir/us/qicore/StructureDefinition/qicore-organization"]},"identifier":[{"use":"temp","system":"urn:oid:2.16.840.1.113883.4.4","value":"21-3259825"}],"active":true,"type":[{"coding":[{"system":"http://terminology.hl7.org/CodeSystem/organization-type","code":"pay","display":"Payer"}]}],"name":"Blue Cross Blue Shield of Texas","telecom":[{"system":"phone","value":"(+1) 972-766-6900"}],"address":[{"use":"billing","type":"postal","line":["P.O. Box 660044"],"city":"Dallas","state":"TX","postalCode":"75266-0044","country":"USA"}]},"request":{"method":"PUT","url":"Organization/aa583aca-269e-42c7-bf20-a488309d90d9"}},{"fullUrl":"https://madie.cms.gov/Practitioner/1c1dd6e0-5aec-4d6f-a9dc-391858c34774","resource":{"resourceType":"Practitioner","id":"1c1dd6e0-5aec-4d6f-a9dc-391858c34774","identifier":[{"system":"http://hl7.org/fhir/sid/us-npi","value":"123456"}],"name":[{"family":"Evil","prefix":["Dr"]}]},"request":{"method":"PUT","url":"Practitioner/1c1dd6e0-5aec-4d6f-a9dc-391858c34774"}},{"fullUrl":"https://madie.cms.gov/Location/5131d56e-abf8-4394-a1a8-8f0484fcbdf1","resource":{"resourceType":"Location","id":"5131d56e-abf8-4394-a1a8-8f0484fcbdf1","meta":{"profile":["http://hl7.org/fhir/us/qicore/StructureDefinition/qicore-location"]},"identifier":[{"use":"usual","system":"http://exampleoflocation.com","value":"B1-S.F2"}],"name":"Medical Surgical East, first floor","type":[{"coding":[{"system":"https://www.cdc.gov/nhsn/cdaportal/terminology/codesystem/hsloc.html","code":"1025-6","display":"Trauma Critical Care","userSelected":true}]}]},"request":{"method":"PUT","url":"Location/5131d56e-abf8-4394-a1a8-8f0484fcbdf1"}},{"fullUrl":"https://madie.cms.gov/MeasureReport/136c9b93-b74c-4d0c-84ca-13193b1ffb3b","resource":{"resourceType":"MeasureReport","id":"136c9b93-b74c-4d0c-84ca-13193b1ffb3b","meta":{"profile":["http://hl7.org/fhir/us/cqfmeasures/StructureDefinition/test-case-cqfm"]},"contained":[{"resourceType":"Parameters","id":"f9b07cd2-0ff7-412a-aedc-04fef925f802-parameters","parameter":[{"name":"subject","valueString":"39baa108-b124-4300-b71c-dc21cc509d64"}]}],"extension":[{"url":"http://hl7.org/fhir/StructureDefinition/cqf-inputParameters","valueReference":{"reference":"#f9b07cd2-0ff7-412a-aedc-04fef925f802-parameters"}},{"url":"http://hl7.org/fhir/us/cqfmeasures/StructureDefinition/cqfm-testCaseDescription","valueMarkdown":"Device GCS applied on 1 Day After Anesthesia sug "}],"modifierExtension":[{"url":"http://hl7.org/fhir/us/cqfmeasures/StructureDefinition/cqfm-isTestCase","valueBoolean":true}],"status":"complete","type":"individual","measure":"https://madie.cms.gov/Measure/CMS190VTEProphylaxisICUFHIR","period":{"start":"2026-01-01","end":"2026-12-31"},"group":[{"id":"Group_1","population":[{"id":"InitialPopulation_1","code":{"coding":[{"system":"http://terminology.hl7.org/CodeSystem/measure-population","code":"initial-population","display":"Initial Population"}]},"count":1},{"id":"Denominator_1","code":{"coding":[{"system":"http://terminology.hl7.org/CodeSystem/measure-population","code":"denominator","display":"Denominator"}]},"count":1},{"id":"DenominatorExclusion_1","code":{"coding":[{"system":"http://terminology.hl7.org/CodeSystem/measure-population","code":"denominator-exclusion","display":"Denominator Exclusion"}]},"count":0},{"id":"Numerator_1","code":{"coding":[{"system":"http://terminology.hl7.org/CodeSystem/measure-population","code":"numerator","display":"Numerator"}]},"count":1},{"id":"DenominatorException_1","code":{"coding":[{"system":"http://terminology.hl7.org/CodeSystem/measure-population","code":"denominator-exception","display":"Denominator Exception"}]},"count":0}],"measureScore":{"value":0.0}}],"evaluatedResource":[{"reference":"Patient/39baa108-b124-4300-b71c-dc21cc509d64"},{"reference":"Encounter/6ad82314-0912-4b83-adbf-bbc4289c3755"},{"reference":"Coverage/496578e2-e067-4746-9029-38780ec3bbd8"},{"reference":"Procedure/a8c5da10-c946-48e8-9842-efc0f20997a8"},{"reference":"Procedure/660d455b-61bb-48b5-b52c-aea7866c22d4"},{"reference":"Organization/aa583aca-269e-42c7-bf20-a488309d90d9"},{"reference":"Practitioner/1c1dd6e0-5aec-4d6f-a9dc-391858c34774"},{"reference":"Location/5131d56e-abf8-4394-a1a8-8f0484fcbdf1"}]},"request":{"method":"PUT","url":"MeasureReport/136c9b93-b74c-4d0c-84ca-13193b1ffb3b"}}]},"request":{"method":"PUT","url":"Bundle/612e6a9002c62a011f2ea5f9"}}]}