{"resourceType":"Bundle","id":"tests-769b9fe2-bc63-4e59-8b42-703c98fe22b7-bundle","type":"transaction","entry":[{"resource":{"resourceType":"Bundle","id":"612e6ead02c62a011f2ef3a8","type":"transaction","entry":[{"fullUrl":"https://madie.cms.gov/Patient/769b9fe2-bc63-4e59-8b42-703c98fe22b7","resource":{"resourceType":"Patient","id":"769b9fe2-bc63-4e59-8b42-703c98fe22b7","meta":{"profile":["http://hl7.org/fhir/us/qicore/StructureDefinition/qicore-patient"]},"text":{"status":"generated","div":"<div xmlns=\"http://www.w3.org/1999/xhtml\"><div class=\"hapiHeaderText\">1LOSLT1DayICU2ndICULOSGT1Day <b>DENOMPASS </b></div><table class=\"hapiPropertyTable\"><tbody><tr><td>Identifier</td><td>6d76be9baa47bc8df50fa14784b8bb58</td></tr><tr><td>Date of birth</td><td><span>03 March 1974</span></td></tr></tbody></table></div>"},"extension":[{"url":"http://hl7.org/fhir/us/core/StructureDefinition/us-core-race","extension":[{"url":"ombCategory","valueCoding":{"system":"urn:oid:2.16.840.1.113883.6.238","code":"1002-5","display":"American Indian or Alaska Native","userSelected":true}},{"url":"text","valueString":"American Indian or Alaska Native"}]},{"url":"http://hl7.org/fhir/us/core/StructureDefinition/us-core-ethnicity","extension":[{"url":"ombCategory","valueCoding":{"system":"urn:oid:2.16.840.1.113883.6.238","code":"2135-2","display":"Hispanic or Latino","userSelected":true}},{"url":"text","valueString":"Hispanic or Latino"}]}],"identifier":[{"type":{"coding":[{"system":"http://terminology.hl7.org/CodeSystem/v2-0203","code":"MR"}]},"system":"https://bonnie-fhir.healthit.gov/","value":"612e6ead02c62a011f2ef3a8"}],"active":true,"name":[{"use":"usual","family":"DENOMPass","given":["1LOSLT1DayICU2ndICULOSGT1Day"]}],"gender":"female","birthDate":"1975-03-03"},"request":{"method":"PUT","url":"Patient/769b9fe2-bc63-4e59-8b42-703c98fe22b7"}},{"fullUrl":"https://madie.cms.gov/Encounter/6ed95996-09a8-41df-8daa-0e78155d6a10","resource":{"resourceType":"Encounter","id":"6ed95996-09a8-41df-8daa-0e78155d6a10","meta":{"profile":["http://hl7.org/fhir/us/qicore/StructureDefinition/qicore-encounter"]},"status":"finished","class":{"system":"http://terminology.hl7.org/CodeSystem/v3-ActCode","code":"IMP","display":"inpatient encounter"},"type":[{"coding":[{"system":"http://snomed.info/sct","code":"8715000","display":"Hospital admission, elective (procedure)"}]}],"subject":{"reference":"Patient/769b9fe2-bc63-4e59-8b42-703c98fe22b7"},"period":{"start":"2026-12-04T08:00:00.000+00:00","end":"2026-12-30T08:15:00.000+00:00"},"length":{"value":26.0,"unit":"days"},"location":[{"location":{"reference":"Location/ef131da5-50fd-4a4b-b542-8addb2b8f40d"},"period":{"start":"2026-12-06T08:00:00.000+00:00","end":"2026-12-06T18:15:00.000+00:00"}},{"location":{"reference":"Location/45efe054-3e28-410e-a43f-7628d6db68d5"},"period":{"start":"2026-12-23T08:00:00.000+00:00","end":"2026-12-27T08:15:00.000+00:00"}}]},"request":{"method":"PUT","url":"Encounter/6ed95996-09a8-41df-8daa-0e78155d6a10"}},{"fullUrl":"https://madie.cms.gov/MedicationAdministration/883885d0-6c85-4b91-b1dd-80254d7fbb59","resource":{"resourceType":"MedicationAdministration","id":"883885d0-6c85-4b91-b1dd-80254d7fbb59","meta":{"profile":["http://hl7.org/fhir/us/qicore/StructureDefinition/qicore-medicationadministration"]},"status":"completed","medicationCodeableConcept":{"coding":[{"system":"http://www.nlm.nih.gov/research/umls/rxnorm","code":"861356"}]},"subject":{"reference":"Patient/769b9fe2-bc63-4e59-8b42-703c98fe22b7"},"effectiveDateTime":"2026-12-31T08:05:00.000+00:00"},"request":{"method":"PUT","url":"MedicationAdministration/883885d0-6c85-4b91-b1dd-80254d7fbb59"}},{"fullUrl":"https://madie.cms.gov/Coverage/cc96f82b-12a3-4bf7-9f15-55f836f13b8e","resource":{"resourceType":"Coverage","id":"cc96f82b-12a3-4bf7-9f15-55f836f13b8e","status":"active","beneficiary":{"reference":"Patient/769b9fe2-bc63-4e59-8b42-703c98fe22b7"},"period":{"start":"1975-03-03T08:00:00.000+00:00"},"payor":[{"reference":"Organization/6eeb7700-9a82-4d52-9397-e578eebbf943"}]},"request":{"method":"PUT","url":"Coverage/cc96f82b-12a3-4bf7-9f15-55f836f13b8e"}},{"fullUrl":"https://madie.cms.gov/Location/ef131da5-50fd-4a4b-b542-8addb2b8f40d","resource":{"resourceType":"Location","id":"ef131da5-50fd-4a4b-b542-8addb2b8f40d","meta":{"profile":["http://hl7.org/fhir/us/qicore/StructureDefinition/qicore-location"]},"identifier":[{"use":"usual","system":"http://exampleoflocation.com","value":"B1-S.F2"}],"name":"Medical Surgical East, first floor","type":[{"coding":[{"system":"https://www.cdc.gov/nhsn/cdaportal/terminology/codesystem/hsloc.html","version":"2020","code":"1025-6","display":"Trauma Critical Care","userSelected":true}]}]},"request":{"method":"PUT","url":"Location/ef131da5-50fd-4a4b-b542-8addb2b8f40d"}},{"fullUrl":"https://madie.cms.gov/Location/45efe054-3e28-410e-a43f-7628d6db68d5","resource":{"resourceType":"Location","id":"45efe054-3e28-410e-a43f-7628d6db68d5","meta":{"profile":["http://hl7.org/fhir/us/qicore/StructureDefinition/qicore-location"]},"identifier":[{"use":"usual","system":"http://exampleoflocation.com","value":"A1-S.F2"}],"name":"Medical Surgical West, first floor","type":[{"coding":[{"system":"https://www.cdc.gov/nhsn/cdaportal/terminology/codesystem/hsloc.html","version":"2020","code":"1025-6","display":"Trauma Critical Care","userSelected":true}]}]},"request":{"method":"PUT","url":"Location/45efe054-3e28-410e-a43f-7628d6db68d5"}},{"fullUrl":"https://madie.cms.gov/Organization/6eeb7700-9a82-4d52-9397-e578eebbf943","resource":{"resourceType":"Organization","id":"6eeb7700-9a82-4d52-9397-e578eebbf943","meta":{"profile":["http://hl7.org/fhir/us/qicore/StructureDefinition/qicore-organization"]},"identifier":[{"use":"temp","system":"urn:oid:2.16.840.1.113883.4.4","value":"21-3259825"}],"active":true,"type":[{"coding":[{"system":"http://terminology.hl7.org/CodeSystem/organization-type","code":"pay","display":"Payer"}]}],"name":"Blue Cross Blue Shield of Texas","telecom":[{"system":"phone","value":"(+1) 972-766-6900"}],"address":[{"use":"billing","type":"postal","line":["P.O. Box 660044"],"city":"Dallas","state":"TX","postalCode":"75266-0044","country":"USA"}]},"request":{"method":"PUT","url":"Organization/6eeb7700-9a82-4d52-9397-e578eebbf943"}},{"fullUrl":"https://madie.cms.gov/MeasureReport/943f45eb-f58e-426e-9256-72c3bdc148d7","resource":{"resourceType":"MeasureReport","id":"943f45eb-f58e-426e-9256-72c3bdc148d7","meta":{"profile":["http://hl7.org/fhir/us/cqfmeasures/StructureDefinition/test-case-cqfm"]},"contained":[{"resourceType":"Parameters","id":"a2adc30a-b4da-429e-900e-4efc0f65f028-parameters","parameter":[{"name":"subject","valueString":"769b9fe2-bc63-4e59-8b42-703c98fe22b7"}]}],"extension":[{"url":"http://hl7.org/fhir/StructureDefinition/cqf-inputParameters","valueReference":{"reference":"#a2adc30a-b4da-429e-900e-4efc0f65f028-parameters"}},{"url":"http://hl7.org/fhir/us/cqfmeasures/StructureDefinition/cqfm-testCaseDescription","valueMarkdown":"denominator exception for the first  ICU LOS < 1 day and 2nd is > 1 day\n"}],"modifierExtension":[{"url":"http://hl7.org/fhir/us/cqfmeasures/StructureDefinition/cqfm-isTestCase","valueBoolean":true}],"status":"complete","type":"individual","measure":"https://madie.cms.gov/Measure/CMS190VTEProphylaxisICUFHIR","period":{"start":"2026-01-01","end":"2026-12-31"},"group":[{"id":"Group_1","population":[{"id":"InitialPopulation_1","code":{"coding":[{"system":"http://terminology.hl7.org/CodeSystem/measure-population","code":"initial-population","display":"Initial Population"}]},"count":1},{"id":"Denominator_1","code":{"coding":[{"system":"http://terminology.hl7.org/CodeSystem/measure-population","code":"denominator","display":"Denominator"}]},"count":1},{"id":"DenominatorExclusion_1","code":{"coding":[{"system":"http://terminology.hl7.org/CodeSystem/measure-population","code":"denominator-exclusion","display":"Denominator Exclusion"}]},"count":0},{"id":"Numerator_1","code":{"coding":[{"system":"http://terminology.hl7.org/CodeSystem/measure-population","code":"numerator","display":"Numerator"}]},"count":0},{"id":"DenominatorException_1","code":{"coding":[{"system":"http://terminology.hl7.org/CodeSystem/measure-population","code":"denominator-exception","display":"Denominator Exception"}]},"count":1}],"measureScore":{"value":0.0}}],"evaluatedResource":[{"reference":"Patient/769b9fe2-bc63-4e59-8b42-703c98fe22b7"},{"reference":"Encounter/6ed95996-09a8-41df-8daa-0e78155d6a10"},{"reference":"MedicationAdministration/883885d0-6c85-4b91-b1dd-80254d7fbb59"},{"reference":"Coverage/cc96f82b-12a3-4bf7-9f15-55f836f13b8e"},{"reference":"Location/ef131da5-50fd-4a4b-b542-8addb2b8f40d"},{"reference":"Location/45efe054-3e28-410e-a43f-7628d6db68d5"},{"reference":"Organization/6eeb7700-9a82-4d52-9397-e578eebbf943"}]},"request":{"method":"PUT","url":"MeasureReport/943f45eb-f58e-426e-9256-72c3bdc148d7"}}]},"request":{"method":"PUT","url":"Bundle/612e6ead02c62a011f2ef3a8"}},{"resource":{"resourceType":"Location","id":"ef131da5-50fd-4a4b-b542-8addb2b8f40d","meta":{"profile":["http://hl7.org/fhir/us/qicore/StructureDefinition/qicore-location"]},"identifier":[{"use":"usual","system":"http://exampleoflocation.com","value":"B1-S.F2"}],"name":"Medical Surgical East, first floor","type":[{"coding":[{"system":"https://www.cdc.gov/nhsn/cdaportal/terminology/codesystem/hsloc.html","version":"2020","code":"1025-6","display":"Trauma Critical Care","userSelected":true}]}]},"request":{"method":"PUT","url":"Location/ef131da5-50fd-4a4b-b542-8addb2b8f40d"}},{"resource":{"resourceType":"Organization","id":"6eeb7700-9a82-4d52-9397-e578eebbf943","meta":{"profile":["http://hl7.org/fhir/us/qicore/StructureDefinition/qicore-organization"]},"identifier":[{"use":"temp","system":"urn:oid:2.16.840.1.113883.4.4","value":"21-3259825"}],"active":true,"type":[{"coding":[{"system":"http://terminology.hl7.org/CodeSystem/organization-type","code":"pay","display":"Payer"}]}],"name":"Blue Cross Blue Shield of Texas","telecom":[{"system":"phone","value":"(+1) 972-766-6900"}],"address":[{"use":"billing","type":"postal","line":["P.O. Box 660044"],"city":"Dallas","state":"TX","postalCode":"75266-0044","country":"USA"}]},"request":{"method":"PUT","url":"Organization/6eeb7700-9a82-4d52-9397-e578eebbf943"}},{"resource":{"resourceType":"MedicationAdministration","id":"883885d0-6c85-4b91-b1dd-80254d7fbb59","meta":{"profile":["http://hl7.org/fhir/us/qicore/StructureDefinition/qicore-medicationadministration"]},"status":"completed","medicationCodeableConcept":{"coding":[{"system":"http://www.nlm.nih.gov/research/umls/rxnorm","code":"861356"}]},"subject":{"reference":"Patient/769b9fe2-bc63-4e59-8b42-703c98fe22b7"},"effectiveDateTime":"2026-12-31T08:05:00.000+00:00"},"request":{"method":"PUT","url":"MedicationAdministration/883885d0-6c85-4b91-b1dd-80254d7fbb59"}},{"resource":{"resourceType":"MeasureReport","id":"943f45eb-f58e-426e-9256-72c3bdc148d7","meta":{"profile":["http://hl7.org/fhir/us/cqfmeasures/StructureDefinition/test-case-cqfm"]},"contained":[{"resourceType":"Parameters","id":"a2adc30a-b4da-429e-900e-4efc0f65f028-parameters","parameter":[{"name":"subject","valueString":"769b9fe2-bc63-4e59-8b42-703c98fe22b7"}]}],"extension":[{"url":"http://hl7.org/fhir/StructureDefinition/cqf-inputParameters","valueReference":{"reference":"#a2adc30a-b4da-429e-900e-4efc0f65f028-parameters"}},{"url":"http://hl7.org/fhir/us/cqfmeasures/StructureDefinition/cqfm-testCaseDescription","valueMarkdown":"denominator exception for the first  ICU LOS < 1 day and 2nd is > 1 day\n"}],"modifierExtension":[{"url":"http://hl7.org/fhir/us/cqfmeasures/StructureDefinition/cqfm-isTestCase","valueBoolean":true}],"status":"complete","type":"individual","measure":"https://madie.cms.gov/Measure/CMS190VTEProphylaxisICUFHIR","period":{"start":"2026-01-01","end":"2026-12-31"},"group":[{"id":"Group_1","population":[{"id":"InitialPopulation_1","code":{"coding":[{"system":"http://terminology.hl7.org/CodeSystem/measure-population","code":"initial-population","display":"Initial Population"}]},"count":1},{"id":"Denominator_1","code":{"coding":[{"system":"http://terminology.hl7.org/CodeSystem/measure-population","code":"denominator","display":"Denominator"}]},"count":1},{"id":"DenominatorExclusion_1","code":{"coding":[{"system":"http://terminology.hl7.org/CodeSystem/measure-population","code":"denominator-exclusion","display":"Denominator Exclusion"}]},"count":0},{"id":"Numerator_1","code":{"coding":[{"system":"http://terminology.hl7.org/CodeSystem/measure-population","code":"numerator","display":"Numerator"}]},"count":0},{"id":"DenominatorException_1","code":{"coding":[{"system":"http://terminology.hl7.org/CodeSystem/measure-population","code":"denominator-exception","display":"Denominator Exception"}]},"count":1}],"measureScore":{"value":0.0}}],"evaluatedResource":[{"reference":"Patient/769b9fe2-bc63-4e59-8b42-703c98fe22b7"},{"reference":"Encounter/6ed95996-09a8-41df-8daa-0e78155d6a10"},{"reference":"MedicationAdministration/883885d0-6c85-4b91-b1dd-80254d7fbb59"},{"reference":"Coverage/cc96f82b-12a3-4bf7-9f15-55f836f13b8e"},{"reference":"Location/ef131da5-50fd-4a4b-b542-8addb2b8f40d"},{"reference":"Location/45efe054-3e28-410e-a43f-7628d6db68d5"},{"reference":"Organization/6eeb7700-9a82-4d52-9397-e578eebbf943"}]},"request":{"method":"PUT","url":"MeasureReport/943f45eb-f58e-426e-9256-72c3bdc148d7"}},{"resource":{"resourceType":"Location","id":"45efe054-3e28-410e-a43f-7628d6db68d5","meta":{"profile":["http://hl7.org/fhir/us/qicore/StructureDefinition/qicore-location"]},"identifier":[{"use":"usual","system":"http://exampleoflocation.com","value":"A1-S.F2"}],"name":"Medical Surgical West, first floor","type":[{"coding":[{"system":"https://www.cdc.gov/nhsn/cdaportal/terminology/codesystem/hsloc.html","version":"2020","code":"1025-6","display":"Trauma Critical Care","userSelected":true}]}]},"request":{"method":"PUT","url":"Location/45efe054-3e28-410e-a43f-7628d6db68d5"}},{"resource":{"resourceType":"Encounter","id":"6ed95996-09a8-41df-8daa-0e78155d6a10","meta":{"profile":["http://hl7.org/fhir/us/qicore/StructureDefinition/qicore-encounter"]},"status":"finished","class":{"system":"http://terminology.hl7.org/CodeSystem/v3-ActCode","code":"IMP","display":"inpatient encounter"},"type":[{"coding":[{"system":"http://snomed.info/sct","code":"8715000","display":"Hospital admission, elective (procedure)"}]}],"subject":{"reference":"Patient/769b9fe2-bc63-4e59-8b42-703c98fe22b7"},"period":{"start":"2026-12-04T08:00:00.000+00:00","end":"2026-12-30T08:15:00.000+00:00"},"length":{"value":26.0,"unit":"days"},"location":[{"location":{"reference":"Location/ef131da5-50fd-4a4b-b542-8addb2b8f40d"},"period":{"start":"2026-12-06T08:00:00.000+00:00","end":"2026-12-06T18:15:00.000+00:00"}},{"location":{"reference":"Location/45efe054-3e28-410e-a43f-7628d6db68d5"},"period":{"start":"2026-12-23T08:00:00.000+00:00","end":"2026-12-27T08:15:00.000+00:00"}}]},"request":{"method":"PUT","url":"Encounter/6ed95996-09a8-41df-8daa-0e78155d6a10"}},{"resource":{"resourceType":"Patient","id":"769b9fe2-bc63-4e59-8b42-703c98fe22b7","meta":{"profile":["http://hl7.org/fhir/us/qicore/StructureDefinition/qicore-patient"]},"text":{"status":"generated","div":"<div xmlns=\"http://www.w3.org/1999/xhtml\"><div class=\"hapiHeaderText\">1LOSLT1DayICU2ndICULOSGT1Day <b>DENOMPASS </b></div><table class=\"hapiPropertyTable\"><tbody><tr><td>Identifier</td><td>6d76be9baa47bc8df50fa14784b8bb58</td></tr><tr><td>Date of birth</td><td><span>03 March 1974</span></td></tr></tbody></table></div>"},"extension":[{"url":"http://hl7.org/fhir/us/core/StructureDefinition/us-core-race","extension":[{"url":"ombCategory","valueCoding":{"system":"urn:oid:2.16.840.1.113883.6.238","code":"1002-5","display":"American Indian or Alaska Native","userSelected":true}},{"url":"text","valueString":"American Indian or Alaska Native"}]},{"url":"http://hl7.org/fhir/us/core/StructureDefinition/us-core-ethnicity","extension":[{"url":"ombCategory","valueCoding":{"system":"urn:oid:2.16.840.1.113883.6.238","code":"2135-2","display":"Hispanic or Latino","userSelected":true}},{"url":"text","valueString":"Hispanic or Latino"}]}],"identifier":[{"type":{"coding":[{"system":"http://terminology.hl7.org/CodeSystem/v2-0203","code":"MR"}]},"system":"https://bonnie-fhir.healthit.gov/","value":"612e6ead02c62a011f2ef3a8"}],"active":true,"name":[{"use":"usual","family":"DENOMPass","given":["1LOSLT1DayICU2ndICULOSGT1Day"]}],"gender":"female","birthDate":"1975-03-03"},"request":{"method":"PUT","url":"Patient/769b9fe2-bc63-4e59-8b42-703c98fe22b7"}},{"resource":{"resourceType":"Coverage","id":"cc96f82b-12a3-4bf7-9f15-55f836f13b8e","status":"active","beneficiary":{"reference":"Patient/769b9fe2-bc63-4e59-8b42-703c98fe22b7"},"period":{"start":"1975-03-03T08:00:00.000+00:00"},"payor":[{"reference":"Organization/6eeb7700-9a82-4d52-9397-e578eebbf943"}]},"request":{"method":"PUT","url":"Coverage/cc96f82b-12a3-4bf7-9f15-55f836f13b8e"}}]}