{"resourceType":"Bundle","id":"tests-2ba8879a-0026-4837-ba3c-d9c4504dadf7-bundle","type":"transaction","entry":[{"fullUrl":"Coverage/0ba3d2e7-fb38-4cc1-a55e-1bcb49299192","resource":{"resourceType":"Coverage","id":"0ba3d2e7-fb38-4cc1-a55e-1bcb49299192","status":"active","beneficiary":{"reference":"Patient/2ba8879a-0026-4837-ba3c-d9c4504dadf7"},"period":{"start":"1975-03-03T08:00:00.000+00:00"},"payor":[{"reference":"Organization/1ae2338d-7f5f-4d7e-b25b-7e20b8de3973"}]},"request":{"method":"PUT","url":"Coverage/0ba3d2e7-fb38-4cc1-a55e-1bcb49299192"}},{"fullUrl":"Location/1cebb993-8674-4db3-8238-2c5d30fe0142","resource":{"resourceType":"Location","id":"1cebb993-8674-4db3-8238-2c5d30fe0142","meta":{"profile":["http://hl7.org/fhir/us/qicore/StructureDefinition/qicore-location"]},"identifier":[{"use":"usual","system":"http://exampleoflocation.com","value":"B1-S.F2"}],"name":"Medical Surgical East, first floor","type":[{"coding":[{"system":"https://www.cdc.gov/nhsn/cdaportal/terminology/codesystem/hsloc.html","code":"1025-6","display":"Trauma Critical Care","userSelected":true}]}]},"request":{"method":"PUT","url":"Location/1cebb993-8674-4db3-8238-2c5d30fe0142"}},{"fullUrl":"Patient/2ba8879a-0026-4837-ba3c-d9c4504dadf7","resource":{"resourceType":"Patient","id":"2ba8879a-0026-4837-ba3c-d9c4504dadf7","meta":{"profile":["http://hl7.org/fhir/us/qicore/StructureDefinition/qicore-patient"]},"text":{"status":"generated","div":"<div xmlns=\"http://www.w3.org/1999/xhtml\"><div class=\"hapiHeaderText\">ICUStartConcurrentEncStart <b>DENOMPASS </b></div><table class=\"hapiPropertyTable\"><tbody><tr><td>Identifier</td><td>d2ffb757f543275338776a1648cb3dc0</td></tr><tr><td>Date of birth</td><td><span>31 January 1979</span></td></tr></tbody></table></div>"},"extension":[{"url":"http://hl7.org/fhir/us/core/StructureDefinition/us-core-race","extension":[{"url":"ombCategory","valueCoding":{"system":"urn:oid:2.16.840.1.113883.6.238","code":"1002-5","display":"American Indian or Alaska Native","userSelected":true}},{"url":"text","valueString":"American Indian or Alaska Native"}]},{"url":"http://hl7.org/fhir/us/core/StructureDefinition/us-core-ethnicity","extension":[{"url":"ombCategory","valueCoding":{"system":"urn:oid:2.16.840.1.113883.6.238","code":"2135-2","display":"Hispanic or Latino","userSelected":true}},{"url":"text","valueString":"Hispanic or Latino"}]}],"identifier":[{"type":{"coding":[{"system":"http://terminology.hl7.org/CodeSystem/v2-0203","code":"MR"}]},"system":"https://bonnie-fhir.healthit.gov/","value":"612e6f1602c62a011f2f0b00"}],"active":true,"name":[{"use":"usual","family":"DENOMPass","given":["ICUStartConcurrentEncStart"]}],"gender":"male","birthDate":"1980-01-31"},"request":{"method":"PUT","url":"Patient/2ba8879a-0026-4837-ba3c-d9c4504dadf7"}},{"fullUrl":"Practitioner/37520819-d2ce-4d7f-914d-3e5142734978","resource":{"resourceType":"Practitioner","id":"37520819-d2ce-4d7f-914d-3e5142734978","identifier":[{"system":"http://hl7.org/fhir/sid/us-npi","value":"123456"}],"name":[{"family":"Evil","prefix":["Dr"]}]},"request":{"method":"PUT","url":"Practitioner/37520819-d2ce-4d7f-914d-3e5142734978"}},{"fullUrl":"Organization/1ae2338d-7f5f-4d7e-b25b-7e20b8de3973","resource":{"resourceType":"Organization","id":"1ae2338d-7f5f-4d7e-b25b-7e20b8de3973","meta":{"profile":["http://hl7.org/fhir/us/qicore/StructureDefinition/qicore-organization"]},"identifier":[{"use":"temp","system":"urn:oid:2.16.840.1.113883.4.4","value":"21-3259825"}],"active":true,"type":[{"coding":[{"system":"http://terminology.hl7.org/CodeSystem/organization-type","code":"pay","display":"Payer"}]}],"name":"Blue Cross Blue Shield of Texas","telecom":[{"system":"phone","value":"(+1) 972-766-6900"}],"address":[{"use":"billing","type":"postal","line":["P.O. Box 660044"],"city":"Dallas","state":"TX","postalCode":"75266-0044","country":"USA"}]},"request":{"method":"PUT","url":"Organization/1ae2338d-7f5f-4d7e-b25b-7e20b8de3973"}},{"fullUrl":"Bundle/612e6f1602c62a011f2f0b00","resource":{"resourceType":"Bundle","id":"612e6f1602c62a011f2f0b00","type":"transaction","entry":[{"fullUrl":"https://madie.cms.gov/Patient/2ba8879a-0026-4837-ba3c-d9c4504dadf7","resource":{"resourceType":"Patient","id":"2ba8879a-0026-4837-ba3c-d9c4504dadf7","meta":{"profile":["http://hl7.org/fhir/us/qicore/StructureDefinition/qicore-patient"]},"text":{"status":"generated","div":"<div xmlns=\"http://www.w3.org/1999/xhtml\"><div class=\"hapiHeaderText\">ICUStartConcurrentEncStart <b>DENOMPASS </b></div><table class=\"hapiPropertyTable\"><tbody><tr><td>Identifier</td><td>d2ffb757f543275338776a1648cb3dc0</td></tr><tr><td>Date of birth</td><td><span>31 January 1979</span></td></tr></tbody></table></div>"},"extension":[{"url":"http://hl7.org/fhir/us/core/StructureDefinition/us-core-race","extension":[{"url":"ombCategory","valueCoding":{"system":"urn:oid:2.16.840.1.113883.6.238","code":"1002-5","display":"American Indian or Alaska Native","userSelected":true}},{"url":"text","valueString":"American Indian or Alaska Native"}]},{"url":"http://hl7.org/fhir/us/core/StructureDefinition/us-core-ethnicity","extension":[{"url":"ombCategory","valueCoding":{"system":"urn:oid:2.16.840.1.113883.6.238","code":"2135-2","display":"Hispanic or Latino","userSelected":true}},{"url":"text","valueString":"Hispanic or Latino"}]}],"identifier":[{"type":{"coding":[{"system":"http://terminology.hl7.org/CodeSystem/v2-0203","code":"MR"}]},"system":"https://bonnie-fhir.healthit.gov/","value":"612e6f1602c62a011f2f0b00"}],"active":true,"name":[{"use":"usual","family":"DENOMPass","given":["ICUStartConcurrentEncStart"]}],"gender":"male","birthDate":"1980-01-31"},"request":{"method":"PUT","url":"Patient/2ba8879a-0026-4837-ba3c-d9c4504dadf7"}},{"fullUrl":"https://madie.cms.gov/Encounter/42837b8f-3811-439b-9e4d-a25a06745f28","resource":{"resourceType":"Encounter","id":"42837b8f-3811-439b-9e4d-a25a06745f28","meta":{"profile":["http://hl7.org/fhir/us/qicore/StructureDefinition/qicore-encounter"]},"status":"finished","class":{"system":"http://terminology.hl7.org/CodeSystem/v3-ActCode","code":"IMP","display":"inpatient encounter"},"type":[{"coding":[{"system":"http://snomed.info/sct","code":"8715000"}]}],"subject":{"reference":"Patient/2ba8879a-0026-4837-ba3c-d9c4504dadf7"},"period":{"start":"2026-12-01T08:00:00.000+00:00","end":"2026-12-31T23:59:00.000+00:00"},"length":{"value":30.0,"unit":"days"},"location":[{"location":{"reference":"Location/1cebb993-8674-4db3-8238-2c5d30fe0142"},"period":{"start":"2026-12-01T08:00:00.000+00:00","end":"2026-12-03T11:59:00.000+00:00"}}]},"request":{"method":"PUT","url":"Encounter/42837b8f-3811-439b-9e4d-a25a06745f28"}},{"fullUrl":"https://madie.cms.gov/Coverage/0ba3d2e7-fb38-4cc1-a55e-1bcb49299192","resource":{"resourceType":"Coverage","id":"0ba3d2e7-fb38-4cc1-a55e-1bcb49299192","status":"active","beneficiary":{"reference":"Patient/2ba8879a-0026-4837-ba3c-d9c4504dadf7"},"period":{"start":"1975-03-03T08:00:00.000+00:00"},"payor":[{"reference":"Organization/1ae2338d-7f5f-4d7e-b25b-7e20b8de3973"}]},"request":{"method":"PUT","url":"Coverage/0ba3d2e7-fb38-4cc1-a55e-1bcb49299192"}},{"fullUrl":"https://madie.cms.gov/Location/1cebb993-8674-4db3-8238-2c5d30fe0142","resource":{"resourceType":"Location","id":"1cebb993-8674-4db3-8238-2c5d30fe0142","meta":{"profile":["http://hl7.org/fhir/us/qicore/StructureDefinition/qicore-location"]},"identifier":[{"use":"usual","system":"http://exampleoflocation.com","value":"B1-S.F2"}],"name":"Medical Surgical East, first floor","type":[{"coding":[{"system":"https://www.cdc.gov/nhsn/cdaportal/terminology/codesystem/hsloc.html","code":"1025-6","display":"Trauma Critical Care","userSelected":true}]}]},"request":{"method":"PUT","url":"Location/1cebb993-8674-4db3-8238-2c5d30fe0142"}},{"fullUrl":"https://madie.cms.gov/Organization/1ae2338d-7f5f-4d7e-b25b-7e20b8de3973","resource":{"resourceType":"Organization","id":"1ae2338d-7f5f-4d7e-b25b-7e20b8de3973","meta":{"profile":["http://hl7.org/fhir/us/qicore/StructureDefinition/qicore-organization"]},"identifier":[{"use":"temp","system":"urn:oid:2.16.840.1.113883.4.4","value":"21-3259825"}],"active":true,"type":[{"coding":[{"system":"http://terminology.hl7.org/CodeSystem/organization-type","code":"pay","display":"Payer"}]}],"name":"Blue Cross Blue Shield of Texas","telecom":[{"system":"phone","value":"(+1) 972-766-6900"}],"address":[{"use":"billing","type":"postal","line":["P.O. Box 660044"],"city":"Dallas","state":"TX","postalCode":"75266-0044","country":"USA"}]},"request":{"method":"PUT","url":"Organization/1ae2338d-7f5f-4d7e-b25b-7e20b8de3973"}},{"fullUrl":"https://madie.cms.gov/Practitioner/37520819-d2ce-4d7f-914d-3e5142734978","resource":{"resourceType":"Practitioner","id":"37520819-d2ce-4d7f-914d-3e5142734978","identifier":[{"system":"http://hl7.org/fhir/sid/us-npi","value":"123456"}],"name":[{"family":"Evil","prefix":["Dr"]}]},"request":{"method":"PUT","url":"Practitioner/37520819-d2ce-4d7f-914d-3e5142734978"}},{"fullUrl":"https://madie.cms.gov/MeasureReport/f1af3845-21ba-4f0a-a93e-153d46be5dcc","resource":{"resourceType":"MeasureReport","id":"f1af3845-21ba-4f0a-a93e-153d46be5dcc","meta":{"profile":["http://hl7.org/fhir/us/cqfmeasures/StructureDefinition/test-case-cqfm"]},"contained":[{"resourceType":"Parameters","id":"7337a187-ec2e-40c9-9243-2010be8e14bd-parameters","parameter":[{"name":"subject","valueString":"2ba8879a-0026-4837-ba3c-d9c4504dadf7"}]}],"extension":[{"url":"http://hl7.org/fhir/StructureDefinition/cqf-inputParameters","valueReference":{"reference":"#7337a187-ec2e-40c9-9243-2010be8e14bd-parameters"}},{"url":"http://hl7.org/fhir/us/cqfmeasures/StructureDefinition/cqfm-testCaseDescription","valueMarkdown":"ICU starts concurrent with admission\n"}],"modifierExtension":[{"url":"http://hl7.org/fhir/us/cqfmeasures/StructureDefinition/cqfm-isTestCase","valueBoolean":true}],"status":"complete","type":"individual","measure":"https://madie.cms.gov/Measure/CMS190VTEProphylaxisICUFHIR","period":{"start":"2026-01-01","end":"2026-12-31"},"group":[{"id":"Group_1","population":[{"id":"InitialPopulation_1","code":{"coding":[{"system":"http://terminology.hl7.org/CodeSystem/measure-population","code":"initial-population","display":"Initial Population"}]},"count":1},{"id":"Denominator_1","code":{"coding":[{"system":"http://terminology.hl7.org/CodeSystem/measure-population","code":"denominator","display":"Denominator"}]},"count":1},{"id":"DenominatorExclusion_1","code":{"coding":[{"system":"http://terminology.hl7.org/CodeSystem/measure-population","code":"denominator-exclusion","display":"Denominator Exclusion"}]},"count":0},{"id":"Numerator_1","code":{"coding":[{"system":"http://terminology.hl7.org/CodeSystem/measure-population","code":"numerator","display":"Numerator"}]},"count":0},{"id":"DenominatorException_1","code":{"coding":[{"system":"http://terminology.hl7.org/CodeSystem/measure-population","code":"denominator-exception","display":"Denominator Exception"}]},"count":0}],"measureScore":{"value":0.0}}],"evaluatedResource":[{"reference":"Patient/2ba8879a-0026-4837-ba3c-d9c4504dadf7"},{"reference":"Encounter/42837b8f-3811-439b-9e4d-a25a06745f28"},{"reference":"Coverage/0ba3d2e7-fb38-4cc1-a55e-1bcb49299192"},{"reference":"Location/1cebb993-8674-4db3-8238-2c5d30fe0142"},{"reference":"Organization/1ae2338d-7f5f-4d7e-b25b-7e20b8de3973"},{"reference":"Practitioner/37520819-d2ce-4d7f-914d-3e5142734978"}]},"request":{"method":"PUT","url":"MeasureReport/f1af3845-21ba-4f0a-a93e-153d46be5dcc"}}]},"request":{"method":"PUT","url":"Bundle/612e6f1602c62a011f2f0b00"}},{"fullUrl":"Encounter/42837b8f-3811-439b-9e4d-a25a06745f28","resource":{"resourceType":"Encounter","id":"42837b8f-3811-439b-9e4d-a25a06745f28","meta":{"profile":["http://hl7.org/fhir/us/qicore/StructureDefinition/qicore-encounter"]},"status":"finished","class":{"system":"http://terminology.hl7.org/CodeSystem/v3-ActCode","code":"IMP","display":"inpatient encounter"},"type":[{"coding":[{"system":"http://snomed.info/sct","code":"8715000"}]}],"subject":{"reference":"Patient/2ba8879a-0026-4837-ba3c-d9c4504dadf7"},"period":{"start":"2026-12-01T08:00:00.000+00:00","end":"2026-12-31T23:59:00.000+00:00"},"length":{"value":30.0,"unit":"days"},"location":[{"location":{"reference":"Location/1cebb993-8674-4db3-8238-2c5d30fe0142"},"period":{"start":"2026-12-01T08:00:00.000+00:00","end":"2026-12-03T11:59:00.000+00:00"}}]},"request":{"method":"PUT","url":"Encounter/42837b8f-3811-439b-9e4d-a25a06745f28"}},{"fullUrl":"MeasureReport/f1af3845-21ba-4f0a-a93e-153d46be5dcc","resource":{"resourceType":"MeasureReport","id":"f1af3845-21ba-4f0a-a93e-153d46be5dcc","meta":{"profile":["http://hl7.org/fhir/us/cqfmeasures/StructureDefinition/test-case-cqfm"]},"contained":[{"resourceType":"Parameters","id":"7337a187-ec2e-40c9-9243-2010be8e14bd-parameters","parameter":[{"name":"subject","valueString":"2ba8879a-0026-4837-ba3c-d9c4504dadf7"}]}],"extension":[{"url":"http://hl7.org/fhir/StructureDefinition/cqf-inputParameters","valueReference":{"reference":"#7337a187-ec2e-40c9-9243-2010be8e14bd-parameters"}},{"url":"http://hl7.org/fhir/us/cqfmeasures/StructureDefinition/cqfm-testCaseDescription","valueMarkdown":"ICU starts concurrent with admission\n"}],"modifierExtension":[{"url":"http://hl7.org/fhir/us/cqfmeasures/StructureDefinition/cqfm-isTestCase","valueBoolean":true}],"status":"complete","type":"individual","measure":"https://madie.cms.gov/Measure/CMS190VTEProphylaxisICUFHIR","period":{"start":"2026-01-01","end":"2026-12-31"},"group":[{"id":"Group_1","population":[{"id":"InitialPopulation_1","code":{"coding":[{"system":"http://terminology.hl7.org/CodeSystem/measure-population","code":"initial-population","display":"Initial Population"}]},"count":1},{"id":"Denominator_1","code":{"coding":[{"system":"http://terminology.hl7.org/CodeSystem/measure-population","code":"denominator","display":"Denominator"}]},"count":1},{"id":"DenominatorExclusion_1","code":{"coding":[{"system":"http://terminology.hl7.org/CodeSystem/measure-population","code":"denominator-exclusion","display":"Denominator Exclusion"}]},"count":0},{"id":"Numerator_1","code":{"coding":[{"system":"http://terminology.hl7.org/CodeSystem/measure-population","code":"numerator","display":"Numerator"}]},"count":0},{"id":"DenominatorException_1","code":{"coding":[{"system":"http://terminology.hl7.org/CodeSystem/measure-population","code":"denominator-exception","display":"Denominator Exception"}]},"count":0}],"measureScore":{"value":0.0}}],"evaluatedResource":[{"reference":"Patient/2ba8879a-0026-4837-ba3c-d9c4504dadf7"},{"reference":"Encounter/42837b8f-3811-439b-9e4d-a25a06745f28"},{"reference":"Coverage/0ba3d2e7-fb38-4cc1-a55e-1bcb49299192"},{"reference":"Location/1cebb993-8674-4db3-8238-2c5d30fe0142"},{"reference":"Organization/1ae2338d-7f5f-4d7e-b25b-7e20b8de3973"},{"reference":"Practitioner/37520819-d2ce-4d7f-914d-3e5142734978"}]},"request":{"method":"PUT","url":"MeasureReport/f1af3845-21ba-4f0a-a93e-153d46be5dcc"}}]}