{"resourceType":"Bundle","id":"tests-57e2d87e-3b5e-4433-ab6d-6dca03878253-bundle","type":"transaction","entry":[{"fullUrl":"Organization/b3302cbf-cac5-488f-ba9f-a4a6ecc35168","resource":{"resourceType":"Organization","id":"b3302cbf-cac5-488f-ba9f-a4a6ecc35168","meta":{"profile":["http://hl7.org/fhir/us/qicore/StructureDefinition/qicore-organization"]},"identifier":[{"use":"temp","system":"urn:oid:2.16.840.1.113883.4.4","value":"21-3259825"}],"active":true,"type":[{"coding":[{"system":"http://terminology.hl7.org/CodeSystem/organization-type","code":"pay","display":"Payer"}]}],"name":"Blue Cross Blue Shield of Texas","telecom":[{"system":"phone","value":"(+1) 972-766-6900"}],"address":[{"use":"billing","type":"postal","line":["P.O. Box 660044"],"city":"Dallas","state":"TX","postalCode":"75266-0044","country":"USA"}]},"request":{"method":"PUT","url":"Organization/b3302cbf-cac5-488f-ba9f-a4a6ecc35168"}},{"fullUrl":"MeasureReport/10f6e431-abf9-451a-bfe9-8e0da3e43cf2","resource":{"resourceType":"MeasureReport","id":"10f6e431-abf9-451a-bfe9-8e0da3e43cf2","meta":{"profile":["http://hl7.org/fhir/us/cqfmeasures/StructureDefinition/test-case-cqfm"]},"contained":[{"resourceType":"Parameters","id":"4a337a15-43cb-43a5-81a0-4257f4d4ddef-parameters","parameter":[{"name":"subject","valueString":"57e2d87e-3b5e-4433-ab6d-6dca03878253"}]}],"extension":[{"url":"http://hl7.org/fhir/StructureDefinition/cqf-inputParameters","valueReference":{"reference":"#4a337a15-43cb-43a5-81a0-4257f4d4ddef-parameters"}},{"url":"http://hl7.org/fhir/us/cqfmeasures/StructureDefinition/cqfm-testCaseDescription","valueMarkdown":"vte risk assessment with low risk result concurrent with start of ICU admission and after neuraxial anesthesia\n"}],"modifierExtension":[{"url":"http://hl7.org/fhir/us/cqfmeasures/StructureDefinition/cqfm-isTestCase","valueBoolean":true}],"status":"complete","type":"individual","measure":"https://madie.cms.gov/Measure/CMS190VTEProphylaxisICUFHIR","period":{"start":"2026-01-01","end":"2026-12-31"},"group":[{"id":"Group_1","population":[{"id":"InitialPopulation_1","code":{"coding":[{"system":"http://terminology.hl7.org/CodeSystem/measure-population","code":"initial-population","display":"Initial Population"}]},"count":1},{"id":"Denominator_1","code":{"coding":[{"system":"http://terminology.hl7.org/CodeSystem/measure-population","code":"denominator","display":"Denominator"}]},"count":1},{"id":"DenominatorExclusion_1","code":{"coding":[{"system":"http://terminology.hl7.org/CodeSystem/measure-population","code":"denominator-exclusion","display":"Denominator Exclusion"}]},"count":0},{"id":"Numerator_1","code":{"coding":[{"system":"http://terminology.hl7.org/CodeSystem/measure-population","code":"numerator","display":"Numerator"}]},"count":1},{"id":"DenominatorException_1","code":{"coding":[{"system":"http://terminology.hl7.org/CodeSystem/measure-population","code":"denominator-exception","display":"Denominator Exception"}]},"count":0}],"measureScore":{"value":0.0}}],"evaluatedResource":[{"reference":"Patient/57e2d87e-3b5e-4433-ab6d-6dca03878253"},{"reference":"Encounter/d67f94f3-a23d-4ce6-b02e-b4231f890956"},{"reference":"Observation/f8307f50-5f07-4c0b-abae-cbe6cf80d4a7"},{"reference":"Coverage/d4e40a31-cd04-4316-9c9b-3fc6caaa3ab5"},{"reference":"Procedure/6a032507-6f0d-45e9-aa28-c8ebeaeefd78"},{"reference":"Location/39e93645-12de-4dcf-8bbf-26660650f2c5"},{"reference":"Organization/b3302cbf-cac5-488f-ba9f-a4a6ecc35168"},{"reference":"Practitioner/55eda757-dee7-4d37-aef3-dacc7510c401"}]},"request":{"method":"PUT","url":"MeasureReport/10f6e431-abf9-451a-bfe9-8e0da3e43cf2"}},{"fullUrl":"Observation/f8307f50-5f07-4c0b-abae-cbe6cf80d4a7","resource":{"resourceType":"Observation","id":"f8307f50-5f07-4c0b-abae-cbe6cf80d4a7","meta":{"profile":["http://hl7.org/fhir/us/qicore/StructureDefinition/qicore-simple-observation"]},"status":"final","category":[{"coding":[{"system":"http://terminology.hl7.org/CodeSystem/observation-category","code":"exam","display":"exam"}]}],"code":{"coding":[{"system":"http://loinc.org","code":"72136-5"}]},"subject":{"reference":"Patient/57e2d87e-3b5e-4433-ab6d-6dca03878253"},"effectiveDateTime":"2026-12-06T08:00:00.000+00:00","valueCodeableConcept":{"coding":[{"system":"http://snomed.info/sct","code":"260362008","display":"Low Risk"}]}},"request":{"method":"PUT","url":"Observation/f8307f50-5f07-4c0b-abae-cbe6cf80d4a7"}},{"fullUrl":"Patient/57e2d87e-3b5e-4433-ab6d-6dca03878253","resource":{"resourceType":"Patient","id":"57e2d87e-3b5e-4433-ab6d-6dca03878253","meta":{"profile":["http://hl7.org/fhir/us/qicore/StructureDefinition/qicore-patient"]},"text":{"status":"generated","div":"<div xmlns=\"http://www.w3.org/1999/xhtml\"><div class=\"hapiHeaderText\">RiskAssesOnICUStartAfterAnes <b>NUMERPASS </b></div><table class=\"hapiPropertyTable\"><tbody><tr><td>Identifier</td><td>94254b89a0f145332771ce19c2500535</td></tr><tr><td>Date of birth</td><td><span>03 March 1974</span></td></tr></tbody></table></div>"},"extension":[{"url":"http://hl7.org/fhir/us/core/StructureDefinition/us-core-race","extension":[{"url":"ombCategory","valueCoding":{"system":"urn:oid:2.16.840.1.113883.6.238","code":"1002-5","display":"American Indian or Alaska Native","userSelected":true}},{"url":"text","valueString":"American Indian or Alaska Native"}]},{"url":"http://hl7.org/fhir/us/core/StructureDefinition/us-core-ethnicity","extension":[{"url":"ombCategory","valueCoding":{"system":"urn:oid:2.16.840.1.113883.6.238","code":"2135-2","display":"Hispanic or Latino","userSelected":true}},{"url":"text","valueString":"Hispanic or Latino"}]}],"identifier":[{"type":{"coding":[{"system":"http://terminology.hl7.org/CodeSystem/v2-0203","code":"MR"}]},"system":"https://bonnie-fhir.healthit.gov/","value":"612e6f5502c62a011f2f174b"}],"active":true,"name":[{"use":"usual","family":"NUMERPass","given":["RiskAssesOnICUStartAfterAnes"]}],"gender":"female","birthDate":"1975-03-03"},"request":{"method":"PUT","url":"Patient/57e2d87e-3b5e-4433-ab6d-6dca03878253"}},{"fullUrl":"Coverage/d4e40a31-cd04-4316-9c9b-3fc6caaa3ab5","resource":{"resourceType":"Coverage","id":"d4e40a31-cd04-4316-9c9b-3fc6caaa3ab5","status":"active","beneficiary":{"reference":"Patient/57e2d87e-3b5e-4433-ab6d-6dca03878253"},"period":{"start":"1975-03-03T08:00:00.000+00:00"},"payor":[{"reference":"Organization/b3302cbf-cac5-488f-ba9f-a4a6ecc35168"}]},"request":{"method":"PUT","url":"Coverage/d4e40a31-cd04-4316-9c9b-3fc6caaa3ab5"}},{"fullUrl":"Encounter/d67f94f3-a23d-4ce6-b02e-b4231f890956","resource":{"resourceType":"Encounter","id":"d67f94f3-a23d-4ce6-b02e-b4231f890956","meta":{"profile":["http://hl7.org/fhir/us/qicore/StructureDefinition/qicore-encounter"]},"status":"finished","class":{"system":"http://terminology.hl7.org/CodeSystem/v3-ActCode","code":"IMP","display":"inpatient encounter"},"type":[{"coding":[{"system":"http://snomed.info/sct","code":"8715000"}]}],"subject":{"reference":"Patient/57e2d87e-3b5e-4433-ab6d-6dca03878253"},"period":{"start":"2026-12-04T08:00:00.000+00:00","end":"2026-12-30T08:15:00.000+00:00"},"length":{"value":26,"unit":"days"},"location":[{"location":{"reference":"Location/39e93645-12de-4dcf-8bbf-26660650f2c5"},"period":{"start":"2026-12-06T08:00:00.000+00:00","end":"2026-12-08T08:15:00.000+00:00"}}]},"request":{"method":"PUT","url":"Encounter/d67f94f3-a23d-4ce6-b02e-b4231f890956"}},{"fullUrl":"Practitioner/55eda757-dee7-4d37-aef3-dacc7510c401","resource":{"resourceType":"Practitioner","id":"55eda757-dee7-4d37-aef3-dacc7510c401","identifier":[{"system":"http://hl7.org/fhir/sid/us-npi","value":"123456"}],"name":[{"family":"Evil","prefix":["Dr"]}]},"request":{"method":"PUT","url":"Practitioner/55eda757-dee7-4d37-aef3-dacc7510c401"}},{"fullUrl":"Bundle/612e6f5502c62a011f2f174b","resource":{"resourceType":"Bundle","id":"612e6f5502c62a011f2f174b","type":"transaction","entry":[{"fullUrl":"https://madie.cms.gov/Patient/57e2d87e-3b5e-4433-ab6d-6dca03878253","resource":{"resourceType":"Patient","id":"57e2d87e-3b5e-4433-ab6d-6dca03878253","meta":{"profile":["http://hl7.org/fhir/us/qicore/StructureDefinition/qicore-patient"]},"text":{"status":"generated","div":"<div xmlns=\"http://www.w3.org/1999/xhtml\"><div class=\"hapiHeaderText\">RiskAssesOnICUStartAfterAnes <b>NUMERPASS </b></div><table class=\"hapiPropertyTable\"><tbody><tr><td>Identifier</td><td>94254b89a0f145332771ce19c2500535</td></tr><tr><td>Date of birth</td><td><span>03 March 1974</span></td></tr></tbody></table></div>"},"extension":[{"url":"http://hl7.org/fhir/us/core/StructureDefinition/us-core-race","extension":[{"url":"ombCategory","valueCoding":{"system":"urn:oid:2.16.840.1.113883.6.238","code":"1002-5","display":"American Indian or Alaska Native","userSelected":true}},{"url":"text","valueString":"American Indian or Alaska Native"}]},{"url":"http://hl7.org/fhir/us/core/StructureDefinition/us-core-ethnicity","extension":[{"url":"ombCategory","valueCoding":{"system":"urn:oid:2.16.840.1.113883.6.238","code":"2135-2","display":"Hispanic or Latino","userSelected":true}},{"url":"text","valueString":"Hispanic or Latino"}]}],"identifier":[{"type":{"coding":[{"system":"http://terminology.hl7.org/CodeSystem/v2-0203","code":"MR"}]},"system":"https://bonnie-fhir.healthit.gov/","value":"612e6f5502c62a011f2f174b"}],"active":true,"name":[{"use":"usual","family":"NUMERPass","given":["RiskAssesOnICUStartAfterAnes"]}],"gender":"female","birthDate":"1975-03-03"},"request":{"method":"PUT","url":"Patient/57e2d87e-3b5e-4433-ab6d-6dca03878253"}},{"fullUrl":"https://madie.cms.gov/Encounter/d67f94f3-a23d-4ce6-b02e-b4231f890956","resource":{"resourceType":"Encounter","id":"d67f94f3-a23d-4ce6-b02e-b4231f890956","meta":{"profile":["http://hl7.org/fhir/us/qicore/StructureDefinition/qicore-encounter"]},"status":"finished","class":{"system":"http://terminology.hl7.org/CodeSystem/v3-ActCode","code":"IMP","display":"inpatient encounter"},"type":[{"coding":[{"system":"http://snomed.info/sct","code":"8715000"}]}],"subject":{"reference":"Patient/57e2d87e-3b5e-4433-ab6d-6dca03878253"},"period":{"start":"2026-12-04T08:00:00.000+00:00","end":"2026-12-30T08:15:00.000+00:00"},"length":{"value":26,"unit":"days"},"location":[{"location":{"reference":"Location/39e93645-12de-4dcf-8bbf-26660650f2c5"},"period":{"start":"2026-12-06T08:00:00.000+00:00","end":"2026-12-08T08:15:00.000+00:00"}}]},"request":{"method":"PUT","url":"Encounter/d67f94f3-a23d-4ce6-b02e-b4231f890956"}},{"fullUrl":"https://madie.cms.gov/Observation/f8307f50-5f07-4c0b-abae-cbe6cf80d4a7","resource":{"resourceType":"Observation","id":"f8307f50-5f07-4c0b-abae-cbe6cf80d4a7","meta":{"profile":["http://hl7.org/fhir/us/qicore/StructureDefinition/qicore-simple-observation"]},"status":"final","category":[{"coding":[{"system":"http://terminology.hl7.org/CodeSystem/observation-category","code":"exam","display":"exam"}]}],"code":{"coding":[{"system":"http://loinc.org","code":"72136-5"}]},"subject":{"reference":"Patient/57e2d87e-3b5e-4433-ab6d-6dca03878253"},"effectiveDateTime":"2026-12-06T08:00:00.000+00:00","valueCodeableConcept":{"coding":[{"system":"http://snomed.info/sct","code":"260362008","display":"Low Risk"}]}},"request":{"method":"PUT","url":"Observation/f8307f50-5f07-4c0b-abae-cbe6cf80d4a7"}},{"fullUrl":"https://madie.cms.gov/Coverage/d4e40a31-cd04-4316-9c9b-3fc6caaa3ab5","resource":{"resourceType":"Coverage","id":"d4e40a31-cd04-4316-9c9b-3fc6caaa3ab5","status":"active","beneficiary":{"reference":"Patient/57e2d87e-3b5e-4433-ab6d-6dca03878253"},"period":{"start":"1975-03-03T08:00:00.000+00:00"},"payor":[{"reference":"Organization/b3302cbf-cac5-488f-ba9f-a4a6ecc35168"}]},"request":{"method":"PUT","url":"Coverage/d4e40a31-cd04-4316-9c9b-3fc6caaa3ab5"}},{"fullUrl":"https://madie.cms.gov/Procedure/6a032507-6f0d-45e9-aa28-c8ebeaeefd78","resource":{"resourceType":"Procedure","id":"6a032507-6f0d-45e9-aa28-c8ebeaeefd78","meta":{"profile":["http://hl7.org/fhir/us/qicore/StructureDefinition/qicore-procedure"]},"extension":[{"url":"http://hl7.org/fhir/us/qicore/StructureDefinition/qicore-recorded","valueDateTime":"2013-12-06T13:35:00.000+00:00"}],"status":"completed","code":{"coding":[{"system":"http://www.icd10data.com/icd10pcs","code":"3E030FZ"},{"system":"http://snomed.info/sct","code":"18946005"}]},"subject":{"reference":"Patient/57e2d87e-3b5e-4433-ab6d-6dca03878253"},"performedPeriod":{"start":"2026-12-06T05:00:00.000+00:00","end":"2026-12-06T05:15:00.000+00:00"}},"request":{"method":"PUT","url":"Procedure/6a032507-6f0d-45e9-aa28-c8ebeaeefd78"}},{"fullUrl":"https://madie.cms.gov/Location/39e93645-12de-4dcf-8bbf-26660650f2c5","resource":{"resourceType":"Location","id":"39e93645-12de-4dcf-8bbf-26660650f2c5","meta":{"profile":["http://hl7.org/fhir/us/qicore/StructureDefinition/qicore-location"]},"identifier":[{"use":"usual","system":"http://exampleoflocation.com","value":"B1-S.F2"}],"name":"Medical Surgical East, first floor","type":[{"coding":[{"system":"https://www.cdc.gov/nhsn/cdaportal/terminology/codesystem/hsloc.html","code":"1025-6","display":"Trauma Critical Care","userSelected":true}]}]},"request":{"method":"PUT","url":"Location/39e93645-12de-4dcf-8bbf-26660650f2c5"}},{"fullUrl":"https://madie.cms.gov/Organization/b3302cbf-cac5-488f-ba9f-a4a6ecc35168","resource":{"resourceType":"Organization","id":"b3302cbf-cac5-488f-ba9f-a4a6ecc35168","meta":{"profile":["http://hl7.org/fhir/us/qicore/StructureDefinition/qicore-organization"]},"identifier":[{"use":"temp","system":"urn:oid:2.16.840.1.113883.4.4","value":"21-3259825"}],"active":true,"type":[{"coding":[{"system":"http://terminology.hl7.org/CodeSystem/organization-type","code":"pay","display":"Payer"}]}],"name":"Blue Cross Blue Shield of Texas","telecom":[{"system":"phone","value":"(+1) 972-766-6900"}],"address":[{"use":"billing","type":"postal","line":["P.O. Box 660044"],"city":"Dallas","state":"TX","postalCode":"75266-0044","country":"USA"}]},"request":{"method":"PUT","url":"Organization/b3302cbf-cac5-488f-ba9f-a4a6ecc35168"}},{"fullUrl":"https://madie.cms.gov/Practitioner/55eda757-dee7-4d37-aef3-dacc7510c401","resource":{"resourceType":"Practitioner","id":"55eda757-dee7-4d37-aef3-dacc7510c401","identifier":[{"system":"http://hl7.org/fhir/sid/us-npi","value":"123456"}],"name":[{"family":"Evil","prefix":["Dr"]}]},"request":{"method":"PUT","url":"Practitioner/55eda757-dee7-4d37-aef3-dacc7510c401"}},{"fullUrl":"https://madie.cms.gov/MeasureReport/10f6e431-abf9-451a-bfe9-8e0da3e43cf2","resource":{"resourceType":"MeasureReport","id":"10f6e431-abf9-451a-bfe9-8e0da3e43cf2","meta":{"profile":["http://hl7.org/fhir/us/cqfmeasures/StructureDefinition/test-case-cqfm"]},"contained":[{"resourceType":"Parameters","id":"4a337a15-43cb-43a5-81a0-4257f4d4ddef-parameters","parameter":[{"name":"subject","valueString":"57e2d87e-3b5e-4433-ab6d-6dca03878253"}]}],"extension":[{"url":"http://hl7.org/fhir/StructureDefinition/cqf-inputParameters","valueReference":{"reference":"#4a337a15-43cb-43a5-81a0-4257f4d4ddef-parameters"}},{"url":"http://hl7.org/fhir/us/cqfmeasures/StructureDefinition/cqfm-testCaseDescription","valueMarkdown":"vte risk assessment with low risk result concurrent with start of ICU admission and after neuraxial anesthesia\n"}],"modifierExtension":[{"url":"http://hl7.org/fhir/us/cqfmeasures/StructureDefinition/cqfm-isTestCase","valueBoolean":true}],"status":"complete","type":"individual","measure":"https://madie.cms.gov/Measure/CMS190VTEProphylaxisICUFHIR","period":{"start":"2026-01-01","end":"2026-12-31"},"group":[{"id":"Group_1","population":[{"id":"InitialPopulation_1","code":{"coding":[{"system":"http://terminology.hl7.org/CodeSystem/measure-population","code":"initial-population","display":"Initial Population"}]},"count":1},{"id":"Denominator_1","code":{"coding":[{"system":"http://terminology.hl7.org/CodeSystem/measure-population","code":"denominator","display":"Denominator"}]},"count":1},{"id":"DenominatorExclusion_1","code":{"coding":[{"system":"http://terminology.hl7.org/CodeSystem/measure-population","code":"denominator-exclusion","display":"Denominator Exclusion"}]},"count":0},{"id":"Numerator_1","code":{"coding":[{"system":"http://terminology.hl7.org/CodeSystem/measure-population","code":"numerator","display":"Numerator"}]},"count":1},{"id":"DenominatorException_1","code":{"coding":[{"system":"http://terminology.hl7.org/CodeSystem/measure-population","code":"denominator-exception","display":"Denominator Exception"}]},"count":0}],"measureScore":{"value":0.0}}],"evaluatedResource":[{"reference":"Patient/57e2d87e-3b5e-4433-ab6d-6dca03878253"},{"reference":"Encounter/d67f94f3-a23d-4ce6-b02e-b4231f890956"},{"reference":"Observation/f8307f50-5f07-4c0b-abae-cbe6cf80d4a7"},{"reference":"Coverage/d4e40a31-cd04-4316-9c9b-3fc6caaa3ab5"},{"reference":"Procedure/6a032507-6f0d-45e9-aa28-c8ebeaeefd78"},{"reference":"Location/39e93645-12de-4dcf-8bbf-26660650f2c5"},{"reference":"Organization/b3302cbf-cac5-488f-ba9f-a4a6ecc35168"},{"reference":"Practitioner/55eda757-dee7-4d37-aef3-dacc7510c401"}]},"request":{"method":"PUT","url":"MeasureReport/10f6e431-abf9-451a-bfe9-8e0da3e43cf2"}}]},"request":{"method":"PUT","url":"Bundle/612e6f5502c62a011f2f174b"}},{"fullUrl":"Location/39e93645-12de-4dcf-8bbf-26660650f2c5","resource":{"resourceType":"Location","id":"39e93645-12de-4dcf-8bbf-26660650f2c5","meta":{"profile":["http://hl7.org/fhir/us/qicore/StructureDefinition/qicore-location"]},"identifier":[{"use":"usual","system":"http://exampleoflocation.com","value":"B1-S.F2"}],"name":"Medical Surgical East, first floor","type":[{"coding":[{"system":"https://www.cdc.gov/nhsn/cdaportal/terminology/codesystem/hsloc.html","code":"1025-6","display":"Trauma Critical Care","userSelected":true}]}]},"request":{"method":"PUT","url":"Location/39e93645-12de-4dcf-8bbf-26660650f2c5"}},{"fullUrl":"Procedure/6a032507-6f0d-45e9-aa28-c8ebeaeefd78","resource":{"resourceType":"Procedure","id":"6a032507-6f0d-45e9-aa28-c8ebeaeefd78","meta":{"profile":["http://hl7.org/fhir/us/qicore/StructureDefinition/qicore-procedure"]},"extension":[{"url":"http://hl7.org/fhir/us/qicore/StructureDefinition/qicore-recorded","valueDateTime":"2013-12-06T13:35:00.000+00:00"}],"status":"completed","code":{"coding":[{"system":"http://www.icd10data.com/icd10pcs","code":"3E030FZ"},{"system":"http://snomed.info/sct","code":"18946005"}]},"subject":{"reference":"Patient/57e2d87e-3b5e-4433-ab6d-6dca03878253"},"performedPeriod":{"start":"2026-12-06T05:00:00.000+00:00","end":"2026-12-06T05:15:00.000+00:00"}},"request":{"method":"PUT","url":"Procedure/6a032507-6f0d-45e9-aa28-c8ebeaeefd78"}}]}