{"resourceType":"Bundle","id":"tests-f981eba4-4aac-45ce-8c52-f0bc02c9a0dc-bundle","type":"transaction","entry":[{"fullUrl":"ServiceRequest/690ffe25-10bd-4742-b2bb-ce6842c9828e","resource":{"resourceType":"ServiceRequest","id":"690ffe25-10bd-4742-b2bb-ce6842c9828e","meta":{"profile":["http://hl7.org/fhir/us/qicore/StructureDefinition/qicore-servicerequest"]},"status":"active","intent":"order","code":{"coding":[{"system":"http://snomed.info/sct","code":"442023007","display":"Venous foot pump, device (physical object)","userSelected":true}]},"subject":{"reference":"Patient/f981eba4-4aac-45ce-8c52-f0bc02c9a0dc"},"authoredOn":"2026-11-03T11:00:00"},"request":{"method":"PUT","url":"ServiceRequest/690ffe25-10bd-4742-b2bb-ce6842c9828e"}},{"fullUrl":"Patient/f981eba4-4aac-45ce-8c52-f0bc02c9a0dc","resource":{"resourceType":"Patient","id":"f981eba4-4aac-45ce-8c52-f0bc02c9a0dc","meta":{"profile":["http://hl7.org/fhir/us/qicore/StructureDefinition/qicore-patient"]},"text":{"status":"generated","div":"<div xmlns=\"http://www.w3.org/1999/xhtml\"><div class=\"hapiHeaderText\">PtRefDOIPC2DayAFEncBFICU <b>NUMERPASS </b></div><table class=\"hapiPropertyTable\"><tbody><tr><td>Identifier</td><td>24fc1ce85ce14557dd4d9eba17df9f17</td></tr><tr><td>Date of birth</td><td><span>02 January 1974</span></td></tr></tbody></table></div>"},"extension":[{"url":"http://hl7.org/fhir/us/core/StructureDefinition/us-core-race","extension":[{"url":"ombCategory","valueCoding":{"system":"urn:oid:2.16.840.1.113883.6.238","code":"1002-5","display":"American Indian or Alaska Native","userSelected":true}},{"url":"text","valueString":"American Indian or Alaska Native"}]},{"url":"http://hl7.org/fhir/us/core/StructureDefinition/us-core-ethnicity","extension":[{"url":"ombCategory","valueCoding":{"system":"urn:oid:2.16.840.1.113883.6.238","code":"2135-2","display":"Hispanic or Latino","userSelected":true}},{"url":"text","valueString":"Hispanic or Latino"}]}],"identifier":[{"type":{"coding":[{"system":"http://terminology.hl7.org/CodeSystem/v2-0203","code":"MR"}]},"system":"https://bonnie-fhir.healthit.gov/","value":"612e6b9302c62a011f2ee63c"}],"active":true,"name":[{"use":"usual","family":"NUMERPass","given":["PtRefDOVFPTaskReject"]}],"gender":"male","birthDate":"1975-01-02"},"request":{"method":"PUT","url":"Patient/f981eba4-4aac-45ce-8c52-f0bc02c9a0dc"}},{"fullUrl":"Encounter/1b02487f-1759-4a5a-a45c-9ebbe0293215","resource":{"resourceType":"Encounter","id":"1b02487f-1759-4a5a-a45c-9ebbe0293215","meta":{"profile":["http://hl7.org/fhir/us/qicore/StructureDefinition/qicore-encounter"]},"status":"finished","class":{"system":"http://terminology.hl7.org/CodeSystem/v3-ActCode","code":"IMP","display":"inpatient encounter"},"type":[{"coding":[{"system":"http://snomed.info/sct","code":"8715000"}]}],"subject":{"reference":"Patient/f981eba4-4aac-45ce-8c52-f0bc02c9a0dc"},"period":{"start":"2026-11-01T08:00:00Z","end":"2026-11-26T08:15:00.000+00:00"},"length":{"value":25,"unit":"days"},"location":[{"location":{"reference":"Location/e7031edb-d683-49b7-82e6-f7c9c2b3a58e"},"period":{"start":"2026-11-04T09:00:00Z","end":"2026-11-06T08:15:00.000+00:00"}}]},"request":{"method":"PUT","url":"Encounter/1b02487f-1759-4a5a-a45c-9ebbe0293215"}},{"fullUrl":"Practitioner/a7809063-9ad4-4eae-8952-864efe78d2b8","resource":{"resourceType":"Practitioner","id":"a7809063-9ad4-4eae-8952-864efe78d2b8","identifier":[{"system":"http://hl7.org/fhir/sid/us-npi","value":"123456"}],"name":[{"family":"Evil","prefix":["Dr"]}]},"request":{"method":"PUT","url":"Practitioner/a7809063-9ad4-4eae-8952-864efe78d2b8"}},{"fullUrl":"Coverage/aa9a76c4-6d58-4305-80f4-a0781cf1bb58","resource":{"resourceType":"Coverage","id":"aa9a76c4-6d58-4305-80f4-a0781cf1bb58","status":"active","beneficiary":{"reference":"Patient/f981eba4-4aac-45ce-8c52-f0bc02c9a0dc"},"period":{"start":"1975-01-02T08:00:00Z"},"payor":[{"reference":"Organization/f5f5a755-2597-4b2d-bffd-4f0306bbebf3"}]},"request":{"method":"PUT","url":"Coverage/aa9a76c4-6d58-4305-80f4-a0781cf1bb58"}},{"fullUrl":"Location/e7031edb-d683-49b7-82e6-f7c9c2b3a58e","resource":{"resourceType":"Location","id":"e7031edb-d683-49b7-82e6-f7c9c2b3a58e","meta":{"profile":["http://hl7.org/fhir/us/qicore/StructureDefinition/qicore-location"]},"identifier":[{"use":"usual","system":"http://exampleoflocation.com","value":"B1-S.F2"}],"name":"Medical Surgical East, first floor","type":[{"coding":[{"system":"https://www.cdc.gov/nhsn/cdaportal/terminology/codesystem/hsloc.html","code":"1025-6","display":"Trauma Critical Care","userSelected":true}]}]},"request":{"method":"PUT","url":"Location/e7031edb-d683-49b7-82e6-f7c9c2b3a58e"}},{"fullUrl":"MeasureReport/42c19b8e-a362-4c76-8cc7-a654a8d34fbb","resource":{"resourceType":"MeasureReport","id":"42c19b8e-a362-4c76-8cc7-a654a8d34fbb","meta":{"profile":["http://hl7.org/fhir/us/cqfmeasures/StructureDefinition/test-case-cqfm"]},"contained":[{"resourceType":"Parameters","id":"c7fa65ab-3c58-4fe9-bd7e-888d2ca26e65-parameters","parameter":[{"name":"subject","valueString":"f981eba4-4aac-45ce-8c52-f0bc02c9a0dc"}]}],"extension":[{"url":"http://hl7.org/fhir/StructureDefinition/cqf-inputParameters","valueReference":{"reference":"#c7fa65ab-3c58-4fe9-bd7e-888d2ca26e65-parameters"}},{"url":"http://hl7.org/fhir/us/cqfmeasures/StructureDefinition/cqfm-testCaseDescription","valueMarkdown":"meets IPP, meets Denominator, IPC ordered not done under TaskReject\n"}],"modifierExtension":[{"url":"http://hl7.org/fhir/us/cqfmeasures/StructureDefinition/cqfm-isTestCase","valueBoolean":true}],"status":"complete","type":"individual","measure":"https://madie.cms.gov/Measure/CMS190VTEProphylaxisICUFHIR","period":{"start":"2026-01-01","end":"2026-12-31"},"group":[{"id":"Group_1","population":[{"id":"InitialPopulation_1","code":{"coding":[{"system":"http://terminology.hl7.org/CodeSystem/measure-population","code":"initial-population","display":"Initial Population"}]},"count":1},{"id":"Denominator_1","code":{"coding":[{"system":"http://terminology.hl7.org/CodeSystem/measure-population","code":"denominator","display":"Denominator"}]},"count":1},{"id":"DenominatorExclusion_1","code":{"coding":[{"system":"http://terminology.hl7.org/CodeSystem/measure-population","code":"denominator-exclusion","display":"Denominator Exclusion"}]},"count":0},{"id":"Numerator_1","code":{"coding":[{"system":"http://terminology.hl7.org/CodeSystem/measure-population","code":"numerator","display":"Numerator"}]},"count":1},{"id":"DenominatorException_1","code":{"coding":[{"system":"http://terminology.hl7.org/CodeSystem/measure-population","code":"denominator-exception","display":"Denominator Exception"}]},"count":0}],"measureScore":{"value":0.0}}],"evaluatedResource":[{"reference":"Patient/f981eba4-4aac-45ce-8c52-f0bc02c9a0dc"},{"reference":"Encounter/1b02487f-1759-4a5a-a45c-9ebbe0293215"},{"reference":"Coverage/aa9a76c4-6d58-4305-80f4-a0781cf1bb58"},{"reference":"ServiceRequest/690ffe25-10bd-4742-b2bb-ce6842c9828e"},{"reference":"Task/d07e47af-cdfa-41e4-bc20-765863f8a64a"},{"reference":"Location/e7031edb-d683-49b7-82e6-f7c9c2b3a58e"},{"reference":"Organization/f5f5a755-2597-4b2d-bffd-4f0306bbebf3"},{"reference":"Practitioner/a7809063-9ad4-4eae-8952-864efe78d2b8"}]},"request":{"method":"PUT","url":"MeasureReport/42c19b8e-a362-4c76-8cc7-a654a8d34fbb"}},{"fullUrl":"Bundle/612e6b9302c62a011f2ee63c","resource":{"resourceType":"Bundle","id":"612e6b9302c62a011f2ee63c","type":"transaction","entry":[{"fullUrl":"https://madie.cms.gov/Patient/f981eba4-4aac-45ce-8c52-f0bc02c9a0dc","resource":{"resourceType":"Patient","id":"f981eba4-4aac-45ce-8c52-f0bc02c9a0dc","meta":{"profile":["http://hl7.org/fhir/us/qicore/StructureDefinition/qicore-patient"]},"text":{"status":"generated","div":"<div xmlns=\"http://www.w3.org/1999/xhtml\"><div class=\"hapiHeaderText\">PtRefDOIPC2DayAFEncBFICU <b>NUMERPASS </b></div><table class=\"hapiPropertyTable\"><tbody><tr><td>Identifier</td><td>24fc1ce85ce14557dd4d9eba17df9f17</td></tr><tr><td>Date of birth</td><td><span>02 January 1974</span></td></tr></tbody></table></div>"},"extension":[{"url":"http://hl7.org/fhir/us/core/StructureDefinition/us-core-race","extension":[{"url":"ombCategory","valueCoding":{"system":"urn:oid:2.16.840.1.113883.6.238","code":"1002-5","display":"American Indian or Alaska Native","userSelected":true}},{"url":"text","valueString":"American Indian or Alaska Native"}]},{"url":"http://hl7.org/fhir/us/core/StructureDefinition/us-core-ethnicity","extension":[{"url":"ombCategory","valueCoding":{"system":"urn:oid:2.16.840.1.113883.6.238","code":"2135-2","display":"Hispanic or Latino","userSelected":true}},{"url":"text","valueString":"Hispanic or Latino"}]}],"identifier":[{"type":{"coding":[{"system":"http://terminology.hl7.org/CodeSystem/v2-0203","code":"MR"}]},"system":"https://bonnie-fhir.healthit.gov/","value":"612e6b9302c62a011f2ee63c"}],"active":true,"name":[{"use":"usual","family":"NUMERPass","given":["PtRefDOVFPTaskReject"]}],"gender":"male","birthDate":"1975-01-02"},"request":{"method":"PUT","url":"Patient/f981eba4-4aac-45ce-8c52-f0bc02c9a0dc"}},{"fullUrl":"https://madie.cms.gov/Encounter/1b02487f-1759-4a5a-a45c-9ebbe0293215","resource":{"resourceType":"Encounter","id":"1b02487f-1759-4a5a-a45c-9ebbe0293215","meta":{"profile":["http://hl7.org/fhir/us/qicore/StructureDefinition/qicore-encounter"]},"status":"finished","class":{"system":"http://terminology.hl7.org/CodeSystem/v3-ActCode","code":"IMP","display":"inpatient encounter"},"type":[{"coding":[{"system":"http://snomed.info/sct","code":"8715000"}]}],"subject":{"reference":"Patient/f981eba4-4aac-45ce-8c52-f0bc02c9a0dc"},"period":{"start":"2026-11-01T08:00:00Z","end":"2026-11-26T08:15:00.000+00:00"},"length":{"value":25,"unit":"days"},"location":[{"location":{"reference":"Location/e7031edb-d683-49b7-82e6-f7c9c2b3a58e"},"period":{"start":"2026-11-04T09:00:00Z","end":"2026-11-06T08:15:00.000+00:00"}}]},"request":{"method":"PUT","url":"Encounter/1b02487f-1759-4a5a-a45c-9ebbe0293215"}},{"fullUrl":"https://madie.cms.gov/Coverage/aa9a76c4-6d58-4305-80f4-a0781cf1bb58","resource":{"resourceType":"Coverage","id":"aa9a76c4-6d58-4305-80f4-a0781cf1bb58","status":"active","beneficiary":{"reference":"Patient/f981eba4-4aac-45ce-8c52-f0bc02c9a0dc"},"period":{"start":"1975-01-02T08:00:00Z"},"payor":[{"reference":"Organization/f5f5a755-2597-4b2d-bffd-4f0306bbebf3"}]},"request":{"method":"PUT","url":"Coverage/aa9a76c4-6d58-4305-80f4-a0781cf1bb58"}},{"fullUrl":"https://madie.cms.gov/ServiceRequest/690ffe25-10bd-4742-b2bb-ce6842c9828e","resource":{"resourceType":"ServiceRequest","id":"690ffe25-10bd-4742-b2bb-ce6842c9828e","meta":{"profile":["http://hl7.org/fhir/us/qicore/StructureDefinition/qicore-servicerequest"]},"status":"active","intent":"order","code":{"coding":[{"system":"http://snomed.info/sct","code":"442023007","display":"Venous foot pump, device (physical object)","userSelected":true}]},"subject":{"reference":"Patient/f981eba4-4aac-45ce-8c52-f0bc02c9a0dc"},"authoredOn":"2026-11-03T11:00:00"},"request":{"method":"PUT","url":"ServiceRequest/690ffe25-10bd-4742-b2bb-ce6842c9828e"}},{"fullUrl":"https://madie.cms.gov/Task/d07e47af-cdfa-41e4-bc20-765863f8a64a","resource":{"resourceType":"Task","id":"d07e47af-cdfa-41e4-bc20-765863f8a64a","meta":{"profile":["http://hl7.org/fhir/us/qicore/StructureDefinition/qicore-taskrejected"]},"status":"rejected","statusReason":{"coding":[{"system":"http://snomed.info/sct","code":"443390004","display":"Refusal of treatment by patient (situation)","userSelected":true}]},"code":{"coding":[{"system":"http://hl7.org/fhir/CodeSystem/task-code","code":"fulfill"}]},"focus":{"reference":"ServiceRequest/690ffe25-10bd-4742-b2bb-ce6842c9828e"},"executionPeriod":{"start":"2026-11-03T19:00:00","end":"2026-11-03T19:00:00"}},"request":{"method":"PUT","url":"Task/d07e47af-cdfa-41e4-bc20-765863f8a64a"}},{"fullUrl":"https://madie.cms.gov/Location/e7031edb-d683-49b7-82e6-f7c9c2b3a58e","resource":{"resourceType":"Location","id":"e7031edb-d683-49b7-82e6-f7c9c2b3a58e","meta":{"profile":["http://hl7.org/fhir/us/qicore/StructureDefinition/qicore-location"]},"identifier":[{"use":"usual","system":"http://exampleoflocation.com","value":"B1-S.F2"}],"name":"Medical Surgical East, first floor","type":[{"coding":[{"system":"https://www.cdc.gov/nhsn/cdaportal/terminology/codesystem/hsloc.html","code":"1025-6","display":"Trauma Critical Care","userSelected":true}]}]},"request":{"method":"PUT","url":"Location/e7031edb-d683-49b7-82e6-f7c9c2b3a58e"}},{"fullUrl":"https://madie.cms.gov/Organization/f5f5a755-2597-4b2d-bffd-4f0306bbebf3","resource":{"resourceType":"Organization","id":"f5f5a755-2597-4b2d-bffd-4f0306bbebf3","meta":{"profile":["http://hl7.org/fhir/us/qicore/StructureDefinition/qicore-organization"]},"identifier":[{"use":"temp","system":"urn:oid:2.16.840.1.113883.4.4","value":"21-3259825"}],"active":true,"type":[{"coding":[{"system":"http://terminology.hl7.org/CodeSystem/organization-type","code":"pay","display":"Payer"}]}],"name":"Blue Cross Blue Shield of Texas","telecom":[{"system":"phone","value":"(+1) 972-766-6900"}],"address":[{"use":"billing","type":"postal","line":["P.O. Box 660044"],"city":"Dallas","state":"TX","postalCode":"75266-0044","country":"USA"}]},"request":{"method":"PUT","url":"Organization/f5f5a755-2597-4b2d-bffd-4f0306bbebf3"}},{"fullUrl":"https://madie.cms.gov/Practitioner/a7809063-9ad4-4eae-8952-864efe78d2b8","resource":{"resourceType":"Practitioner","id":"a7809063-9ad4-4eae-8952-864efe78d2b8","identifier":[{"system":"http://hl7.org/fhir/sid/us-npi","value":"123456"}],"name":[{"family":"Evil","prefix":["Dr"]}]},"request":{"method":"PUT","url":"Practitioner/a7809063-9ad4-4eae-8952-864efe78d2b8"}},{"fullUrl":"https://madie.cms.gov/MeasureReport/42c19b8e-a362-4c76-8cc7-a654a8d34fbb","resource":{"resourceType":"MeasureReport","id":"42c19b8e-a362-4c76-8cc7-a654a8d34fbb","meta":{"profile":["http://hl7.org/fhir/us/cqfmeasures/StructureDefinition/test-case-cqfm"]},"contained":[{"resourceType":"Parameters","id":"c7fa65ab-3c58-4fe9-bd7e-888d2ca26e65-parameters","parameter":[{"name":"subject","valueString":"f981eba4-4aac-45ce-8c52-f0bc02c9a0dc"}]}],"extension":[{"url":"http://hl7.org/fhir/StructureDefinition/cqf-inputParameters","valueReference":{"reference":"#c7fa65ab-3c58-4fe9-bd7e-888d2ca26e65-parameters"}},{"url":"http://hl7.org/fhir/us/cqfmeasures/StructureDefinition/cqfm-testCaseDescription","valueMarkdown":"meets IPP, meets Denominator, IPC ordered not done under TaskReject\n"}],"modifierExtension":[{"url":"http://hl7.org/fhir/us/cqfmeasures/StructureDefinition/cqfm-isTestCase","valueBoolean":true}],"status":"complete","type":"individual","measure":"https://madie.cms.gov/Measure/CMS190VTEProphylaxisICUFHIR","period":{"start":"2026-01-01","end":"2026-12-31"},"group":[{"id":"Group_1","population":[{"id":"InitialPopulation_1","code":{"coding":[{"system":"http://terminology.hl7.org/CodeSystem/measure-population","code":"initial-population","display":"Initial Population"}]},"count":1},{"id":"Denominator_1","code":{"coding":[{"system":"http://terminology.hl7.org/CodeSystem/measure-population","code":"denominator","display":"Denominator"}]},"count":1},{"id":"DenominatorExclusion_1","code":{"coding":[{"system":"http://terminology.hl7.org/CodeSystem/measure-population","code":"denominator-exclusion","display":"Denominator Exclusion"}]},"count":0},{"id":"Numerator_1","code":{"coding":[{"system":"http://terminology.hl7.org/CodeSystem/measure-population","code":"numerator","display":"Numerator"}]},"count":1},{"id":"DenominatorException_1","code":{"coding":[{"system":"http://terminology.hl7.org/CodeSystem/measure-population","code":"denominator-exception","display":"Denominator Exception"}]},"count":0}],"measureScore":{"value":0.0}}],"evaluatedResource":[{"reference":"Patient/f981eba4-4aac-45ce-8c52-f0bc02c9a0dc"},{"reference":"Encounter/1b02487f-1759-4a5a-a45c-9ebbe0293215"},{"reference":"Coverage/aa9a76c4-6d58-4305-80f4-a0781cf1bb58"},{"reference":"ServiceRequest/690ffe25-10bd-4742-b2bb-ce6842c9828e"},{"reference":"Task/d07e47af-cdfa-41e4-bc20-765863f8a64a"},{"reference":"Location/e7031edb-d683-49b7-82e6-f7c9c2b3a58e"},{"reference":"Organization/f5f5a755-2597-4b2d-bffd-4f0306bbebf3"},{"reference":"Practitioner/a7809063-9ad4-4eae-8952-864efe78d2b8"}]},"request":{"method":"PUT","url":"MeasureReport/42c19b8e-a362-4c76-8cc7-a654a8d34fbb"}}]},"request":{"method":"PUT","url":"Bundle/612e6b9302c62a011f2ee63c"}},{"fullUrl":"Organization/f5f5a755-2597-4b2d-bffd-4f0306bbebf3","resource":{"resourceType":"Organization","id":"f5f5a755-2597-4b2d-bffd-4f0306bbebf3","meta":{"profile":["http://hl7.org/fhir/us/qicore/StructureDefinition/qicore-organization"]},"identifier":[{"use":"temp","system":"urn:oid:2.16.840.1.113883.4.4","value":"21-3259825"}],"active":true,"type":[{"coding":[{"system":"http://terminology.hl7.org/CodeSystem/organization-type","code":"pay","display":"Payer"}]}],"name":"Blue Cross Blue Shield of Texas","telecom":[{"system":"phone","value":"(+1) 972-766-6900"}],"address":[{"use":"billing","type":"postal","line":["P.O. Box 660044"],"city":"Dallas","state":"TX","postalCode":"75266-0044","country":"USA"}]},"request":{"method":"PUT","url":"Organization/f5f5a755-2597-4b2d-bffd-4f0306bbebf3"}},{"fullUrl":"Task/d07e47af-cdfa-41e4-bc20-765863f8a64a","resource":{"resourceType":"Task","id":"d07e47af-cdfa-41e4-bc20-765863f8a64a","meta":{"profile":["http://hl7.org/fhir/us/qicore/StructureDefinition/qicore-taskrejected"]},"status":"rejected","statusReason":{"coding":[{"system":"http://snomed.info/sct","code":"443390004","display":"Refusal of treatment by patient (situation)","userSelected":true}]},"code":{"coding":[{"system":"http://hl7.org/fhir/CodeSystem/task-code","code":"fulfill"}]},"focus":{"reference":"ServiceRequest/690ffe25-10bd-4742-b2bb-ce6842c9828e"},"executionPeriod":{"start":"2026-11-03T19:00:00","end":"2026-11-03T19:00:00"}},"request":{"method":"PUT","url":"Task/d07e47af-cdfa-41e4-bc20-765863f8a64a"}}]}