{"resourceType":"Bundle","id":"tests-52f08855-780f-4975-b505-ade45abba149-bundle","type":"transaction","entry":[{"resource":{"resourceType":"Organization","id":"55d5c59f-4859-44d4-9c32-9363919dd4b2","meta":{"profile":["http://hl7.org/fhir/us/qicore/StructureDefinition/qicore-organization"]},"identifier":[{"use":"temp","system":"urn:oid:2.16.840.1.113883.4.4","value":"21-3259825"}],"active":true,"type":[{"coding":[{"system":"http://terminology.hl7.org/CodeSystem/organization-type","code":"pay","display":"Payer"}]}],"name":"Blue Cross Blue Shield of Texas","telecom":[{"system":"phone","value":"(+1) 972-766-6900"}],"address":[{"use":"billing","type":"postal","line":["P.O. Box 660044"],"city":"Dallas","state":"TX","postalCode":"75266-0044","country":"USA"}]},"request":{"method":"PUT","url":"Organization/55d5c59f-4859-44d4-9c32-9363919dd4b2"}},{"resource":{"resourceType":"MeasureReport","id":"ae24f662-ab82-4479-9d98-89a50208e39c","meta":{"profile":["http://hl7.org/fhir/us/cqfmeasures/StructureDefinition/test-case-cqfm"]},"contained":[{"resourceType":"Parameters","id":"f8b96c39-13b1-4863-87f8-c34777a7bed9-parameters","parameter":[{"name":"subject","valueString":"52f08855-780f-4975-b505-ade45abba149"}]}],"extension":[{"url":"http://hl7.org/fhir/StructureDefinition/cqf-inputParameters","valueReference":{"reference":"#f8b96c39-13b1-4863-87f8-c34777a7bed9-parameters"}},{"url":"http://hl7.org/fhir/us/cqfmeasures/StructureDefinition/cqfm-testCaseDescription","valueMarkdown":"meets IPP, meets Denominator, medication administered:Thrombin during ED, ED endTime less than 1 hour before Start of ICU"}],"modifierExtension":[{"url":"http://hl7.org/fhir/us/cqfmeasures/StructureDefinition/cqfm-isTestCase","valueBoolean":true}],"status":"complete","type":"individual","measure":"https://madie.cms.gov/Measure/CMS190VTEProphylaxisICUFHIR","period":{"start":"2026-01-01","end":"2026-12-31"},"group":[{"id":"Group_1","population":[{"id":"InitialPopulation_1","code":{"coding":[{"system":"http://terminology.hl7.org/CodeSystem/measure-population","code":"initial-population","display":"Initial Population"}]},"count":1},{"id":"Denominator_1","code":{"coding":[{"system":"http://terminology.hl7.org/CodeSystem/measure-population","code":"denominator","display":"Denominator"}]},"count":1},{"id":"DenominatorExclusion_1","code":{"coding":[{"system":"http://terminology.hl7.org/CodeSystem/measure-population","code":"denominator-exclusion","display":"Denominator Exclusion"}]},"count":0},{"id":"Numerator_1","code":{"coding":[{"system":"http://terminology.hl7.org/CodeSystem/measure-population","code":"numerator","display":"Numerator"}]},"count":1},{"id":"DenominatorException_1","code":{"coding":[{"system":"http://terminology.hl7.org/CodeSystem/measure-population","code":"denominator-exception","display":"Denominator Exception"}]},"count":0}],"measureScore":{"value":0.0}}],"evaluatedResource":[{"reference":"Patient/52f08855-780f-4975-b505-ade45abba149"},{"reference":"Encounter/2884f7c8-3a57-42b8-866c-b6052fc9dcb2"},{"reference":"Encounter/af6661e6-a5d2-4bee-bc28-8c1766ac95a9"},{"reference":"Coverage/d1ef0287-c134-48c4-9536-ce5c7c2f8326"},{"reference":"MedicationAdministration/5747ccfe-d8d9-42c8-bde2-275d38f828bd"},{"reference":"Location/7bd0569f-071a-459b-be37-997ec803d8ee"},{"reference":"Organization/55d5c59f-4859-44d4-9c32-9363919dd4b2"}]},"request":{"method":"PUT","url":"MeasureReport/ae24f662-ab82-4479-9d98-89a50208e39c"}},{"resource":{"resourceType":"Patient","id":"52f08855-780f-4975-b505-ade45abba149","meta":{"profile":["http://hl7.org/fhir/us/qicore/StructureDefinition/qicore-patient"]},"text":{"status":"generated","div":"<div xmlns=\"http://www.w3.org/1999/xhtml\"><div class=\"hapiHeaderText\">ThrombinDuringED <b>NUMERPASS </b></div><table class=\"hapiPropertyTable\"><tbody><tr><td>Identifier</td><td>f2b441be18ed6316c95ae4ad6f27b780</td></tr><tr><td>Date of birth</td><td><span>03 March 1974</span></td></tr></tbody></table></div>"},"extension":[{"url":"http://hl7.org/fhir/us/core/StructureDefinition/us-core-race","extension":[{"url":"ombCategory","valueCoding":{"system":"urn:oid:2.16.840.1.113883.6.238","code":"1002-5","display":"American Indian or Alaska Native","userSelected":true}},{"url":"text","valueString":"American Indian or Alaska Native"}]},{"url":"http://hl7.org/fhir/us/core/StructureDefinition/us-core-ethnicity","extension":[{"url":"ombCategory","valueCoding":{"system":"urn:oid:2.16.840.1.113883.6.238","code":"2135-2","display":"Hispanic or Latino","userSelected":true}},{"url":"text","valueString":"Hispanic or Latino"}]}],"identifier":[{"type":{"coding":[{"system":"http://terminology.hl7.org/CodeSystem/v2-0203","code":"MR"}]},"system":"https://bonnie-fhir.healthit.gov/","value":"612e6e9c02c62a011f2ef070"}],"active":true,"name":[{"use":"usual","family":"NUMERPass","given":["ThrombinDuringED"]}],"gender":"female","birthDate":"1975-03-03"},"request":{"method":"PUT","url":"Patient/52f08855-780f-4975-b505-ade45abba149"}},{"resource":{"resourceType":"Coverage","id":"d1ef0287-c134-48c4-9536-ce5c7c2f8326","status":"active","beneficiary":{"reference":"Patient/52f08855-780f-4975-b505-ade45abba149"},"period":{"start":"1975-03-03T08:00:00.000+00:00"},"payor":[{"reference":"Organization/55d5c59f-4859-44d4-9c32-9363919dd4b2"}]},"request":{"method":"PUT","url":"Coverage/d1ef0287-c134-48c4-9536-ce5c7c2f8326"}},{"resource":{"resourceType":"MedicationAdministration","id":"5747ccfe-d8d9-42c8-bde2-275d38f828bd","meta":{"profile":["http://hl7.org/fhir/us/qicore/StructureDefinition/qicore-medicationadministration"]},"status":"completed","medicationCodeableConcept":{"coding":[{"system":"http://www.nlm.nih.gov/research/umls/rxnorm","code":"308351"}]},"subject":{"reference":"Patient/52f08855-780f-4975-b505-ade45abba149"},"effectivePeriod":{"start":"2026-12-06T06:30:00.000+00:00","end":"2026-12-06T06:35:00.000+00:00"}},"request":{"method":"PUT","url":"MedicationAdministration/5747ccfe-d8d9-42c8-bde2-275d38f828bd"}},{"resource":{"resourceType":"Encounter","id":"af6661e6-a5d2-4bee-bc28-8c1766ac95a9","meta":{"profile":["http://hl7.org/fhir/us/qicore/StructureDefinition/qicore-encounter"]},"status":"finished","class":{"system":"http://terminology.hl7.org/CodeSystem/v3-ActCode","code":"IMP","display":"inpatient encounter"},"type":[{"coding":[{"system":"http://snomed.info/sct","code":"8715000","display":"Hospital admission, elective (procedure)"}]}],"subject":{"reference":"Patient/52f08855-780f-4975-b505-ade45abba149"},"period":{"start":"2026-12-06T08:45:00.000+00:00","end":"2026-12-30T08:15:00.000+00:00"},"length":{"value":24.0,"unit":"days"},"location":[{"location":{"reference":"Location/7bd0569f-071a-459b-be37-997ec803d8ee"},"period":{"start":"2026-12-06T09:00:00.000+00:00","end":"2026-12-12T08:15:00.000+00:00"}}]},"request":{"method":"PUT","url":"Encounter/af6661e6-a5d2-4bee-bc28-8c1766ac95a9"}},{"resource":{"resourceType":"Bundle","id":"612e6e9c02c62a011f2ef070","type":"transaction","entry":[{"fullUrl":"https://madie.cms.gov/Patient/52f08855-780f-4975-b505-ade45abba149","resource":{"resourceType":"Patient","id":"52f08855-780f-4975-b505-ade45abba149","meta":{"profile":["http://hl7.org/fhir/us/qicore/StructureDefinition/qicore-patient"]},"text":{"status":"generated","div":"<div xmlns=\"http://www.w3.org/1999/xhtml\"><div class=\"hapiHeaderText\">ThrombinDuringED <b>NUMERPASS </b></div><table class=\"hapiPropertyTable\"><tbody><tr><td>Identifier</td><td>f2b441be18ed6316c95ae4ad6f27b780</td></tr><tr><td>Date of birth</td><td><span>03 March 1974</span></td></tr></tbody></table></div>"},"extension":[{"url":"http://hl7.org/fhir/us/core/StructureDefinition/us-core-race","extension":[{"url":"ombCategory","valueCoding":{"system":"urn:oid:2.16.840.1.113883.6.238","code":"1002-5","display":"American Indian or Alaska Native","userSelected":true}},{"url":"text","valueString":"American Indian or Alaska Native"}]},{"url":"http://hl7.org/fhir/us/core/StructureDefinition/us-core-ethnicity","extension":[{"url":"ombCategory","valueCoding":{"system":"urn:oid:2.16.840.1.113883.6.238","code":"2135-2","display":"Hispanic or Latino","userSelected":true}},{"url":"text","valueString":"Hispanic or Latino"}]}],"identifier":[{"type":{"coding":[{"system":"http://terminology.hl7.org/CodeSystem/v2-0203","code":"MR"}]},"system":"https://bonnie-fhir.healthit.gov/","value":"612e6e9c02c62a011f2ef070"}],"active":true,"name":[{"use":"usual","family":"NUMERPass","given":["ThrombinDuringED"]}],"gender":"female","birthDate":"1975-03-03"},"request":{"method":"PUT","url":"Patient/52f08855-780f-4975-b505-ade45abba149"}},{"fullUrl":"https://madie.cms.gov/Encounter/2884f7c8-3a57-42b8-866c-b6052fc9dcb2","resource":{"resourceType":"Encounter","id":"2884f7c8-3a57-42b8-866c-b6052fc9dcb2","meta":{"profile":["http://hl7.org/fhir/us/qicore/StructureDefinition/qicore-encounter"]},"status":"finished","class":{"system":"http://terminology.hl7.org/CodeSystem/v3-ActCode","code":"EMER","display":"emergency","userSelected":true},"type":[{"coding":[{"system":"http://snomed.info/sct","code":"4525004","display":"Emergency department patient visit (procedure)"}]}],"subject":{"reference":"Patient/52f08855-780f-4975-b505-ade45abba149"},"period":{"start":"2026-12-06T02:00:00.000+00:00","end":"2026-12-06T08:15:00.000+00:00"},"length":{"value":0.0,"unit":"days"}},"request":{"method":"PUT","url":"Encounter/2884f7c8-3a57-42b8-866c-b6052fc9dcb2"}},{"fullUrl":"https://madie.cms.gov/Encounter/af6661e6-a5d2-4bee-bc28-8c1766ac95a9","resource":{"resourceType":"Encounter","id":"af6661e6-a5d2-4bee-bc28-8c1766ac95a9","meta":{"profile":["http://hl7.org/fhir/us/qicore/StructureDefinition/qicore-encounter"]},"status":"finished","class":{"system":"http://terminology.hl7.org/CodeSystem/v3-ActCode","code":"IMP","display":"inpatient encounter"},"type":[{"coding":[{"system":"http://snomed.info/sct","code":"8715000","display":"Hospital admission, elective (procedure)"}]}],"subject":{"reference":"Patient/52f08855-780f-4975-b505-ade45abba149"},"period":{"start":"2026-12-06T08:45:00.000+00:00","end":"2026-12-30T08:15:00.000+00:00"},"length":{"value":24.0,"unit":"days"},"location":[{"location":{"reference":"Location/7bd0569f-071a-459b-be37-997ec803d8ee"},"period":{"start":"2026-12-06T09:00:00.000+00:00","end":"2026-12-12T08:15:00.000+00:00"}}]},"request":{"method":"PUT","url":"Encounter/af6661e6-a5d2-4bee-bc28-8c1766ac95a9"}},{"fullUrl":"https://madie.cms.gov/Coverage/d1ef0287-c134-48c4-9536-ce5c7c2f8326","resource":{"resourceType":"Coverage","id":"d1ef0287-c134-48c4-9536-ce5c7c2f8326","status":"active","beneficiary":{"reference":"Patient/52f08855-780f-4975-b505-ade45abba149"},"period":{"start":"1975-03-03T08:00:00.000+00:00"},"payor":[{"reference":"Organization/55d5c59f-4859-44d4-9c32-9363919dd4b2"}]},"request":{"method":"PUT","url":"Coverage/d1ef0287-c134-48c4-9536-ce5c7c2f8326"}},{"fullUrl":"https://madie.cms.gov/MedicationAdministration/5747ccfe-d8d9-42c8-bde2-275d38f828bd","resource":{"resourceType":"MedicationAdministration","id":"5747ccfe-d8d9-42c8-bde2-275d38f828bd","meta":{"profile":["http://hl7.org/fhir/us/qicore/StructureDefinition/qicore-medicationadministration"]},"status":"completed","medicationCodeableConcept":{"coding":[{"system":"http://www.nlm.nih.gov/research/umls/rxnorm","code":"308351"}]},"subject":{"reference":"Patient/52f08855-780f-4975-b505-ade45abba149"},"effectivePeriod":{"start":"2026-12-06T06:30:00.000+00:00","end":"2026-12-06T06:35:00.000+00:00"}},"request":{"method":"PUT","url":"MedicationAdministration/5747ccfe-d8d9-42c8-bde2-275d38f828bd"}},{"fullUrl":"https://madie.cms.gov/Location/7bd0569f-071a-459b-be37-997ec803d8ee","resource":{"resourceType":"Location","id":"7bd0569f-071a-459b-be37-997ec803d8ee","meta":{"profile":["http://hl7.org/fhir/us/qicore/StructureDefinition/qicore-location"]},"identifier":[{"use":"usual","system":"http://exampleoflocation.com","value":"B1-S.F2"}],"name":"Medical Surgical East, first floor","type":[{"coding":[{"system":"https://www.cdc.gov/nhsn/cdaportal/terminology/codesystem/hsloc.html","version":"2020","code":"1025-6","display":"Trauma Critical Care","userSelected":true}]}]},"request":{"method":"PUT","url":"Location/7bd0569f-071a-459b-be37-997ec803d8ee"}},{"fullUrl":"https://madie.cms.gov/Organization/55d5c59f-4859-44d4-9c32-9363919dd4b2","resource":{"resourceType":"Organization","id":"55d5c59f-4859-44d4-9c32-9363919dd4b2","meta":{"profile":["http://hl7.org/fhir/us/qicore/StructureDefinition/qicore-organization"]},"identifier":[{"use":"temp","system":"urn:oid:2.16.840.1.113883.4.4","value":"21-3259825"}],"active":true,"type":[{"coding":[{"system":"http://terminology.hl7.org/CodeSystem/organization-type","code":"pay","display":"Payer"}]}],"name":"Blue Cross Blue Shield of Texas","telecom":[{"system":"phone","value":"(+1) 972-766-6900"}],"address":[{"use":"billing","type":"postal","line":["P.O. Box 660044"],"city":"Dallas","state":"TX","postalCode":"75266-0044","country":"USA"}]},"request":{"method":"PUT","url":"Organization/55d5c59f-4859-44d4-9c32-9363919dd4b2"}},{"fullUrl":"https://madie.cms.gov/MeasureReport/ae24f662-ab82-4479-9d98-89a50208e39c","resource":{"resourceType":"MeasureReport","id":"ae24f662-ab82-4479-9d98-89a50208e39c","meta":{"profile":["http://hl7.org/fhir/us/cqfmeasures/StructureDefinition/test-case-cqfm"]},"contained":[{"resourceType":"Parameters","id":"f8b96c39-13b1-4863-87f8-c34777a7bed9-parameters","parameter":[{"name":"subject","valueString":"52f08855-780f-4975-b505-ade45abba149"}]}],"extension":[{"url":"http://hl7.org/fhir/StructureDefinition/cqf-inputParameters","valueReference":{"reference":"#f8b96c39-13b1-4863-87f8-c34777a7bed9-parameters"}},{"url":"http://hl7.org/fhir/us/cqfmeasures/StructureDefinition/cqfm-testCaseDescription","valueMarkdown":"meets IPP, meets Denominator, medication administered:Thrombin during ED, ED endTime less than 1 hour before Start of ICU"}],"modifierExtension":[{"url":"http://hl7.org/fhir/us/cqfmeasures/StructureDefinition/cqfm-isTestCase","valueBoolean":true}],"status":"complete","type":"individual","measure":"https://madie.cms.gov/Measure/CMS190VTEProphylaxisICUFHIR","period":{"start":"2026-01-01","end":"2026-12-31"},"group":[{"id":"Group_1","population":[{"id":"InitialPopulation_1","code":{"coding":[{"system":"http://terminology.hl7.org/CodeSystem/measure-population","code":"initial-population","display":"Initial Population"}]},"count":1},{"id":"Denominator_1","code":{"coding":[{"system":"http://terminology.hl7.org/CodeSystem/measure-population","code":"denominator","display":"Denominator"}]},"count":1},{"id":"DenominatorExclusion_1","code":{"coding":[{"system":"http://terminology.hl7.org/CodeSystem/measure-population","code":"denominator-exclusion","display":"Denominator Exclusion"}]},"count":0},{"id":"Numerator_1","code":{"coding":[{"system":"http://terminology.hl7.org/CodeSystem/measure-population","code":"numerator","display":"Numerator"}]},"count":1},{"id":"DenominatorException_1","code":{"coding":[{"system":"http://terminology.hl7.org/CodeSystem/measure-population","code":"denominator-exception","display":"Denominator Exception"}]},"count":0}],"measureScore":{"value":0.0}}],"evaluatedResource":[{"reference":"Patient/52f08855-780f-4975-b505-ade45abba149"},{"reference":"Encounter/2884f7c8-3a57-42b8-866c-b6052fc9dcb2"},{"reference":"Encounter/af6661e6-a5d2-4bee-bc28-8c1766ac95a9"},{"reference":"Coverage/d1ef0287-c134-48c4-9536-ce5c7c2f8326"},{"reference":"MedicationAdministration/5747ccfe-d8d9-42c8-bde2-275d38f828bd"},{"reference":"Location/7bd0569f-071a-459b-be37-997ec803d8ee"},{"reference":"Organization/55d5c59f-4859-44d4-9c32-9363919dd4b2"}]},"request":{"method":"PUT","url":"MeasureReport/ae24f662-ab82-4479-9d98-89a50208e39c"}}]},"request":{"method":"PUT","url":"Bundle/612e6e9c02c62a011f2ef070"}},{"resource":{"resourceType":"Encounter","id":"2884f7c8-3a57-42b8-866c-b6052fc9dcb2","meta":{"profile":["http://hl7.org/fhir/us/qicore/StructureDefinition/qicore-encounter"]},"status":"finished","class":{"system":"http://terminology.hl7.org/CodeSystem/v3-ActCode","code":"EMER","display":"emergency","userSelected":true},"type":[{"coding":[{"system":"http://snomed.info/sct","code":"4525004","display":"Emergency department patient visit (procedure)"}]}],"subject":{"reference":"Patient/52f08855-780f-4975-b505-ade45abba149"},"period":{"start":"2026-12-06T02:00:00.000+00:00","end":"2026-12-06T08:15:00.000+00:00"},"length":{"value":0.0,"unit":"days"}},"request":{"method":"PUT","url":"Encounter/2884f7c8-3a57-42b8-866c-b6052fc9dcb2"}},{"resource":{"resourceType":"Location","id":"7bd0569f-071a-459b-be37-997ec803d8ee","meta":{"profile":["http://hl7.org/fhir/us/qicore/StructureDefinition/qicore-location"]},"identifier":[{"use":"usual","system":"http://exampleoflocation.com","value":"B1-S.F2"}],"name":"Medical Surgical East, first floor","type":[{"coding":[{"system":"https://www.cdc.gov/nhsn/cdaportal/terminology/codesystem/hsloc.html","version":"2020","code":"1025-6","display":"Trauma Critical Care","userSelected":true}]}]},"request":{"method":"PUT","url":"Location/7bd0569f-071a-459b-be37-997ec803d8ee"}}]}