{"resourceType":"Bundle","id":"tests-a6f83dff-1b0c-4584-babd-8c369c0c7d51-bundle","type":"transaction","entry":[{"resource":{"resourceType":"Bundle","id":"612e6e9302c62a011f2eee8b","type":"transaction","entry":[{"fullUrl":"https://madie.cms.gov/Patient/a6f83dff-1b0c-4584-babd-8c369c0c7d51","resource":{"resourceType":"Patient","id":"a6f83dff-1b0c-4584-babd-8c369c0c7d51","meta":{"profile":["http://hl7.org/fhir/us/qicore/StructureDefinition/qicore-patient"]},"text":{"status":"generated","div":"<div xmlns=\"http://www.w3.org/1999/xhtml\"><div class=\"hapiHeaderText\">HipFxNotPrin <b>DENEXFAIL </b></div><table class=\"hapiPropertyTable\"><tbody><tr><td>Identifier</td><td>31862da5e01d3c5e5400146c9a207dfa</td></tr><tr><td>Date of birth</td><td><span>03 March 1974</span></td></tr></tbody></table></div>"},"extension":[{"url":"http://hl7.org/fhir/us/core/StructureDefinition/us-core-race","extension":[{"url":"ombCategory","valueCoding":{"system":"urn:oid:2.16.840.1.113883.6.238","code":"1002-5","display":"American Indian or Alaska Native","userSelected":true}},{"url":"text","valueString":"American Indian or Alaska Native"}]},{"url":"http://hl7.org/fhir/us/core/StructureDefinition/us-core-ethnicity","extension":[{"url":"ombCategory","valueCoding":{"system":"urn:oid:2.16.840.1.113883.6.238","code":"2135-2","display":"Hispanic or Latino","userSelected":true}},{"url":"text","valueString":"Hispanic or Latino"}]}],"identifier":[{"type":{"coding":[{"system":"http://terminology.hl7.org/CodeSystem/v2-0203","code":"MR"}]},"system":"https://bonnie-fhir.healthit.gov/","value":"612e6e9302c62a011f2eee8b"}],"active":true,"name":[{"use":"usual","family":"DENEXFail","given":["HipFxNotPrin"]}],"gender":"female","birthDate":"1975-03-03"},"request":{"method":"PUT","url":"Patient/a6f83dff-1b0c-4584-babd-8c369c0c7d51"}},{"fullUrl":"https://madie.cms.gov/Encounter/f09c4c53-dc6f-4808-bd49-b73e20ccc1c2","resource":{"resourceType":"Encounter","id":"f09c4c53-dc6f-4808-bd49-b73e20ccc1c2","meta":{"profile":["http://hl7.org/fhir/us/qicore/StructureDefinition/qicore-encounter"]},"status":"finished","class":{"system":"http://terminology.hl7.org/CodeSystem/v3-ActCode","code":"IMP","display":"inpatient encounter"},"type":[{"coding":[{"system":"http://snomed.info/sct","code":"8715000"}]}],"subject":{"reference":"Patient/a6f83dff-1b0c-4584-babd-8c369c0c7d51"},"period":{"start":"2026-12-04T08:00:00.000+00:00","end":"2026-12-30T08:15:00.000+00:00"},"length":{"value":26.0,"unit":"days"},"location":[{"location":{"reference":"Location/8e51b88e-d554-475e-b146-d6e468c031bc"},"period":{"start":"2026-12-06T08:00:00.000+00:00","end":"2026-12-08T08:15:00.000+00:00"}}]},"request":{"method":"PUT","url":"Encounter/f09c4c53-dc6f-4808-bd49-b73e20ccc1c2"}},{"fullUrl":"https://madie.cms.gov/Coverage/23b883b1-76df-4447-b7ee-a1476f1388d7","resource":{"resourceType":"Coverage","id":"23b883b1-76df-4447-b7ee-a1476f1388d7","status":"active","beneficiary":{"reference":"Patient/a6f83dff-1b0c-4584-babd-8c369c0c7d51"},"period":{"start":"1975-03-03T08:00:00.000+00:00"},"payor":[{"reference":"Organization/b9663d75-904a-43af-ba37-85b2ad284bbe"}]},"request":{"method":"PUT","url":"Coverage/23b883b1-76df-4447-b7ee-a1476f1388d7"}},{"fullUrl":"https://madie.cms.gov/Procedure/81d5a2ec-4867-4534-9fec-6a0f308bde92","resource":{"resourceType":"Procedure","id":"81d5a2ec-4867-4534-9fec-6a0f308bde92","meta":{"profile":["http://hl7.org/fhir/us/qicore/StructureDefinition/qicore-procedure"]},"extension":[{"url":"http://hl7.org/fhir/us/qicore/StructureDefinition/qicore-recorded","valueDateTime":"2013-12-06T13:35:00.000+00:00"}],"status":"completed","code":{"coding":[{"system":"http://www.cms.gov/Medicare/Coding/ICD10","code":"0F150D3","display":"Bypass Right Hepatic Duct to Duodenum with Intraluminal Device, Open Approach"}]},"subject":{"reference":"Patient/a6f83dff-1b0c-4584-babd-8c369c0c7d51"},"performedPeriod":{"start":"2026-12-06T08:15:00.000+00:00","end":"2026-12-06T11:15:00.000+00:00"}},"request":{"method":"PUT","url":"Procedure/81d5a2ec-4867-4534-9fec-6a0f308bde92"}},{"fullUrl":"https://madie.cms.gov/Location/8e51b88e-d554-475e-b146-d6e468c031bc","resource":{"resourceType":"Location","id":"8e51b88e-d554-475e-b146-d6e468c031bc","meta":{"profile":["http://hl7.org/fhir/us/qicore/StructureDefinition/qicore-location"]},"identifier":[{"use":"usual","system":"http://exampleoflocation.com","value":"B1-S.F2"}],"name":"Medical Surgical East, first floor","type":[{"coding":[{"system":"https://www.cdc.gov/nhsn/cdaportal/terminology/codesystem/hsloc.html","code":"1025-6","display":"Trauma Critical Care","userSelected":true}]}]},"request":{"method":"PUT","url":"Location/8e51b88e-d554-475e-b146-d6e468c031bc"}},{"fullUrl":"https://madie.cms.gov/Organization/b9663d75-904a-43af-ba37-85b2ad284bbe","resource":{"resourceType":"Organization","id":"b9663d75-904a-43af-ba37-85b2ad284bbe","meta":{"profile":["http://hl7.org/fhir/us/qicore/StructureDefinition/qicore-organization"]},"identifier":[{"use":"temp","system":"urn:oid:2.16.840.1.113883.4.4","value":"21-3259825"}],"active":true,"type":[{"coding":[{"system":"http://terminology.hl7.org/CodeSystem/organization-type","code":"pay","display":"Payer"}]}],"name":"Blue Cross Blue Shield of Texas","telecom":[{"system":"phone","value":"(+1) 972-766-6900"}],"address":[{"use":"billing","type":"postal","line":["P.O. Box 660044"],"city":"Dallas","state":"TX","postalCode":"75266-0044","country":"USA"}]},"request":{"method":"PUT","url":"Organization/b9663d75-904a-43af-ba37-85b2ad284bbe"}},{"fullUrl":"https://madie.cms.gov/Practitioner/9a30cb7b-8bf8-481f-a4d1-f037029eaf0f","resource":{"resourceType":"Practitioner","id":"9a30cb7b-8bf8-481f-a4d1-f037029eaf0f","identifier":[{"system":"http://hl7.org/fhir/sid/us-npi","value":"123456"}],"name":[{"family":"Evil","prefix":["Dr"]}]},"request":{"method":"PUT","url":"Practitioner/9a30cb7b-8bf8-481f-a4d1-f037029eaf0f"}},{"fullUrl":"https://madie.cms.gov/MeasureReport/86d9dd9b-cf0d-4a42-ad96-979e5f510a98","resource":{"resourceType":"MeasureReport","id":"86d9dd9b-cf0d-4a42-ad96-979e5f510a98","meta":{"profile":["http://hl7.org/fhir/us/cqfmeasures/StructureDefinition/test-case-cqfm"]},"contained":[{"resourceType":"Parameters","id":"9ad78229-bc0d-4ca7-9abd-63e2972ff516-parameters","parameter":[{"name":"subject","valueString":"a6f83dff-1b0c-4584-babd-8c369c0c7d51"}]}],"extension":[{"url":"http://hl7.org/fhir/StructureDefinition/cqf-inputParameters","valueReference":{"reference":"#9ad78229-bc0d-4ca7-9abd-63e2972ff516-parameters"}},{"url":"http://hl7.org/fhir/us/cqfmeasures/StructureDefinition/cqfm-testCaseDescription","valueMarkdown":"general surgery starts not principal\n"}],"modifierExtension":[{"url":"http://hl7.org/fhir/us/cqfmeasures/StructureDefinition/cqfm-isTestCase","valueBoolean":true}],"status":"complete","type":"individual","measure":"https://madie.cms.gov/Measure/CMS190VTEProphylaxisICUFHIR","period":{"start":"2026-01-01","end":"2026-12-31"},"group":[{"id":"Group_1","population":[{"id":"InitialPopulation_1","code":{"coding":[{"system":"http://terminology.hl7.org/CodeSystem/measure-population","code":"initial-population","display":"Initial Population"}]},"count":1},{"id":"Denominator_1","code":{"coding":[{"system":"http://terminology.hl7.org/CodeSystem/measure-population","code":"denominator","display":"Denominator"}]},"count":1},{"id":"DenominatorExclusion_1","code":{"coding":[{"system":"http://terminology.hl7.org/CodeSystem/measure-population","code":"denominator-exclusion","display":"Denominator Exclusion"}]},"count":0},{"id":"Numerator_1","code":{"coding":[{"system":"http://terminology.hl7.org/CodeSystem/measure-population","code":"numerator","display":"Numerator"}]},"count":0},{"id":"DenominatorException_1","code":{"coding":[{"system":"http://terminology.hl7.org/CodeSystem/measure-population","code":"denominator-exception","display":"Denominator Exception"}]},"count":0}],"measureScore":{"value":0.0}}],"evaluatedResource":[{"reference":"Patient/a6f83dff-1b0c-4584-babd-8c369c0c7d51"},{"reference":"Encounter/f09c4c53-dc6f-4808-bd49-b73e20ccc1c2"},{"reference":"Coverage/23b883b1-76df-4447-b7ee-a1476f1388d7"},{"reference":"Procedure/81d5a2ec-4867-4534-9fec-6a0f308bde92"},{"reference":"Location/8e51b88e-d554-475e-b146-d6e468c031bc"},{"reference":"Organization/b9663d75-904a-43af-ba37-85b2ad284bbe"},{"reference":"Practitioner/9a30cb7b-8bf8-481f-a4d1-f037029eaf0f"}]},"request":{"method":"PUT","url":"MeasureReport/86d9dd9b-cf0d-4a42-ad96-979e5f510a98"}}]},"request":{"method":"PUT","url":"Bundle/612e6e9302c62a011f2eee8b"}},{"resource":{"resourceType":"Organization","id":"b9663d75-904a-43af-ba37-85b2ad284bbe","meta":{"profile":["http://hl7.org/fhir/us/qicore/StructureDefinition/qicore-organization"]},"identifier":[{"use":"temp","system":"urn:oid:2.16.840.1.113883.4.4","value":"21-3259825"}],"active":true,"type":[{"coding":[{"system":"http://terminology.hl7.org/CodeSystem/organization-type","code":"pay","display":"Payer"}]}],"name":"Blue Cross Blue Shield of Texas","telecom":[{"system":"phone","value":"(+1) 972-766-6900"}],"address":[{"use":"billing","type":"postal","line":["P.O. Box 660044"],"city":"Dallas","state":"TX","postalCode":"75266-0044","country":"USA"}]},"request":{"method":"PUT","url":"Organization/b9663d75-904a-43af-ba37-85b2ad284bbe"}},{"resource":{"resourceType":"Coverage","id":"23b883b1-76df-4447-b7ee-a1476f1388d7","status":"active","beneficiary":{"reference":"Patient/a6f83dff-1b0c-4584-babd-8c369c0c7d51"},"period":{"start":"1975-03-03T08:00:00.000+00:00"},"payor":[{"reference":"Organization/b9663d75-904a-43af-ba37-85b2ad284bbe"}]},"request":{"method":"PUT","url":"Coverage/23b883b1-76df-4447-b7ee-a1476f1388d7"}},{"resource":{"resourceType":"MeasureReport","id":"86d9dd9b-cf0d-4a42-ad96-979e5f510a98","meta":{"profile":["http://hl7.org/fhir/us/cqfmeasures/StructureDefinition/test-case-cqfm"]},"contained":[{"resourceType":"Parameters","id":"9ad78229-bc0d-4ca7-9abd-63e2972ff516-parameters","parameter":[{"name":"subject","valueString":"a6f83dff-1b0c-4584-babd-8c369c0c7d51"}]}],"extension":[{"url":"http://hl7.org/fhir/StructureDefinition/cqf-inputParameters","valueReference":{"reference":"#9ad78229-bc0d-4ca7-9abd-63e2972ff516-parameters"}},{"url":"http://hl7.org/fhir/us/cqfmeasures/StructureDefinition/cqfm-testCaseDescription","valueMarkdown":"general surgery starts not principal\n"}],"modifierExtension":[{"url":"http://hl7.org/fhir/us/cqfmeasures/StructureDefinition/cqfm-isTestCase","valueBoolean":true}],"status":"complete","type":"individual","measure":"https://madie.cms.gov/Measure/CMS190VTEProphylaxisICUFHIR","period":{"start":"2026-01-01","end":"2026-12-31"},"group":[{"id":"Group_1","population":[{"id":"InitialPopulation_1","code":{"coding":[{"system":"http://terminology.hl7.org/CodeSystem/measure-population","code":"initial-population","display":"Initial Population"}]},"count":1},{"id":"Denominator_1","code":{"coding":[{"system":"http://terminology.hl7.org/CodeSystem/measure-population","code":"denominator","display":"Denominator"}]},"count":1},{"id":"DenominatorExclusion_1","code":{"coding":[{"system":"http://terminology.hl7.org/CodeSystem/measure-population","code":"denominator-exclusion","display":"Denominator Exclusion"}]},"count":0},{"id":"Numerator_1","code":{"coding":[{"system":"http://terminology.hl7.org/CodeSystem/measure-population","code":"numerator","display":"Numerator"}]},"count":0},{"id":"DenominatorException_1","code":{"coding":[{"system":"http://terminology.hl7.org/CodeSystem/measure-population","code":"denominator-exception","display":"Denominator Exception"}]},"count":0}],"measureScore":{"value":0.0}}],"evaluatedResource":[{"reference":"Patient/a6f83dff-1b0c-4584-babd-8c369c0c7d51"},{"reference":"Encounter/f09c4c53-dc6f-4808-bd49-b73e20ccc1c2"},{"reference":"Coverage/23b883b1-76df-4447-b7ee-a1476f1388d7"},{"reference":"Procedure/81d5a2ec-4867-4534-9fec-6a0f308bde92"},{"reference":"Location/8e51b88e-d554-475e-b146-d6e468c031bc"},{"reference":"Organization/b9663d75-904a-43af-ba37-85b2ad284bbe"},{"reference":"Practitioner/9a30cb7b-8bf8-481f-a4d1-f037029eaf0f"}]},"request":{"method":"PUT","url":"MeasureReport/86d9dd9b-cf0d-4a42-ad96-979e5f510a98"}},{"resource":{"resourceType":"Patient","id":"a6f83dff-1b0c-4584-babd-8c369c0c7d51","meta":{"profile":["http://hl7.org/fhir/us/qicore/StructureDefinition/qicore-patient"]},"text":{"status":"generated","div":"<div xmlns=\"http://www.w3.org/1999/xhtml\"><div class=\"hapiHeaderText\">HipFxNotPrin <b>DENEXFAIL </b></div><table class=\"hapiPropertyTable\"><tbody><tr><td>Identifier</td><td>31862da5e01d3c5e5400146c9a207dfa</td></tr><tr><td>Date of birth</td><td><span>03 March 1974</span></td></tr></tbody></table></div>"},"extension":[{"url":"http://hl7.org/fhir/us/core/StructureDefinition/us-core-race","extension":[{"url":"ombCategory","valueCoding":{"system":"urn:oid:2.16.840.1.113883.6.238","code":"1002-5","display":"American Indian or Alaska Native","userSelected":true}},{"url":"text","valueString":"American Indian or Alaska Native"}]},{"url":"http://hl7.org/fhir/us/core/StructureDefinition/us-core-ethnicity","extension":[{"url":"ombCategory","valueCoding":{"system":"urn:oid:2.16.840.1.113883.6.238","code":"2135-2","display":"Hispanic or Latino","userSelected":true}},{"url":"text","valueString":"Hispanic or Latino"}]}],"identifier":[{"type":{"coding":[{"system":"http://terminology.hl7.org/CodeSystem/v2-0203","code":"MR"}]},"system":"https://bonnie-fhir.healthit.gov/","value":"612e6e9302c62a011f2eee8b"}],"active":true,"name":[{"use":"usual","family":"DENEXFail","given":["HipFxNotPrin"]}],"gender":"female","birthDate":"1975-03-03"},"request":{"method":"PUT","url":"Patient/a6f83dff-1b0c-4584-babd-8c369c0c7d51"}},{"resource":{"resourceType":"Encounter","id":"f09c4c53-dc6f-4808-bd49-b73e20ccc1c2","meta":{"profile":["http://hl7.org/fhir/us/qicore/StructureDefinition/qicore-encounter"]},"status":"finished","class":{"system":"http://terminology.hl7.org/CodeSystem/v3-ActCode","code":"IMP","display":"inpatient encounter"},"type":[{"coding":[{"system":"http://snomed.info/sct","code":"8715000"}]}],"subject":{"reference":"Patient/a6f83dff-1b0c-4584-babd-8c369c0c7d51"},"period":{"start":"2026-12-04T08:00:00.000+00:00","end":"2026-12-30T08:15:00.000+00:00"},"length":{"value":26.0,"unit":"days"},"location":[{"location":{"reference":"Location/8e51b88e-d554-475e-b146-d6e468c031bc"},"period":{"start":"2026-12-06T08:00:00.000+00:00","end":"2026-12-08T08:15:00.000+00:00"}}]},"request":{"method":"PUT","url":"Encounter/f09c4c53-dc6f-4808-bd49-b73e20ccc1c2"}},{"resource":{"resourceType":"Procedure","id":"81d5a2ec-4867-4534-9fec-6a0f308bde92","meta":{"profile":["http://hl7.org/fhir/us/qicore/StructureDefinition/qicore-procedure"]},"extension":[{"url":"http://hl7.org/fhir/us/qicore/StructureDefinition/qicore-recorded","valueDateTime":"2013-12-06T13:35:00.000+00:00"}],"status":"completed","code":{"coding":[{"system":"http://www.cms.gov/Medicare/Coding/ICD10","code":"0F150D3","display":"Bypass Right Hepatic Duct to Duodenum with Intraluminal Device, Open Approach"}]},"subject":{"reference":"Patient/a6f83dff-1b0c-4584-babd-8c369c0c7d51"},"performedPeriod":{"start":"2026-12-06T08:15:00.000+00:00","end":"2026-12-06T11:15:00.000+00:00"}},"request":{"method":"PUT","url":"Procedure/81d5a2ec-4867-4534-9fec-6a0f308bde92"}},{"resource":{"resourceType":"Location","id":"8e51b88e-d554-475e-b146-d6e468c031bc","meta":{"profile":["http://hl7.org/fhir/us/qicore/StructureDefinition/qicore-location"]},"identifier":[{"use":"usual","system":"http://exampleoflocation.com","value":"B1-S.F2"}],"name":"Medical Surgical East, first floor","type":[{"coding":[{"system":"https://www.cdc.gov/nhsn/cdaportal/terminology/codesystem/hsloc.html","code":"1025-6","display":"Trauma Critical Care","userSelected":true}]}]},"request":{"method":"PUT","url":"Location/8e51b88e-d554-475e-b146-d6e468c031bc"}},{"resource":{"resourceType":"Practitioner","id":"9a30cb7b-8bf8-481f-a4d1-f037029eaf0f","identifier":[{"system":"http://hl7.org/fhir/sid/us-npi","value":"123456"}],"name":[{"family":"Evil","prefix":["Dr"]}]},"request":{"method":"PUT","url":"Practitioner/9a30cb7b-8bf8-481f-a4d1-f037029eaf0f"}}]}