{"resourceType":"Bundle","id":"tests-88c18b5b-b5af-45a1-91c4-8b585bf6e86a-bundle","type":"transaction","entry":[{"fullUrl":"Observation/188d0676-368b-4c73-be76-efb418f08fe6","resource":{"resourceType":"Observation","id":"188d0676-368b-4c73-be76-efb418f08fe6","meta":{"profile":["http://hl7.org/fhir/us/qicore/StructureDefinition/qicore-observation-lab"]},"status":"corrected","category":[{"coding":[{"system":"http://terminology.hl7.org/CodeSystem/observation-category","code":"laboratory","display":"Laboratory"}]}],"code":{"coding":[{"system":"http://loinc.org","code":"34714-6"}]},"subject":{"reference":"Patient/88c18b5b-b5af-45a1-91c4-8b585bf6e86a"},"effectivePeriod":{"start":"2026-12-08T11:30:00.000+00:00"},"valueInteger":3},"request":{"method":"PUT","url":"Observation/188d0676-368b-4c73-be76-efb418f08fe6"}},{"fullUrl":"MeasureReport/79238713-ca88-4d45-804b-c674c45619d9","resource":{"resourceType":"MeasureReport","id":"79238713-ca88-4d45-804b-c674c45619d9","meta":{"profile":["http://hl7.org/fhir/us/cqfmeasures/StructureDefinition/test-case-cqfm"]},"contained":[{"resourceType":"Parameters","id":"06e614ac-1e97-42d9-aa5f-09c6806000fb-parameters","parameter":[{"name":"subject","valueString":"88c18b5b-b5af-45a1-91c4-8b585bf6e86a"}]}],"extension":[{"url":"http://hl7.org/fhir/StructureDefinition/cqf-inputParameters","valueReference":{"reference":"#06e614ac-1e97-42d9-aa5f-09c6806000fb-parameters"}},{"url":"http://hl7.org/fhir/us/cqfmeasures/StructureDefinition/cqfm-testCaseDescription","valueMarkdown":"FAIL - meets IPP, meets Denominator, INR=3 starts day after Anesthesia ends, Anes ends after start of ICU\n"}],"modifierExtension":[{"url":"http://hl7.org/fhir/us/cqfmeasures/StructureDefinition/cqfm-isTestCase","valueBoolean":true}],"status":"complete","type":"individual","measure":"https://madie.cms.gov/Measure/CMS190VTEProphylaxisICUFHIR","period":{"start":"2026-01-01","end":"2026-12-31"},"group":[{"id":"Group_1","population":[{"id":"InitialPopulation_1","code":{"coding":[{"system":"http://terminology.hl7.org/CodeSystem/measure-population","code":"initial-population","display":"Initial Population"}]},"count":1},{"id":"Denominator_1","code":{"coding":[{"system":"http://terminology.hl7.org/CodeSystem/measure-population","code":"denominator","display":"Denominator"}]},"count":1},{"id":"DenominatorExclusion_1","code":{"coding":[{"system":"http://terminology.hl7.org/CodeSystem/measure-population","code":"denominator-exclusion","display":"Denominator Exclusion"}]},"count":0},{"id":"Numerator_1","code":{"coding":[{"system":"http://terminology.hl7.org/CodeSystem/measure-population","code":"numerator","display":"Numerator"}]},"count":0},{"id":"DenominatorException_1","code":{"coding":[{"system":"http://terminology.hl7.org/CodeSystem/measure-population","code":"denominator-exception","display":"Denominator Exception"}]},"count":0}],"measureScore":{"value":0.0}}],"evaluatedResource":[{"reference":"Patient/88c18b5b-b5af-45a1-91c4-8b585bf6e86a"},{"reference":"Encounter/0af223fc-2fc3-4ad2-915e-60a4eae05f7d"},{"reference":"Coverage/9067df17-d352-4b28-81c9-8cb7b05aab89"},{"reference":"Observation/188d0676-368b-4c73-be76-efb418f08fe6"},{"reference":"Procedure/b4549799-8598-47ca-866f-7680855cccc6"},{"reference":"Location/eeb92456-1353-42f1-8ef7-e1d20f8c8d3f"},{"reference":"Organization/6e3fdb41-8a04-46cc-b6a2-ef723930bb68"},{"reference":"Practitioner/732a45f5-011b-4733-bc97-d739c6b751fc"}]},"request":{"method":"PUT","url":"MeasureReport/79238713-ca88-4d45-804b-c674c45619d9"}},{"fullUrl":"Location/eeb92456-1353-42f1-8ef7-e1d20f8c8d3f","resource":{"resourceType":"Location","id":"eeb92456-1353-42f1-8ef7-e1d20f8c8d3f","meta":{"profile":["http://hl7.org/fhir/us/qicore/StructureDefinition/qicore-location"]},"identifier":[{"use":"usual","system":"http://exampleoflocation.com","value":"B1-S.F2"}],"name":"Medical Surgical East, first floor","type":[{"coding":[{"system":"https://www.cdc.gov/nhsn/cdaportal/terminology/codesystem/hsloc.html","code":"1025-6","display":"Trauma Critical Care","userSelected":true}]}]},"request":{"method":"PUT","url":"Location/eeb92456-1353-42f1-8ef7-e1d20f8c8d3f"}},{"fullUrl":"Coverage/9067df17-d352-4b28-81c9-8cb7b05aab89","resource":{"resourceType":"Coverage","id":"9067df17-d352-4b28-81c9-8cb7b05aab89","status":"active","beneficiary":{"reference":"Patient/88c18b5b-b5af-45a1-91c4-8b585bf6e86a"},"period":{"start":"1975-03-03T08:00:00.000+00:00"},"payor":[{"reference":"Organization/6e3fdb41-8a04-46cc-b6a2-ef723930bb68"}]},"request":{"method":"PUT","url":"Coverage/9067df17-d352-4b28-81c9-8cb7b05aab89"}},{"fullUrl":"Bundle/612e6eed02c62a011f2f0109","resource":{"resourceType":"Bundle","id":"612e6eed02c62a011f2f0109","type":"transaction","entry":[{"fullUrl":"https://madie.cms.gov/Patient/88c18b5b-b5af-45a1-91c4-8b585bf6e86a","resource":{"resourceType":"Patient","id":"88c18b5b-b5af-45a1-91c4-8b585bf6e86a","meta":{"profile":["http://hl7.org/fhir/us/qicore/StructureDefinition/qicore-patient"]},"text":{"status":"generated","div":"<div xmlns=\"http://www.w3.org/1999/xhtml\"><div class=\"hapiHeaderText\">INREQ3DayAfterAnes <b>NUMERFAIL </b></div><table class=\"hapiPropertyTable\"><tbody><tr><td>Identifier</td><td>945bb3b161067acb3bc9e908f6fb2325</td></tr><tr><td>Date of birth</td><td><span>03 March 1974</span></td></tr></tbody></table></div>"},"extension":[{"url":"http://hl7.org/fhir/us/core/StructureDefinition/us-core-race","extension":[{"url":"ombCategory","valueCoding":{"system":"urn:oid:2.16.840.1.113883.6.238","code":"1002-5","display":"American Indian or Alaska Native","userSelected":true}},{"url":"text","valueString":"American Indian or Alaska Native"}]},{"url":"http://hl7.org/fhir/us/core/StructureDefinition/us-core-ethnicity","extension":[{"url":"ombCategory","valueCoding":{"system":"urn:oid:2.16.840.1.113883.6.238","code":"2135-2","display":"Hispanic or Latino","userSelected":true}},{"url":"text","valueString":"Hispanic or Latino"}]}],"identifier":[{"type":{"coding":[{"system":"http://terminology.hl7.org/CodeSystem/v2-0203","code":"MR"}]},"system":"https://bonnie-fhir.healthit.gov/","value":"612e6eed02c62a011f2f0109"}],"active":true,"name":[{"use":"usual","family":"NUMERFail","given":["INREQ3DayAfterAnes"]}],"gender":"female","birthDate":"1975-03-03"},"request":{"method":"PUT","url":"Patient/88c18b5b-b5af-45a1-91c4-8b585bf6e86a"}},{"fullUrl":"https://madie.cms.gov/Encounter/0af223fc-2fc3-4ad2-915e-60a4eae05f7d","resource":{"resourceType":"Encounter","id":"0af223fc-2fc3-4ad2-915e-60a4eae05f7d","meta":{"profile":["http://hl7.org/fhir/us/qicore/StructureDefinition/qicore-encounter"]},"status":"finished","class":{"system":"http://terminology.hl7.org/CodeSystem/v3-ActCode","code":"IMP","display":"inpatient encounter"},"type":[{"coding":[{"system":"http://snomed.info/sct","code":"8715000"}]}],"subject":{"reference":"Patient/88c18b5b-b5af-45a1-91c4-8b585bf6e86a"},"period":{"start":"2026-12-04T08:00:00.000+00:00","end":"2026-12-30T08:15:00.000+00:00"},"length":{"value":26,"unit":"days"},"location":[{"location":{"reference":"Location/eeb92456-1353-42f1-8ef7-e1d20f8c8d3f"},"period":{"start":"2026-12-06T09:00:00.000+00:00","end":"2026-12-12T08:15:00.000+00:00"}}]},"request":{"method":"PUT","url":"Encounter/0af223fc-2fc3-4ad2-915e-60a4eae05f7d"}},{"fullUrl":"https://madie.cms.gov/Coverage/9067df17-d352-4b28-81c9-8cb7b05aab89","resource":{"resourceType":"Coverage","id":"9067df17-d352-4b28-81c9-8cb7b05aab89","status":"active","beneficiary":{"reference":"Patient/88c18b5b-b5af-45a1-91c4-8b585bf6e86a"},"period":{"start":"1975-03-03T08:00:00.000+00:00"},"payor":[{"reference":"Organization/6e3fdb41-8a04-46cc-b6a2-ef723930bb68"}]},"request":{"method":"PUT","url":"Coverage/9067df17-d352-4b28-81c9-8cb7b05aab89"}},{"fullUrl":"https://madie.cms.gov/Observation/188d0676-368b-4c73-be76-efb418f08fe6","resource":{"resourceType":"Observation","id":"188d0676-368b-4c73-be76-efb418f08fe6","meta":{"profile":["http://hl7.org/fhir/us/qicore/StructureDefinition/qicore-observation-lab"]},"status":"corrected","category":[{"coding":[{"system":"http://terminology.hl7.org/CodeSystem/observation-category","code":"laboratory","display":"Laboratory"}]}],"code":{"coding":[{"system":"http://loinc.org","code":"34714-6"}]},"subject":{"reference":"Patient/88c18b5b-b5af-45a1-91c4-8b585bf6e86a"},"effectivePeriod":{"start":"2026-12-08T11:30:00.000+00:00"},"valueInteger":3},"request":{"method":"PUT","url":"Observation/188d0676-368b-4c73-be76-efb418f08fe6"}},{"fullUrl":"https://madie.cms.gov/Procedure/b4549799-8598-47ca-866f-7680855cccc6","resource":{"resourceType":"Procedure","id":"b4549799-8598-47ca-866f-7680855cccc6","meta":{"profile":["http://hl7.org/fhir/us/qicore/StructureDefinition/qicore-procedure"]},"extension":[{"url":"http://hl7.org/fhir/us/qicore/StructureDefinition/qicore-recorded","valueDateTime":"2013-12-08T13:35:00.000+00:00"}],"status":"completed","code":{"coding":[{"system":"http://snomed.info/sct","code":"18946005"}]},"subject":{"reference":"Patient/88c18b5b-b5af-45a1-91c4-8b585bf6e86a"},"performedPeriod":{"start":"2026-12-07T10:00:00.000+00:00","end":"2026-12-07T10:30:00.000+00:00"}},"request":{"method":"PUT","url":"Procedure/b4549799-8598-47ca-866f-7680855cccc6"}},{"fullUrl":"https://madie.cms.gov/Location/eeb92456-1353-42f1-8ef7-e1d20f8c8d3f","resource":{"resourceType":"Location","id":"eeb92456-1353-42f1-8ef7-e1d20f8c8d3f","meta":{"profile":["http://hl7.org/fhir/us/qicore/StructureDefinition/qicore-location"]},"identifier":[{"use":"usual","system":"http://exampleoflocation.com","value":"B1-S.F2"}],"name":"Medical Surgical East, first floor","type":[{"coding":[{"system":"https://www.cdc.gov/nhsn/cdaportal/terminology/codesystem/hsloc.html","code":"1025-6","display":"Trauma Critical Care","userSelected":true}]}]},"request":{"method":"PUT","url":"Location/eeb92456-1353-42f1-8ef7-e1d20f8c8d3f"}},{"fullUrl":"https://madie.cms.gov/Organization/6e3fdb41-8a04-46cc-b6a2-ef723930bb68","resource":{"resourceType":"Organization","id":"6e3fdb41-8a04-46cc-b6a2-ef723930bb68","meta":{"profile":["http://hl7.org/fhir/us/qicore/StructureDefinition/qicore-organization"]},"identifier":[{"use":"temp","system":"urn:oid:2.16.840.1.113883.4.4","value":"21-3259825"}],"active":true,"type":[{"coding":[{"system":"http://terminology.hl7.org/CodeSystem/organization-type","code":"pay","display":"Payer"}]}],"name":"Blue Cross Blue Shield of Texas","telecom":[{"system":"phone","value":"(+1) 972-766-6900"}],"address":[{"use":"billing","type":"postal","line":["P.O. Box 660044"],"city":"Dallas","state":"TX","postalCode":"75266-0044","country":"USA"}]},"request":{"method":"PUT","url":"Organization/6e3fdb41-8a04-46cc-b6a2-ef723930bb68"}},{"fullUrl":"https://madie.cms.gov/Practitioner/732a45f5-011b-4733-bc97-d739c6b751fc","resource":{"resourceType":"Practitioner","id":"732a45f5-011b-4733-bc97-d739c6b751fc","identifier":[{"system":"http://hl7.org/fhir/sid/us-npi","value":"123456"}],"name":[{"family":"Evil","prefix":["Dr"]}]},"request":{"method":"PUT","url":"Practitioner/732a45f5-011b-4733-bc97-d739c6b751fc"}},{"fullUrl":"https://madie.cms.gov/MeasureReport/79238713-ca88-4d45-804b-c674c45619d9","resource":{"resourceType":"MeasureReport","id":"79238713-ca88-4d45-804b-c674c45619d9","meta":{"profile":["http://hl7.org/fhir/us/cqfmeasures/StructureDefinition/test-case-cqfm"]},"contained":[{"resourceType":"Parameters","id":"06e614ac-1e97-42d9-aa5f-09c6806000fb-parameters","parameter":[{"name":"subject","valueString":"88c18b5b-b5af-45a1-91c4-8b585bf6e86a"}]}],"extension":[{"url":"http://hl7.org/fhir/StructureDefinition/cqf-inputParameters","valueReference":{"reference":"#06e614ac-1e97-42d9-aa5f-09c6806000fb-parameters"}},{"url":"http://hl7.org/fhir/us/cqfmeasures/StructureDefinition/cqfm-testCaseDescription","valueMarkdown":"FAIL - meets IPP, meets Denominator, INR=3 starts day after Anesthesia ends, Anes ends after start of ICU\n"}],"modifierExtension":[{"url":"http://hl7.org/fhir/us/cqfmeasures/StructureDefinition/cqfm-isTestCase","valueBoolean":true}],"status":"complete","type":"individual","measure":"https://madie.cms.gov/Measure/CMS190VTEProphylaxisICUFHIR","period":{"start":"2026-01-01","end":"2026-12-31"},"group":[{"id":"Group_1","population":[{"id":"InitialPopulation_1","code":{"coding":[{"system":"http://terminology.hl7.org/CodeSystem/measure-population","code":"initial-population","display":"Initial Population"}]},"count":1},{"id":"Denominator_1","code":{"coding":[{"system":"http://terminology.hl7.org/CodeSystem/measure-population","code":"denominator","display":"Denominator"}]},"count":1},{"id":"DenominatorExclusion_1","code":{"coding":[{"system":"http://terminology.hl7.org/CodeSystem/measure-population","code":"denominator-exclusion","display":"Denominator Exclusion"}]},"count":0},{"id":"Numerator_1","code":{"coding":[{"system":"http://terminology.hl7.org/CodeSystem/measure-population","code":"numerator","display":"Numerator"}]},"count":0},{"id":"DenominatorException_1","code":{"coding":[{"system":"http://terminology.hl7.org/CodeSystem/measure-population","code":"denominator-exception","display":"Denominator Exception"}]},"count":0}],"measureScore":{"value":0.0}}],"evaluatedResource":[{"reference":"Patient/88c18b5b-b5af-45a1-91c4-8b585bf6e86a"},{"reference":"Encounter/0af223fc-2fc3-4ad2-915e-60a4eae05f7d"},{"reference":"Coverage/9067df17-d352-4b28-81c9-8cb7b05aab89"},{"reference":"Observation/188d0676-368b-4c73-be76-efb418f08fe6"},{"reference":"Procedure/b4549799-8598-47ca-866f-7680855cccc6"},{"reference":"Location/eeb92456-1353-42f1-8ef7-e1d20f8c8d3f"},{"reference":"Organization/6e3fdb41-8a04-46cc-b6a2-ef723930bb68"},{"reference":"Practitioner/732a45f5-011b-4733-bc97-d739c6b751fc"}]},"request":{"method":"PUT","url":"MeasureReport/79238713-ca88-4d45-804b-c674c45619d9"}}]},"request":{"method":"PUT","url":"Bundle/612e6eed02c62a011f2f0109"}},{"fullUrl":"Practitioner/732a45f5-011b-4733-bc97-d739c6b751fc","resource":{"resourceType":"Practitioner","id":"732a45f5-011b-4733-bc97-d739c6b751fc","identifier":[{"system":"http://hl7.org/fhir/sid/us-npi","value":"123456"}],"name":[{"family":"Evil","prefix":["Dr"]}]},"request":{"method":"PUT","url":"Practitioner/732a45f5-011b-4733-bc97-d739c6b751fc"}},{"fullUrl":"Procedure/b4549799-8598-47ca-866f-7680855cccc6","resource":{"resourceType":"Procedure","id":"b4549799-8598-47ca-866f-7680855cccc6","meta":{"profile":["http://hl7.org/fhir/us/qicore/StructureDefinition/qicore-procedure"]},"extension":[{"url":"http://hl7.org/fhir/us/qicore/StructureDefinition/qicore-recorded","valueDateTime":"2013-12-08T13:35:00.000+00:00"}],"status":"completed","code":{"coding":[{"system":"http://snomed.info/sct","code":"18946005"}]},"subject":{"reference":"Patient/88c18b5b-b5af-45a1-91c4-8b585bf6e86a"},"performedPeriod":{"start":"2026-12-07T10:00:00.000+00:00","end":"2026-12-07T10:30:00.000+00:00"}},"request":{"method":"PUT","url":"Procedure/b4549799-8598-47ca-866f-7680855cccc6"}},{"fullUrl":"Organization/6e3fdb41-8a04-46cc-b6a2-ef723930bb68","resource":{"resourceType":"Organization","id":"6e3fdb41-8a04-46cc-b6a2-ef723930bb68","meta":{"profile":["http://hl7.org/fhir/us/qicore/StructureDefinition/qicore-organization"]},"identifier":[{"use":"temp","system":"urn:oid:2.16.840.1.113883.4.4","value":"21-3259825"}],"active":true,"type":[{"coding":[{"system":"http://terminology.hl7.org/CodeSystem/organization-type","code":"pay","display":"Payer"}]}],"name":"Blue Cross Blue Shield of Texas","telecom":[{"system":"phone","value":"(+1) 972-766-6900"}],"address":[{"use":"billing","type":"postal","line":["P.O. Box 660044"],"city":"Dallas","state":"TX","postalCode":"75266-0044","country":"USA"}]},"request":{"method":"PUT","url":"Organization/6e3fdb41-8a04-46cc-b6a2-ef723930bb68"}},{"fullUrl":"Encounter/0af223fc-2fc3-4ad2-915e-60a4eae05f7d","resource":{"resourceType":"Encounter","id":"0af223fc-2fc3-4ad2-915e-60a4eae05f7d","meta":{"profile":["http://hl7.org/fhir/us/qicore/StructureDefinition/qicore-encounter"]},"status":"finished","class":{"system":"http://terminology.hl7.org/CodeSystem/v3-ActCode","code":"IMP","display":"inpatient encounter"},"type":[{"coding":[{"system":"http://snomed.info/sct","code":"8715000"}]}],"subject":{"reference":"Patient/88c18b5b-b5af-45a1-91c4-8b585bf6e86a"},"period":{"start":"2026-12-04T08:00:00.000+00:00","end":"2026-12-30T08:15:00.000+00:00"},"length":{"value":26,"unit":"days"},"location":[{"location":{"reference":"Location/eeb92456-1353-42f1-8ef7-e1d20f8c8d3f"},"period":{"start":"2026-12-06T09:00:00.000+00:00","end":"2026-12-12T08:15:00.000+00:00"}}]},"request":{"method":"PUT","url":"Encounter/0af223fc-2fc3-4ad2-915e-60a4eae05f7d"}},{"fullUrl":"Patient/88c18b5b-b5af-45a1-91c4-8b585bf6e86a","resource":{"resourceType":"Patient","id":"88c18b5b-b5af-45a1-91c4-8b585bf6e86a","meta":{"profile":["http://hl7.org/fhir/us/qicore/StructureDefinition/qicore-patient"]},"text":{"status":"generated","div":"<div xmlns=\"http://www.w3.org/1999/xhtml\"><div class=\"hapiHeaderText\">INREQ3DayAfterAnes <b>NUMERFAIL </b></div><table class=\"hapiPropertyTable\"><tbody><tr><td>Identifier</td><td>945bb3b161067acb3bc9e908f6fb2325</td></tr><tr><td>Date of birth</td><td><span>03 March 1974</span></td></tr></tbody></table></div>"},"extension":[{"url":"http://hl7.org/fhir/us/core/StructureDefinition/us-core-race","extension":[{"url":"ombCategory","valueCoding":{"system":"urn:oid:2.16.840.1.113883.6.238","code":"1002-5","display":"American Indian or Alaska Native","userSelected":true}},{"url":"text","valueString":"American Indian or Alaska Native"}]},{"url":"http://hl7.org/fhir/us/core/StructureDefinition/us-core-ethnicity","extension":[{"url":"ombCategory","valueCoding":{"system":"urn:oid:2.16.840.1.113883.6.238","code":"2135-2","display":"Hispanic or Latino","userSelected":true}},{"url":"text","valueString":"Hispanic or Latino"}]}],"identifier":[{"type":{"coding":[{"system":"http://terminology.hl7.org/CodeSystem/v2-0203","code":"MR"}]},"system":"https://bonnie-fhir.healthit.gov/","value":"612e6eed02c62a011f2f0109"}],"active":true,"name":[{"use":"usual","family":"NUMERFail","given":["INREQ3DayAfterAnes"]}],"gender":"female","birthDate":"1975-03-03"},"request":{"method":"PUT","url":"Patient/88c18b5b-b5af-45a1-91c4-8b585bf6e86a"}}]}