{"resourceType":"Bundle","id":"tests-88086c39-a440-43ae-b015-f399190c9589-bundle","type":"transaction","entry":[{"fullUrl":"MeasureReport/744f4f27-2d9d-49e3-a56e-1fbc1f1b2cbd","resource":{"resourceType":"MeasureReport","id":"744f4f27-2d9d-49e3-a56e-1fbc1f1b2cbd","meta":{"profile":["http://hl7.org/fhir/us/cqfmeasures/StructureDefinition/test-case-cqfm"]},"contained":[{"resourceType":"Parameters","id":"100105ab-f52a-40c6-9059-d0f16dd7890c-parameters","parameter":[{"name":"subject","valueString":"88086c39-a440-43ae-b015-f399190c9589"}]}],"extension":[{"url":"http://hl7.org/fhir/StructureDefinition/cqf-inputParameters","valueReference":{"reference":"#100105ab-f52a-40c6-9059-d0f16dd7890c-parameters"}},{"url":"http://hl7.org/fhir/us/cqfmeasures/StructureDefinition/cqfm-testCaseDescription","valueMarkdown":"meets IPP, meets Denominator, Warfarin order not requested patient Refusal - during ED\n"}],"modifierExtension":[{"url":"http://hl7.org/fhir/us/cqfmeasures/StructureDefinition/cqfm-isTestCase","valueBoolean":true}],"status":"complete","type":"individual","measure":"https://madie.cms.gov/Measure/CMS190VTEProphylaxisICUFHIR","period":{"start":"2026-01-01","end":"2026-12-31"},"group":[{"id":"Group_1","population":[{"id":"InitialPopulation_1","code":{"coding":[{"system":"http://terminology.hl7.org/CodeSystem/measure-population","code":"initial-population","display":"Initial Population"}]},"count":1},{"id":"Denominator_1","code":{"coding":[{"system":"http://terminology.hl7.org/CodeSystem/measure-population","code":"denominator","display":"Denominator"}]},"count":1},{"id":"DenominatorExclusion_1","code":{"coding":[{"system":"http://terminology.hl7.org/CodeSystem/measure-population","code":"denominator-exclusion","display":"Denominator Exclusion"}]},"count":0},{"id":"Numerator_1","code":{"coding":[{"system":"http://terminology.hl7.org/CodeSystem/measure-population","code":"numerator","display":"Numerator"}]},"count":1},{"id":"DenominatorException_1","code":{"coding":[{"system":"http://terminology.hl7.org/CodeSystem/measure-population","code":"denominator-exception","display":"Denominator Exception"}]},"count":0}],"measureScore":{"value":0.0}}],"evaluatedResource":[{"reference":"Patient/88086c39-a440-43ae-b015-f399190c9589"},{"reference":"Encounter/881d11b5-a6b5-493a-8265-a769240ea376"},{"reference":"Encounter/157e013f-4457-451c-b6f7-a18b5e121d32"},{"reference":"Coverage/f7a98da0-27ef-4d03-9574-e64f0746078c"},{"reference":"MedicationRequest/08a3f77a-92e1-4fe9-b3a5-2f590390608e"},{"reference":"Location/dde09d26-b8df-4664-ade6-ebb8f7768991"},{"reference":"Organization/b457ebff-c2c3-468a-a1b4-a957d7a3e536"},{"reference":"Practitioner/3c13cae5-6673-4d5f-954b-760c84c84934"}]},"request":{"method":"PUT","url":"MeasureReport/744f4f27-2d9d-49e3-a56e-1fbc1f1b2cbd"}},{"fullUrl":"Bundle/612e6b5002c62a011f2ed433","resource":{"resourceType":"Bundle","id":"612e6b5002c62a011f2ed433","type":"transaction","entry":[{"fullUrl":"https://madie.cms.gov/Patient/88086c39-a440-43ae-b015-f399190c9589","resource":{"resourceType":"Patient","id":"88086c39-a440-43ae-b015-f399190c9589","meta":{"profile":["http://hl7.org/fhir/us/qicore/StructureDefinition/qicore-patient"]},"text":{"status":"generated","div":"<div xmlns=\"http://www.w3.org/1999/xhtml\"><div class=\"hapiHeaderText\">PtRefMOWarfEDendTimeEQEncStartTime <b>NUMERPASS </b></div><table class=\"hapiPropertyTable\"><tbody><tr><td>Identifier</td><td>35e854fe06e36e7e02449812c3316da3</td></tr><tr><td>Date of birth</td><td><span>02 January 1974</span></td></tr></tbody></table></div>"},"extension":[{"url":"http://hl7.org/fhir/us/core/StructureDefinition/us-core-race","extension":[{"url":"ombCategory","valueCoding":{"system":"urn:oid:2.16.840.1.113883.6.238","code":"1002-5","display":"American Indian or Alaska Native","userSelected":true}},{"url":"text","valueString":"American Indian or Alaska Native"}]},{"url":"http://hl7.org/fhir/us/core/StructureDefinition/us-core-ethnicity","extension":[{"url":"ombCategory","valueCoding":{"system":"urn:oid:2.16.840.1.113883.6.238","code":"2135-2","display":"Hispanic or Latino","userSelected":true}},{"url":"text","valueString":"Hispanic or Latino"}]}],"identifier":[{"type":{"coding":[{"system":"http://terminology.hl7.org/CodeSystem/v2-0203","code":"MR"}]},"system":"https://bonnie-fhir.healthit.gov/","value":"612e6b5002c62a011f2ed433"}],"active":true,"name":[{"use":"usual","family":"NUMERPass","given":["PtRefMOWarfEDendTimeEQEncStartTime"]}],"gender":"male","birthDate":"1975-01-02"},"request":{"method":"PUT","url":"Patient/88086c39-a440-43ae-b015-f399190c9589"}},{"fullUrl":"https://madie.cms.gov/Encounter/881d11b5-a6b5-493a-8265-a769240ea376","resource":{"resourceType":"Encounter","id":"881d11b5-a6b5-493a-8265-a769240ea376","meta":{"profile":["http://hl7.org/fhir/us/qicore/StructureDefinition/qicore-encounter"]},"status":"finished","class":{"system":"http://terminology.hl7.org/CodeSystem/v3-ActCode","code":"EMER","display":"emergency"},"type":[{"coding":[{"system":"http://snomed.info/sct","code":"4525004"}]}],"subject":{"reference":"Patient/88086c39-a440-43ae-b015-f399190c9589"},"period":{"start":"2026-10-31T05:00:00.000+00:00","end":"2026-11-01T08:00:00.000+00:00"},"length":{"value":1,"unit":"days"}},"request":{"method":"PUT","url":"Encounter/881d11b5-a6b5-493a-8265-a769240ea376"}},{"fullUrl":"https://madie.cms.gov/Encounter/157e013f-4457-451c-b6f7-a18b5e121d32","resource":{"resourceType":"Encounter","id":"157e013f-4457-451c-b6f7-a18b5e121d32","meta":{"profile":["http://hl7.org/fhir/us/qicore/StructureDefinition/qicore-encounter"]},"status":"finished","class":{"system":"http://terminology.hl7.org/CodeSystem/v3-ActCode","code":"IMP","display":"inpatient encounter"},"type":[{"coding":[{"system":"http://snomed.info/sct","code":"8715000"}]}],"subject":{"reference":"Patient/88086c39-a440-43ae-b015-f399190c9589"},"period":{"start":"2026-11-01T08:00:00.000+00:00","end":"2026-11-26T08:15:00.000+00:00"},"length":{"value":25,"unit":"days"},"location":[{"location":{"reference":"Location/dde09d26-b8df-4664-ade6-ebb8f7768991"},"period":{"start":"2026-11-04T09:00:00.000+00:00","end":"2026-11-06T08:15:00.000+00:00"}}]},"request":{"method":"PUT","url":"Encounter/157e013f-4457-451c-b6f7-a18b5e121d32"}},{"fullUrl":"https://madie.cms.gov/Coverage/f7a98da0-27ef-4d03-9574-e64f0746078c","resource":{"resourceType":"Coverage","id":"f7a98da0-27ef-4d03-9574-e64f0746078c","status":"active","beneficiary":{"reference":"Patient/88086c39-a440-43ae-b015-f399190c9589"},"period":{"start":"1975-01-02T08:00:00.000+00:00"},"payor":[{"reference":"Organization/b457ebff-c2c3-468a-a1b4-a957d7a3e536"}]},"request":{"method":"PUT","url":"Coverage/f7a98da0-27ef-4d03-9574-e64f0746078c"}},{"fullUrl":"https://madie.cms.gov/MedicationRequest/08a3f77a-92e1-4fe9-b3a5-2f590390608e","resource":{"resourceType":"MedicationRequest","id":"08a3f77a-92e1-4fe9-b3a5-2f590390608e","meta":{"profile":["http://hl7.org/fhir/us/qicore/StructureDefinition/qicore-medicationnotrequested"]},"status":"completed","intent":"order","category":[{"coding":[{"system":"http://terminology.hl7.org/CodeSystem/medicationrequest-category","code":"community"}]}],"doNotPerform":true,"medicationCodeableConcept":{"coding":[{"system":"http://www.nlm.nih.gov/research/umls/rxnorm","code":"855288"}]},"subject":{"reference":"Patient/88086c39-a440-43ae-b015-f399190c9589"},"authoredOn":"2026-11-01T07:00:00.000+00:00","requester":{"reference":"Practitioner/123456"},"reasonCode":[{"coding":[{"system":"http://snomed.info/sct","code":"443390004","display":"Refusal of treatment by patient (situation)","userSelected":true}]}]},"request":{"method":"PUT","url":"MedicationRequest/08a3f77a-92e1-4fe9-b3a5-2f590390608e"}},{"fullUrl":"https://madie.cms.gov/Location/dde09d26-b8df-4664-ade6-ebb8f7768991","resource":{"resourceType":"Location","id":"dde09d26-b8df-4664-ade6-ebb8f7768991","meta":{"profile":["http://hl7.org/fhir/us/qicore/StructureDefinition/qicore-location"]},"identifier":[{"use":"usual","system":"http://exampleoflocation.com","value":"B1-S.F2"}],"name":"Medical Surgical East, first floor","type":[{"coding":[{"system":"https://www.cdc.gov/nhsn/cdaportal/terminology/codesystem/hsloc.html","code":"1025-6","display":"Trauma Critical Care","userSelected":true}]}]},"request":{"method":"PUT","url":"Location/dde09d26-b8df-4664-ade6-ebb8f7768991"}},{"fullUrl":"https://madie.cms.gov/Organization/b457ebff-c2c3-468a-a1b4-a957d7a3e536","resource":{"resourceType":"Organization","id":"b457ebff-c2c3-468a-a1b4-a957d7a3e536","meta":{"profile":["http://hl7.org/fhir/us/qicore/StructureDefinition/qicore-organization"]},"identifier":[{"use":"temp","system":"urn:oid:2.16.840.1.113883.4.4","value":"21-3259825"}],"active":true,"type":[{"coding":[{"system":"http://terminology.hl7.org/CodeSystem/organization-type","code":"pay","display":"Payer"}]}],"name":"Blue Cross Blue Shield of Texas","telecom":[{"system":"phone","value":"(+1) 972-766-6900"}],"address":[{"use":"billing","type":"postal","line":["P.O. Box 660044"],"city":"Dallas","state":"TX","postalCode":"75266-0044","country":"USA"}]},"request":{"method":"PUT","url":"Organization/b457ebff-c2c3-468a-a1b4-a957d7a3e536"}},{"fullUrl":"https://madie.cms.gov/Practitioner/3c13cae5-6673-4d5f-954b-760c84c84934","resource":{"resourceType":"Practitioner","id":"3c13cae5-6673-4d5f-954b-760c84c84934","identifier":[{"system":"http://hl7.org/fhir/sid/us-npi","value":"123456"}],"name":[{"family":"Evil","prefix":["Dr"]}]},"request":{"method":"PUT","url":"Practitioner/3c13cae5-6673-4d5f-954b-760c84c84934"}},{"fullUrl":"https://madie.cms.gov/MeasureReport/744f4f27-2d9d-49e3-a56e-1fbc1f1b2cbd","resource":{"resourceType":"MeasureReport","id":"744f4f27-2d9d-49e3-a56e-1fbc1f1b2cbd","meta":{"profile":["http://hl7.org/fhir/us/cqfmeasures/StructureDefinition/test-case-cqfm"]},"contained":[{"resourceType":"Parameters","id":"100105ab-f52a-40c6-9059-d0f16dd7890c-parameters","parameter":[{"name":"subject","valueString":"88086c39-a440-43ae-b015-f399190c9589"}]}],"extension":[{"url":"http://hl7.org/fhir/StructureDefinition/cqf-inputParameters","valueReference":{"reference":"#100105ab-f52a-40c6-9059-d0f16dd7890c-parameters"}},{"url":"http://hl7.org/fhir/us/cqfmeasures/StructureDefinition/cqfm-testCaseDescription","valueMarkdown":"meets IPP, meets Denominator, Warfarin order not requested patient Refusal - during ED\n"}],"modifierExtension":[{"url":"http://hl7.org/fhir/us/cqfmeasures/StructureDefinition/cqfm-isTestCase","valueBoolean":true}],"status":"complete","type":"individual","measure":"https://madie.cms.gov/Measure/CMS190VTEProphylaxisICUFHIR","period":{"start":"2026-01-01","end":"2026-12-31"},"group":[{"id":"Group_1","population":[{"id":"InitialPopulation_1","code":{"coding":[{"system":"http://terminology.hl7.org/CodeSystem/measure-population","code":"initial-population","display":"Initial Population"}]},"count":1},{"id":"Denominator_1","code":{"coding":[{"system":"http://terminology.hl7.org/CodeSystem/measure-population","code":"denominator","display":"Denominator"}]},"count":1},{"id":"DenominatorExclusion_1","code":{"coding":[{"system":"http://terminology.hl7.org/CodeSystem/measure-population","code":"denominator-exclusion","display":"Denominator Exclusion"}]},"count":0},{"id":"Numerator_1","code":{"coding":[{"system":"http://terminology.hl7.org/CodeSystem/measure-population","code":"numerator","display":"Numerator"}]},"count":1},{"id":"DenominatorException_1","code":{"coding":[{"system":"http://terminology.hl7.org/CodeSystem/measure-population","code":"denominator-exception","display":"Denominator Exception"}]},"count":0}],"measureScore":{"value":0.0}}],"evaluatedResource":[{"reference":"Patient/88086c39-a440-43ae-b015-f399190c9589"},{"reference":"Encounter/881d11b5-a6b5-493a-8265-a769240ea376"},{"reference":"Encounter/157e013f-4457-451c-b6f7-a18b5e121d32"},{"reference":"Coverage/f7a98da0-27ef-4d03-9574-e64f0746078c"},{"reference":"MedicationRequest/08a3f77a-92e1-4fe9-b3a5-2f590390608e"},{"reference":"Location/dde09d26-b8df-4664-ade6-ebb8f7768991"},{"reference":"Organization/b457ebff-c2c3-468a-a1b4-a957d7a3e536"},{"reference":"Practitioner/3c13cae5-6673-4d5f-954b-760c84c84934"}]},"request":{"method":"PUT","url":"MeasureReport/744f4f27-2d9d-49e3-a56e-1fbc1f1b2cbd"}}]},"request":{"method":"PUT","url":"Bundle/612e6b5002c62a011f2ed433"}},{"fullUrl":"MedicationRequest/08a3f77a-92e1-4fe9-b3a5-2f590390608e","resource":{"resourceType":"MedicationRequest","id":"08a3f77a-92e1-4fe9-b3a5-2f590390608e","meta":{"profile":["http://hl7.org/fhir/us/qicore/StructureDefinition/qicore-medicationnotrequested"]},"status":"completed","intent":"order","category":[{"coding":[{"system":"http://terminology.hl7.org/CodeSystem/medicationrequest-category","code":"community"}]}],"doNotPerform":true,"medicationCodeableConcept":{"coding":[{"system":"http://www.nlm.nih.gov/research/umls/rxnorm","code":"855288"}]},"subject":{"reference":"Patient/88086c39-a440-43ae-b015-f399190c9589"},"authoredOn":"2026-11-01T07:00:00.000+00:00","requester":{"reference":"Practitioner/123456"},"reasonCode":[{"coding":[{"system":"http://snomed.info/sct","code":"443390004","display":"Refusal of treatment by patient (situation)","userSelected":true}]}]},"request":{"method":"PUT","url":"MedicationRequest/08a3f77a-92e1-4fe9-b3a5-2f590390608e"}},{"fullUrl":"Encounter/157e013f-4457-451c-b6f7-a18b5e121d32","resource":{"resourceType":"Encounter","id":"157e013f-4457-451c-b6f7-a18b5e121d32","meta":{"profile":["http://hl7.org/fhir/us/qicore/StructureDefinition/qicore-encounter"]},"status":"finished","class":{"system":"http://terminology.hl7.org/CodeSystem/v3-ActCode","code":"IMP","display":"inpatient encounter"},"type":[{"coding":[{"system":"http://snomed.info/sct","code":"8715000"}]}],"subject":{"reference":"Patient/88086c39-a440-43ae-b015-f399190c9589"},"period":{"start":"2026-11-01T08:00:00.000+00:00","end":"2026-11-26T08:15:00.000+00:00"},"length":{"value":25,"unit":"days"},"location":[{"location":{"reference":"Location/dde09d26-b8df-4664-ade6-ebb8f7768991"},"period":{"start":"2026-11-04T09:00:00.000+00:00","end":"2026-11-06T08:15:00.000+00:00"}}]},"request":{"method":"PUT","url":"Encounter/157e013f-4457-451c-b6f7-a18b5e121d32"}},{"fullUrl":"Encounter/881d11b5-a6b5-493a-8265-a769240ea376","resource":{"resourceType":"Encounter","id":"881d11b5-a6b5-493a-8265-a769240ea376","meta":{"profile":["http://hl7.org/fhir/us/qicore/StructureDefinition/qicore-encounter"]},"status":"finished","class":{"system":"http://terminology.hl7.org/CodeSystem/v3-ActCode","code":"EMER","display":"emergency"},"type":[{"coding":[{"system":"http://snomed.info/sct","code":"4525004"}]}],"subject":{"reference":"Patient/88086c39-a440-43ae-b015-f399190c9589"},"period":{"start":"2026-10-31T05:00:00.000+00:00","end":"2026-11-01T08:00:00.000+00:00"},"length":{"value":1,"unit":"days"}},"request":{"method":"PUT","url":"Encounter/881d11b5-a6b5-493a-8265-a769240ea376"}},{"fullUrl":"Organization/b457ebff-c2c3-468a-a1b4-a957d7a3e536","resource":{"resourceType":"Organization","id":"b457ebff-c2c3-468a-a1b4-a957d7a3e536","meta":{"profile":["http://hl7.org/fhir/us/qicore/StructureDefinition/qicore-organization"]},"identifier":[{"use":"temp","system":"urn:oid:2.16.840.1.113883.4.4","value":"21-3259825"}],"active":true,"type":[{"coding":[{"system":"http://terminology.hl7.org/CodeSystem/organization-type","code":"pay","display":"Payer"}]}],"name":"Blue Cross Blue Shield of Texas","telecom":[{"system":"phone","value":"(+1) 972-766-6900"}],"address":[{"use":"billing","type":"postal","line":["P.O. Box 660044"],"city":"Dallas","state":"TX","postalCode":"75266-0044","country":"USA"}]},"request":{"method":"PUT","url":"Organization/b457ebff-c2c3-468a-a1b4-a957d7a3e536"}},{"fullUrl":"Location/dde09d26-b8df-4664-ade6-ebb8f7768991","resource":{"resourceType":"Location","id":"dde09d26-b8df-4664-ade6-ebb8f7768991","meta":{"profile":["http://hl7.org/fhir/us/qicore/StructureDefinition/qicore-location"]},"identifier":[{"use":"usual","system":"http://exampleoflocation.com","value":"B1-S.F2"}],"name":"Medical Surgical East, first floor","type":[{"coding":[{"system":"https://www.cdc.gov/nhsn/cdaportal/terminology/codesystem/hsloc.html","code":"1025-6","display":"Trauma Critical Care","userSelected":true}]}]},"request":{"method":"PUT","url":"Location/dde09d26-b8df-4664-ade6-ebb8f7768991"}},{"fullUrl":"Practitioner/3c13cae5-6673-4d5f-954b-760c84c84934","resource":{"resourceType":"Practitioner","id":"3c13cae5-6673-4d5f-954b-760c84c84934","identifier":[{"system":"http://hl7.org/fhir/sid/us-npi","value":"123456"}],"name":[{"family":"Evil","prefix":["Dr"]}]},"request":{"method":"PUT","url":"Practitioner/3c13cae5-6673-4d5f-954b-760c84c84934"}},{"fullUrl":"Coverage/f7a98da0-27ef-4d03-9574-e64f0746078c","resource":{"resourceType":"Coverage","id":"f7a98da0-27ef-4d03-9574-e64f0746078c","status":"active","beneficiary":{"reference":"Patient/88086c39-a440-43ae-b015-f399190c9589"},"period":{"start":"1975-01-02T08:00:00.000+00:00"},"payor":[{"reference":"Organization/b457ebff-c2c3-468a-a1b4-a957d7a3e536"}]},"request":{"method":"PUT","url":"Coverage/f7a98da0-27ef-4d03-9574-e64f0746078c"}},{"fullUrl":"Patient/88086c39-a440-43ae-b015-f399190c9589","resource":{"resourceType":"Patient","id":"88086c39-a440-43ae-b015-f399190c9589","meta":{"profile":["http://hl7.org/fhir/us/qicore/StructureDefinition/qicore-patient"]},"text":{"status":"generated","div":"<div xmlns=\"http://www.w3.org/1999/xhtml\"><div class=\"hapiHeaderText\">PtRefMOWarfEDendTimeEQEncStartTime <b>NUMERPASS </b></div><table class=\"hapiPropertyTable\"><tbody><tr><td>Identifier</td><td>35e854fe06e36e7e02449812c3316da3</td></tr><tr><td>Date of birth</td><td><span>02 January 1974</span></td></tr></tbody></table></div>"},"extension":[{"url":"http://hl7.org/fhir/us/core/StructureDefinition/us-core-race","extension":[{"url":"ombCategory","valueCoding":{"system":"urn:oid:2.16.840.1.113883.6.238","code":"1002-5","display":"American Indian or Alaska Native","userSelected":true}},{"url":"text","valueString":"American Indian or Alaska Native"}]},{"url":"http://hl7.org/fhir/us/core/StructureDefinition/us-core-ethnicity","extension":[{"url":"ombCategory","valueCoding":{"system":"urn:oid:2.16.840.1.113883.6.238","code":"2135-2","display":"Hispanic or Latino","userSelected":true}},{"url":"text","valueString":"Hispanic or Latino"}]}],"identifier":[{"type":{"coding":[{"system":"http://terminology.hl7.org/CodeSystem/v2-0203","code":"MR"}]},"system":"https://bonnie-fhir.healthit.gov/","value":"612e6b5002c62a011f2ed433"}],"active":true,"name":[{"use":"usual","family":"NUMERPass","given":["PtRefMOWarfEDendTimeEQEncStartTime"]}],"gender":"male","birthDate":"1975-01-02"},"request":{"method":"PUT","url":"Patient/88086c39-a440-43ae-b015-f399190c9589"}}]}