{"resourceType":"Bundle","id":"tests-7c2abf9a-4d88-48a4-b962-b20c4b470842-bundle","type":"transaction","entry":[{"fullUrl":"Organization/98d72c67-7672-43ef-9706-9423a3d4f8d3","resource":{"resourceType":"Organization","id":"98d72c67-7672-43ef-9706-9423a3d4f8d3","meta":{"profile":["http://hl7.org/fhir/us/qicore/StructureDefinition/qicore-organization"]},"identifier":[{"use":"temp","system":"urn:oid:2.16.840.1.113883.4.4","value":"21-3259825"}],"active":true,"type":[{"coding":[{"system":"http://terminology.hl7.org/CodeSystem/organization-type","code":"pay","display":"Payer"}]}],"name":"Blue Cross Blue Shield of Texas","telecom":[{"system":"phone","value":"(+1) 972-766-6900"}],"address":[{"use":"billing","type":"postal","line":["P.O. Box 660044"],"city":"Dallas","state":"TX","postalCode":"75266-0044","country":"USA"}]},"request":{"method":"PUT","url":"Organization/98d72c67-7672-43ef-9706-9423a3d4f8d3"}},{"fullUrl":"MeasureReport/256599ca-f6e0-45ed-99c4-7f11ea9f2e65","resource":{"resourceType":"MeasureReport","id":"256599ca-f6e0-45ed-99c4-7f11ea9f2e65","meta":{"profile":["http://hl7.org/fhir/us/cqfmeasures/StructureDefinition/test-case-cqfm"]},"contained":[{"resourceType":"Parameters","id":"b2c22341-294c-4e69-bb4a-0234dc6b6288-parameters","parameter":[{"name":"subject","valueString":"7c2abf9a-4d88-48a4-b962-b20c4b470842"}]}],"extension":[{"url":"http://hl7.org/fhir/StructureDefinition/cqf-inputParameters","valueReference":{"reference":"#b2c22341-294c-4e69-bb4a-0234dc6b6288-parameters"}},{"url":"http://hl7.org/fhir/us/cqfmeasures/StructureDefinition/cqfm-testCaseDescription","valueMarkdown":"inpatient visit starts >1 hour after the end of ED visit(Global Hosp with Ed, Ed cross midnight) AND Comfort Measures are performed 1 min before ED. This case failed DENExcl because CMO is on ED day1 and ED is NOT qualified\n"}],"modifierExtension":[{"url":"http://hl7.org/fhir/us/cqfmeasures/StructureDefinition/cqfm-isTestCase","valueBoolean":true}],"status":"complete","type":"individual","measure":"https://madie.cms.gov/Measure/CMS190VTEProphylaxisICUFHIR","period":{"start":"2026-01-01","end":"2026-12-31"},"group":[{"id":"Group_1","population":[{"id":"InitialPopulation_1","code":{"coding":[{"system":"http://terminology.hl7.org/CodeSystem/measure-population","code":"initial-population","display":"Initial Population"}]},"count":1},{"id":"Denominator_1","code":{"coding":[{"system":"http://terminology.hl7.org/CodeSystem/measure-population","code":"denominator","display":"Denominator"}]},"count":1},{"id":"DenominatorExclusion_1","code":{"coding":[{"system":"http://terminology.hl7.org/CodeSystem/measure-population","code":"denominator-exclusion","display":"Denominator Exclusion"}]},"count":0},{"id":"Numerator_1","code":{"coding":[{"system":"http://terminology.hl7.org/CodeSystem/measure-population","code":"numerator","display":"Numerator"}]},"count":0},{"id":"DenominatorException_1","code":{"coding":[{"system":"http://terminology.hl7.org/CodeSystem/measure-population","code":"denominator-exception","display":"Denominator Exception"}]},"count":0}],"measureScore":{"value":0.0}}],"evaluatedResource":[{"reference":"Patient/7c2abf9a-4d88-48a4-b962-b20c4b470842"},{"reference":"Encounter/05503774-ac07-4417-b377-b15c2eeace45"},{"reference":"Encounter/36db3866-21d7-4564-979e-161de7497784"},{"reference":"Procedure/685b4f72-a621-4050-a4cc-6fa699a25a2f"},{"reference":"Coverage/12eab8aa-30cc-4ee0-8b3b-1db132d90b5c"},{"reference":"Location/1301e7fb-ba23-4a3b-9750-0a75e5e1174d"},{"reference":"Organization/98d72c67-7672-43ef-9706-9423a3d4f8d3"},{"reference":"Practitioner/ef6024f3-9dd7-479f-87f0-8209d46c587c"}]},"request":{"method":"PUT","url":"MeasureReport/256599ca-f6e0-45ed-99c4-7f11ea9f2e65"}},{"fullUrl":"Procedure/685b4f72-a621-4050-a4cc-6fa699a25a2f","resource":{"resourceType":"Procedure","id":"685b4f72-a621-4050-a4cc-6fa699a25a2f","meta":{"profile":["http://hl7.org/fhir/us/qicore/StructureDefinition/qicore-procedure"]},"extension":[{"url":"http://hl7.org/fhir/us/qicore/StructureDefinition/qicore-recorded","valueDateTime":"2013-12-04T13:35:00.000+00:00"}],"status":"completed","code":{"coding":[{"system":"http://snomed.info/sct","code":"133918004"}]},"subject":{"reference":"Patient/7c2abf9a-4d88-48a4-b962-b20c4b470842"},"performedPeriod":{"start":"2026-12-03T14:59:00.000+00:00"}},"request":{"method":"PUT","url":"Procedure/685b4f72-a621-4050-a4cc-6fa699a25a2f"}},{"fullUrl":"Patient/7c2abf9a-4d88-48a4-b962-b20c4b470842","resource":{"resourceType":"Patient","id":"7c2abf9a-4d88-48a4-b962-b20c4b470842","meta":{"profile":["http://hl7.org/fhir/us/qicore/StructureDefinition/qicore-patient"]},"text":{"status":"generated","div":"<div xmlns=\"http://www.w3.org/1999/xhtml\"><div class=\"hapiHeaderText\">CMOPerf1minB4EdED1DayBFAdmAndGT1hr <b>DENEXFAIL </b></div><table class=\"hapiPropertyTable\"><tbody><tr><td>Identifier</td><td>19362d12dad92b89d616cce95b9dd94b08155ace603af08b2c07f3c1a79b307f</td></tr><tr><td>Date of birth</td><td><span>01 October 1954</span></td></tr></tbody></table></div>"},"extension":[{"url":"http://hl7.org/fhir/us/core/StructureDefinition/us-core-race","extension":[{"url":"ombCategory","valueCoding":{"system":"urn:oid:2.16.840.1.113883.6.238","code":"1002-5","display":"American Indian or Alaska Native","userSelected":true}},{"url":"text","valueString":"American Indian or Alaska Native"}]},{"url":"http://hl7.org/fhir/us/core/StructureDefinition/us-core-ethnicity","extension":[{"url":"ombCategory","valueCoding":{"system":"urn:oid:2.16.840.1.113883.6.238","code":"2135-2","display":"Hispanic or Latino","userSelected":true}},{"url":"text","valueString":"Hispanic or Latino"}]}],"identifier":[{"type":{"coding":[{"system":"http://terminology.hl7.org/CodeSystem/v2-0203","code":"MR"}]},"system":"https://bonnie-fhir.healthit.gov/","value":"612e6f6702c62a011f2f1b06"}],"active":true,"name":[{"use":"usual","family":"DENEXFail","given":["CMOPerf1minB4EdED1DayBFAdmAndGT1hr"]}],"gender":"male","birthDate":"1955-10-01"},"request":{"method":"PUT","url":"Patient/7c2abf9a-4d88-48a4-b962-b20c4b470842"}},{"fullUrl":"Coverage/12eab8aa-30cc-4ee0-8b3b-1db132d90b5c","resource":{"resourceType":"Coverage","id":"12eab8aa-30cc-4ee0-8b3b-1db132d90b5c","status":"active","beneficiary":{"reference":"Patient/7c2abf9a-4d88-48a4-b962-b20c4b470842"},"period":{"start":"1975-03-03T08:00:00.000+00:00"},"payor":[{"reference":"Organization/98d72c67-7672-43ef-9706-9423a3d4f8d3"}]},"request":{"method":"PUT","url":"Coverage/12eab8aa-30cc-4ee0-8b3b-1db132d90b5c"}},{"fullUrl":"Practitioner/ef6024f3-9dd7-479f-87f0-8209d46c587c","resource":{"resourceType":"Practitioner","id":"ef6024f3-9dd7-479f-87f0-8209d46c587c","identifier":[{"system":"http://hl7.org/fhir/sid/us-npi","value":"123456"}],"name":[{"family":"Evil","prefix":["Dr"]}]},"request":{"method":"PUT","url":"Practitioner/ef6024f3-9dd7-479f-87f0-8209d46c587c"}},{"fullUrl":"Location/1301e7fb-ba23-4a3b-9750-0a75e5e1174d","resource":{"resourceType":"Location","id":"1301e7fb-ba23-4a3b-9750-0a75e5e1174d","meta":{"profile":["http://hl7.org/fhir/us/qicore/StructureDefinition/qicore-location"]},"identifier":[{"use":"usual","system":"http://exampleoflocation.com","value":"B1-S.F2"}],"name":"Medical Surgical East, first floor","type":[{"coding":[{"system":"https://www.cdc.gov/nhsn/cdaportal/terminology/codesystem/hsloc.html","code":"1025-6","display":"Trauma Critical Care","userSelected":true}]}]},"request":{"method":"PUT","url":"Location/1301e7fb-ba23-4a3b-9750-0a75e5e1174d"}},{"fullUrl":"Encounter/36db3866-21d7-4564-979e-161de7497784","resource":{"resourceType":"Encounter","id":"36db3866-21d7-4564-979e-161de7497784","meta":{"profile":["http://hl7.org/fhir/us/qicore/StructureDefinition/qicore-encounter"]},"status":"finished","class":{"system":"http://terminology.hl7.org/CodeSystem/v3-ActCode","code":"IMP","display":"inpatient encounter"},"type":[{"coding":[{"system":"http://snomed.info/sct","code":"8715000"}]}],"subject":{"reference":"Patient/7c2abf9a-4d88-48a4-b962-b20c4b470842"},"period":{"start":"2026-12-04T06:40:00.000+00:00","end":"2026-12-30T08:15:00.000+00:00"},"length":{"value":26.0,"unit":"days"},"location":[{"location":{"reference":"Location/1301e7fb-ba23-4a3b-9750-0a75e5e1174d"},"period":{"start":"2026-12-26T08:00:00.000+00:00","end":"2026-12-28T08:15:00.000+00:00"}}]},"request":{"method":"PUT","url":"Encounter/36db3866-21d7-4564-979e-161de7497784"}},{"fullUrl":"Encounter/05503774-ac07-4417-b377-b15c2eeace45","resource":{"resourceType":"Encounter","id":"05503774-ac07-4417-b377-b15c2eeace45","meta":{"profile":["http://hl7.org/fhir/us/qicore/StructureDefinition/qicore-encounter"]},"status":"finished","class":{"system":"http://terminology.hl7.org/CodeSystem/v3-ActCode","code":"EMER","display":"emergency"},"type":[{"coding":[{"system":"http://snomed.info/sct","code":"4525004"}]}],"subject":{"reference":"Patient/7c2abf9a-4d88-48a4-b962-b20c4b470842"},"period":{"start":"2026-12-03T15:00:00.000+00:00","end":"2026-12-04T02:00:00.000+00:00"},"length":{"value":1.0,"unit":"days"}},"request":{"method":"PUT","url":"Encounter/05503774-ac07-4417-b377-b15c2eeace45"}},{"fullUrl":"Bundle/612e6f6702c62a011f2f1b06","resource":{"resourceType":"Bundle","id":"612e6f6702c62a011f2f1b06","type":"transaction","entry":[{"fullUrl":"https://madie.cms.gov/Patient/7c2abf9a-4d88-48a4-b962-b20c4b470842","resource":{"resourceType":"Patient","id":"7c2abf9a-4d88-48a4-b962-b20c4b470842","meta":{"profile":["http://hl7.org/fhir/us/qicore/StructureDefinition/qicore-patient"]},"text":{"status":"generated","div":"<div xmlns=\"http://www.w3.org/1999/xhtml\"><div class=\"hapiHeaderText\">CMOPerf1minB4EdED1DayBFAdmAndGT1hr <b>DENEXFAIL </b></div><table class=\"hapiPropertyTable\"><tbody><tr><td>Identifier</td><td>19362d12dad92b89d616cce95b9dd94b08155ace603af08b2c07f3c1a79b307f</td></tr><tr><td>Date of birth</td><td><span>01 October 1954</span></td></tr></tbody></table></div>"},"extension":[{"url":"http://hl7.org/fhir/us/core/StructureDefinition/us-core-race","extension":[{"url":"ombCategory","valueCoding":{"system":"urn:oid:2.16.840.1.113883.6.238","code":"1002-5","display":"American Indian or Alaska Native","userSelected":true}},{"url":"text","valueString":"American Indian or Alaska Native"}]},{"url":"http://hl7.org/fhir/us/core/StructureDefinition/us-core-ethnicity","extension":[{"url":"ombCategory","valueCoding":{"system":"urn:oid:2.16.840.1.113883.6.238","code":"2135-2","display":"Hispanic or Latino","userSelected":true}},{"url":"text","valueString":"Hispanic or Latino"}]}],"identifier":[{"type":{"coding":[{"system":"http://terminology.hl7.org/CodeSystem/v2-0203","code":"MR"}]},"system":"https://bonnie-fhir.healthit.gov/","value":"612e6f6702c62a011f2f1b06"}],"active":true,"name":[{"use":"usual","family":"DENEXFail","given":["CMOPerf1minB4EdED1DayBFAdmAndGT1hr"]}],"gender":"male","birthDate":"1955-10-01"},"request":{"method":"PUT","url":"Patient/7c2abf9a-4d88-48a4-b962-b20c4b470842"}},{"fullUrl":"https://madie.cms.gov/Encounter/05503774-ac07-4417-b377-b15c2eeace45","resource":{"resourceType":"Encounter","id":"05503774-ac07-4417-b377-b15c2eeace45","meta":{"profile":["http://hl7.org/fhir/us/qicore/StructureDefinition/qicore-encounter"]},"status":"finished","class":{"system":"http://terminology.hl7.org/CodeSystem/v3-ActCode","code":"EMER","display":"emergency"},"type":[{"coding":[{"system":"http://snomed.info/sct","code":"4525004"}]}],"subject":{"reference":"Patient/7c2abf9a-4d88-48a4-b962-b20c4b470842"},"period":{"start":"2026-12-03T15:00:00.000+00:00","end":"2026-12-04T02:00:00.000+00:00"},"length":{"value":1.0,"unit":"days"}},"request":{"method":"PUT","url":"Encounter/05503774-ac07-4417-b377-b15c2eeace45"}},{"fullUrl":"https://madie.cms.gov/Encounter/36db3866-21d7-4564-979e-161de7497784","resource":{"resourceType":"Encounter","id":"36db3866-21d7-4564-979e-161de7497784","meta":{"profile":["http://hl7.org/fhir/us/qicore/StructureDefinition/qicore-encounter"]},"status":"finished","class":{"system":"http://terminology.hl7.org/CodeSystem/v3-ActCode","code":"IMP","display":"inpatient encounter"},"type":[{"coding":[{"system":"http://snomed.info/sct","code":"8715000"}]}],"subject":{"reference":"Patient/7c2abf9a-4d88-48a4-b962-b20c4b470842"},"period":{"start":"2026-12-04T06:40:00.000+00:00","end":"2026-12-30T08:15:00.000+00:00"},"length":{"value":26.0,"unit":"days"},"location":[{"location":{"reference":"Location/1301e7fb-ba23-4a3b-9750-0a75e5e1174d"},"period":{"start":"2026-12-26T08:00:00.000+00:00","end":"2026-12-28T08:15:00.000+00:00"}}]},"request":{"method":"PUT","url":"Encounter/36db3866-21d7-4564-979e-161de7497784"}},{"fullUrl":"https://madie.cms.gov/Procedure/685b4f72-a621-4050-a4cc-6fa699a25a2f","resource":{"resourceType":"Procedure","id":"685b4f72-a621-4050-a4cc-6fa699a25a2f","meta":{"profile":["http://hl7.org/fhir/us/qicore/StructureDefinition/qicore-procedure"]},"extension":[{"url":"http://hl7.org/fhir/us/qicore/StructureDefinition/qicore-recorded","valueDateTime":"2013-12-04T13:35:00.000+00:00"}],"status":"completed","code":{"coding":[{"system":"http://snomed.info/sct","code":"133918004"}]},"subject":{"reference":"Patient/7c2abf9a-4d88-48a4-b962-b20c4b470842"},"performedPeriod":{"start":"2026-12-03T14:59:00.000+00:00"}},"request":{"method":"PUT","url":"Procedure/685b4f72-a621-4050-a4cc-6fa699a25a2f"}},{"fullUrl":"https://madie.cms.gov/Coverage/12eab8aa-30cc-4ee0-8b3b-1db132d90b5c","resource":{"resourceType":"Coverage","id":"12eab8aa-30cc-4ee0-8b3b-1db132d90b5c","status":"active","beneficiary":{"reference":"Patient/7c2abf9a-4d88-48a4-b962-b20c4b470842"},"period":{"start":"1975-03-03T08:00:00.000+00:00"},"payor":[{"reference":"Organization/98d72c67-7672-43ef-9706-9423a3d4f8d3"}]},"request":{"method":"PUT","url":"Coverage/12eab8aa-30cc-4ee0-8b3b-1db132d90b5c"}},{"fullUrl":"https://madie.cms.gov/Location/1301e7fb-ba23-4a3b-9750-0a75e5e1174d","resource":{"resourceType":"Location","id":"1301e7fb-ba23-4a3b-9750-0a75e5e1174d","meta":{"profile":["http://hl7.org/fhir/us/qicore/StructureDefinition/qicore-location"]},"identifier":[{"use":"usual","system":"http://exampleoflocation.com","value":"B1-S.F2"}],"name":"Medical Surgical East, first floor","type":[{"coding":[{"system":"https://www.cdc.gov/nhsn/cdaportal/terminology/codesystem/hsloc.html","code":"1025-6","display":"Trauma Critical Care","userSelected":true}]}]},"request":{"method":"PUT","url":"Location/1301e7fb-ba23-4a3b-9750-0a75e5e1174d"}},{"fullUrl":"https://madie.cms.gov/Organization/98d72c67-7672-43ef-9706-9423a3d4f8d3","resource":{"resourceType":"Organization","id":"98d72c67-7672-43ef-9706-9423a3d4f8d3","meta":{"profile":["http://hl7.org/fhir/us/qicore/StructureDefinition/qicore-organization"]},"identifier":[{"use":"temp","system":"urn:oid:2.16.840.1.113883.4.4","value":"21-3259825"}],"active":true,"type":[{"coding":[{"system":"http://terminology.hl7.org/CodeSystem/organization-type","code":"pay","display":"Payer"}]}],"name":"Blue Cross Blue Shield of Texas","telecom":[{"system":"phone","value":"(+1) 972-766-6900"}],"address":[{"use":"billing","type":"postal","line":["P.O. Box 660044"],"city":"Dallas","state":"TX","postalCode":"75266-0044","country":"USA"}]},"request":{"method":"PUT","url":"Organization/98d72c67-7672-43ef-9706-9423a3d4f8d3"}},{"fullUrl":"https://madie.cms.gov/Practitioner/ef6024f3-9dd7-479f-87f0-8209d46c587c","resource":{"resourceType":"Practitioner","id":"ef6024f3-9dd7-479f-87f0-8209d46c587c","identifier":[{"system":"http://hl7.org/fhir/sid/us-npi","value":"123456"}],"name":[{"family":"Evil","prefix":["Dr"]}]},"request":{"method":"PUT","url":"Practitioner/ef6024f3-9dd7-479f-87f0-8209d46c587c"}},{"fullUrl":"https://madie.cms.gov/MeasureReport/256599ca-f6e0-45ed-99c4-7f11ea9f2e65","resource":{"resourceType":"MeasureReport","id":"256599ca-f6e0-45ed-99c4-7f11ea9f2e65","meta":{"profile":["http://hl7.org/fhir/us/cqfmeasures/StructureDefinition/test-case-cqfm"]},"contained":[{"resourceType":"Parameters","id":"b2c22341-294c-4e69-bb4a-0234dc6b6288-parameters","parameter":[{"name":"subject","valueString":"7c2abf9a-4d88-48a4-b962-b20c4b470842"}]}],"extension":[{"url":"http://hl7.org/fhir/StructureDefinition/cqf-inputParameters","valueReference":{"reference":"#b2c22341-294c-4e69-bb4a-0234dc6b6288-parameters"}},{"url":"http://hl7.org/fhir/us/cqfmeasures/StructureDefinition/cqfm-testCaseDescription","valueMarkdown":"inpatient visit starts >1 hour after the end of ED visit(Global Hosp with Ed, Ed cross midnight) AND Comfort Measures are performed 1 min before ED. This case failed DENExcl because CMO is on ED day1 and ED is NOT qualified\n"}],"modifierExtension":[{"url":"http://hl7.org/fhir/us/cqfmeasures/StructureDefinition/cqfm-isTestCase","valueBoolean":true}],"status":"complete","type":"individual","measure":"https://madie.cms.gov/Measure/CMS190VTEProphylaxisICUFHIR","period":{"start":"2026-01-01","end":"2026-12-31"},"group":[{"id":"Group_1","population":[{"id":"InitialPopulation_1","code":{"coding":[{"system":"http://terminology.hl7.org/CodeSystem/measure-population","code":"initial-population","display":"Initial Population"}]},"count":1},{"id":"Denominator_1","code":{"coding":[{"system":"http://terminology.hl7.org/CodeSystem/measure-population","code":"denominator","display":"Denominator"}]},"count":1},{"id":"DenominatorExclusion_1","code":{"coding":[{"system":"http://terminology.hl7.org/CodeSystem/measure-population","code":"denominator-exclusion","display":"Denominator Exclusion"}]},"count":0},{"id":"Numerator_1","code":{"coding":[{"system":"http://terminology.hl7.org/CodeSystem/measure-population","code":"numerator","display":"Numerator"}]},"count":0},{"id":"DenominatorException_1","code":{"coding":[{"system":"http://terminology.hl7.org/CodeSystem/measure-population","code":"denominator-exception","display":"Denominator Exception"}]},"count":0}],"measureScore":{"value":0.0}}],"evaluatedResource":[{"reference":"Patient/7c2abf9a-4d88-48a4-b962-b20c4b470842"},{"reference":"Encounter/05503774-ac07-4417-b377-b15c2eeace45"},{"reference":"Encounter/36db3866-21d7-4564-979e-161de7497784"},{"reference":"Procedure/685b4f72-a621-4050-a4cc-6fa699a25a2f"},{"reference":"Coverage/12eab8aa-30cc-4ee0-8b3b-1db132d90b5c"},{"reference":"Location/1301e7fb-ba23-4a3b-9750-0a75e5e1174d"},{"reference":"Organization/98d72c67-7672-43ef-9706-9423a3d4f8d3"},{"reference":"Practitioner/ef6024f3-9dd7-479f-87f0-8209d46c587c"}]},"request":{"method":"PUT","url":"MeasureReport/256599ca-f6e0-45ed-99c4-7f11ea9f2e65"}}]},"request":{"method":"PUT","url":"Bundle/612e6f6702c62a011f2f1b06"}}]}